sender,sender_type,sender_id,timestamp,meta,,Blues,Classical,Country,Dance,Electronic,Folk,Gospel,Hip-Hop,Jazz,Latin,Musical/Film,New-age,Pop,Provo_ID,R&B,Rap,Reggae,Religious,Rock,Soul,Swing,Traditional,age,artist_name,correct,correctResponse,distraction,duration,education,ended_on,familiarity,gender,item,list,music_frequency,offensiveness,pleasantness,preference,response,response_action,snippet_file,song_name,song_rating,sound,text,time_commit,time_end,time_render,time_run,time_show,time_switch,url,word,word_ID
Instructions,html.Page,0_0,2021-11-26T10:00:58.259Z,"{""labjs_version"":""20.2.3"",""labjs_build"":{""flavor"":""production"",""commit"":""7ea907d66ca8aeef8054924ca5d82ffbe11e34e5""},""location"":""https://run.pavlovia.org/mvasilev/lab_music_a/"",""userAgent"":""Mozilla/5.0 (Windows NT 6.1; Win64; x64) AppleWebKit/537.36 (KHTML, like Gecko) Chrome/96.0.4664.45 Safari/537.36"",""platform"":""Win32"",""language"":""en-US"",""locale"":""en-US"",""timeZone"":""Europe/London"",""timezoneOffset"":0,""screen_width"":1920,""screen_height"":1080,""scroll_width"":1920,""scroll_height"":959,""window_innerWidth"":1920,""window_innerHeight"":1007,""devicePixelRatio"":1}",,,,,,,,,,,,,,,,,,,,,,,,,,,,,31554.21,,form submission,,,,,,,,,,,,,,,,43069.30000000005,43068.5,11480.96,11494.09999999986,11514.29,43077.864,{},,
Headphones,html.Page,0_1,2021-11-26T10:01:01.027Z,,,,,,,,,,,,,,,,,,,,,,,,,,,,,,2758.735999999859,,form submission,,,,,,,,,,,,,,,,45837,45836.59999999986,43061.2,43069.80000000005,43077.864,45846.183,,,
Holding screen,html.Screen,0_2_0_0,2021-11-26T10:01:11.023Z,,,,,,,,,,,,,,,,,,,,,,,,,,,,,,10032.927000000003,,timeout,,,,,,,,,,,,,,,,55832.89999999991,55829.115,45829.518,45837.30000000005,45846.183,55879.11,,,
screen,html.Screen,0_2_0_1_0,2021-11-26T10:01:12.322Z,,,,,,,,,,,,,,,,53,,,,,,,,,,,,,,1251.4899999998597,,response,,,99,,,,,,Space,keypress(Space),,,,,When -- ----- -- ------ - ------- --- ----------<br>------------- ------ ------ ---- ---- ------- ----- -- ----<br>-------- ------- -- ---------- --- - --- ----- ----- ----<br>---- --- --- ----- --- ---- ---- ------- ----- ---- -------<br>--- --- -- ----- -- --- ---- -- --- ---- -- ------ ------<br>--- ----- -- ----,57131.69999999995,57130.59999999986,55829.115,55833.09999999986,55879.11,57145.697,,0,When
screen,html.Screen,0_2_0_1_1,2021-11-26T10:01:12.849Z,,,,,,,,,,,,,,,,53,,,,,,,,,,,,,,512.7029999999068,,response,,,99,,,,,,Space,keypress(Space),,,,,---- it ----- -- ------ - ------- --- ----------<br>------------- ------ ------ ---- ---- ------- ----- -- ----<br>-------- ------- -- ---------- --- - --- ----- ----- ----<br>---- --- --- ----- --- ---- ---- ------- ----- ---- -------<br>--- --- -- ----- -- --- ---- -- --- ---- -- ------ ------<br>--- ----- -- ----,57659.09999999986,57658.39999999991,57129.032,57131.89999999991,57145.697,57662.369,,1,it
screen,html.Screen,0_2_0_1_2,2021-11-26T10:01:13.481Z,,,,,,,,,,,,,,,,53,,,,,,,,,,,,,,627.9310000000478,,response,,,99,,,,,,Space,keypress(Space),,,,,---- -- comes -- ------ - ------- --- ----------<br>------------- ------ ------ ---- ---- ------- ----- -- ----<br>-------- ------- -- ---------- --- - --- ----- ----- ----<br>---- --- --- ----- --- ---- ---- ------- ----- ---- -------<br>--- --- -- ----- -- --- ---- -- --- ---- -- ------ ------<br>--- ----- -- ----,58290.89999999991,58290.30000000005,57645.704,57659.30000000005,57662.369,58295.702,,2,comes
screen,html.Screen,0_2_0_1_3,2021-11-26T10:01:13.993Z,,,,,,,,,,,,,,,,53,,,,,,,,,,,,,,506.49799999995594,,response,,,99,,,,,,Space,keypress(Space),,,,,---- -- ----- to ------ - ------- --- ----------<br>------------- ------ ------ ---- ---- ------- ----- -- ----<br>-------- ------- -- ---------- --- - --- ----- ----- ----<br>---- --- --- ----- --- ---- ---- ------- ----- ---- -------<br>--- --- -- ----- -- --- ---- -- --- ---- -- ------ ------<br>--- ----- -- ----,58802.89999999991,58802.19999999995,58279.037,58291.09999999986,58295.702,58812.337,,3,to
screen,html.Screen,0_2_0_1_4,2021-11-26T10:01:14.497Z,,,,,,,,,,,,,,,,53,,,,,,,,,,,,,,493.8629999999539,,response,,,99,,,,,,Space,keypress(Space),,,,,---- -- ----- -- having - ------- --- ----------<br>------------- ------ ------ ---- ---- ------- ----- -- ----<br>-------- ------- -- ---------- --- - --- ----- ----- ----<br>---- --- --- ----- --- ---- ---- ------- ----- ---- -------<br>--- --- -- ----- -- --- ---- -- --- ---- -- ------ ------<br>--- ----- -- ----,59307,59306.19999999995,58795.672,58803.30000000005,58812.337,59312.33,,4,having
screen,html.Screen,0_2_0_1_5,2021-11-26T10:01:15.033Z,,,,,,,,,,,,,,,,53,,,,,,,,,,,,,,529.8699999999517,,response,,,99,,,,,,Space,keypress(Space),,,,,---- -- ----- -- ------ a ------- --- ----------<br>------------- ------ ------ ---- ---- ------- ----- -- ----<br>-------- ------- -- ---------- --- - --- ----- ----- ----<br>---- --- --- ----- --- ---- ---- ------- ----- ---- -------<br>--- --- -- ----- -- --- ---- -- --- ---- -- ------ ------<br>--- ----- -- ----,59842.89999999991,59842.19999999995,59295.665,59307.30000000005,59312.33,59845.645,,5,a
screen,html.Screen,0_2_0_1_6,2021-11-26T10:01:16.028Z,,,,,,,,,,,,,,,,53,,,,,,,,,,,,,,988.6550000000498,,response,,,99,,,,,,Space,keypress(Space),,,,,---- -- ----- -- ------ - lasting --- ----------<br>------------- ------ ------ ---- ---- ------- ----- -- ----<br>-------- ------- -- ---------- --- - --- ----- ----- ----<br>---- --- --- ----- --- ---- ---- ------- ----- ---- -------<br>--- --- -- ----- -- --- ---- -- --- ---- -- ------ ------<br>--- ----- -- ----,60834.89999999991,60834.30000000005,59828.98,59843.19999999995,59845.645,60845.56,,6,lasting
screen,html.Screen,0_2_0_1_7,2021-11-26T10:01:16.852Z,,,,,,,,,,,,,,,,53,,,,,,,,,,,,,,812.6399999999558,,response,,,99,,,,,,Space,keypress(Space),,,,,---- -- ----- -- ------ - ------- and ----------<br>------------- ------ ------ ---- ---- ------- ----- -- ----<br>-------- ------- -- ---------- --- - --- ----- ----- ----<br>---- --- --- ----- --- ---- ---- ------- ----- ---- -------<br>--- --- -- ----- -- --- ---- -- --- ---- -- ------ ------<br>--- ----- -- ----,61658.80000000005,61658.19999999995,60828.895,60835.19999999995,60845.56,61662.157,,7,and
screen,html.Screen,0_2_0_1_8,2021-11-26T10:01:17.596Z,,,,,,,,,,,,,,,,53,,,,,,,,,,,,,,739.9429999998611,,response,,,99,,,,,,Space,keypress(Space),,,,,---- -- ----- -- ------ - ------- --- fulfilling<br>------------- ------ ------ ---- ---- ------- ----- -- ----<br>-------- ------- -- ---------- --- - --- ----- ----- ----<br>---- --- --- ----- --- ---- ---- ------- ----- ---- -------<br>--- --- -- ----- -- --- ---- -- --- ---- -- ------ ------<br>--- ----- -- ----,62402.89999999991,62402.09999999986,61645.492,61659,61662.157,62412.145,,8,fulfilling
screen,html.Screen,0_2_0_1_9,2021-11-26T10:01:18.228Z,,,,,,,,,,,,,,,,53,,,,,,,,,,,,,,621.9549999998635,,response,,,99,,,,,,Space,keypress(Space),,,,,"---- -- ----- -- ------ - ------- --- ----------<br>relationship, ------ ------ ---- ---- ------- ----- -- ----<br>-------- ------- -- ---------- --- - --- ----- ----- ----<br>---- --- --- ----- --- ---- ---- ------- ----- ---- -------<br>--- --- -- ----- -- --- ---- -- --- ---- -- ------ ------<br>--- ----- -- ----",63034.80000000005,63034.09999999986,62395.48,62403.09999999986,62412.145,63045.417,,9,"relationship,"
screen,html.Screen,0_2_0_1_10,2021-11-26T10:01:18.836Z,,,,,,,,,,,,,,,,53,,,,,,,,,,,,,,596.5829999999987,,response,,,99,,,,,,Space,keypress(Space),,,,,---- -- ----- -- ------ - ------- --- ----------<br>------------- common ------ ---- ---- ------- ----- -- ----<br>-------- ------- -- ---------- --- - --- ----- ----- ----<br>---- --- --- ----- --- ---- ---- ------- ----- ---- -------<br>--- --- -- ----- -- --- ---- -- --- ---- -- ------ ------<br>--- ----- -- ----,63642.69999999995,63642,63028.752,63035,63045.417,63645.501,,10,common
screen,html.Screen,0_2_0_1_11,2021-11-26T10:01:19.516Z,,,,,,,,,,,,,,,,53,,,,,,,,,,,,,,676.4990000000034,,response,,,99,,,,,,Space,keypress(Space),,,,,---- -- ----- -- ------ - ------- --- ----------<br>------------- ------ wisdom ---- ---- ------- ----- -- ----<br>-------- ------- -- ---------- --- - --- ----- ----- ----<br>---- --- --- ----- --- ---- ---- ------- ----- ---- -------<br>--- --- -- ----- -- --- ---- -- --- ---- -- ------ ------<br>--- ----- -- ----,64322.69999999995,64322,63628.835,63642.89999999991,63645.501,64328.661,,11,wisdom
screen,html.Screen,0_2_0_1_12,2021-11-26T10:01:20.124Z,,,,,,,,,,,,,,,,53,,,,,,,,,,,,,,601.3389999999999,,response,,,99,,,,,,Space,keypress(Space),,,,,---- -- ----- -- ------ - ------- --- ----------<br>------------- ------ ------ says ---- ------- ----- -- ----<br>-------- ------- -- ---------- --- - --- ----- ----- ----<br>---- --- --- ----- --- ---- ---- ------- ----- ---- -------<br>--- --- -- ----- -- --- ---- -- --- ---- -- ------ ------<br>--- ----- -- ----,64930.59999999986,64930,64311.997,64322.89999999991,64328.661,64945.363,,12,says
screen,html.Screen,0_2_0_1_13,2021-11-26T10:01:20.700Z,,,,,,,,,,,,,,,,53,,,,,,,,,,,,,,560.5369999999093,,response,,,99,,,,,,Space,keypress(Space),,,,,---- -- ----- -- ------ - ------- --- ----------<br>------------- ------ ------ ---- that ------- ----- -- ----<br>-------- ------- -- ---------- --- - --- ----- ----- ----<br>---- --- --- ----- --- ---- ---- ------- ----- ---- -------<br>--- --- -- ----- -- --- ---- -- --- ---- -- ------ ------<br>--- ----- -- ----,65506.59999999986,65505.89999999991,64928.698,64930.69999999995,64945.363,65512.085,,13,that
screen,html.Screen,0_2_0_1_14,2021-11-26T10:01:21.380Z,,,,,,,,,,,,,,,,53,,,,,,,,,,,,,,673.9150000000009,,response,,,99,,,,,,Space,keypress(Space),,,,,---- -- ----- -- ------ - ------- --- ----------<br>------------- ------ ------ ---- ---- feeling ----- -- ----<br>-------- ------- -- ---------- --- - --- ----- ----- ----<br>---- --- --- ----- --- ---- ---- ------- ----- ---- -------<br>--- --- -- ----- -- --- ---- -- --- ---- -- ------ ------<br>--- ----- -- ----,66186.5,66186,65495.419,65506.69999999995,65512.085,66195.219,,14,feeling
screen,html.Screen,0_2_0_1_15,2021-11-26T10:01:21.924Z,,,,,,,,,,,,,,,,53,,,,,,,,,,,,,,534.6809999999095,,response,,,99,,,,,,Space,keypress(Space),,,,,---- -- ----- -- ------ - ------- --- ----------<br>------------- ------ ------ ---- ---- ------- close -- ----<br>-------- ------- -- ---------- --- - --- ----- ----- ----<br>---- --- --- ----- --- ---- ---- ------- ----- ---- -------<br>--- --- -- ----- -- --- ---- -- --- ---- -- ------ ------<br>--- ----- -- ----,66730.59999999986,66729.8999999999,66178.555,66186.69999999995,66195.219,66745.348,,15,close
screen,html.Screen,0_2_0_1_16,2021-11-26T10:01:22.476Z,,,,,,,,,,,,,,,,53,,,,,,,,,,,,,,536.6520000000019,,response,,,99,,,,,,Space,keypress(Space),,,,,---- -- ----- -- ------ - ------- --- ----------<br>------------- ------ ------ ---- ---- ------- ----- to ----<br>-------- ------- -- ---------- --- - --- ----- ----- ----<br>---- --- --- ----- --- ---- ---- ------- ----- ---- -------<br>--- --- -- ----- -- --- ---- -- --- ---- -- ------ ------<br>--- ----- -- ----,67282.69999999995,67282,66728.682,66730.69999999995,66745.348,67295.184,,16,to
screen,html.Screen,0_2_0_1_17,2021-11-26T10:01:23.228Z,,,,,,,,,,,,,,,,53,,,,,,,,,,,,,,738.715999999913,,response,,,99,,,,,,Space,keypress(Space),,,,,---- -- ----- -- ------ - ------- --- ----------<br>------------- ------ ------ ---- ---- ------- ----- -- your<br>-------- ------- -- ---------- --- - --- ----- ----- ----<br>---- --- --- ----- --- ---- ---- ------- ----- ---- -------<br>--- --- -- ----- -- --- ---- -- --- ---- -- ------ ------<br>--- ----- -- ----,68034.3999999999,68033.8999999999,67278.52,67282.8999999999,67295.184,68045.205,,17,your
screen,html.Screen,0_2_0_1_18,2021-11-26T10:01:23.803Z,,,,,,,,,,,,,,,,53,,,,,,,,,,,,,,564.5950000000448,,response,,,99,,,,,,Space,keypress(Space),,,,,---- -- ----- -- ------ - ------- --- ----------<br>------------- ------ ------ ---- ---- ------- ----- -- ----<br>romantic ------- -- ---------- --- - --- ----- ----- ----<br>---- --- --- ----- --- ---- ---- ------- ----- ---- -------<br>--- --- -- ----- -- --- ---- -- --- ---- -- ------ ------<br>--- ----- -- ----,68610.3999999999,68609.80000000005,68028.54,68034.59999999986,68045.205,68611.919,,18,romantic
screen,html.Screen,0_2_0_1_19,2021-11-26T10:01:24.355Z,,,,,,,,,,,,,,,,53,,,,,,,,,,,,,,549.780999999959,,response,,,99,,,,,,Space,keypress(Space),,,,,---- -- ----- -- ------ - ------- --- ----------<br>------------- ------ ------ ---- ---- ------- ----- -- ----<br>-------- partner -- ---------- --- - --- ----- ----- ----<br>---- --- --- ----- --- ---- ---- ------- ----- ---- -------<br>--- --- -- ----- -- --- ---- -- --- ---- -- ------ ------<br>--- ----- -- ----,69162.30000000005,69161.69999999995,68595.253,68610.5,68611.919,69178.482,,19,partner
screen,html.Screen,0_2_0_1_20,2021-11-26T10:01:24.843Z,,,,,,,,,,,,,,,,53,,,,,,,,,,,,,,471.2179999999498,,response,,,99,,,,,,Space,keypress(Space),,,,,---- -- ----- -- ------ - ------- --- ----------<br>------------- ------ ------ ---- ---- ------- ----- -- ----<br>-------- ------- is ---------- --- - --- ----- ----- ----<br>---- --- --- ----- --- ---- ---- ------- ----- ---- -------<br>--- --- -- ----- -- --- ---- -- --- ---- -- ------ ------<br>--- ----- -- ----,69650.3999999999,69649.69999999995,69161.817,69162.5,69178.482,69661.872,,20,is
screen,html.Screen,0_2_0_1_21,2021-11-26T10:01:26.123Z,,,,,,,,,,,,,,,,53,,,,,,,,,,,,,,1267.9280000000435,,response,,,99,,,,,,Space,keypress(Space),,,,,---- -- ----- -- ------ - ------- --- ----------<br>------------- ------ ------ ---- ---- ------- ----- -- ----<br>-------- ------- -- paramount. --- - --- ----- ----- ----<br>---- --- --- ----- --- ---- ---- ------- ----- ---- -------<br>--- --- -- ----- -- --- ---- -- --- ---- -- ------ ------<br>--- ----- -- ----,70930.3999999999,70929.80000000005,69645.206,69650.5,69661.872,70945.066,,21,paramount.
screen,html.Screen,0_2_0_1_22,2021-11-26T10:01:26.763Z,,,,,,,,,,,,,,,,53,,,,,,,,,,,,,,624.6339999999473,,response,,,99,,,,,,Space,keypress(Space),,,,,---- -- ----- -- ------ - ------- --- ----------<br>------------- ------ ------ ---- ---- ------- ----- -- ----<br>-------- ------- -- ---------- But - --- ----- ----- ----<br>---- --- --- ----- --- ---- ---- ------- ----- ---- -------<br>--- --- -- ----- -- --- ---- -- --- ---- -- ------ ------<br>--- ----- -- ----,71570.30000000005,71569.69999999995,70928.401,70930.59999999986,70945.066,71578.396,,22,But
screen,html.Screen,0_2_0_1_23,2021-11-26T10:01:27.387Z,,,,,,,,,,,,,,,,53,,,,,,,,,,,,,,615.3039999999601,,response,,,99,,,,,,Space,keypress(Space),,,,,---- -- ----- -- ------ - ------- --- ----------<br>------------- ------ ------ ---- ---- ------- ----- -- ----<br>-------- ------- -- ---------- --- a --- ----- ----- ----<br>---- --- --- ----- --- ---- ---- ------- ----- ---- -------<br>--- --- -- ----- -- --- ---- -- --- ---- -- ------ ------<br>--- ----- -- ----,72194.19999999995,72193.69999999995,71561.731,71570.5,71578.396,72194.994,,23,a
screen,html.Screen,0_2_0_1_24,2021-11-26T10:01:28.043Z,,,,,,,,,,,,,,,,53,,,,,,,,,,,,,,654.7059999999474,,response,,,99,,,,,,Space,keypress(Space),,,,,---- -- ----- -- ------ - ------- --- ----------<br>------------- ------ ------ ---- ---- ------- ----- -- ----<br>-------- ------- -- ---------- --- - new ----- ----- ----<br>---- --- --- ----- --- ---- ---- ------- ----- ---- -------<br>--- --- -- ----- -- --- ---- -- --- ---- -- ------ ------<br>--- ----- -- ----,72850.19999999995,72849.69999999995,72178.329,72194.30000000005,72194.994,72861.633,,24,new
screen,html.Screen,0_2_0_1_25,2021-11-26T10:01:28.851Z,,,,,,,,,,,,,,,,53,,,,,,,,,,,,,,795.9669999998587,,response,,,99,,,,,,Space,keypress(Space),,,,,---- -- ----- -- ------ - ------- --- ----------<br>------------- ------ ------ ---- ---- ------- ----- -- ----<br>-------- ------- -- ---------- --- - --- study ----- ----<br>---- --- --- ----- --- ---- ---- ------- ----- ---- -------<br>--- --- -- ----- -- --- ---- -- --- ---- -- ------ ------<br>--- ----- -- ----,73658.19999999995,73657.59999999986,72844.968,72850.3999999999,72861.633,73661.672,,25,study
screen,html.Screen,0_2_0_1_26,2021-11-26T10:01:29.419Z,,,,,,,,,,,,,,,,53,,,,,,,,,,,,,,563.8279999999941,,response,,,99,,,,,,Space,keypress(Space),,,,,---- -- ----- -- ------ - ------- --- ----------<br>------------- ------ ------ ---- ---- ------- ----- -- ----<br>-------- ------- -- ---------- --- - --- ----- finds ----<br>---- --- --- ----- --- ---- ---- ------- ----- ---- -------<br>--- --- -- ----- -- --- ---- -- --- ---- -- ------ ------<br>--- ----- -- ----,74226.09999999986,74225.5,73645.006,73658.3999999999,73661.672,74228.27,,26,finds
screen,html.Screen,0_2_0_1_27,2021-11-26T10:01:30.195Z,,,,,,,,,,,,,,,,53,,,,,,,,,,,,,,773.2299999999959,,response,,,99,,,,,,Space,keypress(Space),,,,,---- -- ----- -- ------ - ------- --- ----------<br>------------- ------ ------ ---- ---- ------- ----- -- ----<br>-------- ------- -- ---------- --- - --- ----- ----- that<br>---- --- --- ----- --- ---- ---- ------- ----- ---- -------<br>--- --- -- ----- -- --- ---- -- --- ---- -- ------ ------<br>--- ----- -- ----,75002,75001.5,74211.605,74226.30000000005,74228.27,75028.222,,27,that
screen,html.Screen,0_2_0_1_28,2021-11-26T10:01:30.939Z,,,,,,,,,,,,,,,,53,,,,,,,,,,,,,,717.2780000000057,,response,,,99,,,,,,Space,keypress(Space),,,,,---- -- ----- -- ------ - ------- --- ----------<br>------------- ------ ------ ---- ---- ------- ----- -- ----<br>-------- ------- -- ---------- --- - --- ----- ----- ----<br>it's --- --- ----- --- ---- ---- ------- ----- ---- -------<br>--- --- -- ----- -- --- ---- -- --- ---- -- ------ ------<br>--- ----- -- ----,75746.09999999986,75745.5,75011.557,75002.3999999999,75028.222,75761.413,,28,it's
screen,html.Screen,0_2_0_1_29,2021-11-26T10:01:31.387Z,,,,,,,,,,,,,,,,53,,,,,,,,,,,,,,431.9869999999064,,response,,,99,,,,,,Space,keypress(Space),,,,,---- -- ----- -- ------ - ------- --- ----------<br>------------- ------ ------ ---- ---- ------- ----- -- ----<br>-------- ------- -- ---------- --- - --- ----- ----- ----<br>---- not --- ----- --- ---- ---- ------- ----- ---- -------<br>--- --- -- ----- -- --- ---- -- --- ---- -- ------ ------<br>--- ----- -- ----,76194.09999999986,76193.3999999999,75744.749,75746.19999999995,75761.413,76194.887,,29,not
screen,html.Screen,0_2_0_1_30,2021-11-26T10:01:31.843Z,,,,,,,,,,,,,,,,53,,,,,,,,,,,,,,454.61299999999756,,response,,,99,,,,,,Space,keypress(Space),,,,,---- -- ----- -- ------ - ------- --- ----------<br>------------- ------ ------ ---- ---- ------- ----- -- ----<br>-------- ------- -- ---------- --- - --- ----- ----- ----<br>---- --- how ----- --- ---- ---- ------- ----- ---- -------<br>--- --- -- ----- -- --- ---- -- --- ---- -- ------ ------<br>--- ----- -- ----,76650,76649.5,76178.221,76194.19999999995,76194.887,76661.451,,30,how
screen,html.Screen,0_2_0_1_31,2021-11-26T10:01:32.379Z,,,,,,,,,,,,,,,,53,,,,,,,,,,,,,,523.9489999999059,,response,,,99,,,,,,Space,keypress(Space),,,,,---- -- ----- -- ------ - ------- --- ----------<br>------------- ------ ------ ---- ---- ------- ----- -- ----<br>-------- ------- -- ---------- --- - --- ----- ----- ----<br>---- --- --- close --- ---- ---- ------- ----- ---- -------<br>--- --- -- ----- -- --- ---- -- --- ---- -- ------ ------<br>--- ----- -- ----,77185.8999999999,77185.3999999999,76644.786,76650.19999999995,76661.451,77194.777,,31,close
screen,html.Screen,0_2_0_1_32,2021-11-26T10:01:32.811Z,,,,,,,,,,,,,,,,53,,,,,,,,,,,,,,422.82299999985844,,response,,,99,,,,,,Space,keypress(Space),,,,,---- -- ----- -- ------ - ------- --- ----------<br>------------- ------ ------ ---- ---- ------- ----- -- ----<br>-------- ------- -- ---------- --- - --- ----- ----- ----<br>---- --- --- ----- you ---- ---- ------- ----- ---- -------<br>--- --- -- ----- -- --- ---- -- --- ---- -- ------ ------<br>--- ----- -- ----,77618.09999999986,77617.59999999986,77178.112,77186.09999999986,77194.777,77628.078,,32,you
screen,html.Screen,0_2_0_1_33,2021-11-26T10:01:33.163Z,,,,,,,,,,,,,,,,53,,,,,,,,,,,,,,341.2220000000525,,response,,,99,,,,,,Space,keypress(Space),,,,,---- -- ----- -- ------ - ------- --- ----------<br>------------- ------ ------ ---- ---- ------- ----- -- ----<br>-------- ------- -- ---------- --- - --- ----- ----- ----<br>---- --- --- ----- --- feel ---- ------- ----- ---- -------<br>--- --- -- ----- -- --- ---- -- --- ---- -- ------ ------<br>--- ----- -- ----,77969.8999999999,77969.30000000005,77611.413,77618.30000000005,77628.078,77978.079,,33,feel
screen,html.Screen,0_2_0_1_34,2021-11-26T10:01:33.619Z,,,,,,,,,,,,,,,,53,,,,,,,,,,,,,,447.22100000004866,,response,,,99,,,,,,Space,keypress(Space),,,,,---- -- ----- -- ------ - ------- --- ----------<br>------------- ------ ------ ---- ---- ------- ----- -- ----<br>-------- ------- -- ---------- --- - --- ----- ----- ----<br>---- --- --- ----- --- ---- that ------- ----- ---- -------<br>--- --- -- ----- -- --- ---- -- --- ---- -- ------ ------<br>--- ----- -- ----,78425.8999999999,78425.30000000005,77961.414,77970.09999999986,77978.079,78428.099,,34,that
screen,html.Screen,0_2_0_1_35,2021-11-26T10:01:34.019Z,,,,,,,,,,,,,,,,53,,,,,,,,,,,,,,397.2010000000446,,response,,,99,,,,,,Space,keypress(Space),,,,,---- -- ----- -- ------ - ------- --- ----------<br>------------- ------ ------ ---- ---- ------- ----- -- ----<br>-------- ------- -- ---------- --- - --- ----- ----- ----<br>---- --- --- ----- --- ---- ---- matters ----- ---- -------<br>--- --- -- ----- -- --- ---- -- --- ---- -- ------ ------<br>--- ----- -- ----,78825.80000000005,78825.30000000005,78411.433,78426,78428.099,78828.051,,35,matters
screen,html.Screen,0_2_0_1_36,2021-11-26T10:01:34.443Z,,,,,,,,,,,,,,,,53,,,,,,,,,,,,,,421.2490000000398,,response,,,99,,,,,,Space,keypress(Space),,,,,"---- -- ----- -- ------ - ------- --- ----------<br>------------- ------ ------ ---- ---- ------- ----- -- ----<br>-------- ------- -- ---------- --- - --- ----- ----- ----<br>---- --- --- ----- --- ---- ---- ------- most, ---- -------<br>--- --- -- ----- -- --- ---- -- --- ---- -- ------ ------<br>--- ----- -- ----",79250,79249.30000000005,78811.386,78826,78828.051,79261.295,,36,"most,"
screen,html.Screen,0_2_0_1_37,2021-11-26T10:01:34.915Z,,,,,,,,,,,,,,,,53,,,,,,,,,,,,,,460.0050000000483,,response,,,99,,,,,,Space,keypress(Space),,,,,---- -- ----- -- ------ - ------- --- ----------<br>------------- ------ ------ ---- ---- ------- ----- -- ----<br>-------- ------- -- ---------- --- - --- ----- ----- ----<br>---- --- --- ----- --- ---- ---- ------- ----- it's -------<br>--- --- -- ----- -- --- ---- -- --- ---- -- ------ ------<br>--- ----- -- ----,79721.80000000005,79721.30000000005,79244.631,79250.09999999986,79261.295,79727.986,,37,it's
screen,html.Screen,0_2_0_1_38,2021-11-26T10:01:35.307Z,,,,,,,,,,,,,,,,53,,,,,,,,,,,,,,385.213999999949,,response,,,99,,,,,,Space,keypress(Space),,,,,---- -- ----- -- ------ - ------- --- ----------<br>------------- ------ ------ ---- ---- ------- ----- -- ----<br>-------- ------- -- ---------- --- - --- ----- ----- ----<br>---- --- --- ----- --- ---- ---- ------- ----- ---- whether<br>--- --- -- ----- -- --- ---- -- --- ---- -- ------ ------<br>--- ----- -- ----,80113.80000000005,80113.19999999995,79711.321,79722,79727.986,80128.03,,38,whether
screen,html.Screen,0_2_0_1_39,2021-11-26T10:01:35.771Z,,,,,,,,,,,,,,,,53,,,,,,,,,,,,,,449.27000000004773,,response,,,99,,,,,,Space,keypress(Space),,,,,---- -- ----- -- ------ - ------- --- ----------<br>------------- ------ ------ ---- ---- ------- ----- -- ----<br>-------- ------- -- ---------- --- - --- ----- ----- ----<br>---- --- --- ----- --- ---- ---- ------- ----- ---- -------<br>you --- -- ----- -- --- ---- -- --- ---- -- ------ ------<br>--- ----- -- ----,80577.80000000005,80577.30000000005,80111.364,80113.8999999999,80128.03,80594.559,,39,you
screen,html.Screen,0_2_0_1_40,2021-11-26T10:01:36.195Z,,,,,,,,,,,,,,,,53,,,,,,,,,,,,,,406.6409999999596,,response,,,99,,,,,,Space,keypress(Space),,,,,---- -- ----- -- ------ - ------- --- ----------<br>------------- ------ ------ ---- ---- ------- ----- -- ----<br>-------- ------- -- ---------- --- - --- ----- ----- ----<br>---- --- --- ----- --- ---- ---- ------- ----- ---- -------<br>--- are -- ----- -- --- ---- -- --- ---- -- ------ ------<br>--- ----- -- ----,81001.69999999995,81001.19999999995,80577.895,80578.09999999986,80594.559,81011.247,,40,are
screen,html.Screen,0_2_0_1_41,2021-11-26T10:01:36.563Z,,,,,,,,,,,,,,,,53,,,,,,,,,,,,,,357.9529999999504,,response,,,99,,,,,,Space,keypress(Space),,,,,---- -- ----- -- ------ - ------- --- ----------<br>------------- ------ ------ ---- ---- ------- ----- -- ----<br>-------- ------- -- ---------- --- - --- ----- ----- ----<br>---- --- --- ----- --- ---- ---- ------- ----- ---- -------<br>--- --- as ----- -- --- ---- -- --- ---- -- ------ ------<br>--- ----- -- ----,81369.69999999995,81369.19999999995,80994.582,81001.8999999999,81011.247,81377.899,,41,as
screen,html.Screen,0_2_0_1_42,2021-11-26T10:01:36.971Z,,,,,,,,,,,,,,,,53,,,,,,,,,,,,,,399.2009999998554,,response,,,99,,,,,,Space,keypress(Space),,,,,---- -- ----- -- ------ - ------- --- ----------<br>------------- ------ ------ ---- ---- ------- ----- -- ----<br>-------- ------- -- ---------- --- - --- ----- ----- ----<br>---- --- --- ----- --- ---- ---- ------- ----- ---- -------<br>--- --- -- close -- --- ---- -- --- ---- -- ------ ------<br>--- ----- -- ----,81777.69999999995,81777.09999999986,81361.234,81369.8999999999,81377.899,81794.598,,42,close
screen,html.Screen,0_2_0_1_43,2021-11-26T10:01:37.331Z,,,,,,,,,,,,,,,,53,,,,,,,,,,,,,,342.50199999986216,,response,,,99,,,,,,Space,keypress(Space),,,,,---- -- ----- -- ------ - ------- --- ----------<br>------------- ------ ------ ---- ---- ------- ----- -- ----<br>-------- ------- -- ---------- --- - --- ----- ----- ----<br>---- --- --- ----- --- ---- ---- ------- ----- ---- -------<br>--- --- -- ----- as --- ---- -- --- ---- -- ------ ------<br>--- ----- -- ----,82137.69999999995,82137.09999999986,81777.932,81777.80000000005,81794.598,82144.497,,43,as
screen,html.Screen,0_2_0_1_44,2021-11-26T10:01:37.667Z,,,,,,,,,,,,,,,,53,,,,,,,,,,,,,,328.6029999998573,,response,,,99,,,,,,Space,keypress(Space),,,,,---- -- ----- -- ------ - ------- --- ----------<br>------------- ------ ------ ---- ---- ------- ----- -- ----<br>-------- ------- -- ---------- --- - --- ----- ----- ----<br>---- --- --- ----- --- ---- ---- ------- ----- ---- -------<br>--- --- -- ----- -- you ---- -- --- ---- -- ------ ------<br>--- ----- -- ----,82473.69999999995,82473.09999999986,82127.833,82137.80000000005,82144.497,82477.849,,44,you
screen,html.Screen,0_2_0_1_45,2021-11-26T10:01:37.979Z,,,,,,,,,,,,,,,,53,,,,,,,,,,,,,,307.2509999998583,,response,,,99,,,,,,Space,keypress(Space),,,,,---- -- ----- -- ------ - ------- --- ----------<br>------------- ------ ------ ---- ---- ------- ----- -- ----<br>-------- ------- -- ---------- --- - --- ----- ----- ----<br>---- --- --- ----- --- ---- ---- ------- ----- ---- -------<br>--- --- -- ----- -- --- want -- --- ---- -- ------ ------<br>--- ----- -- ----,82785.69999999995,82785.09999999986,82461.184,82473.8999999999,82477.849,82794.455,,45,want
screen,html.Screen,0_2_0_1_46,2021-11-26T10:01:38.411Z,,,,,,,,,,,,,,,,53,,,,,,,,,,,,,,422.64499999985856,,response,,,99,,,,,,Space,keypress(Space),,,,,---- -- ----- -- ------ - ------- --- ----------<br>------------- ------ ------ ---- ---- ------- ----- -- ----<br>-------- ------- -- ---------- --- - --- ----- ----- ----<br>---- --- --- ----- --- ---- ---- ------- ----- ---- -------<br>--- --- -- ----- -- --- ---- to --- ---- -- ------ ------<br>--- ----- -- ----,83217.59999999986,83217.09999999986,82777.791,82785.8999999999,82794.455,83227.909,,46,to
screen,html.Screen,0_2_0_1_47,2021-11-26T10:01:38.739Z,,,,,,,,,,,,,,,,53,,,,,,,,,,,,,,317.09100000000035,,response,,,99,,,,,,Space,keypress(Space),,,,,"---- -- ----- -- ------ - ------- --- ----------<br>------------- ------ ------ ---- ---- ------- ----- -- ----<br>-------- ------- -- ---------- --- - --- ----- ----- ----<br>---- --- --- ----- --- ---- ---- ------- ----- ---- -------<br>--- --- -- ----- -- --- ---- -- be, ---- -- ------ ------<br>--- ----- -- ----",83545.59999999986,83545,83211.242,83217.80000000005,83227.909,83561.146,,47,"be,"
screen,html.Screen,0_2_0_1_48,2021-11-26T10:01:39.891Z,,,,,,,,,,,,,,,,53,,,,,,,,,,,,,,1135.953999999867,,response,,,99,,,,,,Space,keypress(Space),,,,,---- -- ----- -- ------ - ------- --- ----------<br>------------- ------ ------ ---- ---- ------- ----- -- ----<br>-------- ------- -- ---------- --- - --- ----- ----- ----<br>---- --- --- ----- --- ---- ---- ------- ----- ---- -------<br>--- --- -- ----- -- --- ---- -- --- even -- ------ ------<br>--- ----- -- ----,84697.59999999986,84697.09999999986,83544.481,83545.69999999995,83561.146,84710.944,,48,even
screen,html.Screen,0_2_0_1_49,2021-11-26T10:01:40.483Z,,,,,,,,,,,,,,,,53,,,,,,,,,,,,,,578.0559999999969,,response,,,99,,,,,,Space,keypress(Space),,,,,---- -- ----- -- ------ - ------- --- ----------<br>------------- ------ ------ ---- ---- ------- ----- -- ----<br>-------- ------- -- ---------- --- - --- ----- ----- ----<br>---- --- --- ----- --- ---- ---- ------- ----- ---- -------<br>--- --- -- ----- -- --- ---- -- --- ---- if ------ ------<br>--- ----- -- ----,85289.69999999995,85289,84694.28,84697.80000000005,84710.944,85294.425,,49,if
screen,html.Screen,0_2_0_1_50,2021-11-26T10:01:41.219Z,,,,,,,,,,,,,,,,53,,,,,,,,,,,,,,730.474999999904,,response,,,99,,,,,,Space,keypress(Space),,,,,---- -- ----- -- ------ - ------- --- ----------<br>------------- ------ ------ ---- ---- ------- ----- -- ----<br>-------- ------- -- ---------- --- - --- ----- ----- ----<br>---- --- --- ----- --- ---- ---- ------- ----- ---- -------<br>--- --- -- ----- -- --- ---- -- --- ---- -- that's ------<br>--- ----- -- ----,86025.59999999986,86024.8999999999,85277.759,85290,85294.425,86027.624,,50,that's
screen,html.Screen,0_2_0_1_51,2021-11-26T10:01:42.083Z,,,,,,,,,,,,,,,,53,,,,,,,,,,,,,,861.2759999999107,,response,,,99,,,,,,Space,keypress(Space),,,,,---- -- ----- -- ------ - ------- --- ----------<br>------------- ------ ------ ---- ---- ------- ----- -- ----<br>-------- ------- -- ---------- --- - --- ----- ----- ----<br>---- --- --- ----- --- ---- ---- ------- ----- ---- -------<br>--- --- -- ----- -- --- ---- -- --- ---- -- ------ really<br>--- ----- -- ----,86889.5,86888.8999999999,86010.959,86025.80000000005,86027.624,86894.377,,51,really
screen,html.Screen,0_2_0_1_52,2021-11-26T10:01:42.723Z,,,,,,,,,,,,,,,,53,,,,,,,,,,,,,,634.5229999999137,,response,,,99,,,,,,Space,keypress(Space),,,,,---- -- ----- -- ------ - ------- --- ----------<br>------------- ------ ------ ---- ---- ------- ----- -- ----<br>-------- ------- -- ---------- --- - --- ----- ----- ----<br>---- --- --- ----- --- ---- ---- ------- ----- ---- -------<br>--- --- -- ----- -- --- ---- -- --- ---- -- ------ ------<br>not ----- -- ----,87529.3999999999,87528.8999999999,86877.711,86889.80000000005,86894.377,87544.231,,52,not
screen,html.Screen,0_2_0_1_53,2021-11-26T10:01:43.315Z,,,,,,,,,,,,,,,,53,,,,,,,,,,,,,,576.8689999998605,,response,,,99,,,,,,Space,keypress(Space),,,,,---- -- ----- -- ------ - ------- --- ----------<br>------------- ------ ------ ---- ---- ------- ----- -- ----<br>-------- ------- -- ---------- --- - --- ----- ----- ----<br>---- --- --- ----- --- ---- ---- ------- ----- ---- -------<br>--- --- -- ----- -- --- ---- -- --- ---- -- ------ ------<br>--- close -- ----,88121.69999999995,88121.09999999986,87527.566,87529.80000000005,87544.231,88127.559,,53,close
screen,html.Screen,0_2_0_1_54,2021-11-26T10:01:43.882Z,,,,,,,,,,,,,,,,53,,,,,,,,,,,,,,561.2410000000527,,response,,,99,,,,,,Space,keypress(Space),,,,,---- -- ----- -- ------ - ------- --- ----------<br>------------- ------ ------ ---- ---- ------- ----- -- ----<br>-------- ------- -- ---------- --- - --- ----- ----- ----<br>---- --- --- ----- --- ---- ---- ------- ----- ---- -------<br>--- --- -- ----- -- --- ---- -- --- ---- -- ------ ------<br>--- ----- at ----,88689.3999999999,88688.80000000005,88110.894,88121.80000000005,88127.559,88694.196,,54,at
screen,html.Screen,0_2_0_1_55,2021-11-26T10:01:44.426Z,,,,,,,,,,,,,,,,53,,,,,,,,,,,,,,538.6040000000503,,response,,,99,,,,,,Space,keypress(Space),,,,,---- -- ----- -- ------ - ------- --- ----------<br>------------- ------ ------ ---- ---- ------- ----- -- ----<br>-------- ------- -- ---------- --- - --- ----- ----- ----<br>---- --- --- ----- --- ---- ---- ------- ----- ---- -------<br>--- --- -- ----- -- --- ---- -- --- ---- -- ------ ------<br>--- ----- -- all.,89233.3999999999,89232.80000000005,88677.531,88689.59999999986,88694.196,89244.238,,55,all.
Item 99,flow.Loop,0_2_0_1,2021-11-26T10:01:44.430Z,,,,,,,,,,,,,,,,,,,,,,,,,,,,,,33353.690000000046,,completion,,,,A,,,,,,,,,,silence,,89237.09999999986,89232.80000000005,55829.115,55833,55879.11,89244.238,,,
Question 1,html.Screen,0_2_0_2,2021-11-26T10:01:54.279Z,,,,,,,,,,,,,,,,,,,,,,,,,,,false,FALSE,,9840.461999999956,,response,,,99,A,,,,,TRUE,click #choice-1,,,,silence,,99085.59999999986,99084.69999999995,89227.572,89237.19999999995,89244.238,99093.638,,,
Question 2,html.Screen,0_2_0_3,2021-11-26T10:02:01.453Z,,,,,,,,,,,,,,,,,,,,,,,,,,,true,TRUE,,7165.66200000004,,response,,,99,A,,,,,TRUE,click #choice-1,,,,silence,,106260.09999999986,106259.30000000005,99076.973,99085.69999999995,99093.638,106260.095,,,
Item 99,flow.Sequence,0_2_0,2021-11-26T10:02:01.454Z,,,,,,,,,,,,,,,,,,,,,,,,,,,,,,60413.11700000005,,completion,,,,,,,,,,,,,,,,106261.09999999986,106259.30000000005,45829.518,45837.19999999995,45846.183,106260.095,,,
Holding screen,html.Screen,0_2_1_0,2021-11-26T10:02:11.437Z,,,,,,,,,,,,,,,,,,,,,,,,,,,,,,9999.403000000006,,timeout,,,,,,,,,,,,,,,,116244,116242.833,106243.428,106261.5,106260.095,116259.498,,,
screen,html.Screen,0_2_1_1_0,2021-11-26T10:02:12.193Z,,,,,,,,,,,,,,,,54,,,,,,,,,,,,,,740.2019999999466,,response,,,100,,,,,,Space,keypress(Space),,,,,At --- ---- --- ------ ----- ------- ---- -- --- ------- --<br>------- ---------- ------ -- ----- -- ----- -- ---- ------<br>--- ----- --- --- ------ -------- ----- --- ------ ----- --<br>----- ----- ---------- --- --- ------ ------ ---- -- ------<br>------- --- ------ ----- --- ---- ------- -- ---- --- --<br>------- ------,117000.30000000005,116999.69999999995,116242.833,116244.19999999995,116259.498,117009.475,,0,At
screen,html.Screen,0_2_1_1_1,2021-11-26T10:02:12.585Z,,,,,,,,,,,,,,,,54,,,,,,,,,,,,,,381.92499999990105,,response,,,100,,,,,,Space,keypress(Space),,,,,-- the ---- --- ------ ----- ------- ---- -- --- ------- --<br>------- ---------- ------ -- ----- -- ----- -- ---- ------<br>--- ----- --- --- ------ -------- ----- --- ------ ----- --<br>----- ----- ---------- --- --- ------ ------ ---- -- ------<br>------- --- ------ ----- --- ---- ------- -- ---- --- --<br>------- ------,117391.8999999999,117391.3999999999,116992.81,117000.5,117009.475,117392.811,,1,the
screen,html.Screen,0_2_1_1_2,2021-11-26T10:02:13.105Z,,,,,,,,,,,,,,,,54,,,,,,,,,,,,,,518.5889999999054,,response,,,100,,,,,,Space,keypress(Space),,,,,-- --- time --- ------ ----- ------- ---- -- --- ------- --<br>------- ---------- ------ -- ----- -- ----- -- ---- ------<br>--- ----- --- --- ------ -------- ----- --- ------ ----- --<br>----- ----- ---------- --- --- ------ ------ ---- -- ------<br>------- --- ------ ----- --- ---- ------- -- ---- --- --<br>------- ------,117912.09999999986,117911.3999999999,117376.146,117392.09999999986,117392.811,117926.108,,2,time
screen,html.Screen,0_2_1_1_3,2021-11-26T10:02:13.537Z,,,,,,,,,,,,,,,,54,,,,,,,,,,,,,,417.19200000005367,,response,,,100,,,,,,Space,keypress(Space),,,,,-- --- ---- the ------ ----- ------- ---- -- --- ------- --<br>------- ---------- ------ -- ----- -- ----- -- ---- ------<br>--- ----- --- --- ------ -------- ----- --- ------ ----- --<br>----- ----- ---------- --- --- ------ ------ ---- -- ------<br>------- --- ------ ----- --- ---- ------- -- ---- --- --<br>------- ------,118343.8999999999,118343.30000000005,117909.443,117912.30000000005,117926.108,118359.364,,3,the
screen,html.Screen,0_2_1_1_4,2021-11-26T10:02:13.977Z,,,,,,,,,,,,,,,,54,,,,,,,,,,,,,,423.93600000004517,,response,,,100,,,,,,Space,keypress(Space),,,,,-- --- ---- --- French ----- ------- ---- -- --- ------- --<br>------- ---------- ------ -- ----- -- ----- -- ---- ------<br>--- ----- --- --- ------ -------- ----- --- ------ ----- --<br>----- ----- ---------- --- --- ------ ------ ---- -- ------<br>------- --- ------ ----- --- ---- ------- -- ---- --- --<br>------- ------,118783.8999999999,118783.30000000005,118342.7,118344.09999999986,118359.364,118792.702,,4,French
screen,html.Screen,0_2_1_1_5,2021-11-26T10:02:14.457Z,,,,,,,,,,,,,,,,54,,,,,,,,,,,,,,470.5980000000418,,response,,,100,,,,,,Space,keypress(Space),,,,,-- --- ---- --- ------ crown ------- ---- -- --- ------- --<br>------- ---------- ------ -- ----- -- ----- -- ---- ------<br>--- ----- --- --- ------ -------- ----- --- ------ ----- --<br>----- ----- ---------- --- --- ------ ------ ---- -- ------<br>------- --- ------ ----- --- ---- ------- -- ---- --- --<br>------- ------,119263.8999999999,119263.30000000005,118776.037,118784,118792.702,119276.079,,5,crown
screen,html.Screen,0_2_1_1_6,2021-11-26T10:02:15.041Z,,,,,,,,,,,,,,,,54,,,,,,,,,,,,,,571.2210000000487,,response,,,100,,,,,,Space,keypress(Space),,,,,-- --- ---- --- ------ ----- secured ---- -- --- ------- --<br>------- ---------- ------ -- ----- -- ----- -- ---- ------<br>--- ----- --- --- ------ -------- ----- --- ------ ----- --<br>----- ----- ---------- --- --- ------ ------ ---- -- ------<br>------- --- ------ ----- --- ---- ------- -- ---- --- --<br>------- ------,119847.80000000005,119847.30000000005,119259.413,119264,119276.079,119859.321,,6,secured
screen,html.Screen,0_2_1_1_7,2021-11-26T10:02:17.347Z,,,,,,,,,,,,,,,,54,,,,,,,,,,,,,,2291.9790000000503,,response,,,100,,,,,,Space,keypress(Space),,,,,-- --- ---- --- ------ ----- ------- much -- --- ------- --<br>------- ---------- ------ -- ----- -- ----- -- ---- ------<br>--- ----- --- --- ------ -------- ----- --- ------ ----- --<br>----- ----- ---------- --- --- ------ ------ ---- -- ------<br>------- --- ------ ----- --- ---- ------- -- ---- --- --<br>------- ------,122151.80000000005,122151.30000000005,119842.656,119848,119859.321,122159.128,,7,much
screen,html.Screen,0_2_1_1_8,2021-11-26T10:02:17.819Z,,,,,,,,,,,,,,,,54,,,,,,,,,,,,,,464.07199999995646,,response,,,100,,,,,,Space,keypress(Space),,,,,-- --- ---- --- ------ ----- ------- ---- of --- ------- --<br>------- ---------- ------ -- ----- -- ----- -- ---- ------<br>--- ----- --- --- ------ -------- ----- --- ------ ----- --<br>----- ----- ---------- --- --- ------ ------ ---- -- ------<br>------- --- ------ ----- --- ---- ------- -- ---- --- --<br>------- ------,122623.69999999995,122623.19999999995,122142.463,122152,122159.128,122625.929,,8,of
screen,html.Screen,0_2_1_1_9,2021-11-26T10:02:18.147Z,,,,,,,,,,,,,,,,54,,,,,,,,,,,,,,325.0709999999963,,response,,,100,,,,,,Space,keypress(Space),,,,,-- --- ---- --- ------ ----- ------- ---- -- its ------- --<br>------- ---------- ------ -- ----- -- ----- -- ---- ------<br>--- ----- --- --- ------ -------- ----- --- ------ ----- --<br>----- ----- ---------- --- --- ------ ------ ---- -- ------<br>------- --- ------ ----- --- ---- ------- -- ---- --- --<br>------- ------,122951.69999999995,122951,122609.263,122623.80000000005,122625.929,122959.185,,9,its
screen,html.Screen,0_2_1_1_10,2021-11-26T10:02:18.779Z,,,,,,,,,,,,,,,,54,,,,,,,,,,,,,,623.9149999998626,,response,,,100,,,,,,Space,keypress(Space),,,,,-- --- ---- --- ------ ----- ------- ---- -- --- revenue --<br>------- ---------- ------ -- ----- -- ----- -- ---- ------<br>--- ----- --- --- ------ -------- ----- --- ------ ----- --<br>----- ----- ---------- --- --- ------ ------ ---- -- ------<br>------- --- ------ ----- --- ---- ------- -- ---- --- --<br>------- ------,123583.69999999995,123583.09999999986,122942.52,122951.80000000005,122959.185,123592.549,,10,revenue
screen,html.Screen,0_2_1_1_11,2021-11-26T10:02:19.243Z,,,,,,,,,,,,,,,,54,,,,,,,,,,,,,,454.45100000000093,,response,,,100,,,,,,Space,keypress(Space),,,,,-- --- ---- --- ------ ----- ------- ---- -- --- ------- by<br>------- ---------- ------ -- ----- -- ----- -- ---- ------<br>--- ----- --- --- ------ -------- ----- --- ------ ----- --<br>----- ----- ---------- --- --- ------ ------ ---- -- ------<br>------- --- ------ ----- --- ---- ------- -- ---- --- --<br>------- ------,124047.59999999986,124047,123575.883,123583.8999999999,123592.549,124059.06,,11,by
screen,html.Screen,0_2_1_1_12,2021-11-26T10:02:19.715Z,,,,,,,,,,,,,,,,54,,,,,,,,,,,,,,459.9400000000023,,response,,,100,,,,,,Space,keypress(Space),,,,,-- --- ---- --- ------ ----- ------- ---- -- --- ------- --<br>issuing ---------- ------ -- ----- -- ----- -- ---- ------<br>--- ----- --- --- ------ -------- ----- --- ------ ----- --<br>----- ----- ---------- --- --- ------ ------ ---- -- ------<br>------- --- ------ ----- --- ---- ------- -- ---- --- --<br>------- ------,124519.5,124519,124042.396,124047.80000000005,124059.06,124525.781,,12,issuing
screen,html.Screen,0_2_1_1_13,2021-11-26T10:02:20.267Z,,,,,,,,,,,,,,,,54,,,,,,,,,,,,,,545.3189999998576,,response,,,100,,,,,,Space,keypress(Space),,,,,-- --- ---- --- ------ ----- ------- ---- -- --- ------- --<br>------- government ------ -- ----- -- ----- -- ---- ------<br>--- ----- --- --- ------ -------- ----- --- ------ ----- --<br>----- ----- ---------- --- --- ------ ------ ---- -- ------<br>------- --- ------ ----- --- ---- ------- -- ---- --- --<br>------- ------,125071.5,125071.09999999986,124509.116,124519.69999999995,124525.781,125075.74,,13,government
screen,html.Screen,0_2_1_1_14,2021-11-26T10:02:23.051Z,,,,,,,,,,,,,,,,54,,,,,,,,,,,,,,2779.459999999948,,response,,,100,,,,,,Space,keypress(Space),,,,,-- --- ---- --- ------ ----- ------- ---- -- --- ------- --<br>------- ---------- bonds. -- ----- -- ----- -- ---- ------<br>--- ----- --- --- ------ -------- ----- --- ------ ----- --<br>----- ----- ---------- --- --- ------ ------ ---- -- ------<br>------- --- ------ ----- --- ---- ------- -- ---- --- --<br>------- ------,127855.80000000005,127855.19999999995,125059.075,125071.69999999995,125075.74,127858.818,,14,bonds.
screen,html.Screen,0_2_1_1_15,2021-11-26T10:02:23.459Z,,,,,,,,,,,,,,,,54,,,,,,,,,,,,,,403.98200000004726,,response,,,100,,,,,,Space,keypress(Space),,,,,-- --- ---- --- ------ ----- ------- ---- -- --- ------- --<br>------- ---------- ------ In ----- -- ----- -- ---- ------<br>--- ----- --- --- ------ -------- ----- --- ------ ----- --<br>----- ----- ---------- --- --- ------ ------ ---- -- ------<br>------- --- ------ ----- --- ---- ------- -- ---- --- --<br>------- ------,128263.5,128262.80000000005,127842.153,127855.8999999999,127858.818,128275.603,,15,In
screen,html.Screen,0_2_1_1_16,2021-11-26T10:02:23.803Z,,,,,,,,,,,,,,,,54,,,,,,,,,,,,,,331.1970000000438,,response,,,100,,,,,,Space,keypress(Space),,,,,"-- --- ---- --- ------ ----- ------- ---- -- --- ------- --<br>------- ---------- ------ -- 1727, -- ----- -- ---- ------<br>--- ----- --- --- ------ -------- ----- --- ------ ----- --<br>----- ----- ---------- --- --- ------ ------ ---- -- ------<br>------- --- ------ ----- --- ---- ------- -- ---- --- --<br>------- ------",128607.3999999999,128606.80000000005,128258.938,128263.59999999986,128275.603,128608.908,,16,"1727,"
screen,html.Screen,0_2_1_1_17,2021-11-26T10:02:26.139Z,,,,,,,,,,,,,,,,54,,,,,,,,,,,,,,2333.7919999999576,,response,,,100,,,,,,Space,keypress(Space),,,,,-- --- ---- --- ------ ----- ------- ---- -- --- ------- --<br>------- ---------- ------ -- ----- in ----- -- ---- ------<br>--- ----- --- --- ------ -------- ----- --- ------ ----- --<br>----- ----- ---------- --- --- ------ ------ ---- -- ------<br>------- --- ------ ----- --- ---- ------- -- ---- --- --<br>------- ------,130943.30000000005,130942.69999999995,128592.243,128607.59999999986,128608.908,130958.692,,17,in
screen,html.Screen,0_2_1_1_18,2021-11-26T10:02:26.739Z,,,,,,,,,,,,,,,,54,,,,,,,,,,,,,,584.007999999958,,response,,,100,,,,,,Space,keypress(Space),,,,,-- --- ---- --- ------ ----- ------- ---- -- --- ------- --<br>------- ---------- ------ -- ----- -- order -- ---- ------<br>--- ----- --- --- ------ -------- ----- --- ------ ----- --<br>----- ----- ---------- --- --- ------ ------ ---- -- ------<br>------- --- ------ ----- --- ---- ------- -- ---- --- --<br>------- ------,131543.19999999995,131542.69999999995,130942.027,130943.5,130958.692,131558.844,,18,order
screen,html.Screen,0_2_1_1_19,2021-11-26T10:02:28.275Z,,,,,,,,,,,,,,,,54,,,,,,,,,,,,,,1519.7559999998484,,response,,,100,,,,,,Space,keypress(Space),,,,,-- --- ---- --- ------ ----- ------- ---- -- --- ------- --<br>------- ---------- ------ -- ----- -- ----- to ---- ------<br>--- ----- --- --- ------ -------- ----- --- ------ ----- --<br>----- ----- ---------- --- --- ------ ------ ---- -- ------<br>------- --- ------ ----- --- ---- ------- -- ---- --- --<br>------- ------,133079.3999999999,133078.59999999986,131542.178,131543.3999999999,131558.844,133091.982,,19,to
screen,html.Screen,0_2_1_1_20,2021-11-26T10:02:28.691Z,,,,,,,,,,,,,,,,54,,,,,,,,,,,,,,402.61799999987124,,response,,,100,,,,,,Space,keypress(Space),,,,,-- --- ---- --- ------ ----- ------- ---- -- --- ------- --<br>------- ---------- ------ -- ----- -- ----- -- save ------<br>--- ----- --- --- ------ -------- ----- --- ------ ----- --<br>----- ----- ---------- --- --- ------ ------ ---- -- ------<br>------- --- ------ ----- --- ---- ------- -- ---- --- --<br>------- ------,133495.19999999995,133494.59999999986,133075.317,133079.5,133091.982,133508.671,,20,save
screen,html.Screen,0_2_1_1_21,2021-11-26T10:02:29.235Z,,,,,,,,,,,,,,,,54,,,,,,,,,,,,,,529.9289999998582,,response,,,100,,,,,,Space,keypress(Space),,,,,"-- --- ---- --- ------ ----- ------- ---- -- --- ------- --<br>------- ---------- ------ -- ----- -- ----- -- ---- money,<br>--- ----- --- --- ------ -------- ----- --- ------ ----- --<br>----- ----- ---------- --- --- ------ ------ ---- -- ------<br>------- --- ------ ----- --- ---- ------- -- ---- --- --<br>------- ------",134039.09999999986,134038.59999999986,133492.006,133495.30000000005,133508.671,134041.971,,21,"money,"
screen,html.Screen,0_2_1_1_22,2021-11-26T10:02:29.683Z,,,,,,,,,,,,,,,,54,,,,,,,,,,,,,,444.52900000000955,,response,,,100,,,,,,Space,keypress(Space),,,,,-- --- ---- --- ------ ----- ------- ---- -- --- ------- --<br>------- ---------- ------ -- ----- -- ----- -- ---- ------<br>the ----- --- --- ------ -------- ----- --- ------ ----- --<br>----- ----- ---------- --- --- ------ ------ ---- -- ------<br>------- --- ------ ----- --- ---- ------- -- ---- --- --<br>------- ------,134487.30000000005,134486.5,134025.306,134039.30000000005,134041.971,134492.009,,22,the
screen,html.Screen,0_2_1_1_23,2021-11-26T10:02:30.147Z,,,,,,,,,,,,,,,,54,,,,,,,,,,,,,,458.4910000000091,,response,,,100,,,,,,Space,keypress(Space),,,,,-- --- ---- --- ------ ----- ------- ---- -- --- ------- --<br>------- ---------- ------ -- ----- -- ----- -- ---- ------<br>--- state --- --- ------ -------- ----- --- ------ ----- --<br>----- ----- ---------- --- --- ------ ------ ---- -- ------<br>------- --- ------ ----- --- ---- ------- -- ---- --- --<br>------- ------,134951.09999999986,134950.5,134475.343,134487.3999999999,134492.009,134958.585,,23,state
screen,html.Screen,0_2_1_1_24,2021-11-26T10:02:30.595Z,,,,,,,,,,,,,,,,54,,,,,,,,,,,,,,439.91500000000815,,response,,,100,,,,,,Space,keypress(Space),,,,,-- --- ---- --- ------ ----- ------- ---- -- --- ------- --<br>------- ---------- ------ -- ----- -- ----- -- ---- ------<br>--- ----- cut --- ------ -------- ----- --- ------ ----- --<br>----- ----- ---------- --- --- ------ ------ ---- -- ------<br>------- --- ------ ----- --- ---- ------- -- ---- --- --<br>------- ------,135399.09999999986,135398.5,134941.92,134951.30000000005,134958.585,135408.571,,24,cut
screen,html.Screen,0_2_1_1_25,2021-11-26T10:02:31.019Z,,,,,,,,,,,,,,,,54,,,,,,,,,,,,,,413.9290000000037,,response,,,100,,,,,,Space,keypress(Space),,,,,-- --- ---- --- ------ ----- ------- ---- -- --- ------- --<br>------- ---------- ------ -- ----- -- ----- -- ---- ------<br>--- ----- --- the ------ -------- ----- --- ------ ----- --<br>----- ----- ---------- --- --- ------ ------ ---- -- ------<br>------- --- ------ ----- --- ---- ------- -- ---- --- --<br>------- ------,135823.09999999986,135822.5,135391.906,135399.19999999995,135408.571,135841.937,,25,the
screen,html.Screen,0_2_1_1_26,2021-11-26T10:02:31.763Z,,,,,,,,,,,,,,,,54,,,,,,,,,,,,,,724.662999999855,,response,,,100,,,,,,Space,keypress(Space),,,,,-- --- ---- --- ------ ----- ------- ---- -- --- ------- --<br>------- ---------- ------ -- ----- -- ----- -- ---- ------<br>--- ----- --- --- bonds' -------- ----- --- ------ ----- --<br>----- ----- ---------- --- --- ------ ------ ---- -- ------<br>------- --- ------ ----- --- ---- ------- -- ---- --- --<br>------- ------,136567.19999999995,136566.59999999986,135825.271,135823.19999999995,135841.937,136575.242,,26,bonds'
screen,html.Screen,0_2_1_1_27,2021-11-26T10:02:32.379Z,,,,,,,,,,,,,,,,54,,,,,,,,,,,,,,607.1579999999085,,response,,,100,,,,,,Space,keypress(Space),,,,,-- --- ---- --- ------ ----- ------- ---- -- --- ------- --<br>------- ---------- ------ -- ----- -- ----- -- ---- ------<br>--- ----- --- --- ------ interest ----- --- ------ ----- --<br>----- ----- ---------- --- --- ------ ------ ---- -- ------<br>------- --- ------ ----- --- ---- ------- -- ---- --- --<br>------- ------,137183,137182.3999999999,136558.576,136567.3999999999,136575.242,137191.744,,27,interest
screen,html.Screen,0_2_1_1_28,2021-11-26T10:02:33.867Z,,,,,,,,,,,,,,,,54,,,,,,,,,,,,,,1478.8559999998542,,response,,,100,,,,,,Space,keypress(Space),,,,,-- --- ---- --- ------ ----- ------- ---- -- --- ------- --<br>------- ---------- ------ -- ----- -- ----- -- ---- ------<br>--- ----- --- --- ------ -------- rate. --- ------ ----- --<br>----- ----- ---------- --- --- ------ ------ ---- -- ------<br>------- --- ------ ----- --- ---- ------- -- ---- --- --<br>------- ------,138671.30000000005,138670.59999999986,137175.08,137183.19999999995,137191.744,138675.022,,28,rate.
screen,html.Screen,0_2_1_1_29,2021-11-26T10:02:34.490Z,,,,,,,,,,,,,,,,54,,,,,,,,,,,,,,619.2780000000494,,response,,,100,,,,,,Space,keypress(Space),,,,,-- --- ---- --- ------ ----- ------- ---- -- --- ------- --<br>------- ---------- ------ -- ----- -- ----- -- ---- ------<br>--- ----- --- --- ------ -------- ----- The ------ ----- --<br>----- ----- ---------- --- --- ------ ------ ---- -- ------<br>------- --- ------ ----- --- ---- ------- -- ---- --- --<br>------- ------,139294.8999999999,139294.30000000005,138658.357,138671.5,138675.022,139308.354,,29,The
screen,html.Screen,0_2_1_1_30,2021-11-26T10:02:37.106Z,,,,,,,,,,,,,,,,54,,,,,,,,,,,,,,2601.8459999999614,,response,,,100,,,,,,Space,keypress(Space),,,,,-- --- ---- --- ------ ----- ------- ---- -- --- ------- --<br>------- ---------- ------ -- ----- -- ----- -- ---- ------<br>--- ----- --- --- ------ -------- ----- --- market ----- --<br>----- ----- ---------- --- --- ------ ------ ---- -- ------<br>------- --- ------ ----- --- ---- ------- -- ---- --- --<br>------- ------,141910.80000000005,141910.19999999995,139291.689,139295.09999999986,139308.354,141924.785,,30,market
screen,html.Screen,0_2_1_1_31,2021-11-26T10:02:37.514Z,,,,,,,,,,,,,,,,54,,,,,,,,,,,,,,393.41499999994994,,response,,,100,,,,,,Space,keypress(Space),,,,,-- --- ---- --- ------ ----- ------- ---- -- --- ------- --<br>------- ---------- ------ -- ----- -- ----- -- ---- ------<br>--- ----- --- --- ------ -------- ----- --- ------ value --<br>----- ----- ---------- --- --- ------ ------ ---- -- ------<br>------- --- ------ ----- --- ---- ------- -- ---- --- --<br>------- ------,142318.69999999995,142318.19999999995,141908.12,141910.8999999999,141924.785,142324.782,,31,value
screen,html.Screen,0_2_1_1_32,2021-11-26T10:02:37.978Z,,,,,,,,,,,,,,,,54,,,,,,,,,,,,,,457.4179999999469,,response,,,100,,,,,,Space,keypress(Space),,,,,-- --- ---- --- ------ ----- ------- ---- -- --- ------- --<br>------- ---------- ------ -- ----- -- ----- -- ---- ------<br>--- ----- --- --- ------ -------- ----- --- ------ ----- of<br>----- ----- ---------- --- --- ------ ------ ---- -- ------<br>------- --- ------ ----- --- ---- ------- -- ---- --- --<br>------- ------,142782.80000000005,142782.19999999995,142308.117,142318.8999999999,142324.782,142791.564,,32,of
screen,html.Screen,0_2_1_1_33,2021-11-26T10:02:38.458Z,,,,,,,,,,,,,,,,54,,,,,,,,,,,,,,470.43599999998696,,response,,,100,,,,,,Space,keypress(Space),,,,,-- --- ---- --- ------ ----- ------- ---- -- --- ------- --<br>------- ---------- ------ -- ----- -- ----- -- ---- ------<br>--- ----- --- --- ------ -------- ----- --- ------ ----- --<br>these ----- ---------- --- --- ------ ------ ---- -- ------<br>------- --- ------ ----- --- ---- ------- -- ---- --- --<br>------- ------,143262.5,143262,142774.899,142782.8999999999,142791.564,143291.468,,33,these
screen,html.Screen,0_2_1_1_34,2021-11-26T10:02:38.850Z,,,,,,,,,,,,,,,,54,,,,,,,,,,,,,,362.5320000000065,,response,,,100,,,,,,Space,keypress(Space),,,,,-- --- ---- --- ------ ----- ------- ---- -- --- ------- --<br>------- ---------- ------ -- ----- -- ----- -- ---- ------<br>--- ----- --- --- ------ -------- ----- --- ------ ----- --<br>----- bonds ---------- --- --- ------ ------ ---- -- ------<br>------- --- ------ ----- --- ---- ------- -- ---- --- --<br>------- ------,143654.3999999999,143654,143274.804,143262.5,143291.468,143658.181,,34,bonds
screen,html.Screen,0_2_1_1_35,2021-11-26T10:02:39.338Z,,,,,,,,,,,,,,,,54,,,,,,,,,,,,,,483.9189999998489,,response,,,100,,,,,,Space,keypress(Space),,,,,"-- --- ---- --- ------ ----- ------- ---- -- --- ------- --<br>------- ---------- ------ -- ----- -- ----- -- ---- ------<br>--- ----- --- --- ------ -------- ----- --- ------ ----- --<br>----- ----- plummeted, --- --- ------ ------ ---- -- ------<br>------- --- ------ ----- --- ---- ------- -- ---- --- --<br>------- ------",144142.69999999995,144142.09999999986,143641.516,143654.8999999999,143658.181,144158.125,,35,"plummeted,"
screen,html.Screen,0_2_1_1_36,2021-11-26T10:02:39.850Z,,,,,,,,,,,,,,,,54,,,,,,,,,,,,,,495.9749999998603,,response,,,100,,,,,,Space,keypress(Space),,,,,-- --- ---- --- ------ ----- ------- ---- -- --- ------- --<br>------- ---------- ------ -- ----- -- ----- -- ---- ------<br>--- ----- --- --- ------ -------- ----- --- ------ ----- --<br>----- ----- ---------- and --- ------ ------ ---- -- ------<br>------- --- ------ ----- --- ---- ------- -- ---- --- --<br>------- ------,144654.69999999995,144654.09999999986,144141.46,144142.8999999999,144158.125,144658.086,,36,and
screen,html.Screen,0_2_1_1_37,2021-11-26T10:02:41.050Z,,,,,,,,,,,,,,,,54,,,,,,,,,,,,,,1196.01399999985,,response,,,100,,,,,,Space,keypress(Space),,,,,-- --- ---- --- ------ ----- ------- ---- -- --- ------- --<br>------- ---------- ------ -- ----- -- ----- -- ---- ------<br>--- ----- --- --- ------ -------- ----- --- ------ ----- --<br>----- ----- ---------- --- the ------ ------ ---- -- ------<br>------- --- ------ ----- --- ---- ------- -- ---- --- --<br>------- ------,145854.59999999986,145854.09999999986,144641.421,144654.8999999999,144658.086,145858.211,,37,the
screen,html.Screen,0_2_1_1_38,2021-11-26T10:02:41.530Z,,,,,,,,,,,,,,,,54,,,,,,,,,,,,,,475.6889999998966,,response,,,100,,,,,,Space,keypress(Space),,,,,-- --- ---- --- ------ ----- ------- ---- -- --- ------- --<br>------- ---------- ------ -- ----- -- ----- -- ---- ------<br>--- ----- --- --- ------ -------- ----- --- ------ ----- --<br>----- ----- ---------- --- --- market ------ ---- -- ------<br>------- --- ------ ----- --- ---- ------- -- ---- --- --<br>------- ------,146334.5,146333.8999999999,145841.544,145854.80000000005,145858.211,146341.375,,38,market
screen,html.Screen,0_2_1_1_39,2021-11-26T10:02:41.954Z,,,,,,,,,,,,,,,,54,,,,,,,,,,,,,,416.52499999990687,,response,,,100,,,,,,Space,keypress(Space),,,,,-- --- ---- --- ------ ----- ------- ---- -- --- ------- --<br>------- ---------- ------ -- ----- -- ----- -- ---- ------<br>--- ----- --- --- ------ -------- ----- --- ------ ----- --<br>----- ----- ---------- --- --- ------ became ---- -- ------<br>------- --- ------ ----- --- ---- ------- -- ---- --- --<br>------- ------,146758.5,146757.8999999999,146324.71,146334.59999999986,146341.375,146774.67,,39,became
screen,html.Screen,0_2_1_1_40,2021-11-26T10:02:42.442Z,,,,,,,,,,,,,,,,54,,,,,,,,,,,,,,471.3299999999872,,response,,,100,,,,,,Space,keypress(Space),,,,,-- --- ---- --- ------ ----- ------- ---- -- --- ------- --<br>------- ---------- ------ -- ----- -- ----- -- ---- ------<br>--- ----- --- --- ------ -------- ----- --- ------ ----- --<br>----- ----- ---------- --- --- ------ ------ wary -- ------<br>------- --- ------ ----- --- ---- ------- -- ---- --- --<br>------- ------,147246.5,147246,146758.005,146758.59999999986,146774.67,147258.069,,40,wary
screen,html.Screen,0_2_1_1_41,2021-11-26T10:02:42.858Z,,,,,,,,,,,,,,,,54,,,,,,,,,,,,,,403.731000000058,,response,,,100,,,,,,Space,keypress(Space),,,,,-- --- ---- --- ------ ----- ------- ---- -- --- ------- --<br>------- ---------- ------ -- ----- -- ----- -- ---- ------<br>--- ----- --- --- ------ -------- ----- --- ------ ----- --<br>----- ----- ---------- --- --- ------ ------ ---- of ------<br>------- --- ------ ----- --- ---- ------- -- ---- --- --<br>------- ------,147662.5,147661.80000000005,147241.403,147246.69999999995,147258.069,147674.591,,41,of
screen,html.Screen,0_2_1_1_42,2021-11-26T10:02:43.354Z,,,,,,,,,,,,,,,,54,,,,,,,,,,,,,,483.30899999992107,,response,,,100,,,,,,Space,keypress(Space),,,,,-- --- ---- --- ------ ----- ------- ---- -- --- ------- --<br>------- ---------- ------ -- ----- -- ----- -- ---- ------<br>--- ----- --- --- ------ -------- ----- --- ------ ----- --<br>----- ----- ---------- --- --- ------ ------ ---- -- French<br>------- --- ------ ----- --- ---- ------- -- ---- --- --<br>------- ------,148158.5,148157.8999999999,147657.927,147662.80000000005,147674.591,148174.671,,42,French
screen,html.Screen,0_2_1_1_43,2021-11-26T10:02:43.978Z,,,,,,,,,,,,,,,,54,,,,,,,,,,,,,,607.4289999998582,,response,,,100,,,,,,Space,keypress(Space),,,,,-- --- ---- --- ------ ----- ------- ---- -- --- ------- --<br>------- ---------- ------ -- ----- -- ----- -- ---- ------<br>--- ----- --- --- ------ -------- ----- --- ------ ----- --<br>----- ----- ---------- --- --- ------ ------ ---- -- ------<br>credit. --- ------ ----- --- ---- ------- -- ---- --- --<br>------- ------,148782.69999999995,148782.09999999986,148158.005,148158.59999999986,148174.671,148791.065,,43,credit.
screen,html.Screen,0_2_1_1_44,2021-11-26T10:02:44.450Z,,,,,,,,,,,,,,,,54,,,,,,,,,,,,,,462.73500000004424,,response,,,100,,,,,,Space,keypress(Space),,,,,-- --- ---- --- ------ ----- ------- ---- -- --- ------- --<br>------- ---------- ------ -- ----- -- ----- -- ---- ------<br>--- ----- --- --- ------ -------- ----- --- ------ ----- --<br>----- ----- ---------- --- --- ------ ------ ---- -- ------<br>------- The ------ ----- --- ---- ------- -- ---- --- --<br>------- ------,149254.3999999999,149253.80000000005,148774.402,148783,148791.065,149257.85,,44,The
screen,html.Screen,0_2_1_1_45,2021-11-26T10:02:44.882Z,,,,,,,,,,,,,,,,54,,,,,,,,,,,,,,427.8499999999476,,response,,,100,,,,,,Space,keypress(Space),,,,,-- --- ---- --- ------ ----- ------- ---- -- --- ------- --<br>------- ---------- ------ -- ----- -- ----- -- ---- ------<br>--- ----- --- --- ------ -------- ----- --- ------ ----- --<br>----- ----- ---------- --- --- ------ ------ ---- -- ------<br>------- --- French ----- --- ---- ------- -- ---- --- --<br>------- ------,149686.3999999999,149685.69999999995,149241.185,149254.59999999986,149257.85,149691.262,,45,French
screen,html.Screen,0_2_1_1_46,2021-11-26T10:02:45.314Z,,,,,,,,,,,,,,,,54,,,,,,,,,,,,,,426.43799999996554,,response,,,100,,,,,,Space,keypress(Space),,,,,-- --- ---- --- ------ ----- ------- ---- -- --- ------- --<br>------- ---------- ------ -- ----- -- ----- -- ---- ------<br>--- ----- --- --- ------ -------- ----- --- ------ ----- --<br>----- ----- ---------- --- --- ------ ------ ---- -- ------<br>------- --- ------ state --- ---- ------- -- ---- --- --<br>------- ------,150118.3999999999,150117.69999999995,149674.596,149686.59999999986,149691.262,150124.512,,46,state
screen,html.Screen,0_2_1_1_47,2021-11-26T10:02:45.746Z,,,,,,,,,,,,,,,,54,,,,,,,,,,,,,,425.2880000000587,,response,,,100,,,,,,Space,keypress(Space),,,,,-- --- ---- --- ------ ----- ------- ---- -- --- ------- --<br>------- ---------- ------ -- ----- -- ----- -- ---- ------<br>--- ----- --- --- ------ -------- ----- --- ------ ----- --<br>----- ----- ---------- --- --- ------ ------ ---- -- ------<br>------- --- ------ ----- was ---- ------- -- ---- --- --<br>------- ------,150550.3999999999,150549.80000000005,150107.847,150118.59999999986,150124.512,150557.834,,47,was
screen,html.Screen,0_2_1_1_48,2021-11-26T10:02:46.162Z,,,,,,,,,,,,,,,,54,,,,,,,,,,,,,,407.8659999999509,,response,,,100,,,,,,Space,keypress(Space),,,,,-- --- ---- --- ------ ----- ------- ---- -- --- ------- --<br>------- ---------- ------ -- ----- -- ----- -- ---- ------<br>--- ----- --- --- ------ -------- ----- --- ------ ----- --<br>----- ----- ---------- --- --- ------ ------ ---- -- ------<br>------- --- ------ ----- --- left ------- -- ---- --- --<br>------- ------,150966.30000000005,150965.69999999995,150541.169,150550.59999999986,150557.834,150974.454,,48,left
screen,html.Screen,0_2_1_1_49,2021-11-26T10:02:46.650Z,,,,,,,,,,,,,,,,54,,,,,,,,,,,,,,479.24599999995553,,response,,,100,,,,,,Space,keypress(Space),,,,,-- --- ---- --- ------ ----- ------- ---- -- --- ------- --<br>------- ---------- ------ -- ----- -- ----- -- ---- ------<br>--- ----- --- --- ------ -------- ----- --- ------ ----- --<br>----- ----- ---------- --- --- ------ ------ ---- -- ------<br>------- --- ------ ----- --- ---- without -- ---- --- --<br>------- ------,151454.3999999999,151453.69999999995,150957.789,150966.5,150974.454,151457.852,,49,without
screen,html.Screen,0_2_1_1_50,2021-11-26T10:02:47.122Z,,,,,,,,,,,,,,,,54,,,,,,,,,,,,,,467.84799999993993,,response,,,100,,,,,,Space,keypress(Space),,,,,-- --- ---- --- ------ ----- ------- ---- -- --- ------- --<br>------- ---------- ------ -- ----- -- ----- -- ---- ------<br>--- ----- --- --- ------ -------- ----- --- ------ ----- --<br>----- ----- ---------- --- --- ------ ------ ---- -- ------<br>------- --- ------ ----- --- ---- ------- an ---- --- --<br>------- ------,151926.19999999995,151925.69999999995,151441.186,151454.59999999986,151457.852,151941.039,,50,an
screen,html.Screen,0_2_1_1_51,2021-11-26T10:02:47.970Z,,,,,,,,,,,,,,,,54,,,,,,,,,,,,,,832.7610000000568,,response,,,100,,,,,,Space,keypress(Space),,,,,-- --- ---- --- ------ ----- ------- ---- -- --- ------- --<br>------- ---------- ------ -- ----- -- ----- -- ---- ------<br>--- ----- --- --- ------ -------- ----- --- ------ ----- --<br>----- ----- ---------- --- --- ------ ------ ---- -- ------<br>------- --- ------ ----- --- ---- ------- -- easy --- --<br>------- ------,152774.3999999999,152773.80000000005,151924.375,151926.5,151941.039,152791.121,,51,easy
screen,html.Screen,0_2_1_1_52,2021-11-26T10:02:48.618Z,,,,,,,,,,,,,,,,54,,,,,,,,,,,,,,630.5789999999397,,response,,,100,,,,,,Space,keypress(Space),,,,,-- --- ---- --- ------ ----- ------- ---- -- --- ------- --<br>------- ---------- ------ -- ----- -- ----- -- ---- ------<br>--- ----- --- --- ------ -------- ----- --- ------ ----- --<br>----- ----- ---------- --- --- ------ ------ ---- -- ------<br>------- --- ------ ----- --- ---- ------- -- ---- way --<br>------- ------,153422.30000000005,153421.69999999995,152774.455,152774.3999999999,152791.121,153424.266,,52,way
screen,html.Screen,0_2_1_1_53,2021-11-26T10:02:49.098Z,,,,,,,,,,,,,,,,54,,,,,,,,,,,,,,477.33399999985704,,response,,,100,,,,,,Space,keypress(Space),,,,,-- --- ---- --- ------ ----- ------- ---- -- --- ------- --<br>------- ---------- ------ -- ----- -- ----- -- ---- ------<br>--- ----- --- --- ------ -------- ----- --- ------ ----- --<br>----- ----- ---------- --- --- ------ ------ ---- -- ------<br>------- --- ------ ----- --- ---- ------- -- ---- --- of<br>------- ------,153902.09999999986,153901.59999999986,153407.602,153422.3999999999,153424.266,153907.683,,53,of
screen,html.Screen,0_2_1_1_54,2021-11-26T10:02:49.682Z,,,,,,,,,,,,,,,,54,,,,,,,,,,,,,,577.9169999998703,,response,,,100,,,,,,Space,keypress(Space),,,,,-- --- ---- --- ------ ----- ------- ---- -- --- ------- --<br>------- ---------- ------ -- ----- -- ----- -- ---- ------<br>--- ----- --- --- ------ -------- ----- --- ------ ----- --<br>----- ----- ---------- --- --- ------ ------ ---- -- ------<br>------- --- ------ ----- --- ---- ------- -- ---- --- --<br>raising ------,154486.19999999995,154485.59999999986,153891.018,153902.30000000005,153907.683,154490.971,,54,raising
screen,html.Screen,0_2_1_1_55,2021-11-26T10:02:50.474Z,,,,,,,,,,,,,,,,54,,,,,,,,,,,,,,786.5290000000095,,response,,,100,,,,,,Space,keypress(Space),,,,,-- --- ---- --- ------ ----- ------- ---- -- --- ------- --<br>------- ---------- ------ -- ----- -- ----- -- ---- ------<br>--- ----- --- --- ------ -------- ----- --- ------ ----- --<br>----- ----- ---------- --- --- ------ ------ ---- -- ------<br>------- --- ------ ----- --- ---- ------- -- ---- --- --<br>------- money.,155278.19999999995,155277.5,154474.306,154486.3999999999,154490.971,155290.827,,55,money.
Item 100,flow.Loop,0_2_1_1,2021-11-26T10:02:50.474Z,,,,,,,,,,,,,,,,,,,,,,,,,,,,,,39018.00199999999,,completion,,,,A,,,,,,,,,,silence,,155278.5,155277.5,116242.833,116244.19999999995,116259.498,155290.827,,,
Question 1,html.Screen,0_2_1_2,2021-11-26T10:02:53.517Z,,,,,,,,,,,,,,,,,,,,,,,,,,,true,TRUE,,3029.67300000001,,response,,,100,A,,,,,TRUE,click #choice-1,,,,silence,,158321.30000000005,158320.5,155274.163,155278.69999999995,155290.827,158324.126,,,
Question 2,html.Screen,0_2_1_3,2021-11-26T10:02:57.067Z,,,,,,,,,,,,,,,,,,,,,,,,,,,true,FALSE,,3546.1740000000573,,response,,,100,A,,,,,FALSE,click #choice-2,,,,silence,,161871.09999999986,161870.30000000005,158307.461,158321.3999999999,158324.126,161873.973,,,
Item 100,flow.Sequence,0_2_1,2021-11-26T10:02:57.067Z,,,,,,,,,,,,,,,,,,,,,,,,,,,,,,55610.205000000045,,completion,,,,,,,,,,,,,,,,161871.3999999999,161870.30000000005,106243.428,106261.3999999999,106260.095,161873.973,,,
End of Practice,html.Page,0_2_2,2021-11-26T10:03:03.601Z,,,,,,,,,,,,,,,,,,,,,,,,,,,,,,6530.726999999955,,form submission,,,,,,,,,,,,,,,,168405.19999999995,168404.69999999995,161857.307,161871.59999999986,161873.973,168406.982,,,
Practice,flow.Sequence,0_2,2021-11-26T10:03:03.601Z,,,,,,,,,,,,,,,,,,,,,,,,,,,,,,122558.51699999996,,completion,,,,,,,,,,,,,,,,168405.3999999999,168404.69999999995,45829.518,45837.09999999986,45846.183,168406.982,,,
Trap_instruction,html.Page,0_3_0,2021-11-26T10:03:07.016Z,,,,,,,,,,,,,,,,,,,,,,,,,,,,,,3412.7179999999644,,form submission,,,,,,,,,,,,,,,,171820.09999999986,171819.69999999995,168390.316,168405.59999999986,168406.982,171839.933,,,
trap_trial,html.Screen,0_3_1,2021-11-26T10:03:11.529Z,,,,,,,,,,,,,,,,,,,,,,,,,,,true,1,,4492.266999999963,,response,,,,,,,,,1,click #choice-1,,,,,,176333.19999999995,176332.19999999995,171806.603,171820.19999999995,171839.933,176348.052,,,
end of trap trial,html.Page,0_3_2,2021-11-26T10:03:14.588Z,,,,,,,,,,,,,,,,,,,,,,,,,,,,,,3044.447999999771,,form submission,,,,,,,,,,,,,,,,179392.90000000014,179392.49999999977,176331.418,176333.3999999999,176348.052,179406.351,,,
Trap 1,flow.Sequence,0_3,2021-11-26T10:03:14.589Z,,,,,,,,,,,,,,,,,,,,,,,,,,,,,,10985.517999999778,,completion,,,,,,,,,,,,,,,,179393.09999999986,179392.49999999977,168390.316,168405.59999999986,168406.982,179406.351,,,
Standby,html.Page,0_4_0,2021-11-26T10:03:22.588Z,,,,,,,,,,,,,,,,,,,,,,,,,,,,,,7999.295000000013,,timeout,,,,,,,,,,,,,,,,187390.09999999986,187388.981,179389.686,179393.30000000005,179406.351,187405.646,,,
Holding screen,html.Screen,0_4_1_0_0,2021-11-26T10:03:29.588Z,,,,,,,,,,,,,,,,,,,,,,,,,,,,,,7000.079999999987,,timeout,,,,,,,,,,,,,,,,194390.19999999995,194389.06,187388.981,187390.30000000005,187405.646,194405.726,,,
screen,html.Screen,0_4_1_0_1_0,2021-11-26T10:03:30.731Z,,,,,,,,,,,,,,,,48,,,,,,,,,,,,,,1126.0740000000515,,response,,,10,A,,,,,Space,keypress(Space),,,,silence,As -- --- ------ ------- --------- ----------- --------<br>--------- -------- --- ------- -- ------- ---- -- ------<br>-- --- -------- -------- ---------- ---- ---- ---- ------<br>-- --------- -- ---- -- --- -- --- ------- -- - -----<br>---------- -- -- -- ---- ----- -- ------ -- --- ------<br>-------,195532.59999999986,195531.80000000005,194389.06,194390.40000000014,194405.726,195539.03,,0,As
screen,html.Screen,0_4_1_0_1_1,2021-11-26T10:03:31.194Z,,,,,,,,,,,,,,,,48,,,,,,,,,,,,,,456.46999999976833,,response,,,10,A,,,,,Space,keypress(Space),,,,silence,-- in --- ------ ------- --------- ----------- --------<br>--------- -------- --- ------- -- ------- ---- -- ------<br>-- --- -------- -------- ---------- ---- ---- ---- ------<br>-- --------- -- ---- -- --- -- --- ------- -- - -----<br>---------- -- -- -- ---- ----- -- ------ -- --- ------<br>-------,195995.99999999977,195995.49999999977,195522.364,195532.69999999995,195539.03,196005.593,,1,in
screen,html.Screen,0_4_1_0_1_2,2021-11-26T10:03:31.610Z,,,,,,,,,,,,,,,,48,,,,,,,,,,,,,,405.9069999997737,,response,,,10,A,,,,,Space,keypress(Space),,,,silence,-- -- the ------ ------- --------- ----------- --------<br>--------- -------- --- ------- -- ------- ---- -- ------<br>-- --- -------- -------- ---------- ---- ---- ---- ------<br>-- --------- -- ---- -- --- -- --- ------- -- - -----<br>---------- -- -- -- ---- ----- -- ------ -- --- ------<br>-------,196412.19999999995,196411.49999999977,195988.928,195996.30000000005,196005.593,196422.21,,2,the
screen,html.Screen,0_4_1_0_1_3,2021-11-26T10:03:32.010Z,,,,,,,,,,,,,,,,48,,,,,,,,,,,,,,389.2899999997753,,response,,,10,A,,,,,Space,keypress(Space),,,,silence,-- -- --- United ------- --------- ----------- --------<br>--------- -------- --- ------- -- ------- ---- -- ------<br>-- --- -------- -------- ---------- ---- ---- ---- ------<br>-- --------- -- ---- -- --- -- --- ------- -- - -----<br>---------- -- -- -- ---- ----- -- ------ -- --- ------<br>-------,196812.19999999995,196811.49999999977,196405.545,196412.30000000005,196422.21,196822.251,,3,United
screen,html.Screen,0_4_1_0_1_4,2021-11-26T10:03:32.418Z,,,,,,,,,,,,,,,,48,,,,,,,,,,,,,,397.1490000001504,,response,,,10,A,,,,,Space,keypress(Space),,,,silence,"-- -- --- ------ States, --------- ----------- --------<br>--------- -------- --- ------- -- ------- ---- -- ------<br>-- --- -------- -------- ---------- ---- ---- ---- ------<br>-- --------- -- ---- -- --- -- --- ------- -- - -----<br>---------- -- -- -- ---- ----- -- ------ -- --- ------<br>-------",197219.90000000014,197219.40000000014,196805.585,196812.30000000005,196822.251,197222.11,,4,"States,"
screen,html.Screen,0_4_1_0_1_5,2021-11-26T10:03:33.050Z,,,,,,,,,,,,,,,,48,,,,,,,,,,,,,,629.3899999997811,,response,,,10,A,,,,,Space,keypress(Space),,,,silence,-- -- --- ------ ------- Colombian ----------- --------<br>--------- -------- --- ------- -- ------- ---- -- ------<br>-- --- -------- -------- ---------- ---- ---- ---- ------<br>-- --------- -- ---- -- --- -- --- ------- -- - -----<br>---------- -- -- -- ---- ----- -- ------ -- --- ------<br>-------,197852.09999999986,197851.49999999977,197205.446,197220.19999999995,197222.11,197855.612,,5,Colombian
screen,html.Screen,0_4_1_0_1_6,2021-11-26T10:03:33.490Z,,,,,,,,,,,,,,,,48,,,,,,,,,,,,,,435.788000000146,,response,,,10,A,,,,,Space,keypress(Space),,,,silence,-- -- --- ------ ------- --------- legislation --------<br>--------- -------- --- ------- -- ------- ---- -- ------<br>-- --- -------- -------- ---------- ---- ---- ---- ------<br>-- --------- -- ---- -- --- -- --- ------- -- - -----<br>---------- -- -- -- ---- ----- -- ------ -- --- ------<br>-------,198291.99999999977,198291.40000000014,197838.945,197852.19999999995,197855.612,198305.458,,6,legislation
screen,html.Screen,0_4_1_0_1_7,2021-11-26T10:03:34.210Z,,,,,,,,,,,,,,,,48,,,,,,,,,,,,,,705.9420000001264,,response,,,10,A,,,,,Space,keypress(Space),,,,silence,-- -- --- ------ ------- --------- ----------- requires<br>--------- -------- --- ------- -- ------- ---- -- ------<br>-- --- -------- -------- ---------- ---- ---- ---- ------<br>-- --------- -- ---- -- --- -- --- ------- -- - -----<br>---------- -- -- -- ---- ----- -- ------ -- --- ------<br>-------,199011.99999999977,199011.40000000014,198288.793,198292.19999999995,198305.458,199022.112,,7,requires
screen,html.Screen,0_4_1_0_1_8,2021-11-26T10:03:34.802Z,,,,,,,,,,,,,,,,48,,,,,,,,,,,,,,581.288000000146,,response,,,10,A,,,,,Space,keypress(Space),,,,silence,-- -- --- ------ ------- --------- ----------- --------<br>travelers -------- --- ------- -- ------- ---- -- ------<br>-- --- -------- -------- ---------- ---- ---- ---- ------<br>-- --------- -- ---- -- --- -- --- ------- -- - -----<br>---------- -- -- -- ---- ----- -- ------ -- --- ------<br>-------,199603.90000000014,199603.40000000014,199005.447,199012.09999999986,199022.112,199605.426,,8,travelers
screen,html.Screen,0_4_1_0_1_9,2021-11-26T10:03:36.898Z,,,,,,,,,,,,,,,,48,,,,,,,,,,,,,,2093.87400000004,,response,,,10,A,,,,,Space,keypress(Space),,,,silence,-- -- --- ------ ------- --------- ----------- --------<br>--------- entering --- ------- -- ------- ---- -- ------<br>-- --- -------- -------- ---------- ---- ---- ---- ------<br>-- --------- -- ---- -- --- -- --- ------- -- - -----<br>---------- -- -- -- ---- ----- -- ------ -- --- ------<br>-------,201699.90000000014,201699.30000000005,199588.761,199604.09999999986,199605.426,201705.235,,9,entering
screen,html.Screen,0_4_1_0_1_10,2021-11-26T10:03:37.306Z,,,,,,,,,,,,,,,,48,,,,,,,,,,,,,,401.9649999999674,,response,,,10,A,,,,,Space,keypress(Space),,,,silence,-- -- --- ------ ------- --------- ----------- --------<br>--------- -------- the ------- -- ------- ---- -- ------<br>-- --- -------- -------- ---------- ---- ---- ---- ------<br>-- --------- -- ---- -- --- -- --- ------- -- - -----<br>---------- -- -- -- ---- ----- -- ------ -- --- ------<br>-------,202107.80000000005,202107.19999999995,201688.57,201700.09999999986,201705.235,202121.988,,10,the
screen,html.Screen,0_4_1_0_1_11,2021-11-26T10:03:37.770Z,,,,,,,,,,,,,,,,48,,,,,,,,,,,,,,449.2119999999413,,response,,,10,A,,,,,Space,keypress(Space),,,,silence,-- -- --- ------ ------- --------- ----------- --------<br>--------- -------- --- country -- ------- ---- -- ------<br>-- --- -------- -------- ---------- ---- ---- ---- ------<br>-- --------- -- ---- -- --- -- --- ------- -- - -----<br>---------- -- -- -- ---- ----- -- ------ -- --- ------<br>-------,202571.69999999995,202571.19999999995,202105.323,202107.90000000014,202121.988,202588.571,,11,country
screen,html.Screen,0_4_1_0_1_12,2021-11-26T10:03:38.130Z,,,,,,,,,,,,,,,,48,,,,,,,,,,,,,,342.62899999995716,,response,,,10,A,,,,,Space,keypress(Space),,,,silence,-- -- --- ------ ------- --------- ----------- --------<br>--------- -------- --- ------- to ------- ---- -- ------<br>-- --- -------- -------- ---------- ---- ---- ---- ------<br>-- --------- -- ---- -- --- -- --- ------- -- - -----<br>---------- -- -- -- ---- ----- -- ------ -- --- ------<br>-------,202931.69999999995,202931.19999999995,202571.906,202571.99999999977,202588.571,202938.673,,12,to
screen,html.Screen,0_4_1_0_1_13,2021-11-26T10:03:38.850Z,,,,,,,,,,,,,,,,48,,,,,,,,,,,,,,712.5269999999437,,response,,,10,A,,,,,Space,keypress(Space),,,,silence,-- -- --- ------ ------- --------- ----------- --------<br>--------- -------- --- ------- -- declare ---- -- ------<br>-- --- -------- -------- ---------- ---- ---- ---- ------<br>-- --------- -- ---- -- --- -- --- ------- -- - -----<br>---------- -- -- -- ---- ----- -- ------ -- --- ------<br>-------,203651.80000000005,203651.19999999995,202922.006,202931.90000000014,202938.673,203655.192,,13,declare
screen,html.Screen,0_4_1_0_1_14,2021-11-26T10:03:39.146Z,,,,,,,,,,,,,,,,48,,,,,,,,,,,,,,291.9079999998503,,response,,,10,A,,,,,Space,keypress(Space),,,,silence,-- -- --- ------ ------- --------- ----------- --------<br>--------- -------- --- ------- -- ------- cash -- ------<br>-- --- -------- -------- ---------- ---- ---- ---- ------<br>-- --------- -- ---- -- --- -- --- ------- -- - -----<br>---------- -- -- -- ---- ----- -- ------ -- --- ------<br>-------,203947.69999999995,203947.09999999986,203638.527,203651.99999999977,203655.192,203955.198,,14,cash
screen,html.Screen,0_4_1_0_1_15,2021-11-26T10:03:39.650Z,,,,,,,,,,,,,,,,48,,,,,,,,,,,,,,496.0019999999495,,response,,,10,A,,,,,Space,keypress(Space),,,,silence,-- -- --- ------ ------- --------- ----------- --------<br>--------- -------- --- ------- -- ------- ---- in ------<br>-- --- -------- -------- ---------- ---- ---- ---- ------<br>-- --------- -- ---- -- --- -- --- ------- -- - -----<br>---------- -- -- -- ---- ----- -- ------ -- --- ------<br>-------,204451.69999999995,204451.19999999995,203938.533,203947.80000000005,203955.198,204455.231,,15,in
screen,html.Screen,0_4_1_0_1_16,2021-11-26T10:03:40.114Z,,,,,,,,,,,,,,,,48,,,,,,,,,,,,,,459.86899999986053,,response,,,10,A,,,,,Space,keypress(Space),,,,silence,-- -- --- ------ ------- --------- ----------- --------<br>--------- -------- --- ------- -- ------- ---- -- excess<br>-- --- -------- -------- ---------- ---- ---- ---- ------<br>-- --------- -- ---- -- --- -- --- ------- -- - -----<br>---------- -- -- -- ---- ----- -- ------ -- --- ------<br>-------,204915.69999999995,204915.09999999986,204438.565,204451.90000000014,204455.231,204921.833,,16,excess
screen,html.Screen,0_4_1_0_1_17,2021-11-26T10:03:40.626Z,,,,,,,,,,,,,,,,48,,,,,,,,,,,,,,505.1669999997539,,response,,,10,A,,,,,Space,keypress(Space),,,,silence,-- -- --- ------ ------- --------- ----------- --------<br>--------- -------- --- ------- -- ------- ---- -- ------<br>of --- -------- -------- ---------- ---- ---- ---- ------<br>-- --------- -- ---- -- --- -- --- ------- -- - -----<br>---------- -- -- -- ---- ----- -- ------ -- --- ------<br>-------,205427.69999999995,205426.99999999977,204905.168,204915.80000000005,204921.833,205438.474,,17,of
screen,html.Screen,0_4_1_0_1_18,2021-11-26T10:03:41.058Z,,,,,,,,,,,,,,,,48,,,,,,,,,,,,,,420.82600000005914,,response,,,10,A,,,,,Space,keypress(Space),,,,silence,-- -- --- ------ ------- --------- ----------- --------<br>--------- -------- --- ------- -- ------- ---- -- ------<br>-- ten -------- -------- ---------- ---- ---- ---- ------<br>-- --------- -- ---- -- --- -- --- ------- -- - -----<br>---------- -- -- -- ---- ----- -- ------ -- --- ------<br>-------,205859.80000000005,205859.30000000005,205421.809,205427.80000000005,205438.474,205871.709,,18,ten
screen,html.Screen,0_4_1_0_1_19,2021-11-26T10:03:41.498Z,,,,,,,,,,,,,,,,48,,,,,,,,,,,,,,427.2909999997646,,response,,,10,A,,,,,Space,keypress(Space),,,,silence,-- -- --- ------ ------- --------- ----------- --------<br>--------- -------- --- ------- -- ------- ---- -- ------<br>-- --- thousand -------- ---------- ---- ---- ---- ------<br>-- --------- -- ---- -- --- -- --- ------- -- - -----<br>---------- -- -- -- ---- ----- -- ------ -- --- ------<br>-------,206299.59999999986,206298.99999999977,205855.045,205859.90000000014,205871.709,206305.074,,19,thousand
screen,html.Screen,0_4_1_0_1_20,2021-11-26T10:03:43.914Z,,,,,,,,,,,,,,,,48,,,,,,,,,,,,,,2409.925999999774,,response,,,10,A,,,,,Space,keypress(Space),,,,silence,-- -- --- ------ ------- --------- ----------- --------<br>--------- -------- --- ------- -- ------- ---- -- ------<br>-- --- -------- dollars. ---------- ---- ---- ---- ------<br>-- --------- -- ---- -- --- -- --- ------- -- - -----<br>---------- -- -- -- ---- ----- -- ------ -- --- ------<br>-------,208715.59999999986,208714.99999999977,206288.409,206299.69999999995,206305.074,208721.532,,20,dollars.
screen,html.Screen,0_4_1_0_1_21,2021-11-26T10:03:44.386Z,,,,,,,,,,,,,,,,48,,,,,,,,,,,,,,465.26800000004005,,response,,,10,A,,,,,Space,keypress(Space),,,,silence,-- -- --- ------ ------- --------- ----------- --------<br>--------- -------- --- ------- -- ------- ---- -- ------<br>-- --- -------- -------- Concealing ---- ---- ---- ------<br>-- --------- -- ---- -- --- -- --- ------- -- - -----<br>---------- -- -- -- ---- ----- -- ------ -- --- ------<br>-------,209187.40000000014,209186.80000000005,208704.867,208715.80000000005,208721.532,209188.362,,21,Concealing
screen,html.Screen,0_4_1_0_1_22,2021-11-26T10:03:44.994Z,,,,,,,,,,,,,,,,48,,,,,,,,,,,,,,606.538000000146,,response,,,10,A,,,,,Space,keypress(Space),,,,silence,-- -- --- ------ ------- --------- ----------- --------<br>--------- -------- --- ------- -- ------- ---- -- ------<br>-- --- -------- -------- ---------- more ---- ---- ------<br>-- --------- -- ---- -- --- -- --- ------- -- - -----<br>---------- -- -- -- ---- ----- -- ------ -- --- ------<br>-------,209795.40000000014,209794.90000000014,209171.696,209187.59999999986,209188.362,209804.914,,22,more
screen,html.Screen,0_4_1_0_1_23,2021-11-26T10:03:45.450Z,,,,,,,,,,,,,,,,48,,,,,,,,,,,,,,445.8860000000568,,response,,,10,A,,,,,Space,keypress(Space),,,,silence,-- -- --- ------ ------- --------- ----------- --------<br>--------- -------- --- ------- -- ------- ---- -- ------<br>-- --- -------- -------- ---------- ---- than ---- ------<br>-- --------- -- ---- -- --- -- --- ------- -- - -----<br>---------- -- -- -- ---- ----- -- ------ -- --- ------<br>-------,210251.40000000014,210250.80000000005,209788.249,209795.59999999986,209804.914,210254.918,,23,than
screen,html.Screen,0_4_1_0_1_24,2021-11-26T10:03:45.922Z,,,,,,,,,,,,,,,,48,,,,,,,,,,,,,,467.88200000004144,,response,,,10,A,,,,,Space,keypress(Space),,,,silence,-- -- --- ------ ------- --------- ----------- --------<br>--------- -------- --- ------- -- ------- ---- -- ------<br>-- --- -------- -------- ---------- ---- ---- that ------<br>-- --------- -- ---- -- --- -- --- ------- -- - -----<br>---------- -- -- -- ---- ----- -- ------ -- --- ------<br>-------,210723.40000000014,210722.80000000005,210238.253,210251.49999999977,210254.918,210738.197,,24,that
screen,html.Screen,0_4_1_0_1_25,2021-11-26T10:03:46.466Z,,,,,,,,,,,,,,,,48,,,,,,,,,,,,,,528.603000000061,,response,,,10,A,,,,,Space,keypress(Space),,,,silence,-- -- --- ------ ------- --------- ----------- --------<br>--------- -------- --- ------- -- ------- ---- -- ------<br>-- --- -------- -------- ---------- ---- ---- ---- amount<br>-- --------- -- ---- -- --- -- --- ------- -- - -----<br>---------- -- -- -- ---- ----- -- ------ -- --- ------<br>-------,211267.30000000005,211266.80000000005,210721.532,210723.49999999977,210738.197,211271.488,,25,amount
screen,html.Screen,0_4_1_0_1_26,2021-11-26T10:03:46.938Z,,,,,,,,,,,,,,,,48,,,,,,,,,,,,,,467.2119999999413,,response,,,10,A,,,,,Space,keypress(Space),,,,silence,-- -- --- ------ ------- --------- ----------- --------<br>--------- -------- --- ------- -- ------- ---- -- ------<br>-- --- -------- -------- ---------- ---- ---- ---- ------<br>to --------- -- ---- -- --- -- --- ------- -- - -----<br>---------- -- -- -- ---- ----- -- ------ -- --- ------<br>-------,211739.40000000014,211738.69999999995,211254.823,211267.59999999986,211271.488,211754.807,,26,to
screen,html.Screen,0_4_1_0_1_27,2021-11-26T10:03:47.514Z,,,,,,,,,,,,,,,,48,,,,,,,,,,,,,,559.8929999999527,,response,,,10,A,,,,,Space,keypress(Space),,,,silence,-- -- --- ------ ------- --------- ----------- --------<br>--------- -------- --- ------- -- ------- ---- -- ------<br>-- --- -------- -------- ---------- ---- ---- ---- ------<br>-- transport -- ---- -- --- -- --- ------- -- - -----<br>---------- -- -- -- ---- ----- -- ------ -- --- ------<br>-------,212315.30000000005,212314.69999999995,211738.142,211739.59999999986,211754.807,212321.419,,27,transport
screen,html.Screen,0_4_1_0_1_28,2021-11-26T10:03:47.986Z,,,,,,,,,,,,,,,,48,,,,,,,,,,,,,,465.38100000005215,,response,,,10,A,,,,,Space,keypress(Space),,,,silence,-- -- --- ------ ------- --------- ----------- --------<br>--------- -------- --- ------- -- ------- ---- -- ------<br>-- --- -------- -------- ---------- ---- ---- ---- ------<br>-- --------- it ---- -- --- -- --- ------- -- - -----<br>---------- -- -- -- ---- ----- -- ------ -- --- ------<br>-------,212787.40000000014,212786.80000000005,212304.754,212315.49999999977,212321.419,212788.162,,28,it
screen,html.Screen,0_4_1_0_1_29,2021-11-26T10:03:48.802Z,,,,,,,,,,,,,,,,48,,,,,,,,,,,,,,814.5379999999423,,response,,,10,A,,,,,Space,keypress(Space),,,,silence,-- -- --- ------ ------- --------- ----------- --------<br>--------- -------- --- ------- -- ------- ---- -- ------<br>-- --- -------- -------- ---------- ---- ---- ---- ------<br>-- --------- -- into -- --- -- --- ------- -- - -----<br>---------- -- -- -- ---- ----- -- ------ -- --- ------<br>-------,213603.30000000005,213602.69999999995,212771.496,212787.49999999977,212788.162,213604.621,,29,into
screen,html.Screen,0_4_1_0_1_30,2021-11-26T10:03:49.433Z,,,,,,,,,,,,,,,,48,,,,,,,,,,,,,,629.9789999998466,,response,,,10,A,,,,,Space,keypress(Space),,,,silence,-- -- --- ------ ------- --------- ----------- --------<br>--------- -------- --- ------- -- ------- ---- -- ------<br>-- --- -------- -------- ---------- ---- ---- ---- ------<br>-- --------- -- ---- or --- -- --- ------- -- - -----<br>---------- -- -- -- ---- ----- -- ------ -- --- ------<br>-------,214235.19999999995,214234.59999999986,213587.957,213603.40000000014,213604.621,214238.074,,30,or
screen,html.Screen,0_4_1_0_1_31,2021-11-26T10:03:49.865Z,,,,,,,,,,,,,,,,48,,,,,,,,,,,,,,428.52599999986705,,response,,,10,A,,,,,Space,keypress(Space),,,,silence,-- -- --- ------ ------- --------- ----------- --------<br>--------- -------- --- ------- -- ------- ---- -- ------<br>-- --- -------- -------- ---------- ---- ---- ---- ------<br>-- --------- -- ---- -- out -- --- ------- -- - -----<br>---------- -- -- -- ---- ----- -- ------ -- --- ------<br>-------,214667.19999999995,214666.59999999986,214221.408,214235.30000000005,214238.074,214671.322,,31,out
screen,html.Screen,0_4_1_0_1_32,2021-11-26T10:03:50.329Z,,,,,,,,,,,,,,,,48,,,,,,,,,,,,,,459.27799999987474,,response,,,10,A,,,,,Space,keypress(Space),,,,silence,-- -- --- ------ ------- --------- ----------- --------<br>--------- -------- --- ------- -- ------- ---- -- ------<br>-- --- -------- -------- ---------- ---- ---- ---- ------<br>-- --------- -- ---- -- --- of --- ------- -- - -----<br>---------- -- -- -- ---- ----- -- ------ -- --- ------<br>-------,215131.19999999995,215130.59999999986,214654.657,214667.40000000014,214671.322,215137.985,,32,of
screen,html.Screen,0_4_1_0_1_33,2021-11-26T10:03:50.729Z,,,,,,,,,,,,,,,,48,,,,,,,,,,,,,,392.61499999987427,,response,,,10,A,,,,,Space,keypress(Space),,,,silence,-- -- --- ------ ------- --------- ----------- --------<br>--------- -------- --- ------- -- ------- ---- -- ------<br>-- --- -------- -------- ---------- ---- ---- ---- ------<br>-- --------- -- ---- -- --- -- the ------- -- - -----<br>---------- -- -- -- ---- ----- -- ------ -- --- ------<br>-------,215531.09999999986,215530.59999999986,215121.32,215131.30000000005,215137.985,215537.956,,33,the
screen,html.Screen,0_4_1_0_1_34,2021-11-26T10:03:51.218Z,,,,,,,,,,,,,,,,48,,,,,,,,,,,,,,480.74399999994785,,response,,,10,A,,,,,Space,keypress(Space),,,,silence,-- -- --- ------ ------- --------- ----------- --------<br>--------- -------- --- ------- -- ------- ---- -- ------<br>-- --- -------- -------- ---------- ---- ---- ---- ------<br>-- --------- -- ---- -- --- -- --- country -- - -----<br>---------- -- -- -- ---- ----- -- ------ -- --- ------<br>-------,216019.30000000005,216018.69999999995,215521.291,215531.30000000005,215537.956,216021.275,,34,country
screen,html.Screen,0_4_1_0_1_35,2021-11-26T10:03:52.033Z,,,,,,,,,,,,,,,,48,,,,,,,,,,,,,,813.3249999998661,,response,,,10,A,,,,,Space,keypress(Space),,,,silence,-- -- --- ------ ------- --------- ----------- --------<br>--------- -------- --- ------- -- ------- ---- -- ------<br>-- --- -------- -------- ---------- ---- ---- ---- ------<br>-- --------- -- ---- -- --- -- --- ------- is - -----<br>---------- -- -- -- ---- ----- -- ------ -- --- ------<br>-------,216835.09999999986,216834.59999999986,216004.61,216019.49999999977,216021.275,216837.876,,35,is
screen,html.Screen,0_4_1_0_1_36,2021-11-26T10:03:52.593Z,,,,,,,,,,,,,,,,48,,,,,,,,,,,,,,556.5240000001504,,response,,,10,A,,,,,Space,keypress(Space),,,,silence,-- -- --- ------ ------- --------- ----------- --------<br>--------- -------- --- ------- -- ------- ---- -- ------<br>-- --- -------- -------- ---------- ---- ---- ---- ------<br>-- --------- -- ---- -- --- -- --- ------- -- a -----<br>---------- -- -- -- ---- ----- -- ------ -- --- ------<br>-------,217394.99999999977,217394.40000000014,216821.211,216835.30000000005,216837.876,217404.517,,36,a
screen,html.Screen,0_4_1_0_1_37,2021-11-26T10:03:53.209Z,,,,,,,,,,,,,,,,48,,,,,,,,,,,,,,605.9829999997746,,response,,,10,A,,,,,Space,keypress(Space),,,,silence,-- -- --- ------ ------- --------- ----------- --------<br>--------- -------- --- ------- -- ------- ---- -- ------<br>-- --- -------- -------- ---------- ---- ---- ---- ------<br>-- --------- -- ---- -- --- -- --- ------- -- - crime<br>---------- -- -- -- ---- ----- -- ------ -- --- ------<br>-------,218011.09999999986,218010.49999999977,217387.852,217395.09999999986,217404.517,218021.149,,37,crime
screen,html.Screen,0_4_1_0_1_38,2021-11-26T10:03:53.881Z,,,,,,,,,,,,,,,,48,,,,,,,,,,,,,,661.3509999997623,,response,,,10,A,,,,,Space,keypress(Space),,,,silence,-- -- --- ------ ------- --------- ----------- --------<br>--------- -------- --- ------- -- ------- ---- -- ------<br>-- --- -------- -------- ---------- ---- ---- ---- ------<br>-- --------- -- ---- -- --- -- --- ------- -- - -----<br>punishable -- -- -- ---- ----- -- ------ -- --- ------<br>-------,218683.09999999986,218682.49999999977,218004.484,218011.19999999995,218021.149,218687.801,,38,punishable
screen,html.Screen,0_4_1_0_1_39,2021-11-26T10:03:54.329Z,,,,,,,,,,,,,,,,48,,,,,,,,,,,,,,442.59900000013295,,response,,,10,A,,,,,Space,keypress(Space),,,,silence,-- -- --- ------ ------- --------- ----------- --------<br>--------- -------- --- ------- -- ------- ---- -- ------<br>-- --- -------- -------- ---------- ---- ---- ---- ------<br>-- --------- -- ---- -- --- -- --- ------- -- - -----<br>---------- by -- -- ---- ----- -- ------ -- --- ------<br>-------,219130.90000000014,219130.40000000014,218671.136,218683.19999999995,218687.801,219137.774,,39,by
screen,html.Screen,0_4_1_0_1_40,2021-11-26T10:03:54.777Z,,,,,,,,,,,,,,,,48,,,,,,,,,,,,,,440.5260000000417,,response,,,10,A,,,,,Space,keypress(Space),,,,silence,-- -- --- ------ ------- --------- ----------- --------<br>--------- -------- --- ------- -- ------- ---- -- ------<br>-- --- -------- -------- ---------- ---- ---- ---- ------<br>-- --------- -- ---- -- --- -- --- ------- -- - -----<br>---------- -- up -- ---- ----- -- ------ -- --- ------<br>-------,219578.90000000014,219578.30000000005,219121.109,219131.09999999986,219137.774,219587.767,,40,up
screen,html.Screen,0_4_1_0_1_41,2021-11-26T10:03:55.305Z,,,,,,,,,,,,,,,,48,,,,,,,,,,,,,,518.533000000054,,response,,,10,A,,,,,Space,keypress(Space),,,,silence,-- -- --- ------ ------- --------- ----------- --------<br>--------- -------- --- ------- -- ------- ---- -- ------<br>-- --- -------- -------- ---------- ---- ---- ---- ------<br>-- --------- -- ---- -- --- -- --- ------- -- - -----<br>---------- -- -- to ---- ----- -- ------ -- --- ------<br>-------,220106.90000000014,220106.30000000005,219571.102,219579.09999999986,219587.767,220121.06,,41,to
screen,html.Screen,0_4_1_0_1_42,2021-11-26T10:03:55.817Z,,,,,,,,,,,,,,,,48,,,,,,,,,,,,,,497.2400000000489,,response,,,10,A,,,,,Space,keypress(Space),,,,silence,-- -- --- ------ ------- --------- ----------- --------<br>--------- -------- --- ------- -- ------- ---- -- ------<br>-- --- -------- -------- ---------- ---- ---- ---- ------<br>-- --------- -- ---- -- --- -- --- ------- -- - -----<br>---------- -- -- -- five ----- -- ------ -- --- ------<br>-------,220618.90000000014,220618.30000000005,220104.395,220107.19999999995,220121.06,220621.034,,42,five
screen,html.Screen,0_4_1_0_1_43,2021-11-26T10:03:56.393Z,,,,,,,,,,,,,,,,48,,,,,,,,,,,,,,573.2660000000324,,response,,,10,A,,,,,Space,keypress(Space),,,,silence,-- -- --- ------ ------- --------- ----------- --------<br>--------- -------- --- ------- -- ------- ---- -- ------<br>-- --- -------- -------- ---------- ---- ---- ---- ------<br>-- --------- -- ---- -- --- -- --- ------- -- - -----<br>---------- -- -- -- ---- years -- ------ -- --- ------<br>-------,221194.80000000005,221194.30000000005,220604.369,220618.99999999977,220621.034,221204.335,,43,years
screen,html.Screen,0_4_1_0_1_44,2021-11-26T10:03:56.881Z,,,,,,,,,,,,,,,,48,,,,,,,,,,,,,,477.8649999999616,,response,,,10,A,,,,,Space,keypress(Space),,,,silence,-- -- --- ------ ------- --------- ----------- --------<br>--------- -------- --- ------- -- ------- ---- -- ------<br>-- --- -------- -------- ---------- ---- ---- ---- ------<br>-- --------- -- ---- -- --- -- --- ------- -- - -----<br>---------- -- -- -- ---- ----- in ------ -- --- ------<br>-------,221682.80000000005,221682.19999999995,221187.67,221194.99999999977,221204.335,221687.729,,44,in
screen,html.Screen,0_4_1_0_1_45,2021-11-26T10:03:57.329Z,,,,,,,,,,,,,,,,48,,,,,,,,,,,,,,442.47099999996135,,response,,,10,A,,,,,Space,keypress(Space),,,,silence,-- -- --- ------ ------- --------- ----------- --------<br>--------- -------- --- ------- -- ------- ---- -- ------<br>-- --- -------- -------- ---------- ---- ---- ---- ------<br>-- --------- -- ---- -- --- -- --- ------- -- - -----<br>---------- -- -- -- ---- ----- -- prison -- --- ------<br>-------,222130.80000000005,222130.19999999995,221671.063,221682.99999999977,221687.729,222137.651,,45,prison
screen,html.Screen,0_4_1_0_1_46,2021-11-26T10:03:57.809Z,,,,,,,,,,,,,,,,48,,,,,,,,,,,,,,472.54899999994086,,response,,,10,A,,,,,Space,keypress(Space),,,,silence,-- -- --- ------ ------- --------- ----------- --------<br>--------- -------- --- ------- -- ------- ---- -- ------<br>-- --- -------- -------- ---------- ---- ---- ---- ------<br>-- --------- -- ---- -- --- -- --- ------- -- - -----<br>---------- -- -- -- ---- ----- -- ------ in --- ------<br>-------,222610.80000000005,222610.19999999995,222120.986,222130.90000000014,222137.651,222620.877,,46,in
screen,html.Screen,0_4_1_0_1_47,2021-11-26T10:03:58.281Z,,,,,,,,,,,,,,,,48,,,,,,,,,,,,,,461.32299999994575,,response,,,10,A,,,,,Space,keypress(Space),,,,silence,-- -- --- ------ ------- --------- ----------- --------<br>--------- -------- --- ------- -- ------- ---- -- ------<br>-- --- -------- -------- ---------- ---- ---- ---- ------<br>-- --------- -- ---- -- --- -- --- ------- -- - -----<br>---------- -- -- -- ---- ----- -- ------ -- the ------<br>-------,223082.80000000005,223082.19999999995,222604.213,222610.90000000014,222620.877,223087.551,,47,the
screen,html.Screen,0_4_1_0_1_48,2021-11-26T10:03:58.881Z,,,,,,,,,,,,,,,,48,,,,,,,,,,,,,,594.6489999999467,,response,,,10,A,,,,,Space,keypress(Space),,,,silence,-- -- --- ------ ------- --------- ----------- --------<br>--------- -------- --- ------- -- ------- ---- -- ------<br>-- --- -------- -------- ---------- ---- ---- ---- ------<br>-- --------- -- ---- -- --- -- --- ------- -- - -----<br>---------- -- -- -- ---- ----- -- ------ -- --- United<br>-------,223682.69999999995,223682.19999999995,223070.886,223082.90000000014,223087.551,223687.677,,48,United
screen,html.Screen,0_4_1_0_1_49,2021-11-26T10:03:59.481Z,,,,,,,,,,,,,,,,48,,,,,,,,,,,,,,594.4229999998643,,response,,,10,A,,,,,Space,keypress(Space),,,,silence,-- -- --- ------ ------- --------- ----------- --------<br>--------- -------- --- ------- -- ------- ---- -- ------<br>-- --- -------- -------- ---------- ---- ---- ---- ------<br>-- --------- -- ---- -- --- -- --- ------- -- - -----<br>---------- -- -- -- ---- ----- -- ------ -- --- ------<br>States.,224282.69999999995,224282.09999999986,223671.01,223682.90000000014,223687.677,224287.602,,49,States.
Item 10,flow.Loop,0_4_1_0_1,2021-11-26T10:03:59.481Z,,,,,,,,,,,,,,,,,,,,,,,,,,,,,,29876.373999999865,,completion,,,,,,,,,,,,,,,,224282.90000000014,224282.09999999986,194389.06,194390.30000000005,194405.726,224287.602,,,
Question 1,html.Screen,0_4_1_0_2,2021-11-26T10:04:03.862Z,,,,,,,,,,,,,,,,,,,,,,,,,,,false,TRUE,,4375.298000000126,,response,,,10,A,,,,,FALSE,click #choice-2,,,,silence,,228663.59999999986,228662.90000000014,224270.936,224283.09999999986,224287.602,228670.64,,,
Question 2,html.Screen,0_4_1_0_3,2021-11-26T10:04:07.066Z,,,,,,,,,,,,,,,,,,,,,,,,,,,true,TRUE,,3196.6600000000326,,response,,,10,A,,,,,TRUE,click #choice-1,,,,silence,,231867.99999999977,231867.30000000005,228653.975,228663.80000000005,228670.64,231870.536,,,
Item 10,flow.Sequence,0_4_1_0,2021-11-26T10:04:07.067Z,,,,,,,,,,,,,,,,,,,,,,,,,,,,,,44461.65400000004,,completion,,,,,,,,,,,,,,,,231868.19999999995,231867.30000000005,187388.981,187390.30000000005,187405.646,231870.536,,,
Holding screen,html.Screen,0_4_1_1_0,2021-11-26T10:04:14.053Z,,,,,,,,,,,,,,,,,,,,,,,,,,,,,,6999.565000000002,,timeout,,,,,,,,,,,,,,,,238854.80000000005,238853.436,231853.87,231868.40000000014,231870.536,238870.101,,,
screen,html.Screen,0_4_1_1_1_0,2021-11-26T10:04:16.449Z,,,,,,,,,,,,,,,,11,,,,,,,,,,,,,,2379.498999999865,,response,,,4,A,,,,,Space,keypress(Space),,,,silence,Known -- ---- --- -- --- -------- ------------ ---------- --<br>- ------- ------ --------- -- ------------ -- --- ---- -----<br>------ ---- ---- ------ ------ ------- --- ----- ---------<br>---- --- -------- -------- --- --- -- ------- --- --- -----<br>-- --- ------ ------- --- --- -------- ---- --------- --<br>---------- -- -------- ----------------,241250.19999999995,241249.59999999986,238853.436,238855.19999999995,238870.101,241253.247,,0,Known
screen,html.Screen,0_4_1_1_1_1,2021-11-26T10:04:16.896Z,,,,,,,,,,,,,,,,11,,,,,,,,,,,,,,444.05300000004354,,response,,,4,A,,,,,Space,keypress(Space),,,,silence,----- as ---- --- -- --- -------- ------------ ---------- --<br>- ------- ------ --------- -- ------------ -- --- ---- -----<br>------ ---- ---- ------ ------ ------- --- ----- ---------<br>---- --- -------- -------- --- --- -- ------- --- --- -----<br>-- --- ------ ------- --- --- -------- ---- --------- --<br>---------- -- -------- ----------------,241697.99999999977,241697.30000000005,241236.582,241250.40000000014,241253.247,241703.303,,1,as
screen,html.Screen,0_4_1_1_1_2,2021-11-26T10:04:17.626Z,,,,,,,,,,,,,,,,11,,,,,,,,,,,,,,721.9970000000321,,response,,,4,A,,,,,Space,keypress(Space),,,,silence,----- -- Rapa --- -- --- -------- ------------ ---------- --<br>- ------- ------ --------- -- ------------ -- --- ---- -----<br>------ ---- ---- ------ ------ ------- --- ----- ---------<br>---- --- -------- -------- --- --- -- ------- --- --- -----<br>-- --- ------ ------- --- --- -------- ---- --------- --<br>---------- -- -------- ----------------,242425.80000000005,242425.30000000005,241686.638,241698.09999999986,241703.303,242436.639,,2,Rapa
