sender,sender_type,sender_id,timestamp,meta,,Blues,Classical,Country,Dance,Electronic,Folk,Gospel,Hip-Hop,Jazz,Latin,Musical/Film,New-age,Pop,Provo_ID,R&B,Rap,Reggae,Religious,Rock,Soul,Swing,Traditional,age,artist_name,correct,correctResponse,distraction,duration,education,ended_on,familiarity,gender,item,list,music_frequency,offensiveness,pleasantness,preference,response,response_action,snippet_file,song_name,song_rating,sound,text,time_commit,time_end,time_render,time_run,time_show,time_switch,url,word,word_ID
Instructions,html.Page,0_0,2021-11-05T14:21:46.591Z,"{""labjs_version"":""20.2.3"",""labjs_build"":{""flavor"":""production"",""commit"":""7ea907d66ca8aeef8054924ca5d82ffbe11e34e5""},""location"":""https://run.pavlovia.org/mvasilev/lab_music_d/"",""userAgent"":""Mozilla/5.0 (Windows NT 6.1; Win64; x64) AppleWebKit/537.36 (KHTML, like Gecko) Chrome/95.0.4638.69 Safari/537.36"",""platform"":""Win32"",""language"":""en-US"",""locale"":""en-US"",""timeZone"":""Europe/London"",""timezoneOffset"":0,""screen_width"":1920,""screen_height"":1080,""scroll_width"":1920,""scroll_height"":959,""window_innerWidth"":1920,""window_innerHeight"":1007,""devicePixelRatio"":1}",,,,,,,,,,,,,,,,,,,,,,,,,,,,,12669.10299999702,,form submission,,,,,,,,,,,,,,,,20787.60000000894,20786.79999999702,8101.032,8106.20000000298,8117.697,20796.882,{},,
Headphones,html.Page,0_1,2021-11-05T14:21:50.461Z,,,,,,,,,,,,,,,,,,,,,,,,,,,,,,3859.7180000089393,,form submission,,,,,,,,,,,,,,,,24657,24656.60000000894,20780.224,20788.10000000894,20796.882,24666.993,,,
Holding screen,html.Screen,0_2_0_0,2021-11-05T14:22:00.457Z,,,,,,,,,,,,,,,,,,,,,,,,,,,,,,9999.369999999999,,timeout,,,,,,,,,,,,,,,,34653.29999999702,34649.698,24650.327,24657.29999999702,24666.993,34666.363,,,
screen,html.Screen,0_2_0_1_0,2021-11-05T14:22:01.371Z,,,,,,,,,,,,,,,,53,,,,,,,,,,,,,,900.1370000000024,,response,,,99,,,,,,Space,keypress(Space),,,,,When -- ----- -- ------ - ------- --- ----------<br>------------- ------ ------ ---- ---- ------- ----- -- ----<br>-------- ------- -- ---------- --- - --- ----- ----- ----<br>---- --- --- ----- --- ---- ---- ------- ----- ---- -------<br>--- --- -- ----- -- --- ---- -- --- ---- -- ------ ------<br>--- ----- -- ----,35567.5,35566.5,34649.698,34653.70000000298,34666.363,35582.976,,0,When
screen,html.Screen,0_2_0_1_1,2021-11-05T14:22:02.203Z,,,,,,,,,,,,,,,,53,,,,,,,,,,,,,,815.5239999999976,,response,,,99,,,,,,Space,keypress(Space),,,,,---- it ----- -- ------ - ------- --- ----------<br>------------- ------ ------ ---- ---- ------- ----- -- ----<br>-------- ------- -- ---------- --- - --- ----- ----- ----<br>---- --- --- ----- --- ---- ---- ------- ----- ---- -------<br>--- --- -- ----- -- --- ---- -- --- ---- -- ------ ------<br>--- ----- -- ----,36399.20000000298,36398.5,35566.311,35567.79999999702,35582.976,36416.299,,1,it
screen,html.Screen,0_2_0_1_2,2021-11-05T14:22:02.851Z,,,,,,,,,,,,,,,,53,,,,,,,,,,,,,,630.2010000000009,,response,,,99,,,,,,Space,keypress(Space),,,,,---- -- comes -- ------ - ------- --- ----------<br>------------- ------ ------ ---- ---- ------- ----- -- ----<br>-------- ------- -- ---------- --- - --- ----- ----- ----<br>---- --- --- ----- --- ---- ---- ------- ----- ---- -------<br>--- --- -- ----- -- --- ---- -- --- ---- -- ------ ------<br>--- ----- -- ----,37047.10000000894,37046.5,36399.634,36399.40000000596,36416.299,37049.592,,2,comes
screen,html.Screen,0_2_0_1_3,2021-11-05T14:22:03.379Z,,,,,,,,,,,,,,,,53,,,,,,,,,,,,,,524.8080000059635,,response,,,99,,,,,,Space,keypress(Space),,,,,---- -- ----- to ------ - ------- --- ----------<br>------------- ------ ------ ---- ---- ------- ----- -- ----<br>-------- ------- -- ---------- --- - --- ----- ----- ----<br>---- --- --- ----- --- ---- ---- ------- ----- ---- -------<br>--- --- -- ----- -- --- ---- -- --- ---- -- ------ ------<br>--- ----- -- ----,37575.10000000894,37574.40000000596,37032.927,37047.29999999702,37049.592,37582.877,,3,to
screen,html.Screen,0_2_0_1_4,2021-11-05T14:22:03.947Z,,,,,,,,,,,,,,,,53,,,,,,,,,,,,,,559.5230000059601,,response,,,99,,,,,,Space,keypress(Space),,,,,---- -- ----- -- having - ------- --- ----------<br>------------- ------ ------ ---- ---- ------- ----- -- ----<br>-------- ------- -- ---------- --- - --- ----- ----- ----<br>---- --- --- ----- --- ---- ---- ------- ----- ---- -------<br>--- --- -- ----- -- --- ---- -- --- ---- -- ------ ------<br>--- ----- -- ----,38143.29999999702,38142.40000000596,37566.212,37575.40000000596,37582.877,38149.524,,4,having
screen,html.Screen,0_2_0_1_5,2021-11-05T14:22:04.435Z,,,,,,,,,,,,,,,,53,,,,,,,,,,,,,,480.77599999702215,,response,,,99,,,,,,Space,keypress(Space),,,,,---- -- ----- -- ------ a ------- --- ----------<br>------------- ------ ------ ---- ---- ------- ----- -- ----<br>-------- ------- -- ---------- --- - --- ----- ----- ----<br>---- --- --- ----- --- ---- ---- ------- ----- ---- -------<br>--- --- -- ----- -- --- ---- -- --- ---- -- ------ ------<br>--- ----- -- ----,38631.10000000894,38630.29999999702,38132.859,38143.40000000596,38149.524,38632.85,,5,a
screen,html.Screen,0_2_0_1_6,2021-11-05T14:22:05.051Z,,,,,,,,,,,,,,,,53,,,,,,,,,,,,,,613.5500000059619,,response,,,99,,,,,,Space,keypress(Space),,,,,---- -- ----- -- ------ - lasting --- ----------<br>------------- ------ ------ ---- ---- ------- ----- -- ----<br>-------- ------- -- ---------- --- - --- ----- ----- ----<br>---- --- --- ----- --- ---- ---- ------- ----- ---- -------<br>--- --- -- ----- -- --- ---- -- --- ---- -- ------ ------<br>--- ----- -- ----,39247.10000000894,39246.40000000596,38616.185,38631.29999999702,38632.85,39249.536,,6,lasting
screen,html.Screen,0_2_0_1_7,2021-11-05T14:22:05.587Z,,,,,,,,,,,,,,,,53,,,,,,,,,,,,,,532.7639999970197,,response,,,99,,,,,,Space,keypress(Space),,,,,---- -- ----- -- ------ - ------- and ----------<br>------------- ------ ------ ---- ---- ------- ----- -- ----<br>-------- ------- -- ---------- --- - --- ----- ----- ----<br>---- --- --- ----- --- ---- ---- ------- ----- ---- -------<br>--- --- -- ----- -- --- ---- -- --- ---- -- ------ ------<br>--- ----- -- ----,39783,39782.29999999702,39232.87,39247.29999999702,39249.536,39799.365,,7,and
screen,html.Screen,0_2_0_1_8,2021-11-05T14:22:06.275Z,,,,,,,,,,,,,,,,53,,,,,,,,,,,,,,670.9349999970218,,response,,,99,,,,,,Space,keypress(Space),,,,,---- -- ----- -- ------ - ------- --- fulfilling<br>------------- ------ ------ ---- ---- ------- ----- -- ----<br>-------- ------- -- ---------- --- - --- ----- ----- ----<br>---- --- --- ----- --- ---- ---- ------- ----- ---- -------<br>--- --- -- ----- -- --- ---- -- --- ---- -- ------ ------<br>--- ----- -- ----,40471.10000000894,40470.29999999702,39782.701,39783.29999999702,39799.365,40482.807,,8,fulfilling
screen,html.Screen,0_2_0_1_9,2021-11-05T14:22:06.883Z,,,,,,,,,,,,,,,,53,,,,,,,,,,,,,,595.5930000059598,,response,,,99,,,,,,Space,keypress(Space),,,,,"---- -- ----- -- ------ - ------- --- ----------<br>relationship, ------ ------ ---- ---- ------- ----- -- ----<br>-------- ------- -- ---------- --- - --- ----- ----- ----<br>---- --- --- ----- --- ---- ---- ------- ----- ---- -------<br>--- --- -- ----- -- --- ---- -- --- ---- -- ------ ------<br>--- ----- -- ----",41079.20000000298,41078.40000000596,40466.141,40471.29999999702,40482.807,41082.718,,9,"relationship,"
screen,html.Screen,0_2_0_1_10,2021-11-05T14:22:07.411Z,,,,,,,,,,,,,,,,53,,,,,,,,,,,,,,523.4820000029795,,response,,,99,,,,,,Space,keypress(Space),,,,,---- -- ----- -- ------ - ------- --- ----------<br>------------- common ------ ---- ---- ------- ----- -- ----<br>-------- ------- -- ---------- --- - --- ----- ----- ----<br>---- --- --- ----- --- ---- ---- ------- ----- ---- -------<br>--- --- -- ----- -- --- ---- -- --- ---- -- ------ ------<br>--- ----- -- ----,41606.90000000596,41606.20000000298,41066.053,41079.40000000596,41082.718,41616.044,,10,common
screen,html.Screen,0_2_0_1_11,2021-11-05T14:22:07.979Z,,,,,,,,,,,,,,,,53,,,,,,,,,,,,,,558.056000008939,,response,,,99,,,,,,Space,keypress(Space),,,,,---- -- ----- -- ------ - ------- --- ----------<br>------------- ------ wisdom ---- ---- ------- ----- -- ----<br>-------- ------- -- ---------- --- - --- ----- ----- ----<br>---- --- --- ----- --- ---- ---- ------- ----- ---- -------<br>--- --- -- ----- -- --- ---- -- --- ---- -- ------ ------<br>--- ----- -- ----,42174.79999999702,42174.10000000894,41599.379,41607,41616.044,42182.641,,11,wisdom
screen,html.Screen,0_2_0_1_12,2021-11-05T14:22:08.483Z,,,,,,,,,,,,,,,,53,,,,,,,,,,,,,,495.559000002977,,response,,,99,,,,,,Space,keypress(Space),,,,,---- -- ----- -- ------ - ------- --- ----------<br>------------- ------ ------ says ---- ------- ----- -- ----<br>-------- ------- -- ---------- --- - --- ----- ----- ----<br>---- --- --- ----- --- ---- ---- ------- ----- ---- -------<br>--- --- -- ----- -- --- ---- -- --- ---- -- ------ ------<br>--- ----- -- ----,42678.70000000298,42678.20000000298,42165.976,42175,42182.641,42682.6,,12,says
screen,html.Screen,0_2_0_1_13,2021-11-05T14:22:08.978Z,,,,,,,,,,,,,,,,53,,,,,,,,,,,,,,491.50000000894215,,response,,,99,,,,,,Space,keypress(Space),,,,,---- -- ----- -- ------ - ------- --- ----------<br>------------- ------ ------ ---- that ------- ----- -- ----<br>-------- ------- -- ---------- --- - --- ----- ----- ----<br>---- --- --- ----- --- ---- ---- ------- ----- ---- -------<br>--- --- -- ----- -- --- ---- -- --- ---- -- ------ ------<br>--- ----- -- ----,43174.70000000298,43174.10000000894,42665.935,42678.90000000596,42682.6,43182.647,,13,that
screen,html.Screen,0_2_0_1_14,2021-11-05T14:22:09.515Z,,,,,,,,,,,,,,,,53,,,,,,,,,,,,,,527.4530000089435,,response,,,99,,,,,,Space,keypress(Space),,,,,---- -- ----- -- ------ - ------- --- ----------<br>------------- ------ ------ ---- ---- feeling ----- -- ----<br>-------- ------- -- ---------- --- - --- ----- ----- ----<br>---- --- --- ----- --- ---- ---- ------- ----- ---- -------<br>--- --- -- ----- -- --- ---- -- --- ---- -- ------ ------<br>--- ----- -- ----,43710.79999999702,43710.10000000894,43165.981,43174.90000000596,43182.647,43715.901,,14,feeling
screen,html.Screen,0_2_0_1_15,2021-11-05T14:22:10.122Z,,,,,,,,,,,,,,,,53,,,,,,,,,,,,,,602.1990000089427,,response,,,99,,,,,,Space,keypress(Space),,,,,---- -- ----- -- ------ - ------- --- ----------<br>------------- ------ ------ ---- ---- ------- close -- ----<br>-------- ------- -- ---------- --- - --- ----- ----- ----<br>---- --- --- ----- --- ---- ---- ------- ----- ---- -------<br>--- --- -- ----- -- --- ---- -- --- ---- -- ------ ------<br>--- ----- -- ----,44318.70000000298,44318.10000000894,43699.236,43710.90000000596,43715.901,44332.53,,15,close
screen,html.Screen,0_2_0_1_16,2021-11-05T14:22:10.570Z,,,,,,,,,,,,,,,,53,,,,,,,,,,,,,,433.47000000000116,,response,,,99,,,,,,Space,keypress(Space),,,,,---- -- ----- -- ------ - ------- --- ----------<br>------------- ------ ------ ---- ---- ------- ----- to ----<br>-------- ------- -- ---------- --- - --- ----- ----- ----<br>---- --- --- ----- --- ---- ---- ------- ----- ---- -------<br>--- --- -- ----- -- --- ---- -- --- ---- -- ------ ------<br>--- ----- -- ----,44766.60000000894,44766,44315.865,44318.90000000596,44332.53,44782.482,,16,to
screen,html.Screen,0_2_0_1_17,2021-11-05T14:22:11.082Z,,,,,,,,,,,,,,,,53,,,,,,,,,,,,,,495.5179999999964,,response,,,99,,,,,,Space,keypress(Space),,,,,---- -- ----- -- ------ - ------- --- ----------<br>------------- ------ ------ ---- ---- ------- ----- -- your<br>-------- ------- -- ---------- --- - --- ----- ----- ----<br>---- --- --- ----- --- ---- ---- ------- ----- ---- -------<br>--- --- -- ----- -- --- ---- -- --- ---- -- ------ ------<br>--- ----- -- ----,45278.60000000894,45278,44765.817,44766.79999999702,44782.482,45282.528,,17,your
screen,html.Screen,0_2_0_1_18,2021-11-05T14:22:11.650Z,,,,,,,,,,,,,,,,53,,,,,,,,,,,,,,563.5720000089423,,response,,,99,,,,,,Space,keypress(Space),,,,,---- -- ----- -- ------ - ------- --- ----------<br>------------- ------ ------ ---- ---- ------- ----- -- ----<br>romantic ------- -- ---------- --- - --- ----- ----- ----<br>---- --- --- ----- --- ---- ---- ------- ----- ---- -------<br>--- --- -- ----- -- --- ---- -- --- ---- -- ------ ------<br>--- ----- -- ----,45846.70000000298,45846.10000000894,45265.862,45278.79999999702,45282.528,45849.114,,18,romantic
screen,html.Screen,0_2_0_1_19,2021-11-05T14:22:12.138Z,,,,,,,,,,,,,,,,53,,,,,,,,,,,,,,484.78600000595907,,response,,,99,,,,,,Space,keypress(Space),,,,,---- -- ----- -- ------ - ------- --- ----------<br>------------- ------ ------ ---- ---- ------- ----- -- ----<br>-------- partner -- ---------- --- - --- ----- ----- ----<br>---- --- --- ----- --- ---- ---- ------- ----- ---- -------<br>--- --- -- ----- -- --- ---- -- --- ---- -- ------ ------<br>--- ----- -- ----,46334.60000000894,46333.90000000596,45832.449,45846.90000000596,45849.114,46349.089,,19,partner
screen,html.Screen,0_2_0_1_20,2021-11-05T14:22:12.698Z,,,,,,,,,,,,,,,,53,,,,,,,,,,,,,,544.8110000059605,,response,,,99,,,,,,Space,keypress(Space),,,,,---- -- ----- -- ------ - ------- --- ----------<br>------------- ------ ------ ---- ---- ------- ----- -- ----<br>-------- ------- is ---------- --- - --- ----- ----- ----<br>---- --- --- ----- --- ---- ---- ------- ----- ---- -------<br>--- --- -- ----- -- --- ---- -- --- ---- -- ------ ------<br>--- ----- -- ----,46894.5,46893.90000000596,46332.424,46334.79999999702,46349.089,46899.076,,20,is
screen,html.Screen,0_2_0_1_21,2021-11-05T14:22:13.354Z,,,,,,,,,,,,,,,,53,,,,,,,,,,,,,,650.8240000059595,,response,,,99,,,,,,Space,keypress(Space),,,,,---- -- ----- -- ------ - ------- --- ----------<br>------------- ------ ------ ---- ---- ------- ----- -- ----<br>-------- ------- -- paramount. --- - --- ----- ----- ----<br>---- --- --- ----- --- ---- ---- ------- ----- ---- -------<br>--- --- -- ----- -- --- ---- -- --- ---- -- ------ ------<br>--- ----- -- ----,47550.60000000894,47549.90000000596,46882.411,46894.70000000298,46899.076,47565.705,,21,paramount.
screen,html.Screen,0_2_0_1_22,2021-11-05T14:22:13.866Z,,,,,,,,,,,,,,,,53,,,,,,,,,,,,,,496.094999997018,,response,,,99,,,,,,Space,keypress(Space),,,,,---- -- ----- -- ------ - ------- --- ----------<br>------------- ------ ------ ---- ---- ------- ----- -- ----<br>-------- ------- -- ---------- But - --- ----- ----- ----<br>---- --- --- ----- --- ---- ---- ------- ----- ---- -------<br>--- --- -- ----- -- --- ---- -- --- ---- -- ------ ------<br>--- ----- -- ----,48062.40000000596,48061.79999999702,47549.04,47551,47565.705,48065.666,,22,But
screen,html.Screen,0_2_0_1_23,2021-11-05T14:22:14.370Z,,,,,,,,,,,,,,,,53,,,,,,,,,,,,,,500.13399999702233,,response,,,99,,,,,,Space,keypress(Space),,,,,---- -- ----- -- ------ - ------- --- ----------<br>------------- ------ ------ ---- ---- ------- ----- -- ----<br>-------- ------- -- ---------- --- a --- ----- ----- ----<br>---- --- --- ----- --- ---- ---- ------- ----- ---- -------<br>--- --- -- ----- -- --- ---- -- --- ---- -- ------ ------<br>--- ----- -- ----,48566.29999999702,48565.79999999702,48049.001,48062.60000000894,48065.666,48582.276,,23,a
screen,html.Screen,0_2_0_1_24,2021-11-05T14:22:14.882Z,,,,,,,,,,,,,,,,53,,,,,,,,,,,,,,495.52399999702175,,response,,,99,,,,,,Space,keypress(Space),,,,,---- -- ----- -- ------ - ------- --- ----------<br>------------- ------ ------ ---- ---- ------- ----- -- ----<br>-------- ------- -- ---------- --- - new ----- ----- ----<br>---- --- --- ----- --- ---- ---- ------- ----- ---- -------<br>--- --- -- ----- -- --- ---- -- --- ---- -- ------ ------<br>--- ----- -- ----,49078.29999999702,49077.79999999702,48565.611,48566.5,48582.276,49082.258,,24,new
screen,html.Screen,0_2_0_1_25,2021-11-05T14:22:15.450Z,,,,,,,,,,,,,,,,53,,,,,,,,,,,,,,563.5419999970181,,response,,,99,,,,,,Space,keypress(Space),,,,,---- -- ----- -- ------ - ------- --- ----------<br>------------- ------ ------ ---- ---- ------- ----- -- ----<br>-------- ------- -- ---------- --- - --- study ----- ----<br>---- --- --- ----- --- ---- ---- ------- ----- ---- -------<br>--- --- -- ----- -- --- ---- -- --- ---- -- ------ ------<br>--- ----- -- ----,49646.40000000596,49645.79999999702,49065.593,49078.5,49082.258,49648.959,,25,study
screen,html.Screen,0_2_0_1_26,2021-11-05T14:22:16.026Z,,,,,,,,,,,,,,,,53,,,,,,,,,,,,,,572.7410000029777,,response,,,99,,,,,,Space,keypress(Space),,,,,---- -- ----- -- ------ - ------- --- ----------<br>------------- ------ ------ ---- ---- ------- ----- -- ----<br>-------- ------- -- ---------- --- - --- ----- finds ----<br>---- --- --- ----- --- ---- ---- ------- ----- ---- -------<br>--- --- -- ----- -- --- ---- -- --- ---- -- ------ ------<br>--- ----- -- ----,50222.29999999702,50221.70000000298,49632.293,49646.5,49648.959,50232.206,,26,finds
screen,html.Screen,0_2_0_1_27,2021-11-05T14:22:16.490Z,,,,,,,,,,,,,,,,53,,,,,,,,,,,,,,453.3940000089424,,response,,,99,,,,,,Space,keypress(Space),,,,,---- -- ----- -- ------ - ------- --- ----------<br>------------- ------ ------ ---- ---- ------- ----- -- ----<br>-------- ------- -- ---------- --- - --- ----- ----- that<br>---- --- --- ----- --- ---- ---- ------- ----- ---- -------<br>--- --- -- ----- -- --- ---- -- --- ---- -- ------ ------<br>--- ----- -- ----,50686.29999999702,50685.60000000894,50215.541,50222.60000000894,50232.206,50698.739,,27,that
screen,html.Screen,0_2_0_1_28,2021-11-05T14:22:17.002Z,,,,,,,,,,,,,,,,53,,,,,,,,,,,,,,499.16100000595907,,response,,,99,,,,,,Space,keypress(Space),,,,,---- -- ----- -- ------ - ------- --- ----------<br>------------- ------ ------ ---- ---- ------- ----- -- ----<br>-------- ------- -- ---------- --- - --- ----- ----- ----<br>it's --- --- ----- --- ---- ---- ------- ----- ---- -------<br>--- --- -- ----- -- --- ---- -- --- ---- -- ------ ------<br>--- ----- -- ----,51198.5,51197.90000000596,50682.075,50686.40000000596,50698.739,51215.592,,28,it's
screen,html.Screen,0_2_0_1_29,2021-11-05T14:22:17.490Z,,,,,,,,,,,,,,,,53,,,,,,,,,,,,,,470.1080000029833,,response,,,99,,,,,,Space,keypress(Space),,,,,---- -- ----- -- ------ - ------- --- ----------<br>------------- ------ ------ ---- ---- ------- ----- -- ----<br>-------- ------- -- ---------- --- - --- ----- ----- ----<br>---- not --- ----- --- ---- ---- ------- ----- ---- -------<br>--- --- -- ----- -- --- ---- -- --- ---- -- ------ ------<br>--- ----- -- ----,51686.20000000298,51685.70000000298,51198.925,51198.60000000894,51215.592,51698.818,,29,not
screen,html.Screen,0_2_0_1_30,2021-11-05T14:22:17.994Z,,,,,,,,,,,,,,,,53,,,,,,,,,,,,,,490.6820000000007,,response,,,99,,,,,,Space,keypress(Space),,,,,---- -- ----- -- ------ - ------- --- ----------<br>------------- ------ ------ ---- ---- ------- ----- -- ----<br>-------- ------- -- ---------- --- - --- ----- ----- ----<br>---- --- how ----- --- ---- ---- ------- ----- ---- -------<br>--- --- -- ----- -- --- ---- -- --- ---- -- ------ ------<br>--- ----- -- ----,52190.10000000894,52189.5,51682.153,51686.40000000596,51698.818,52198.782,,30,how
screen,html.Screen,0_2_0_1_31,2021-11-05T14:22:18.514Z,,,,,,,,,,,,,,,,53,,,,,,,,,,,,,,510.918000002981,,response,,,99,,,,,,Space,keypress(Space),,,,,---- -- ----- -- ------ - ------- --- ----------<br>------------- ------ ------ ---- ---- ------- ----- -- ----<br>-------- ------- -- ---------- --- - --- ----- ----- ----<br>---- --- --- close --- ---- ---- ------- ----- ---- -------<br>--- --- -- ----- -- --- ---- -- --- ---- -- ------ ------<br>--- ----- -- ----,52710.29999999702,52709.70000000298,52182.117,52190.29999999702,52198.782,52715.416,,31,close
screen,html.Screen,0_2_0_1_32,2021-11-05T14:22:19.026Z,,,,,,,,,,,,,,,,53,,,,,,,,,,,,,,506.18400000894326,,response,,,99,,,,,,Space,keypress(Space),,,,,---- -- ----- -- ------ - ------- --- ----------<br>------------- ------ ------ ---- ---- ------- ----- -- ----<br>-------- ------- -- ---------- --- - --- ----- ----- ----<br>---- --- --- ----- you ---- ---- ------- ----- ---- -------<br>--- --- -- ----- -- --- ---- -- --- ---- -- ------ ------<br>--- ----- -- ----,53222.20000000298,53221.60000000894,52698.751,52710.5,52715.416,53232.055,,32,you
screen,html.Screen,0_2_0_1_33,2021-11-05T14:22:19.506Z,,,,,,,,,,,,,,,,53,,,,,,,,,,,,,,469.5450000089404,,response,,,99,,,,,,Space,keypress(Space),,,,,---- -- ----- -- ------ - ------- --- ----------<br>------------- ------ ------ ---- ---- ------- ----- -- ----<br>-------- ------- -- ---------- --- - --- ----- ----- ----<br>---- --- --- ----- --- feel ---- ------- ----- ---- -------<br>--- --- -- ----- -- --- ---- -- --- ---- -- ------ ------<br>--- ----- -- ----,53702.29999999702,53701.60000000894,53215.39,53222.29999999702,53232.055,53715.289,,33,feel
screen,html.Screen,0_2_0_1_34,2021-11-05T14:22:19.986Z,,,,,,,,,,,,,,,,53,,,,,,,,,,,,,,466.31100000894367,,response,,,99,,,,,,Space,keypress(Space),,,,,---- -- ----- -- ------ - ------- --- ----------<br>------------- ------ ------ ---- ---- ------- ----- -- ----<br>-------- ------- -- ---------- --- - --- ----- ----- ----<br>---- --- --- ----- --- ---- that ------- ----- ---- -------<br>--- --- -- ----- -- --- ---- -- --- ---- -- ------ ------<br>--- ----- -- ----,54182.20000000298,54181.60000000894,53698.625,53702.5,53715.289,54198.64,,34,that
screen,html.Screen,0_2_0_1_35,2021-11-05T14:22:20.506Z,,,,,,,,,,,,,,,,53,,,,,,,,,,,,,,502.8600000000006,,response,,,99,,,,,,Space,keypress(Space),,,,,---- -- ----- -- ------ - ------- --- ----------<br>------------- ------ ------ ---- ---- ------- ----- -- ----<br>-------- ------- -- ---------- --- - --- ----- ----- ----<br>---- --- --- ----- --- ---- ---- matters ----- ---- -------<br>--- --- -- ----- -- --- ---- -- --- ---- -- ------ ------<br>--- ----- -- ----,54702.10000000894,54701.5,54181.975,54182.40000000596,54198.64,54715.288,,35,matters
screen,html.Screen,0_2_0_1_36,2021-11-05T14:22:21.010Z,,,,,,,,,,,,,,,,53,,,,,,,,,,,,,,490.11200000596,,response,,,99,,,,,,Space,keypress(Space),,,,,"---- -- ----- -- ------ - ------- --- ----------<br>------------- ------ ------ ---- ---- ------- ----- -- ----<br>-------- ------- -- ---------- --- - --- ----- ----- ----<br>---- --- --- ----- --- ---- ---- ------- most, ---- -------<br>--- --- -- ----- -- --- ---- -- --- ---- -- ------ ------<br>--- ----- -- ----",55206,55205.40000000596,54698.623,54702.29999999702,54715.288,55215.253,,36,"most,"
screen,html.Screen,0_2_0_1_37,2021-11-05T14:22:21.490Z,,,,,,,,,,,,,,,,53,,,,,,,,,,,,,,470.1470000059635,,response,,,99,,,,,,Space,keypress(Space),,,,,---- -- ----- -- ------ - ------- --- ----------<br>------------- ------ ------ ---- ---- ------- ----- -- ----<br>-------- ------- -- ---------- --- - --- ----- ----- ----<br>---- --- --- ----- --- ---- ---- ------- ----- it's -------<br>--- --- -- ----- -- --- ---- -- --- ---- -- ------ ------<br>--- ----- -- ----,55686.10000000894,55685.40000000596,55198.588,55206.10000000894,55215.253,55698.622,,37,it's
screen,html.Screen,0_2_0_1_38,2021-11-05T14:22:21.978Z,,,,,,,,,,,,,,,,53,,,,,,,,,,,,,,474.77800000595744,,response,,,99,,,,,,Space,keypress(Space),,,,,---- -- ----- -- ------ - ------- --- ----------<br>------------- ------ ------ ---- ---- ------- ----- -- ----<br>-------- ------- -- ---------- --- - --- ----- ----- ----<br>---- --- --- ----- --- ---- ---- ------- ----- ---- whether<br>--- --- -- ----- -- --- ---- -- --- ---- -- ------ ------<br>--- ----- -- ----,56173.90000000596,56173.40000000596,55681.956,55686.20000000298,55698.622,56181.88,,38,whether
screen,html.Screen,0_2_0_1_39,2021-11-05T14:22:22.426Z,,,,,,,,,,,,,,,,53,,,,,,,,,,,,,,439.5200000059631,,response,,,99,,,,,,Space,keypress(Space),,,,,---- -- ----- -- ------ - ------- --- ----------<br>------------- ------ ------ ---- ---- ------- ----- -- ----<br>-------- ------- -- ---------- --- - --- ----- ----- ----<br>---- --- --- ----- --- ---- ---- ------- ----- ---- -------<br>you --- -- ----- -- --- ---- -- --- ---- -- ------ ------<br>--- ----- -- ----,56622,56621.40000000596,56165.215,56174.10000000894,56181.88,56631.914,,39,you
screen,html.Screen,0_2_0_1_40,2021-11-05T14:22:22.938Z,,,,,,,,,,,,,,,,53,,,,,,,,,,,,,,501.38599999702274,,response,,,99,,,,,,Space,keypress(Space),,,,,---- -- ----- -- ------ - ------- --- ----------<br>------------- ------ ------ ---- ---- ------- ----- -- ----<br>-------- ------- -- ---------- --- - --- ----- ----- ----<br>---- --- --- ----- --- ---- ---- ------- ----- ---- -------<br>--- are -- ----- -- --- ---- -- --- ---- -- ------ ------<br>--- ----- -- ----,57133.90000000596,57133.29999999702,56615.248,56622.29999999702,56631.914,57148.44,,40,are
screen,html.Screen,0_2_0_1_41,2021-11-05T14:22:23.450Z,,,,,,,,,,,,,,,,53,,,,,,,,,,,,,,496.85999999701744,,response,,,99,,,,,,Space,keypress(Space),,,,,---- -- ----- -- ------ - ------- --- ----------<br>------------- ------ ------ ---- ---- ------- ----- -- ----<br>-------- ------- -- ---------- --- - --- ----- ----- ----<br>---- --- --- ----- --- ---- ---- ------- ----- ---- -------<br>--- --- as ----- -- --- ---- -- --- ---- -- ------ ------<br>--- ----- -- ----,57645.79999999702,57645.29999999702,57131.776,57134.10000000894,57148.44,57648.476,,41,as
screen,html.Screen,0_2_0_1_42,2021-11-05T14:22:23.930Z,,,,,,,,,,,,,,,,53,,,,,,,,,,,,,,476.8239999970174,,response,,,99,,,,,,Space,keypress(Space),,,,,---- -- ----- -- ------ - ------- --- ----------<br>------------- ------ ------ ---- ---- ------- ----- -- ----<br>-------- ------- -- ---------- --- - --- ----- ----- ----<br>---- --- --- ----- --- ---- ---- ------- ----- ---- -------<br>--- --- -- close -- --- ---- -- --- ---- -- ------ ------<br>--- ----- -- ----,58125.90000000596,58125.29999999702,57631.811,57646,57648.476,58131.833,,42,close
screen,html.Screen,0_2_0_1_43,2021-11-05T14:22:24.426Z,,,,,,,,,,,,,,,,53,,,,,,,,,,,,,,489.3670000029815,,response,,,99,,,,,,Space,keypress(Space),,,,,---- -- ----- -- ------ - ------- --- ----------<br>------------- ------ ------ ---- ---- ------- ----- -- ----<br>-------- ------- -- ---------- --- - --- ----- ----- ----<br>---- --- --- ----- --- ---- ---- ------- ----- ---- -------<br>--- --- -- ----- as --- ---- -- --- ---- -- ------ ------<br>--- ----- -- ----,58621.90000000596,58621.20000000298,58115.167,58126,58131.833,58631.65,,43,as
screen,html.Screen,0_2_0_1_44,2021-11-05T14:22:24.994Z,,,,,,,,,,,,,,,,53,,,,,,,,,,,,,,557.5500000029788,,response,,,99,,,,,,Space,keypress(Space),,,,,---- -- ----- -- ------ - ------- --- ----------<br>------------- ------ ------ ---- ---- ------- ----- -- ----<br>-------- ------- -- ---------- --- - --- ----- ----- ----<br>---- --- --- ----- --- ---- ---- ------- ----- ---- -------<br>--- --- -- ----- -- you ---- -- --- ---- -- ------ ------<br>--- ----- -- ----,59189.79999999702,59189.20000000298,58614.986,58622,58631.65,59198.434,,44,you
screen,html.Screen,0_2_0_1_45,2021-11-05T14:22:25.450Z,,,,,,,,,,,,,,,,53,,,,,,,,,,,,,,446.7660000029791,,response,,,99,,,,,,Space,keypress(Space),,,,,---- -- ----- -- ------ - ------- --- ----------<br>------------- ------ ------ ---- ---- ------- ----- -- ----<br>-------- ------- -- ---------- --- - --- ----- ----- ----<br>---- --- --- ----- --- ---- ---- ------- ----- ---- -------<br>--- --- -- ----- -- --- want -- --- ---- -- ------ ------<br>--- ----- -- ----,59645.79999999702,59645.20000000298,59181.768,59190,59198.434,59648.369,,45,want
screen,html.Screen,0_2_0_1_46,2021-11-05T14:22:25.892Z,,,,,,,,,,,,,,,,53,,,,,,,,,,,,,,436.7310000089419,,response,,,99,,,,,,Space,keypress(Space),,,,,---- -- ----- -- ------ - ------- --- ----------<br>------------- ------ ------ ---- ---- ------- ----- -- ----<br>-------- ------- -- ---------- --- - --- ----- ----- ----<br>---- --- --- ----- --- ---- ---- ------- ----- ---- -------<br>--- --- -- ----- -- --- ---- to --- ---- -- ------ ------<br>--- ----- -- ----,60085.79999999702,60085.10000000894,59631.704,59646,59648.369,60098.274,,46,to
screen,html.Screen,0_2_0_1_47,2021-11-05T14:22:26.332Z,,,,,,,,,,,,,,,,53,,,,,,,,,,,,,,426.9260000029826,,response,,,99,,,,,,Space,keypress(Space),,,,,"---- -- ----- -- ------ - ------- --- ----------<br>------------- ------ ------ ---- ---- ------- ----- -- ----<br>-------- ------- -- ---------- --- - --- ----- ----- ----<br>---- --- --- ----- --- ---- ---- ------- ----- ---- -------<br>--- --- -- ----- -- --- ---- -- be, ---- -- ------ ------<br>--- ----- -- ----",60525.79999999702,60525.20000000298,60081.61,60085.90000000596,60098.274,60531.641,,47,"be,"
screen,html.Screen,0_2_0_1_48,2021-11-05T14:22:26.772Z,,,,,,,,,,,,,,,,53,,,,,,,,,,,,,,433.45900000893744,,response,,,99,,,,,,Space,keypress(Space),,,,,---- -- ----- -- ------ - ------- --- ----------<br>------------- ------ ------ ---- ---- ------- ----- -- ----<br>-------- ------- -- ---------- --- - --- ----- ----- ----<br>---- --- --- ----- --- ---- ---- ------- ----- ---- -------<br>--- --- -- ----- -- --- ---- -- --- even -- ------ ------<br>--- ----- -- ----,60965.70000000298,60965.10000000894,60514.976,60525.90000000596,60531.641,60981.664,,48,even
screen,html.Screen,0_2_0_1_49,2021-11-05T14:22:27.284Z,,,,,,,,,,,,,,,,53,,,,,,,,,,,,,,495.73600000596343,,response,,,99,,,,,,Space,keypress(Space),,,,,---- -- ----- -- ------ - ------- --- ----------<br>------------- ------ ------ ---- ---- ------- ----- -- ----<br>-------- ------- -- ---------- --- - --- ----- ----- ----<br>---- --- --- ----- --- ---- ---- ------- ----- ---- -------<br>--- --- -- ----- -- --- ---- -- --- ---- if ------ ------<br>--- ----- -- ----,61478,61477.40000000596,60964.998,60965.79999999702,60981.664,61481.589,,49,if
screen,html.Screen,0_2_0_1_50,2021-11-05T14:22:27.756Z,,,,,,,,,,,,,,,,53,,,,,,,,,,,,,,467.41100000000006,,response,,,99,,,,,,Space,keypress(Space),,,,,---- -- ----- -- ------ - ------- --- ----------<br>------------- ------ ------ ---- ---- ------- ----- -- ----<br>-------- ------- -- ---------- --- - --- ----- ----- ----<br>---- --- --- ----- --- ---- ---- ------- ----- ---- -------<br>--- --- -- ----- -- --- ---- -- --- ---- -- that's ------<br>--- ----- -- ----,61949.60000000894,61949,61464.924,61478.10000000894,61481.589,61964.897,,50,that's
screen,html.Screen,0_2_0_1_51,2021-11-05T14:22:28.180Z,,,,,,,,,,,,,,,,53,,,,,,,,,,,,,,408.2030000089435,,response,,,99,,,,,,Space,keypress(Space),,,,,---- -- ----- -- ------ - ------- --- ----------<br>------------- ------ ------ ---- ---- ------- ----- -- ----<br>-------- ------- -- ---------- --- - --- ----- ----- ----<br>---- --- --- ----- --- ---- ---- ------- ----- ---- -------<br>--- --- -- ----- -- --- ---- -- --- ---- -- ------ really<br>--- ----- -- ----,62373.60000000894,62373.10000000894,61948.232,61949.79999999702,61964.897,62381.544,,51,really
screen,html.Screen,0_2_0_1_52,2021-11-05T14:22:28.580Z,,,,,,,,,,,,,,,,53,,,,,,,,,,,,,,391.556000008939,,response,,,99,,,,,,Space,keypress(Space),,,,,---- -- ----- -- ------ - ------- --- ----------<br>------------- ------ ------ ---- ---- ------- ----- -- ----<br>-------- ------- -- ---------- --- - --- ----- ----- ----<br>---- --- --- ----- --- ---- ---- ------- ----- ---- -------<br>--- --- -- ----- -- --- ---- -- --- ---- -- ------ ------<br>not ----- -- ----,62773.60000000894,62773.10000000894,62364.879,62373.79999999702,62381.544,62781.501,,52,not
screen,html.Screen,0_2_0_1_53,2021-11-05T14:22:28.988Z,,,,,,,,,,,,,,,,53,,,,,,,,,,,,,,399.49900000000343,,response,,,99,,,,,,Space,keypress(Space),,,,,---- -- ----- -- ------ - ------- --- ----------<br>------------- ------ ------ ---- ---- ------- ----- -- ----<br>-------- ------- -- ---------- --- - --- ----- ----- ----<br>---- --- --- ----- --- ---- ---- ------- ----- ---- -------<br>--- --- -- ----- -- --- ---- -- --- ---- -- ------ ------<br>--- close -- ----,63181.60000000894,63181,62764.836,62773.79999999702,62781.501,63198.204,,53,close
screen,html.Screen,0_2_0_1_54,2021-11-05T14:22:29.380Z,,,,,,,,,,,,,,,,53,,,,,,,,,,,,,,374.7960000000021,,response,,,99,,,,,,Space,keypress(Space),,,,,---- -- ----- -- ------ - ------- --- ----------<br>------------- ------ ------ ---- ---- ------- ----- -- ----<br>-------- ------- -- ---------- --- - --- ----- ----- ----<br>---- --- --- ----- --- ---- ---- ------- ----- ---- -------<br>--- --- -- ----- -- --- ---- -- --- ---- -- ------ ------<br>--- ----- at ----,63573.60000000894,63573,63181.538,63181.70000000298,63198.204,63581.479,,54,at
screen,html.Screen,0_2_0_1_55,2021-11-05T14:22:30.340Z,,,,,,,,,,,,,,,,53,,,,,,,,,,,,,,951.5210000000006,,response,,,99,,,,,,Space,keypress(Space),,,,,---- -- ----- -- ------ - ------- --- ----------<br>------------- ------ ------ ---- ---- ------- ----- -- ----<br>-------- ------- -- ---------- --- - --- ----- ----- ----<br>---- --- --- ----- --- ---- ---- ------- ----- ---- -------<br>--- --- -- ----- -- --- ---- -- --- ---- -- ------ ------<br>--- ----- -- all.,64533.60000000894,64533,63564.814,63573.70000000298,63581.479,64548.067,,55,all.
Item 99,flow.Loop,0_2_0_1,2021-11-05T14:22:30.343Z,,,,,,,,,,,,,,,,,,,,,,,,,,,,,,29866.637000000002,,completion,,,,D,,,,,,,,,,silence,,64536.5,64533,34649.698,34653.5,34666.363,64548.067,,,
Question 1,html.Screen,0_2_0_2,2021-11-05T14:22:35.110Z,,,,,,,,,,,,,,,,,,,,,,,,,,,true,FALSE,,4754.6330000029775,,response,,,99,D,,,,,FALSE,click #choice-2,,,,silence,,69303.70000000298,69302.70000000298,64531.402,64536.70000000298,64548.067,69314.515,,,
Question 2,html.Screen,0_2_0_3,2021-11-05T14:22:40.011Z,,,,,,,,,,,,,,,,,,,,,,,,,,,true,TRUE,,4889.585000008941,,response,,,99,D,,,,,TRUE,click #choice-1,,,,silence,,74204.90000000596,74204.10000000894,69297.849,69303.90000000596,69314.515,74214.159,,,
Item 99,flow.Sequence,0_2_0,2021-11-05T14:22:40.012Z,,,,,,,,,,,,,,,,,,,,,,,,,,,,,,49537.10700000894,,completion,,,,,,,,,,,,,,,,74205.20000000298,74204.10000000894,24650.327,24657.20000000298,24666.993,74214.159,,,
Holding screen,html.Screen,0_2_1_0,2021-11-05T14:22:50.005Z,,,,,,,,,,,,,,,,,,,,,,,,,,,,,,9999.464999999997,,timeout,,,,,,,,,,,,,,,,84198.10000000894,84196.959,74197.495,74205.5,74214.159,84213.624,,,
screen,html.Screen,0_2_1_1_0,2021-11-05T14:22:50.723Z,,,,,,,,,,,,,,,,54,,,,,,,,,,,,,,702.4760000089445,,response,,,100,,,,,,Space,keypress(Space),,,,,At --- ---- --- ------ ----- ------- ---- -- --- ------- --<br>------- ---------- ------ -- ----- -- ----- -- ---- ------<br>--- ----- --- --- ------ -------- ----- --- ------ ----- --<br>----- ----- ---------- --- --- ------ ------ ---- -- ------<br>------- --- ------ ----- --- ---- ------- -- ---- --- --<br>------- ------,84916.90000000596,84916.10000000894,84196.959,84198.29999999702,84213.624,84930.263,,0,At
screen,html.Screen,0_2_1_1_1,2021-11-05T14:22:51.099Z,,,,,,,,,,,,,,,,54,,,,,,,,,,,,,,361.5369999970135,,response,,,100,,,,,,Space,keypress(Space),,,,,-- the ---- --- ------ ----- ------- ---- -- --- ------- --<br>------- ---------- ------ -- ----- -- ----- -- ---- ------<br>--- ----- --- --- ------ -------- ----- --- ------ ----- --<br>----- ----- ---------- --- --- ------ ------ ---- -- ------<br>------- --- ------ ----- --- ---- ------- -- ---- --- --<br>------- ------,85292.40000000596,85291.79999999702,84913.598,84917,84930.263,85296.93,,1,the
screen,html.Screen,0_2_1_1_2,2021-11-05T14:22:51.571Z,,,,,,,,,,,,,,,,54,,,,,,,,,,,,,,466.86999999702675,,response,,,100,,,,,,Space,keypress(Space),,,,,-- --- time --- ------ ----- ------- ---- -- --- ------- --<br>------- ---------- ------ -- ----- -- ----- -- ---- ------<br>--- ----- --- --- ------ -------- ----- --- ------ ----- --<br>----- ----- ---------- --- --- ------ ------ ---- -- ------<br>------- --- ------ ----- --- ---- ------- -- ---- --- --<br>------- ------,85764.5,85763.79999999702,85280.265,85292.5,85296.93,85780.226,,2,time
screen,html.Screen,0_2_1_1_3,2021-11-05T14:22:51.995Z,,,,,,,,,,,,,,,,54,,,,,,,,,,,,,,407.4740000029851,,response,,,100,,,,,,Space,keypress(Space),,,,,-- --- ---- the ------ ----- ------- ---- -- --- ------- --<br>------- ---------- ------ -- ----- -- ----- -- ---- ------<br>--- ----- --- --- ------ -------- ----- --- ------ ----- --<br>----- ----- ---------- --- --- ------ ------ ---- -- ------<br>------- --- ------ ----- --- ---- ------- -- ---- --- --<br>------- ------,86188.29999999702,86187.70000000298,85763.561,85764.60000000894,85780.226,86196.988,,3,the
screen,html.Screen,0_2_1_1_4,2021-11-05T14:22:52.443Z,,,,,,,,,,,,,,,,54,,,,,,,,,,,,,,438.7120000029827,,response,,,100,,,,,,Space,keypress(Space),,,,,-- --- ---- --- French ----- ------- ---- -- --- ------- --<br>------- ---------- ------ -- ----- -- ----- -- ---- ------<br>--- ----- --- --- ------ -------- ----- --- ------ ----- --<br>----- ----- ---------- --- --- ------ ------ ---- -- ------<br>------- --- ------ ----- --- ---- ------- -- ---- --- --<br>------- ------,86636.29999999702,86635.70000000298,86180.321,86188.5,86196.988,86646.749,,4,French
screen,html.Screen,0_2_1_1_5,2021-11-05T14:22:52.867Z,,,,,,,,,,,,,,,,54,,,,,,,,,,,,,,412.9510000029841,,response,,,100,,,,,,Space,keypress(Space),,,,,-- --- ---- --- ------ crown ------- ---- -- --- ------- --<br>------- ---------- ------ -- ----- -- ----- -- ---- ------<br>--- ----- --- --- ------ -------- ----- --- ------ ----- --<br>----- ----- ---------- --- --- ------ ------ ---- -- ------<br>------- --- ------ ----- --- ---- ------- -- ---- --- --<br>------- ------,87060.40000000596,87059.70000000298,86630.086,86636.5,86646.749,87063.609,,5,crown
screen,html.Screen,0_2_1_1_6,2021-11-05T14:22:53.299Z,,,,,,,,,,,,,,,,54,,,,,,,,,,,,,,428.0910000029835,,response,,,100,,,,,,Space,keypress(Space),,,,,-- --- ---- --- ------ ----- secured ---- -- --- ------- --<br>------- ---------- ------ -- ----- -- ----- -- ---- ------<br>--- ----- --- --- ------ -------- ----- --- ------ ----- --<br>----- ----- ---------- --- --- ------ ------ ---- -- ------<br>------- --- ------ ----- --- ---- ------- -- ---- --- --<br>------- ------,87492.20000000298,87491.70000000298,87046.942,87060.5,87063.609,87496.705,,6,secured
screen,html.Screen,0_2_1_1_7,2021-11-05T14:22:53.739Z,,,,,,,,,,,,,,,,54,,,,,,,,,,,,,,434.89500000893895,,response,,,100,,,,,,Space,keypress(Space),,,,,-- --- ---- --- ------ ----- ------- much -- --- ------- --<br>------- ---------- ------ -- ----- -- ----- -- ---- ------<br>--- ----- --- --- ------ -------- ----- --- ------ ----- --<br>----- ----- ---------- --- --- ------ ------ ---- -- ------<br>------- --- ------ ----- --- ---- ------- -- ---- --- --<br>------- ------,87932.20000000298,87931.60000000894,87480.042,87492.40000000596,87496.705,87946.835,,7,much
screen,html.Screen,0_2_1_1_8,2021-11-05T14:22:54.203Z,,,,,,,,,,,,,,,,54,,,,,,,,,,,,,,448.7650000089343,,response,,,100,,,,,,Space,keypress(Space),,,,,-- --- ---- --- ------ ----- ------- ---- of --- ------- --<br>------- ---------- ------ -- ----- -- ----- -- ---- ------<br>--- ----- --- --- ------ -------- ----- --- ------ ----- --<br>----- ----- ---------- --- --- ------ ------ ---- -- ------<br>------- --- ------ ----- --- ---- ------- -- ---- --- --<br>------- ------,88396.20000000298,88395.60000000894,87930.169,87932.40000000596,87946.835,88413.497,,8,of
screen,html.Screen,0_2_1_1_9,2021-11-05T14:22:54.595Z,,,,,,,,,,,,,,,,54,,,,,,,,,,,,,,374.10300000893767,,response,,,100,,,,,,Space,keypress(Space),,,,,-- --- ---- --- ------ ----- ------- ---- -- its ------- --<br>------- ---------- ------ -- ----- -- ----- -- ---- ------<br>--- ----- --- --- ------ -------- ----- --- ------ ----- --<br>----- ----- ---------- --- --- ------ ------ ---- -- ------<br>------- --- ------ ----- --- ---- ------- -- ---- --- --<br>------- ------,88788.20000000298,88787.60000000894,88396.831,88396.40000000596,88413.497,88796.767,,9,its
screen,html.Screen,0_2_1_1_10,2021-11-05T14:22:55.051Z,,,,,,,,,,,,,,,,54,,,,,,,,,,,,,,446.7329999999929,,response,,,100,,,,,,Space,keypress(Space),,,,,-- --- ---- --- ------ ----- ------- ---- -- --- revenue --<br>------- ---------- ------ -- ----- -- ----- -- ---- ------<br>--- ----- --- --- ------ -------- ----- --- ------ ----- --<br>----- ----- ---------- --- --- ------ ------ ---- -- ------<br>------- --- ------ ----- --- ---- ------- -- ---- --- --<br>------- ------,89244.20000000298,89243.5,88780.102,88788.40000000596,88796.767,89246.724,,10,revenue
screen,html.Screen,0_2_1_1_11,2021-11-05T14:22:55.427Z,,,,,,,,,,,,,,,,54,,,,,,,,,,,,,,372.775999999998,,response,,,100,,,,,,Space,keypress(Space),,,,,-- --- ---- --- ------ ----- ------- ---- -- --- ------- by<br>------- ---------- ------ -- ----- -- ----- -- ---- ------<br>--- ----- --- --- ------ -------- ----- --- ------ ----- --<br>----- ----- ---------- --- --- ------ ------ ---- -- ------<br>------- --- ------ ----- --- ---- ------- -- ---- --- --<br>------- ------,89620.10000000894,89619.5,89230.059,89244.29999999702,89246.724,89630.045,,11,by
screen,html.Screen,0_2_1_1_12,2021-11-05T14:22:55.851Z,,,,,,,,,,,,,,,,54,,,,,,,,,,,,,,413.45500000000175,,response,,,100,,,,,,Space,keypress(Space),,,,,-- --- ---- --- ------ ----- ------- ---- -- --- ------- --<br>issuing ---------- ------ -- ----- -- ----- -- ---- ------<br>--- ----- --- --- ------ -------- ----- --- ------ ----- --<br>----- ----- ---------- --- --- ------ ------ ---- -- ------<br>------- --- ------ ----- --- ---- ------- -- ---- --- --<br>------- ------,90044.10000000894,90043.5,89613.38,89620.29999999702,89630.045,90046.629,,12,issuing
screen,html.Screen,0_2_1_1_13,2021-11-05T14:22:56.339Z,,,,,,,,,,,,,,,,54,,,,,,,,,,,,,,484.9710000089399,,response,,,100,,,,,,Space,keypress(Space),,,,,-- --- ---- --- ------ ----- ------- ---- -- --- ------- --<br>------- government ------ -- ----- -- ----- -- ---- ------<br>--- ----- --- --- ------ -------- ----- --- ------ ----- --<br>----- ----- ---------- --- --- ------ ------ ---- -- ------<br>------- --- ------ ----- --- ---- ------- -- ---- --- --<br>------- ------,90532.10000000894,90531.60000000894,90029.965,90044.29999999702,90046.629,90546.762,,13,government
screen,html.Screen,0_2_1_1_14,2021-11-05T14:22:56.987Z,,,,,,,,,,,,,,,,54,,,,,,,,,,,,,,632.8380000089383,,response,,,100,,,,,,Space,keypress(Space),,,,,-- --- ---- --- ------ ----- ------- ---- -- --- ------- --<br>------- ---------- bonds. -- ----- -- ----- -- ---- ------<br>--- ----- --- --- ------ -------- ----- --- ------ ----- --<br>----- ----- ---------- --- --- ------ ------ ---- -- ------<br>------- --- ------ ----- --- ---- ------- -- ---- --- --<br>------- ------,91180.10000000894,91179.60000000894,90530.095,90532.29999999702,90546.762,91196.616,,14,bonds.
screen,html.Screen,0_2_1_1_15,2021-11-05T14:22:57.427Z,,,,,,,,,,,,,,,,54,,,,,,,,,,,,,,422.78400000596594,,response,,,100,,,,,,Space,keypress(Space),,,,,-- --- ---- --- ------ ----- ------- ---- -- --- ------- --<br>------- ---------- ------ In ----- -- ----- -- ---- ------<br>--- ----- --- --- ------ -------- ----- --- ------ ----- --<br>----- ----- ---------- --- --- ------ ------ ---- -- ------<br>------- --- ------ ----- --- ---- ------- -- ---- --- --<br>------- ------,91620,91619.40000000596,91179.951,91180.29999999702,91196.616,91629.931,,15,In
screen,html.Screen,0_2_1_1_16,2021-11-05T14:22:58.019Z,,,,,,,,,,,,,,,,54,,,,,,,,,,,,,,581.4690000059636,,response,,,100,,,,,,Space,keypress(Space),,,,,"-- --- ---- --- ------ ----- ------- ---- -- --- ------- --<br>------- ---------- ------ -- 1727, -- ----- -- ---- ------<br>--- ----- --- --- ------ -------- ----- --- ------ ----- --<br>----- ----- ---------- --- --- ------ ------ ---- -- ------<br>------- --- ------ ----- --- ---- ------- -- ---- --- --<br>------- ------",92212,92211.40000000596,91613.266,91620.10000000894,91629.931,92213.228,,16,"1727,"
screen,html.Screen,0_2_1_1_17,2021-11-05T14:22:58.466Z,,,,,,,,,,,,,,,,54,,,,,,,,,,,,,,446.17200000595767,,response,,,100,,,,,,Space,keypress(Space),,,,,-- --- ---- --- ------ ----- ------- ---- -- --- ------- --<br>------- ---------- ------ -- ----- in ----- -- ---- ------<br>--- ----- --- --- ------ -------- ----- --- ------ ----- --<br>----- ----- ---------- --- --- ------ ------ ---- -- ------<br>------- --- ------ ----- --- ---- ------- -- ---- --- --<br>------- ------,92660,92659.40000000596,92196.563,92212.20000000298,92213.228,92663.204,,17,in
screen,html.Screen,0_2_1_1_18,2021-11-05T14:22:58.970Z,,,,,,,,,,,,,,,,54,,,,,,,,,,,,,,500.09599999702186,,response,,,100,,,,,,Space,keypress(Space),,,,,-- --- ---- --- ------ ----- ------- ---- -- --- ------- --<br>------- ---------- ------ -- ----- -- order -- ---- ------<br>--- ----- --- --- ------ -------- ----- --- ------ ----- --<br>----- ----- ---------- --- --- ------ ------ ---- -- ------<br>------- --- ------ ----- --- ---- ------- -- ---- --- --<br>------- ------,93164,93163.29999999702,92646.539,92660.20000000298,92663.204,93179.842,,18,order
screen,html.Screen,0_2_1_1_19,2021-11-05T14:22:59.410Z,,,,,,,,,,,,,,,,54,,,,,,,,,,,,,,423.4579999970156,,response,,,100,,,,,,Space,keypress(Space),,,,,-- --- ---- --- ------ ----- ------- ---- -- --- ------- --<br>------- ---------- ------ -- ----- -- ----- to ---- ------<br>--- ----- --- --- ------ -------- ----- --- ------ ----- --<br>----- ----- ---------- --- --- ------ ------ ---- -- ------<br>------- --- ------ ----- --- ---- ------- -- ---- --- --<br>------- ------,93603.90000000596,93603.29999999702,93163.177,93164.10000000894,93179.842,93613.215,,19,to
screen,html.Screen,0_2_1_1_20,2021-11-05T14:22:59.858Z,,,,,,,,,,,,,,,,54,,,,,,,,,,,,,,437.9850000029837,,response,,,100,,,,,,Space,keypress(Space),,,,,-- --- ---- --- ------ ----- ------- ---- -- --- ------- --<br>------- ---------- ------ -- ----- -- ----- -- save ------<br>--- ----- --- --- ------ -------- ----- --- ------ ----- --<br>----- ----- ---------- --- --- ------ ------ ---- -- ------<br>------- --- ------ ----- --- ---- ------- -- ---- --- --<br>------- ------,94051.79999999702,94051.20000000298,93596.549,93604.10000000894,93613.215,94063.087,,20,save
screen,html.Screen,0_2_1_1_21,2021-11-05T14:23:00.450Z,,,,,,,,,,,,,,,,54,,,,,,,,,,,,,,580.2129999970202,,response,,,100,,,,,,Space,keypress(Space),,,,,"-- --- ---- --- ------ ----- ------- ---- -- --- ------- --<br>------- ---------- ------ -- ----- -- ----- -- ---- money,<br>--- ----- --- --- ------ -------- ----- --- ------ ----- --<br>----- ----- ---------- --- --- ------ ------ ---- -- ------<br>------- --- ------ ----- --- ---- ------- -- ---- --- --<br>------- ------",94643.90000000596,94643.29999999702,94046.423,94052.10000000894,94063.087,94646.402,,21,"money,"
screen,html.Screen,0_2_1_1_22,2021-11-05T14:23:00.867Z,,,,,,,,,,,,,,,,54,,,,,,,,,,,,,,412.9980000059586,,response,,,100,,,,,,Space,keypress(Space),,,,,-- --- ---- --- ------ ----- ------- ---- -- --- ------- --<br>------- ---------- ------ -- ----- -- ----- -- ---- ------<br>the ----- --- --- ------ -------- ----- --- ------ ----- --<br>----- ----- ---------- --- --- ------ ------ ---- -- ------<br>------- --- ------ ----- --- ---- ------- -- ---- --- --<br>------- ------,95060.10000000894,95059.40000000596,94629.737,94644.10000000894,94646.402,95063.059,,22,the
screen,html.Screen,0_2_1_1_23,2021-11-05T14:23:01.266Z,,,,,,,,,,,,,,,,54,,,,,,,,,,,,,,396.24099999702594,,response,,,100,,,,,,Space,keypress(Space),,,,,-- --- ---- --- ------ ----- ------- ---- -- --- ------- --<br>------- ---------- ------ -- ----- -- ----- -- ---- ------<br>--- state --- --- ------ -------- ----- --- ------ ----- --<br>----- ----- ---------- --- --- ------ ------ ---- -- ------<br>------- --- ------ ----- --- ---- ------- -- ---- --- --<br>------- ------,95460,95459.29999999702,95046.394,95060.20000000298,95063.059,95463.035,,23,state
screen,html.Screen,0_2_1_1_24,2021-11-05T14:23:01.835Z,,,,,,,,,,,,,,,,54,,,,,,,,,,,,,,564.2649999970163,,response,,,100,,,,,,Space,keypress(Space),,,,,-- --- ---- --- ------ ----- ------- ---- -- --- ------- --<br>------- ---------- ------ -- ----- -- ----- -- ---- ------<br>--- ----- cut --- ------ -------- ----- --- ------ ----- --<br>----- ----- ---------- --- --- ------ ------ ---- -- ------<br>------- --- ------ ----- --- ---- ------- -- ---- --- --<br>------- ------,96028,96027.29999999702,95446.37,95460.10000000894,95463.035,96029.733,,24,cut
screen,html.Screen,0_2_1_1_25,2021-11-05T14:23:02.290Z,,,,,,,,,,,,,,,,54,,,,,,,,,,,,,,453.46700000298733,,response,,,100,,,,,,Space,keypress(Space),,,,,-- --- ---- --- ------ ----- ------- ---- -- --- ------- --<br>------- ---------- ------ -- ----- -- ----- -- ---- ------<br>--- ----- --- the ------ -------- ----- --- ------ ----- --<br>----- ----- ---------- --- --- ------ ------ ---- -- ------<br>------- --- ------ ----- --- ---- ------- -- ---- --- --<br>------- ------,96483.90000000596,96483.20000000298,96013.067,96028.20000000298,96029.733,96496.304,,25,the
screen,html.Screen,0_2_1_1_26,2021-11-05T14:23:02.802Z,,,,,,,,,,,,,,,,54,,,,,,,,,,,,,,498.79600000893697,,response,,,100,,,,,,Space,keypress(Space),,,,,-- --- ---- --- ------ ----- ------- ---- -- --- ------- --<br>------- ---------- ------ -- ----- -- ----- -- ---- ------<br>--- ----- --- --- bonds' -------- ----- --- ------ ----- --<br>----- ----- ---------- --- --- ------ ------ ---- -- ------<br>------- --- ------ ----- --- ---- ------- -- ---- --- --<br>------- ------,96995.90000000596,96995.10000000894,96479.639,96483.90000000596,96496.304,97012.971,,26,bonds'
screen,html.Screen,0_2_1_1_27,2021-11-05T14:23:03.258Z,,,,,,,,,,,,,,,,54,,,,,,,,,,,,,,438.2290000029752,,response,,,100,,,,,,Space,keypress(Space),,,,,-- --- ---- --- ------ ----- ------- ---- -- --- ------- --<br>------- ---------- ------ -- ----- -- ----- -- ---- ------<br>--- ----- --- --- ------ interest ----- --- ------ ----- --<br>----- ----- ---------- --- --- ------ ------ ---- -- ------<br>------- --- ------ ----- --- ---- ------- -- ---- --- --<br>------- ------,97451.70000000298,97451.20000000298,96996.306,96996,97012.971,97462.843,,27,interest
screen,html.Screen,0_2_1_1_28,2021-11-05T14:23:03.682Z,,,,,,,,,,,,,,,,54,,,,,,,,,,,,,,412.2570000089472,,response,,,100,,,,,,Space,keypress(Space),,,,,-- --- ---- --- ------ ----- ------- ---- -- --- ------- --<br>------- ---------- ------ -- ----- -- ----- -- ---- ------<br>--- ----- --- --- ------ -------- rate. --- ------ ----- --<br>----- ----- ---------- --- --- ------ ------ ---- -- ------<br>------- --- ------ ----- --- ---- ------- -- ---- --- --<br>------- ------,97875.70000000298,97875.10000000894,97446.179,97452,97462.843,97879.648,,28,rate.
screen,html.Screen,0_2_1_1_29,2021-11-05T14:23:04.130Z,,,,,,,,,,,,,,,,54,,,,,,,,,,,,,,443.35199999999895,,response,,,100,,,,,,Space,keypress(Space),,,,,-- --- ---- --- ------ ----- ------- ---- -- --- ------- --<br>------- ---------- ------ -- ----- -- ----- -- ---- ------<br>--- ----- --- --- ------ -------- ----- The ------ ----- --<br>----- ----- ---------- --- --- ------ ------ ---- -- ------<br>------- --- ------ ----- --- ---- ------- -- ---- --- --<br>------- ------,98323.60000000894,98323,97862.982,97875.90000000596,97879.648,98329.506,,29,The
screen,html.Screen,0_2_1_1_30,2021-11-05T14:23:04.674Z,,,,,,,,,,,,,,,,54,,,,,,,,,,,,,,537.5940000089468,,response,,,100,,,,,,Space,keypress(Space),,,,,-- --- ---- --- ------ ----- ------- ---- -- --- ------- --<br>------- ---------- ------ -- ----- -- ----- -- ---- ------<br>--- ----- --- --- ------ -------- ----- --- market ----- --<br>----- ----- ---------- --- --- ------ ------ ---- -- ------<br>------- --- ------ ----- --- ---- ------- -- ---- --- --<br>------- ------,98867.70000000298,98867.10000000894,98312.842,98323.79999999702,98329.506,98879.57,,30,market
screen,html.Screen,0_2_1_1_31,2021-11-05T14:23:05.098Z,,,,,,,,,,,,,,,,54,,,,,,,,,,,,,,411.5300000089337,,response,,,100,,,,,,Space,keypress(Space),,,,,-- --- ---- --- ------ ----- ------- ---- -- --- ------- --<br>------- ---------- ------ -- ----- -- ----- -- ---- ------<br>--- ----- --- --- ------ -------- ----- --- ------ value --<br>----- ----- ---------- --- --- ------ ------ ---- -- ------<br>------- --- ------ ----- --- ---- ------- -- ---- --- --<br>------- ------,99291.70000000298,99291.10000000894,98862.904,98867.79999999702,98879.57,99296.091,,31,value
screen,html.Screen,0_2_1_1_32,2021-11-05T14:23:05.506Z,,,,,,,,,,,,,,,,54,,,,,,,,,,,,,,402.90899999999965,,response,,,100,,,,,,Space,keypress(Space),,,,,-- --- ---- --- ------ ----- ------- ---- -- --- ------- --<br>------- ---------- ------ -- ----- -- ----- -- ---- ------<br>--- ----- --- --- ------ -------- ----- --- ------ ----- of<br>----- ----- ---------- --- --- ------ ------ ---- -- ------<br>------- --- ------ ----- --- ---- ------- -- ---- --- --<br>------- ------,99699.60000000894,99699,99279.427,99291.90000000596,99296.091,99712.844,,32,of
screen,html.Screen,0_2_1_1_33,2021-11-05T14:23:05.882Z,,,,,,,,,,,,,,,,54,,,,,,,,,,,,,,362.05600000596314,,response,,,100,,,,,,Space,keypress(Space),,,,,-- --- ---- --- ------ ----- ------- ---- -- --- ------- --<br>------- ---------- ------ -- ----- -- ----- -- ---- ------<br>--- ----- --- --- ------ -------- ----- --- ------ ----- --<br>these ----- ---------- --- --- ------ ------ ---- -- ------<br>------- --- ------ ----- --- ---- ------- -- ---- --- --<br>------- ------,100075.5,100074.90000000596,99696.178,99699.79999999702,99712.844,100079.529,,33,these
screen,html.Screen,0_2_1_1_34,2021-11-05T14:23:06.258Z,,,,,,,,,,,,,,,,54,,,,,,,,,,,,,,371.471000000005,,response,,,100,,,,,,Space,keypress(Space),,,,,-- --- ---- --- ------ ----- ------- ---- -- --- ------- --<br>------- ---------- ------ -- ----- -- ----- -- ---- ------<br>--- ----- --- --- ------ -------- ----- --- ------ ----- --<br>----- bonds ---------- --- --- ------ ------ ---- -- ------<br>------- --- ------ ----- --- ---- ------- -- ---- --- --<br>------- ------,100451.60000000894,100451,100062.863,100075.70000000298,100079.529,100462.771,,34,bonds
screen,html.Screen,0_2_1_1_35,2021-11-05T14:23:06.706Z,,,,,,,,,,,,,,,,54,,,,,,,,,,,,,,436.22900000000664,,response,,,100,,,,,,Space,keypress(Space),,,,,"-- --- ---- --- ------ ----- ------- ---- -- --- ------- --<br>------- ---------- ------ -- ----- -- ----- -- ---- ------<br>--- ----- --- --- ------ -------- ----- --- ------ ----- --<br>----- ----- plummeted, --- --- ------ ------ ---- -- ------<br>------- --- ------ ----- --- ---- ------- -- ---- --- --<br>------- ------",100899.60000000894,100899,100446.106,100451.79999999702,100462.771,100912.731,,35,"plummeted,"
screen,html.Screen,0_2_1_1_36,2021-11-05T14:23:07.098Z,,,,,,,,,,,,,,,,54,,,,,,,,,,,,,,378.1690000059607,,response,,,100,,,,,,Space,keypress(Space),,,,,-- --- ---- --- ------ ----- ------- ---- -- --- ------- --<br>------- ---------- ------ -- ----- -- ----- -- ---- ------<br>--- ----- --- --- ------ -------- ----- --- ------ ----- --<br>----- ----- ---------- and --- ------ ------ ---- -- ------<br>------- --- ------ ----- --- ---- ------- -- ---- --- --<br>------- ------,101291.60000000894,101290.90000000596,100896.066,100899.70000000298,100912.731,101296.051,,36,and
screen,html.Screen,0_2_1_1_37,2021-11-05T14:23:07.522Z,,,,,,,,,,,,,,,,54,,,,,,,,,,,,,,418.8490000059537,,response,,,100,,,,,,Space,keypress(Space),,,,,-- --- ---- --- ------ ----- ------- ---- -- --- ------- --<br>------- ---------- ------ -- ----- -- ----- -- ---- ------<br>--- ----- --- --- ------ -------- ----- --- ------ ----- --<br>----- ----- ---------- --- the ------ ------ ---- -- ------<br>------- --- ------ ----- --- ---- ------- -- ---- --- --<br>------- ------,101715.40000000596,101714.90000000596,101279.386,101291.70000000298,101296.051,101729.41,,37,the
screen,html.Screen,0_2_1_1_38,2021-11-05T14:23:07.946Z,,,,,,,,,,,,,,,,54,,,,,,,,,,,,,,409.490000005957,,response,,,100,,,,,,Space,keypress(Space),,,,,-- --- ---- --- ------ ----- ------- ---- -- --- ------- --<br>------- ---------- ------ -- ----- -- ----- -- ---- ------<br>--- ----- --- --- ------ -------- ----- --- ------ ----- --<br>----- ----- ---------- --- --- market ------ ---- -- ------<br>------- --- ------ ----- --- ---- ------- -- ---- --- --<br>------- ------,102139.40000000596,102138.90000000596,101712.744,101715.40000000596,101729.41,102146.048,,38,market
screen,html.Screen,0_2_1_1_39,2021-11-05T14:23:08.298Z,,,,,,,,,,,,,,,,54,,,,,,,,,,,,,,344.85200000596524,,response,,,100,,,,,,Space,keypress(Space),,,,,-- --- ---- --- ------ ----- ------- ---- -- --- ------- --<br>------- ---------- ------ -- ----- -- ----- -- ---- ------<br>--- ----- --- --- ------ -------- ----- --- ------ ----- --<br>----- ----- ---------- --- --- ------ became ---- -- ------<br>------- --- ------ ----- --- ---- ------- -- ---- --- --<br>------- ------,102491.5,102490.90000000596,102129.382,102139.60000000894,102146.048,102495.923,,39,became
screen,html.Screen,0_2_1_1_40,2021-11-05T14:23:08.714Z,,,,,,,,,,,,,,,,54,,,,,,,,,,,,,,410.87699999702454,,response,,,100,,,,,,Space,keypress(Space),,,,,-- --- ---- --- ------ ----- ------- ---- -- --- ------- --<br>------- ---------- ------ -- ----- -- ----- -- ---- ------<br>--- ----- --- --- ------ -------- ----- --- ------ ----- --<br>----- ----- ---------- --- --- ------ ------ wary -- ------<br>------- --- ------ ----- --- ---- ------- -- ---- --- --<br>------- ------,102907.29999999702,102906.79999999702,102479.259,102491.5,102495.923,102912.719,,40,wary
screen,html.Screen,0_2_1_1_41,2021-11-05T14:23:09.074Z,,,,,,,,,,,,,,,,54,,,,,,,,,,,,,,354.08099999702245,,response,,,100,,,,,,Space,keypress(Space),,,,,-- --- ---- --- ------ ----- ------- ---- -- --- ------- --<br>------- ---------- ------ -- ----- -- ----- -- ---- ------<br>--- ----- --- --- ------ -------- ----- --- ------ ----- --<br>----- ----- ---------- --- --- ------ ------ ---- of ------<br>------- --- ------ ----- --- ---- ------- -- ---- --- --<br>------- ------,103267.40000000596,103266.79999999702,102896.052,102907.5,102912.719,103279.303,,41,of
screen,html.Screen,0_2_1_1_42,2021-11-05T14:23:09.450Z,,,,,,,,,,,,,,,,54,,,,,,,,,,,,,,363.4969999970199,,response,,,100,,,,,,Space,keypress(Space),,,,,-- --- ---- --- ------ ----- ------- ---- -- --- ------- --<br>------- ---------- ------ -- ----- -- ----- -- ---- ------<br>--- ----- --- --- ------ -------- ----- --- ------ ----- --<br>----- ----- ---------- --- --- ------ ------ ---- -- French<br>------- --- ------ ----- --- ---- ------- -- ---- --- --<br>------- ------,103643.29999999702,103642.79999999702,103262.638,103267.60000000894,103279.303,103645.883,,42,French
screen,html.Screen,0_2_1_1_43,2021-11-05T14:23:09.842Z,,,,,,,,,,,,,,,,54,,,,,,,,,,,,,,388.8170000029786,,response,,,100,,,,,,Space,keypress(Space),,,,,-- --- ---- --- ------ ----- ------- ---- -- --- ------- --<br>------- ---------- ------ -- ----- -- ----- -- ---- ------<br>--- ----- --- --- ------ -------- ----- --- ------ ----- --<br>----- ----- ---------- --- --- ------ ------ ---- -- ------<br>credit. --- ------ ----- --- ---- ------- -- ---- --- --<br>------- ------,104035.29999999702,104034.70000000298,103629.219,103643.5,103645.883,104046.011,,43,credit.
screen,html.Screen,0_2_1_1_44,2021-11-05T14:23:10.250Z,,,,,,,,,,,,,,,,54,,,,,,,,,,,,,,396.78899999702116,,response,,,100,,,,,,Space,keypress(Space),,,,,-- --- ---- --- ------ ----- ------- ---- -- --- ------- --<br>------- ---------- ------ -- ----- -- ----- -- ---- ------<br>--- ----- --- --- ------ -------- ----- --- ------ ----- --<br>----- ----- ---------- --- --- ------ ------ ---- -- ------<br>------- The ------ ----- --- ---- ------- -- ---- --- --<br>------- ------,104443.40000000596,104442.79999999702,104029.344,104035.5,104046.011,104445.794,,44,The
screen,html.Screen,0_2_1_1_45,2021-11-05T14:23:10.642Z,,,,,,,,,,,,,,,,54,,,,,,,,,,,,,,388.9060000029858,,response,,,100,,,,,,Space,keypress(Space),,,,,-- --- ---- --- ------ ----- ------- ---- -- --- ------- --<br>------- ---------- ------ -- ----- -- ----- -- ---- ------<br>--- ----- --- --- ------ -------- ----- --- ------ ----- --<br>----- ----- ---------- --- --- ------ ------ ---- -- ------<br>------- --- French ----- --- ---- ------- -- ---- --- --<br>------- ------,104835.29999999702,104834.70000000298,104429.131,104443.60000000894,104445.794,104845.906,,45,French
screen,html.Screen,0_2_1_1_46,2021-11-05T14:23:11.026Z,,,,,,,,,,,,,,,,54,,,,,,,,,,,,,,372.9940000059578,,response,,,100,,,,,,Space,keypress(Space),,,,,-- --- ---- --- ------ ----- ------- ---- -- --- ------- --<br>------- ---------- ------ -- ----- -- ----- -- ---- ------<br>--- ----- --- --- ------ -------- ----- --- ------ ----- --<br>----- ----- ---------- --- --- ------ ------ ---- -- ------<br>------- --- ------ state --- ---- ------- -- ---- --- --<br>------- ------,105219.60000000894,105218.90000000596,104829.24,104835.5,104845.906,105229.203,,46,state
screen,html.Screen,0_2_1_1_47,2021-11-05T14:23:11.378Z,,,,,,,,,,,,,,,,54,,,,,,,,,,,,,,341.49700000298617,,response,,,100,,,,,,Space,keypress(Space),,,,,-- --- ---- --- ------ ----- ------- ---- -- --- ------- --<br>------- ---------- ------ -- ----- -- ----- -- ---- ------<br>--- ----- --- --- ------ -------- ----- --- ------ ----- --<br>----- ----- ---------- --- --- ------ ------ ---- -- ------<br>------- --- ------ ----- was ---- ------- -- ---- --- --<br>------- ------,105571.29999999702,105570.70000000298,105212.538,105219.79999999702,105229.203,105579.175,,47,was
screen,html.Screen,0_2_1_1_48,2021-11-05T14:23:11.778Z,,,,,,,,,,,,,,,,54,,,,,,,,,,,,,,391.4250000089378,,response,,,100,,,,,,Space,keypress(Space),,,,,-- --- ---- --- ------ ----- ------- ---- -- --- ------- --<br>------- ---------- ------ -- ----- -- ----- -- ---- ------<br>--- ----- --- --- ------ -------- ----- --- ------ ----- --<br>----- ----- ---------- --- --- ------ ------ ---- -- ------<br>------- --- ------ ----- --- left ------- -- ---- --- --<br>------- ------,105971.20000000298,105970.60000000894,105562.51,105571.40000000596,105579.175,105979.134,,48,left
screen,html.Screen,0_2_1_1_49,2021-11-05T14:23:12.170Z,,,,,,,,,,,,,,,,54,,,,,,,,,,,,,,383.56600000297476,,response,,,100,,,,,,Space,keypress(Space),,,,,-- --- ---- --- ------ ----- ------- ---- -- --- ------- --<br>------- ---------- ------ -- ----- -- ----- -- ---- ------<br>--- ----- --- --- ------ -------- ----- --- ------ ----- --<br>----- ----- ---------- --- --- ------ ------ ---- -- ------<br>------- --- ------ ----- --- ---- without -- ---- --- --<br>------- ------,106363.20000000298,106362.70000000298,105962.469,105971.40000000596,105979.134,106379.118,,49,without
screen,html.Screen,0_2_1_1_50,2021-11-05T14:23:12.538Z,,,,,,,,,,,,,,,,54,,,,,,,,,,,,,,351.4820000089385,,response,,,100,,,,,,Space,keypress(Space),,,,,-- --- ---- --- ------ ----- ------- ---- -- --- ------- --<br>------- ---------- ------ -- ----- -- ----- -- ---- ------<br>--- ----- --- --- ------ -------- ----- --- ------ ----- --<br>----- ----- ---------- --- --- ------ ------ ---- -- ------<br>------- --- ------ ----- --- ---- ------- an ---- --- --<br>------- ------,106731.20000000298,106730.60000000894,106362.453,106363.40000000596,106379.118,106745.765,,50,an
screen,html.Screen,0_2_1_1_51,2021-11-05T14:23:12.954Z,,,,,,,,,,,,,,,,54,,,,,,,,,,,,,,400.9350000029808,,response,,,100,,,,,,Space,keypress(Space),,,,,-- --- ---- --- ------ ----- ------- ---- -- --- ------- --<br>------- ---------- ------ -- ----- -- ----- -- ---- ------<br>--- ----- --- --- ------ -------- ----- --- ------ ----- --<br>----- ----- ---------- --- --- ------ ------ ---- -- ------<br>------- --- ------ ----- --- ---- ------- -- easy --- --<br>------- ------,107147.29999999702,107146.70000000298,106729.1,106731.29999999702,106745.765,107162.415,,51,easy
screen,html.Screen,0_2_1_1_52,2021-11-05T14:23:13.330Z,,,,,,,,,,,,,,,,54,,,,,,,,,,,,,,360.1850000089471,,response,,,100,,,,,,Space,keypress(Space),,,,,-- --- ---- --- ------ ----- ------- ---- -- --- ------- --<br>------- ---------- ------ -- ----- -- ----- -- ---- ------<br>--- ----- --- --- ------ -------- ----- --- ------ ----- --<br>----- ----- ---------- --- --- ------ ------ ---- -- ------<br>------- --- ------ ----- --- ---- ------- -- ---- way --<br>------- ------,107523.10000000894,107522.60000000894,107145.75,107147.40000000596,107162.415,107529.043,,52,way
screen,html.Screen,0_2_1_1_53,2021-11-05T14:23:13.714Z,,,,,,,,,,,,,,,,54,,,,,,,,,,,,,,377.5570000089356,,response,,,100,,,,,,Space,keypress(Space),,,,,-- --- ---- --- ------ ----- ------- ---- -- --- ------- --<br>------- ---------- ------ -- ----- -- ----- -- ---- ------<br>--- ----- --- --- ------ -------- ----- --- ------ ----- --<br>----- ----- ---------- --- --- ------ ------ ---- -- ------<br>------- --- ------ ----- --- ---- ------- -- ---- --- of<br>------- ------,107907.10000000894,107906.60000000894,107512.378,107523.29999999702,107529.043,107912.298,,53,of
screen,html.Screen,0_2_1_1_54,2021-11-05T14:23:14.114Z,,,,,,,,,,,,,,,,54,,,,,,,,,,,,,,394.2020000000048,,response,,,100,,,,,,Space,keypress(Space),,,,,-- --- ---- --- ------ ----- ------- ---- -- --- ------- --<br>------- ---------- ------ -- ----- -- ----- -- ---- ------<br>--- ----- --- --- ------ -------- ----- --- ------ ----- --<br>----- ----- ---------- --- --- ------ ------ ---- -- ------<br>------- --- ------ ----- --- ---- ------- -- ---- --- --<br>raising ------,108307.20000000298,108306.5,107895.634,107907.29999999702,107912.298,108312.426,,54,raising
screen,html.Screen,0_2_1_1_55,2021-11-05T14:23:14.922Z,,,,,,,,,,,,,,,,54,,,,,,,,,,,,,,802.0739999999932,,response,,,100,,,,,,Space,keypress(Space),,,,,-- --- ---- --- ------ ----- ------- ---- -- --- ------- --<br>------- ---------- ------ -- ----- -- ----- -- ---- ------<br>--- ----- --- --- ------ -------- ----- --- ------ ----- --<br>----- ----- ---------- --- --- ------ ------ ---- -- ------<br>------- --- ------ ----- --- ---- ------- -- ---- --- --<br>------- money.,109115.10000000894,109114.5,108295.759,108307.29999999702,108312.426,109128.871,,55,money.
Item 100,flow.Loop,0_2_1_1,2021-11-05T14:23:14.922Z,,,,,,,,,,,,,,,,,,,,,,,,,,,,,,24900.876000000004,,completion,,,,D,,,,,,,,,,silence,,109115.40000000596,109114.5,84196.959,84198.29999999702,84213.624,109128.871,,,
Question 1,html.Screen,0_2_1_2,2021-11-05T14:23:18.047Z,,,,,,,,,,,,,,,,,,,,,,,,,,,true,TRUE,,3111.0290000059613,,response,,,100,D,,,,,TRUE,click #choice-1,,,,silence,,112240.70000000298,112239.90000000596,109112.207,109115.60000000894,109128.871,112245.46,,,
Question 2,html.Screen,0_2_1_3,2021-11-05T14:23:21.034Z,,,,,,,,,,,,,,,,,,,,,,,,,,,true,FALSE,,2981.440000005954,,response,,,100,D,,,,,FALSE,click #choice-2,,,,silence,,115227.60000000894,115226.90000000596,112228.795,112240.90000000596,112245.46,115228.5,,,
Item 100,flow.Sequence,0_2_1,2021-11-05T14:23:21.034Z,,,,,,,,,,,,,,,,,,,,,,,,,,,,,,41012.74100000596,,completion,,,,,,,,,,,,,,,,115227.79999999702,115226.90000000596,74197.495,74205.29999999702,74214.159,115228.5,,,
End of Practice,html.Page,0_2_2,2021-11-05T14:23:24.942Z,,,,,,,,,,,,,,,,,,,,,,,,,,,,,,3906.5,,form submission,,,,,,,,,,,,,,,,119135.29999999702,119135,115211.836,115227.90000000596,115228.5,119145.046,,,
Practice,flow.Sequence,0_2,2021-11-05T14:23:24.942Z,,,,,,,,,,,,,,,,,,,,,,,,,,,,,,94468.007,,completion,,,,,,,,,,,,,,,,119135.60000000894,119135,24650.327,24657.20000000298,24666.993,119145.046,,,
Trap_instruction,html.Page,0_3_0,2021-11-05T14:23:28.731Z,,,,,,,,,,,,,,,,,,,,,,,,,,,,,,3776.654000002978,,form submission,,,,,,,,,,,,,,,,122922.20000000298,122921.70000000298,119128.381,119135.79999999702,119145.046,122944.876,,,
trap_trial,html.Screen,0_3_1,2021-11-05T14:23:31.950Z,,,,,,,,,,,,,,,,,,,,,,,,,,,true,1,,3195.3240000029764,,response,,,,,,,,,1,click #choice-1,,,,,,126141.10000000894,126140.20000000298,122911.546,122922.40000000596,122944.876,126144.959,,,
end of trap trial,html.Page,0_3_2,2021-11-05T14:23:34.497Z,,,,,,,,,,,,,,,,,,,,,,,,,,,,,,2542.941000005958,,form submission,,,,,,,,,,,,,,,,128688.29999999702,128687.90000000596,126128.292,126141.29999999702,126144.959,128694.48,,,
Trap 1,flow.Sequence,0_3,2021-11-05T14:23:34.498Z,,,,,,,,,,,,,,,,,,,,,,,,,,,,,,9542.854000005958,,completion,,,,,,,,,,,,,,,,128688.60000000894,128687.90000000596,119128.381,119135.70000000298,119145.046,128694.48,,,
Standby,html.Page,0_4_0,2021-11-05T14:23:42.488Z,,,,,,,,,,,,,,,,,,,,,,,,,,,,,,7999.797999999995,,timeout,,,,,,,,,,,,,,,,136678.79999999702,136677.612,128677.815,128688.79999999702,128694.48,136694.278,,,
Holding screen,html.Screen,0_4_1_0_0,2021-11-05T14:23:49.487Z,,,,,,,,,,,,,,,,,,,,,,,,,,,,,,6999.4130000000005,,timeout,,,,,,,,,,,,,,,,143677.70000000298,143677.026,136677.612,136679.10000000894,136694.278,143693.691,,,
screen,html.Screen,0_4_1_0_1_0,2021-11-05T14:23:50.563Z,,,,,,,,,,,,,,,,2,,,,,,,,,,,,,,1059.2090000059688,,response,,,1,D,,,,,Space,keypress(Space),,,,silence,Two ---- ------ --- ------- ---------- ------- ----------<br>--- --------- --- ----------- ------- ----- ------- ---<br>--------- ---- -- --- ---- -- --------- -- ---- -------<br>-- --------- ------ --- ----- ------ ---- --- --------- --<br>------ - ---- -- --- ----------- ------- ---- ----- -----<br>--- -------- - ------ ---- -- ----- ---- --- --- -----------<br>-- -------,144753.60000000894,144752.90000000596,143677.026,143678,143693.691,144760.295,,0,Two
screen,html.Screen,0_4_1_0_1_1,2021-11-05T14:23:51.162Z,,,,,,,,,,,,,,,,2,,,,,,,,,,,,,,592.2049999999872,,response,,,1,D,,,,,Space,keypress(Space),,,,silence,--- days ------ --- ------- ---------- ------- ----------<br>--- --------- --- ----------- ------- ----- ------- ---<br>--------- ---- -- --- ---- -- --------- -- ---- -------<br>-- --------- ------ --- ----- ------ ---- --- --------- --<br>------ - ---- -- --- ----------- ------- ---- ----- -----<br>--- -------- - ------ ---- -- ----- ---- --- --- -----------<br>-- -------,145353.10000000894,145352.5,144743.63,144753.79999999702,144760.295,145360.315,,1,days
screen,html.Screen,0_4_1_0_1_2,2021-11-05T14:23:51.898Z,,,,,,,,,,,,,,,,2,,,,,,,,,,,,,,728.1849999999977,,response,,,1,D,,,,,Space,keypress(Space),,,,silence,"--- ---- later, --- ------- ---------- ------- ----------<br>--- --------- --- ----------- ------- ----- ------- ---<br>--------- ---- -- --- ---- -- --------- -- ---- -------<br>-- --------- ------ --- ----- ------ ---- --- --------- --<br>------ - ---- -- --- ----------- ------- ---- ----- -----<br>--- -------- - ------ ---- -- ----- ---- --- --- -----------<br>-- -------",146089.10000000894,146088.5,145343.65,145353.29999999702,145360.315,146093.58,,2,"later,"
screen,html.Screen,0_4_1_0_1_3,2021-11-05T14:23:52.354Z,,,,,,,,,,,,,,,,2,,,,,,,,,,,,,,450.82000000597327,,response,,,1,D,,,,,Space,keypress(Space),,,,silence,--- ---- ------ the ------- ---------- ------- ----------<br>--- --------- --- ----------- ------- ----- ------- ---<br>--------- ---- -- --- ---- -- --------- -- ---- -------<br>-- --------- ------ --- ----- ------ ---- --- --------- --<br>------ - ---- -- --- ----------- ------- ---- ----- -----<br>--- -------- - ------ ---- -- ----- ---- --- --- -----------<br>-- -------,146545,146544.40000000596,146076.915,146089.20000000298,146093.58,146560.155,,3,the
screen,html.Screen,0_4_1_0_1_4,2021-11-05T14:23:52.970Z,,,,,,,,,,,,,,,,2,,,,,,,,,,,,,,600.1449999970209,,response,,,1,D,,,,,Space,keypress(Space),,,,silence,--- ---- ------ --- British ---------- ------- ----------<br>--- --------- --- ----------- ------- ----- ------- ---<br>--------- ---- -- --- ---- -- --------- -- ---- -------<br>-- --------- ------ --- ----- ------ ---- --- --------- --<br>------ - ---- -- --- ----------- ------- ---- ----- -----<br>--- -------- - ------ ---- -- ----- ---- --- --- -----------<br>-- -------,147161,147160.29999999702,146543.491,146545.20000000298,146560.155,147176.93,,4,British
screen,html.Screen,0_4_1_0_1_5,2021-11-05T14:23:53.738Z,,,,,,,,,,,,,,,,2,,,,,,,,,,,,,,751.4700000059674,,response,,,1,D,,,,,Space,keypress(Space),,,,silence,--- ---- ------ --- ------- astronomer ------- ----------<br>--- --------- --- ----------- ------- ----- ------- ---<br>--------- ---- -- --- ---- -- --------- -- ---- -------<br>-- --------- ------ --- ----- ------ ---- --- --------- --<br>------ - ---- -- --- ----------- ------- ---- ----- -----<br>--- -------- - ------ ---- -- ----- ---- --- --- -----------<br>-- -------,147929.10000000894,147928.40000000596,147160.264,147161.20000000298,147176.93,147943.379,,5,astronomer
screen,html.Screen,0_4_1_0_1_6,2021-11-05T14:23:54.258Z,,,,,,,,,,,,,,,,2,,,,,,,,,,,,,,504.9209999970335,,response,,,1,D,,,,,Space,keypress(Space),,,,silence,--- ---- ------ --- ------- ---------- Richard ----------<br>--- --------- --- ----------- ------- ----- ------- ---<br>--------- ---- -- --- ---- -- --------- -- ---- -------<br>-- --------- ------ --- ----- ------ ---- --- --------- --<br>------ - ---- -- --- ----------- ------- ---- ----- -----<br>--- -------- - ------ ---- -- ----- ---- --- --- -----------<br>-- -------,148449.10000000894,148448.29999999702,147926.715,147929.29999999702,147943.379,148460.019,,6,Richard
screen,html.Screen,0_4_1_0_1_7,2021-11-05T14:23:54.890Z,,,,,,,,,,,,,,,,2,,,,,,,,,,,,,,620.18100000298,,response,,,1,D,,,,,Space,keypress(Space),,,,silence,--- ---- ------ --- ------- ---------- ------- Carrington<br>--- --------- --- ----------- ------- ----- ------- ---<br>--------- ---- -- --- ---- -- --------- -- ---- -------<br>-- --------- ------ --- ----- ------ ---- --- --------- --<br>------ - ---- -- --- ----------- ------- ---- ----- -----<br>--- -------- - ------ ---- -- ----- ---- --- --- -----------<br>-- -------,149080.79999999702,149080.20000000298,148443.355,148449.29999999702,148460.019,149093.501,,7,Carrington
screen,html.Screen,0_4_1_0_1_8,2021-11-05T14:23:55.410Z,,,,,,,,,,,,,,,,2,,,,,,,,,,,,,,506.7989999970305,,response,,,1,D,,,,,Space,keypress(Space),,,,silence,--- ---- ------ --- ------- ---------- ------- ----------<br>was --------- --- ----------- ------- ----- ------- ---<br>--------- ---- -- --- ---- -- --------- -- ---- -------<br>-- --------- ------ --- ----- ------ ---- --- --------- --<br>------ - ---- -- --- ----------- ------- ---- ----- -----<br>--- -------- - ------ ---- -- ----- ---- --- --- -----------<br>-- -------,149600.90000000596,149600.29999999702,149076.835,149081,149093.501,149609.991,,8,was
screen,html.Screen,0_4_1_0_1_9,2021-11-05T14:23:56.042Z,,,,,,,,,,,,,,,,2,,,,,,,,,,,,,,622.3089999970107,,response,,,1,D,,,,,Space,keypress(Space),,,,silence,--- ---- ------ --- ------- ---------- ------- ----------<br>--- observing --- ----------- ------- ----- ------- ---<br>--------- ---- -- --- ---- -- --------- -- ---- -------<br>-- --------- ------ --- ----- ------ ---- --- --------- --<br>------ - ---- -- --- ----------- ------- ---- ----- -----<br>--- -------- - ------ ---- -- ----- ---- --- --- -----------<br>-- -------,150232.90000000596,150232.29999999702,149593.327,149601.10000000894,149609.991,150243.43,,9,observing
screen,html.Screen,0_4_1_0_1_10,2021-11-05T14:23:56.594Z,,,,,,,,,,,,,,,,2,,,,,,,,,,,,,,540.8699999970268,,response,,,1,D,,,,,Space,keypress(Space),,,,silence,--- ---- ------ --- ------- ---------- ------- ----------<br>--- --------- the ----------- ------- ----- ------- ---<br>--------- ---- -- --- ---- -- --------- -- ---- -------<br>-- --------- ------ --- ----- ------ ---- --- --------- --<br>------ - ---- -- --- ----------- ------- ---- ----- -----<br>--- -------- - ------ ---- -- ----- ---- --- --- -----------<br>-- -------,150785,150784.29999999702,150226.764,150233.10000000894,150243.43,150793.31,,10,the
screen,html.Screen,0_4_1_0_1_11,2021-11-05T14:23:57.138Z,,,,,,,,,,,,,,,,2,,,,,,,,,,,,,,534.8900000029826,,response,,,1,D,,,,,Space,keypress(Space),,,,silence,--- ---- ------ --- ------- ---------- ------- ----------<br>--- --------- --- interesting ------- ----- ------- ---<br>--------- ---- -- --- ---- -- --------- -- ---- -------<br>-- --------- ------ --- ----- ------ ---- --- --------- --<br>------ - ---- -- --- ----------- ------- ---- ----- -----<br>--- -------- - ------ ---- -- ----- ---- --- --- -----------<br>-- -------,151328.79999999702,151328.20000000298,150776.645,150785,150793.31,151343.36,,11,interesting
screen,html.Screen,0_4_1_0_1_12,2021-11-05T14:23:57.746Z,,,,,,,,,,,,,,,,2,,,,,,,,,,,,,,592.7400000089547,,response,,,1,D,,,,,Space,keypress(Space),,,,silence,--- ---- ------ --- ------- ---------- ------- ----------<br>--- --------- --- ----------- sunspot ----- ------- ---<br>--------- ---- -- --- ---- -- --------- -- ---- -------<br>-- --------- ------ --- ----- ------ ---- --- --------- --<br>------ - ---- -- --- ----------- ------- ---- ----- -----<br>--- -------- - ------ ---- -- ----- ---- --- --- -----------<br>-- -------,151936.79999999702,151936.10000000894,151326.694,151328.90000000596,151343.36,151943.27,,12,sunspot
screen,html.Screen,0_4_1_0_1_13,2021-11-05T14:23:58.418Z,,,,,,,,,,,,,,,,2,,,,,,,,,,,,,,664.8300000089512,,response,,,1,D,,,,,Space,keypress(Space),,,,silence,--- ---- ------ --- ------- ---------- ------- ----------<br>--- --------- --- ----------- ------- group ------- ---<br>--------- ---- -- --- ---- -- --------- -- ---- -------<br>-- --------- ------ --- ----- ------ ---- --- --------- --<br>------ - ---- -- --- ----------- ------- ---- ----- -----<br>--- -------- - ------ ---- -- ----- ---- --- --- -----------<br>-- -------,152608.70000000298,152608.10000000894,151926.605,151936.90000000596,151943.27,152609.898,,13,group
screen,html.Screen,0_4_1_0_1_14,2021-11-05T14:23:58.882Z,,,,,,,,,,,,,,,,2,,,,,,,,,,,,,,462.1020000000135,,response,,,1,D,,,,,Space,keypress(Space),,,,silence,--- ---- ------ --- ------- ---------- ------- ----------<br>--- --------- --- ----------- ------- ----- through ---<br>--------- ---- -- --- ---- -- --------- -- ---- -------<br>-- --------- ------ --- ----- ------ ---- --- --------- --<br>------ - ---- -- --- ----------- ------- ---- ----- -----<br>--- -------- - ------ ---- -- ----- ---- --- --- -----------<br>-- -------,153072.70000000298,153072,152593.233,152608.90000000596,152609.898,153076.547,,14,through
screen,html.Screen,0_4_1_0_1_15,2021-11-05T14:23:59.298Z,,,,,,,,,,,,,,,,2,,,,,,,,,,,,,,411.4530000000086,,response,,,1,D,,,,,Space,keypress(Space),,,,silence,--- ---- ------ --- ------- ---------- ------- ----------<br>--- --------- --- ----------- ------- ----- ------- his<br>--------- ---- -- --- ---- -- --------- -- ---- -------<br>-- --------- ------ --- ----- ------ ---- --- --------- --<br>------ - ---- -- --- ----------- ------- ---- ----- -----<br>--- -------- - ------ ---- -- ----- ---- --- --- -----------<br>-- -------,153488.60000000894,153488,153059.882,153072.79999999702,153076.547,153493.124,,15,his
screen,html.Screen,0_4_1_0_1_16,2021-11-05T14:24:00.010Z,,,,,,,,,,,,,,,,2,,,,,,,,,,,,,,706.8759999999893,,response,,,1,D,,,,,Space,keypress(Space),,,,silence,--- ---- ------ --- ------- ---------- ------- ----------<br>--- --------- --- ----------- ------- ----- ------- ---<br>telescope ---- -- --- ---- -- --------- -- ---- -------<br>-- --------- ------ --- ----- ------ ---- --- --------- --<br>------ - ---- -- --- ----------- ------- ---- ----- -----<br>--- -------- - ------ ---- -- ----- ---- --- --- -----------<br>-- -------,154200.70000000298,154200,153476.46,153488.79999999702,153493.124,154209.864,,16,telescope
screen,html.Screen,0_4_1_0_1_17,2021-11-05T14:24:00.602Z,,,,,,,,,,,,,,,,2,,,,,,,,,,,,,,582.3360000029788,,response,,,1,D,,,,,Space,keypress(Space),,,,silence,--- ---- ------ --- ------- ---------- ------- ----------<br>--- --------- --- ----------- ------- ----- ------- ---<br>--------- when -- --- ---- -- --------- -- ---- -------<br>-- --------- ------ --- ----- ------ ---- --- --------- --<br>------ - ---- -- --- ----------- ------- ---- ----- -----<br>--- -------- - ------ ---- -- ----- ---- --- --- -----------<br>-- -------,154792.90000000596,154792.20000000298,154193.198,154200.79999999702,154209.864,154809.786,,17,when
screen,html.Screen,0_4_1_0_1_18,2021-11-05T14:24:01.050Z,,,,,,,,,,,,,,,,2,,,,,,,,,,,,,,430.1140000059677,,response,,,1,D,,,,,Space,keypress(Space),,,,silence,--- ---- ------ --- ------- ---------- ------- ----------<br>--- --------- --- ----------- ------- ----- ------- ---<br>--------- ---- he --- ---- -- --------- -- ---- -------<br>-- --------- ------ --- ----- ------ ---- --- --------- --<br>------ - ---- -- --- ----------- ------- ---- ----- -----<br>--- -------- - ------ ---- -- ----- ---- --- --- -----------<br>-- -------,155240.5,155239.90000000596,154793.121,154793.10000000894,154809.786,155243.082,,18,he
screen,html.Screen,0_4_1_0_1_19,2021-11-05T14:24:01.722Z,,,,,,,,,,,,,,,,2,,,,,,,,,,,,,,668.8180000059656,,response,,,1,D,,,,,Space,keypress(Space),,,,silence,--- ---- ------ --- ------- ---------- ------- ----------<br>--- --------- --- ----------- ------- ----- ------- ---<br>--------- ---- -- saw ---- -- --------- -- ---- -------<br>-- --------- ------ --- ----- ------ ---- --- --------- --<br>------ - ---- -- --- ----------- ------- ---- ----- -----<br>--- -------- - ------ ---- -- ----- ---- --- --- -----------<br>-- -------,155912.60000000894,155911.90000000596,155226.417,155240.79999999702,155243.082,155926.384,,19,saw
screen,html.Screen,0_4_1_0_1_20,2021-11-05T14:24:02.322Z,,,,,,,,,,,,,,,,2,,,,,,,,,,,,,,585.5160000059695,,response,,,1,D,,,,,Space,keypress(Space),,,,silence,--- ---- ------ --- ------- ---------- ------- ----------<br>--- --------- --- ----------- ------- ----- ------- ---<br>--------- ---- -- --- what -- --------- -- ---- -------<br>-- --------- ------ --- ----- ------ ---- --- --------- --<br>------ - ---- -- --- ----------- ------- ---- ----- -----<br>--- -------- - ------ ---- -- ----- ---- --- --- -----------<br>-- -------,156512.5,156511.90000000596,155909.719,155912.70000000298,155926.384,156526.363,,20,what
screen,html.Screen,0_4_1_0_1_21,2021-11-05T14:24:02.841Z,,,,,,,,,,,,,,,,2,,,,,,,,,,,,,,505.43699999700766,,response,,,1,D,,,,,Space,keypress(Space),,,,silence,--- ---- ------ --- ------- ---------- ------- ----------<br>--- --------- --- ----------- ------- ----- ------- ---<br>--------- ---- -- --- ---- he --------- -- ---- -------<br>-- --------- ------ --- ----- ------ ---- --- --------- --<br>------ - ---- -- --- ----------- ------- ---- ----- -----<br>--- -------- - ------ ---- -- ----- ---- --- --- -----------<br>-- -------,157032.40000000596,157031.79999999702,156509.698,156512.70000000298,156526.363,157042.972,,21,he
screen,html.Screen,0_4_1_0_1_22,2021-11-05T14:24:03.377Z,,,,,,,,,,,,,,,,2,,,,,,,,,,,,,,524.8279999970109,,response,,,1,D,,,,,Space,keypress(Space),,,,silence,--- ---- ------ --- ------- ---------- ------- ----------<br>--- --------- --- ----------- ------- ----- ------- ---<br>--------- ---- -- --- ---- -- described -- ---- -------<br>-- --------- ------ --- ----- ------ ---- --- --------- --<br>------ - ---- -- --- ----------- ------- ---- ----- -----<br>--- -------- - ------ ---- -- ----- ---- --- --- -----------<br>-- -------,157568.40000000596,157567.79999999702,157026.307,157032.60000000894,157042.972,157576.287,,22,described
screen,html.Screen,0_4_1_0_1_23,2021-11-05T14:24:03.929Z,,,,,,,,,,,,,,,,2,,,,,,,,,,,,,,543.5129999970086,,response,,,1,D,,,,,Space,keypress(Space),,,,silence,--- ---- ------ --- ------- ---------- ------- ----------<br>--- --------- --- ----------- ------- ----- ------- ---<br>--------- ---- -- --- ---- -- --------- as ---- -------<br>-- --------- ------ --- ----- ------ ---- --- --------- --<br>------ - ---- -- --- ----------- ------- ---- ----- -----<br>--- -------- - ------ ---- -- ----- ---- --- --- -----------<br>-- -------,158120.29999999702,158119.79999999702,157559.622,157568.60000000894,157576.287,158126.185,,23,as
screen,html.Screen,0_4_1_0_1_24,2021-11-05T14:24:04.409Z,,,,,,,,,,,,,,,,2,,,,,,,,,,,,,,473.6149999970221,,response,,,1,D,,,,,Space,keypress(Space),,,,silence,"--- ---- ------ --- ------- ---------- ------- ----------<br>--- --------- --- ----------- ------- ----- ------- ---<br>--------- ---- -- --- ---- -- --------- -- ""two -------<br>-- --------- ------ --- ----- ------ ---- --- --------- --<br>------ - ---- -- --- ----------- ------- ---- ----- -----<br>--- -------- - ------ ---- -- ----- ---- --- --- -----------<br>-- -------",158600.29999999702,158599.79999999702,158109.521,158120.5,158126.185,158609.612,,24,"""two"
screen,html.Screen,0_4_1_0_1_25,2021-11-05T14:24:04.929Z,,,,,,,,,,,,,,,,2,,,,,,,,,,,,,,510.0880000029865,,response,,,1,D,,,,,Space,keypress(Space),,,,silence,--- ---- ------ --- ------- ---------- ------- ----------<br>--- --------- --- ----------- ------- ----- ------- ---<br>--------- ---- -- --- ---- -- --------- -- ---- patches<br>-- --------- ------ --- ----- ------ ---- --- --------- --<br>------ - ---- -- --- ----------- ------- ---- ----- -----<br>--- -------- - ------ ---- -- ----- ---- --- --- -----------<br>-- -------,159120.40000000596,159119.70000000298,158592.946,158600.60000000894,158609.612,159126.203,,25,patches
screen,html.Screen,0_4_1_0_1_26,2021-11-05T14:24:05.401Z,,,,,,,,,,,,,,,,2,,,,,,,,,,,,,,465.4970000029716,,response,,,1,D,,,,,Space,keypress(Space),,,,silence,--- ---- ------ --- ------- ---------- ------- ----------<br>--- --------- --- ----------- ------- ----- ------- ---<br>--------- ---- -- --- ---- -- --------- -- ---- -------<br>of --------- ------ --- ----- ------ ---- --- --------- --<br>------ - ---- -- --- ----------- ------- ---- ----- -----<br>--- -------- - ------ ---- -- ----- ---- --- --- -----------<br>-- -------,159592.40000000596,159591.70000000298,159109.538,159120.60000000894,159126.203,159609.485,,26,of
screen,html.Screen,0_4_1_0_1_27,2021-11-05T14:24:05.977Z,,,,,,,,,,,,,,,,2,,,,,,,,,,,,,,558.2150000029942,,response,,,1,D,,,,,Space,keypress(Space),,,,silence,--- ---- ------ --- ------- ---------- ------- ----------<br>--- --------- --- ----------- ------- ----- ------- ---<br>--------- ---- -- --- ---- -- --------- -- ---- -------<br>-- intensely ------ --- ----- ------ ---- --- --------- --<br>------ - ---- -- --- ----------- ------- ---- ----- -----<br>--- -------- - ------ ---- -- ----- ---- --- --- -----------<br>-- -------,160168.40000000596,160167.70000000298,159592.82,159592.60000000894,159609.485,160176.193,,27,intensely
screen,html.Screen,0_4_1_0_1_28,2021-11-05T14:24:06.634Z,,,,,,,,,,,,,,,,2,,,,,,,,,,,,,,647.7070000059612,,response,,,1,D,,,,,Space,keypress(Space),,,,silence,--- ---- ------ --- ------- ---------- ------- ----------<br>--- --------- --- ----------- ------- ----- ------- ---<br>--------- ---- -- --- ---- -- --------- -- ---- -------<br>-- --------- bright --- ----- ------ ---- --- --------- --<br>------ - ---- -- --- ----------- ------- ---- ----- -----<br>--- -------- - ------ ---- -- ----- ---- --- --- -----------<br>-- -------,160824.60000000894,160823.90000000596,160159.527,160168.70000000298,160176.193,160826.076,,28,bright
screen,html.Screen,0_4_1_0_1_29,2021-11-05T14:24:07.137Z,,,,,,,,,,,,,,,,2,,,,,,,,,,,,,,501.6240000029793,,response,,,1,D,,,,,Space,keypress(Space),,,,silence,--- ---- ------ --- ------- ---------- ------- ----------<br>--- --------- --- ----------- ------- ----- ------- ---<br>--------- ---- -- --- ---- -- --------- -- ---- -------<br>-- --------- ------ and ----- ------ ---- --- --------- --<br>------ - ---- -- --- ----------- ------- ---- ----- -----<br>--- -------- - ------ ---- -- ----- ---- --- --- -----------<br>-- -------,161328.40000000596,161327.70000000298,160809.411,160824.79999999702,160826.076,161342.798,,29,and
screen,html.Screen,0_4_1_0_1_30,2021-11-05T14:24:07.633Z,,,,,,,,,,,,,,,,2,,,,,,,,,,,,,,480.90200000297045,,response,,,1,D,,,,,Space,keypress(Space),,,,silence,--- ---- ------ --- ------- ---------- ------- ----------<br>--- --------- --- ----------- ------- ----- ------- ---<br>--------- ---- -- --- ---- -- --------- -- ---- -------<br>-- --------- ------ --- white ------ ---- --- --------- --<br>------ - ---- -- --- ----------- ------- ---- ----- -----<br>--- -------- - ------ ---- -- ----- ---- --- --- -----------<br>-- -------,161824.29999999702,161823.70000000298,161326.132,161328.60000000894,161342.798,161826.055,,30,white
screen,html.Screen,0_4_1_0_1_31,2021-11-05T14:24:08.145Z,,,,,,,,,,,,,,,,2,,,,,,,,,,,,,,509.5450000089477,,response,,,1,D,,,,,Space,keypress(Space),,,,silence,"--- ---- ------ --- ------- ---------- ------- ----------<br>--- --------- --- ----------- ------- ----- ------- ---<br>--------- ---- -- --- ---- -- --------- -- ---- -------<br>-- --------- ------ --- ----- light"" ---- --- --------- --<br>------ - ---- -- --- ----------- ------- ---- ----- -----<br>--- -------- - ------ ---- -- ----- ---- --- --- -----------<br>-- -------",162336.10000000894,162335.60000000894,161809.39,161824.60000000894,161826.055,162342.711,,31,"light"""
screen,html.Screen,0_4_1_0_1_32,2021-11-05T14:24:08.625Z,,,,,,,,,,,,,,,,2,,,,,,,,,,,,,,472.78899999998976,,response,,,1,D,,,,,Space,keypress(Space),,,,silence,--- ---- ------ --- ------- ---------- ------- ----------<br>--- --------- --- ----------- ------- ----- ------- ---<br>--------- ---- -- --- ---- -- --------- -- ---- -------<br>-- --------- ------ --- ----- ------ over --- --------- --<br>------ - ---- -- --- ----------- ------- ---- ----- -----<br>--- -------- - ------ ---- -- ----- ---- --- --- -----------<br>-- -------,162816.10000000894,162815.5,162326.046,162336.29999999702,162342.711,162825.938,,32,over
screen,html.Screen,0_4_1_0_1_33,2021-11-05T14:24:09.177Z,,,,,,,,,,,,,,,,2,,,,,,,,,,,,,,541.5620000000054,,response,,,1,D,,,,,Space,keypress(Space),,,,silence,--- ---- ------ --- ------- ---------- ------- ----------<br>--- --------- --- ----------- ------- ----- ------- ---<br>--------- ---- -- --- ---- -- --------- -- ---- -------<br>-- --------- ------ --- ----- ------ ---- the --------- --<br>------ - ---- -- --- ----------- ------- ---- ----- -----<br>--- -------- - ------ ---- -- ----- ---- --- --- -----------<br>-- -------,163368.10000000894,163367.5,162809.274,162816.29999999702,162825.938,163376.021,,33,the
screen,html.Screen,0_4_1_0_1_34,2021-11-05T14:24:09.673Z,,,,,,,,,,,,,,,,2,,,,,,,,,,,,,,487.4789999999921,,response,,,1,D,,,,,Space,keypress(Space),,,,silence,--- ---- ------ --- ------- ---------- ------- ----------<br>--- --------- --- ----------- ------- ----- ------- ---<br>--------- ---- -- --- ---- -- --------- -- ---- -------<br>-- --------- ------ --- ----- ------ ---- --- sunspots. --<br>------ - ---- -- --- ----------- ------- ---- ----- -----<br>--- -------- - ------ ---- -- ----- ---- --- --- -----------<br>-- -------,163864,163863.5,163359.355,163368.20000000298,163376.021,163875.876,,34,sunspots.
screen,html.Screen,0_4_1_0_1_35,2021-11-05T14:24:10.153Z,,,,,,,,,,,,,,,,2,,,,,,,,,,,,,,467.5240000059712,,response,,,1,D,,,,,Space,keypress(Space),,,,silence,--- ---- ------ --- ------- ---------- ------- ----------<br>--- --------- --- ----------- ------- ----- ------- ---<br>--------- ---- -- --- ---- -- --------- -- ---- -------<br>-- --------- ------ --- ----- ------ ---- --- --------- He<br>------ - ---- -- --- ----------- ------- ---- ----- -----<br>--- -------- - ------ ---- -- ----- ---- --- --- -----------<br>-- -------,164344.10000000894,164343.40000000596,163859.212,163864.20000000298,163875.876,164359.158,,35,He
screen,html.Screen,0_4_1_0_1_36,2021-11-05T14:24:10.809Z,,,,,,,,,,,,,,,,2,,,,,,,,,,,,,,640.4420000089449,,response,,,1,D,,,,,Space,keypress(Space),,,,silence,--- ---- ------ --- ------- ---------- ------- ----------<br>--- --------- --- ----------- ------- ----- ------- ---<br>--------- ---- -- --- ---- -- --------- -- ---- -------<br>-- --------- ------ --- ----- ------ ---- --- --------- --<br>jotted - ---- -- --- ----------- ------- ---- ----- -----<br>--- -------- - ------ ---- -- ----- ---- --- --- -----------<br>-- -------,165000.29999999702,164999.60000000894,164342.494,164344.20000000298,164359.158,165009.254,,36,jotted
screen,html.Screen,0_4_1_0_1_37,2021-11-05T14:24:11.201Z,,,,,,,,,,,,,,,,2,,,,,,,,,,,,,,382.1460000059742,,response,,,1,D,,,,,Space,keypress(Space),,,,silence,--- ---- ------ --- ------- ---------- ------- ----------<br>--- --------- --- ----------- ------- ----- ------- ---<br>--------- ---- -- --- ---- -- --------- -- ---- -------<br>-- --------- ------ --- ----- ------ ---- --- --------- --<br>------ a ---- -- --- ----------- ------- ---- ----- -----<br>--- -------- - ------ ---- -- ----- ---- --- --- -----------<br>-- -------,165392,165391.40000000596,164992.588,165000.40000000596,165009.254,165409.178,,37,a
screen,html.Screen,0_4_1_0_1_38,2021-11-05T14:24:11.705Z,,,,,,,,,,,,,,,,2,,,,,,,,,,,,,,486.12199999700533,,response,,,1,D,,,,,Space,keypress(Space),,,,silence,--- ---- ------ --- ------- ---------- ------- ----------<br>--- --------- --- ----------- ------- ----- ------- ---<br>--------- ---- -- --- ---- -- --------- -- ---- -------<br>-- --------- ------ --- ----- ------ ---- --- --------- --<br>------ - note -- --- ----------- ------- ---- ----- -----<br>--- -------- - ------ ---- -- ----- ---- --- --- -----------<br>-- -------,165895.90000000596,165895.29999999702,165392.513,165392.20000000298,165409.178,165909.148,,38,note
screen,html.Screen,0_4_1_0_1_39,2021-11-05T14:24:12.209Z,,,,,,,,,,,,,,,,2,,,,,,,,,,,,,,490.1519999970333,,response,,,1,D,,,,,Space,keypress(Space),,,,silence,--- ---- ------ --- ------- ---------- ------- ----------<br>--- --------- --- ----------- ------- ----- ------- ---<br>--------- ---- -- --- ---- -- --------- -- ---- -------<br>-- --------- ------ --- ----- ------ ---- --- --------- --<br>------ - ---- in --- ----------- ------- ---- ----- -----<br>--- -------- - ------ ---- -- ----- ---- --- --- -----------<br>-- -------,166400,166399.29999999702,165892.483,165896.10000000894,165909.148,166409.212,,39,in
screen,html.Screen,0_4_1_0_1_40,2021-11-05T14:24:12.673Z,,,,,,,,,,,,,,,,2,,,,,,,,,,,,,,453.9880000029807,,response,,,1,D,,,,,Space,keypress(Space),,,,silence,--- ---- ------ --- ------- ---------- ------- ----------<br>--- --------- --- ----------- ------- ----- ------- ---<br>--------- ---- -- --- ---- -- --------- -- ---- -------<br>-- --------- ------ --- ----- ------ ---- --- --------- --<br>------ - ---- -- his ----------- ------- ---- ----- -----<br>--- -------- - ------ ---- -- ----- ---- --- --- -----------<br>-- -------,166863.79999999702,166863.20000000298,166392.546,166400.10000000894,166409.212,166875.717,,40,his
screen,html.Screen,0_4_1_0_1_41,2021-11-05T14:24:13.217Z,,,,,,,,,,,,,,,,2,,,,,,,,,,,,,,531.5829999970156,,response,,,1,D,,,,,Space,keypress(Space),,,,silence,--- ---- ------ --- ------- ---------- ------- ----------<br>--- --------- --- ----------- ------- ----- ------- ---<br>--------- ---- -- --- ---- -- --------- -- ---- -------<br>-- --------- ------ --- ----- ------ ---- --- --------- --<br>------ - ---- -- --- painstaking ------- ---- ----- -----<br>--- -------- - ------ ---- -- ----- ---- --- --- -----------<br>-- -------,167407.79999999702,167407.29999999702,166859.053,166864,166875.717,167409.064,,41,painstaking
screen,html.Screen,0_4_1_0_1_42,2021-11-05T14:24:13.697Z,,,,,,,,,,,,,,,,2,,,,,,,,,,,,,,478.23599999700673,,response,,,1,D,,,,,Space,keypress(Space),,,,silence,--- ---- ------ --- ------- ---------- ------- ----------<br>--- --------- --- ----------- ------- ----- ------- ---<br>--------- ---- -- --- ---- -- --------- -- ---- -------<br>-- --------- ------ --- ----- ------ ---- --- --------- --<br>------ - ---- -- --- ----------- record. ---- ----- -----<br>--- -------- - ------ ---- -- ----- ---- --- --- -----------<br>-- -------,167887.79999999702,167887.29999999702,167392.399,167408.10000000894,167409.064,167892.47,,42,record.
screen,html.Screen,0_4_1_0_1_43,2021-11-05T14:24:14.249Z,,,,,,,,,,,,,,,,2,,,,,,,,,,,,,,546.7300000029791,,response,,,1,D,,,,,Space,keypress(Space),,,,silence,--- ---- ------ --- ------- ---------- ------- ----------<br>--- --------- --- ----------- ------- ----- ------- ---<br>--------- ---- -- --- ---- -- --------- -- ---- -------<br>-- --------- ------ --- ----- ------ ---- --- --------- --<br>------ - ---- -- --- ----------- ------- That ----- -----<br>--- -------- - ------ ---- -- ----- ---- --- --- -----------<br>-- -------,168439.90000000596,168439.20000000298,167875.804,167888,167892.47,168442.283,,43,That
screen,html.Screen,0_4_1_0_1_44,2021-11-05T14:24:14.689Z,,,,,,,,,,,,,,,,2,,,,,,,,,,,,,,436.9170000029844,,response,,,1,D,,,,,Space,keypress(Space),,,,silence,--- ---- ------ --- ------- ---------- ------- ----------<br>--- --------- --- ----------- ------- ----- ------- ---<br>--------- ---- -- --- ---- -- --------- -- ---- -------<br>-- --------- ------ --- ----- ------ ---- --- --------- --<br>------ - ---- -- --- ----------- ------- ---- night -----<br>--- -------- - ------ ---- -- ----- ---- --- --- -----------<br>-- -------,168879.70000000298,168879.20000000298,168425.619,168440,168442.283,168892.399,,44,night
screen,html.Screen,0_4_1_0_1_45,2021-11-05T14:24:15.137Z,,,,,,,,,,,,,,,,2,,,,,,,,,,,,,,434.7010000089358,,response,,,1,D,,,,,Space,keypress(Space),,,,silence,--- ---- ------ --- ------- ---------- ------- ----------<br>--- --------- --- ----------- ------- ----- ------- ---<br>--------- ---- -- --- ---- -- --------- -- ---- -------<br>-- --------- ------ --- ----- ------ ---- --- --------- --<br>------ - ---- -- --- ----------- ------- ---- ----- there<br>--- -------- - ------ ---- -- ----- ---- --- --- -----------<br>-- -------,169327.79999999702,169327.10000000894,168875.733,168879.90000000596,168892.399,169342.319,,45,there
screen,html.Screen,0_4_1_0_1_46,2021-11-05T14:24:15.577Z,,,,,,,,,,,,,,,,2,,,,,,,,,,,,,,424.88100000299164,,response,,,1,D,,,,,Space,keypress(Space),,,,silence,--- ---- ------ --- ------- ---------- ------- ----------<br>--- --------- --- ----------- ------- ----- ------- ---<br>--------- ---- -- --- ---- -- --------- -- ---- -------<br>-- --------- ------ --- ----- ------ ---- --- --------- --<br>------ - ---- -- --- ----------- ------- ---- ----- -----<br>was -------- - ------ ---- -- ----- ---- --- --- -----------<br>-- -------,169767.70000000298,169767.20000000298,169325.654,169328,169342.319,169775.624,,46,was
screen,html.Screen,0_4_1_0_1_47,2021-11-05T14:24:16.017Z,,,,,,,,,,,,,,,,2,,,,,,,,,,,,,,431.47600000893,,response,,,1,D,,,,,Space,keypress(Space),,,,silence,--- ---- ------ --- ------- ---------- ------- ----------<br>--- --------- --- ----------- ------- ----- ------- ---<br>--------- ---- -- --- ---- -- --------- -- ---- -------<br>-- --------- ------ --- ----- ------ ---- --- --------- --<br>------ - ---- -- --- ----------- ------- ---- ----- -----<br>--- scarcely - ------ ---- -- ----- ---- --- --- -----------<br>-- -------,170207.70000000298,170207.10000000894,169758.959,169767.90000000596,169775.624,170208.934,,47,scarcely
screen,html.Screen,0_4_1_0_1_48,2021-11-05T14:24:16.585Z,,,,,,,,,,,,,,,,2,,,,,,,,,,,,,,566.1660000089323,,response,,,1,D,,,,,Space,keypress(Space),,,,silence,--- ---- ------ --- ------- ---------- ------- ----------<br>--- --------- --- ----------- ------- ----- ------- ---<br>--------- ---- -- --- ---- -- --------- -- ---- -------<br>-- --------- ------ --- ----- ------ ---- --- --------- --<br>------ - ---- -- --- ----------- ------- ---- ----- -----<br>--- -------- a ------ ---- -- ----- ---- --- --- -----------<br>-- -------,170775.79999999702,170775.10000000894,170192.269,170207.90000000596,170208.934,170792.223,,48,a
screen,html.Screen,0_4_1_0_1_49,2021-11-05T14:24:17.065Z,,,,,,,,,,,,,,,,2,,,,,,,,,,,,,,462.87700000894256,,response,,,1,D,,,,,Space,keypress(Space),,,,silence,--- ---- ------ --- ------- ---------- ------- ----------<br>--- --------- --- ----------- ------- ----- ------- ---<br>--------- ---- -- --- ---- -- --------- -- ---- -------<br>-- --------- ------ --- ----- ------ ---- --- --------- --<br>------ - ---- -- --- ----------- ------- ---- ----- -----<br>--- -------- - square ---- -- ----- ---- --- --- -----------<br>-- -------,171255.70000000298,171255.10000000894,170775.558,170776,170792.223,171258.841,,49,square
