sender,sender_type,sender_id,timestamp,meta,,Blues,Classical,Country,Dance,Electronic,Folk,Gospel,Hip-Hop,Jazz,Latin,Musical/Film,New-age,Pop,Provo_ID,R&B,Rap,Reggae,Religious,Rock,Soul,Swing,Traditional,age,artist_name,correct,correctResponse,distraction,duration,education,ended_on,familiarity,gender,item,list,music_frequency,offensiveness,pleasantness,preference,response,response_action,snippet_file,song_name,song_rating,sound,text,time_commit,time_end,time_render,time_run,time_show,time_switch,url,word,word_ID
Instructions,html.Page,0_0,2021-11-26T13:25:58.100Z,"{""labjs_version"":""20.2.3"",""labjs_build"":{""flavor"":""production"",""commit"":""7ea907d66ca8aeef8054924ca5d82ffbe11e34e5""},""location"":""https://run.pavlovia.org/mvasilev/lab_music_f/"",""userAgent"":""Mozilla/5.0 (Windows NT 6.1; Win64; x64) AppleWebKit/537.36 (KHTML, like Gecko) Chrome/96.0.4664.45 Safari/537.36"",""platform"":""Win32"",""language"":""en-GB"",""locale"":""en-GB"",""timeZone"":""Europe/London"",""timezoneOffset"":0,""screen_width"":1920,""screen_height"":1080,""scroll_width"":1920,""scroll_height"":921,""window_innerWidth"":1920,""window_innerHeight"":969,""devicePixelRatio"":1}",,,,,,,,,,,,,,,,,,,,,,,,,,,,,22824.371000047686,,form submission,,,,,,,,,,,,,,,,29504,29502.700000047684,6661.663,6669.700000047684,6678.329,29510.749,{},,
Headphones,html.Page,0_1,2021-11-26T13:26:00.459Z,,,,,,,,,,,,,,,,,,,,,,,,,,,,,,2351.851000023842,,form submission,,,,,,,,,,,,,,,,31863,31862.600000023842,29494.083,29504.899999976158,29510.749,31893.987,,,
Holding screen,html.Screen,0_2_0_0,2021-11-26T13:26:10.482Z,,,,,,,,,,,,,,,,,,,,,,,,,,,,,,9999.599999999999,,timeout,,,,,,,,,,,,,,,,41885.800000071526,41876.921,31877.321,31863.600000023842,31893.987,41893.587,,,
screen,html.Screen,0_2_0_1_0,2021-11-26T13:26:11.599Z,,,,,,,,,,,,,,,,53,,,,,,,,,,,,,,1107.6130000476842,,response,,,99,,,,,,Space,keypress(Space),,,,,When -- ----- -- ------ - ------- --- ----------<br>------------- ------ ------ ---- ---- ------- ----- -- ----<br>-------- ------- -- ---------- --- - --- ----- ----- ----<br>---- --- --- ----- --- ---- ---- ------- ----- ---- -------<br>--- --- -- ----- -- --- ---- -- --- ---- -- ------ ------<br>--- ----- -- ----,43002.700000047684,43001.200000047684,41876.921,41886.200000047684,41893.587,43010.209,,0,When
screen,html.Screen,0_2_0_1_1,2021-11-26T13:26:11.998Z,,,,,,,,,,,,,,,,53,,,,,,,,,,,,,,390.591000071523,,response,,,99,,,,,,Space,keypress(Space),,,,,---- it ----- -- ------ - ------- --- ----------<br>------------- ------ ------ ---- ---- ------- ----- -- ----<br>-------- ------- -- ---------- --- - --- ----- ----- ----<br>---- --- --- ----- --- ---- ---- ------- ----- ---- -------<br>--- --- -- ----- -- --- ---- -- --- ---- -- ------ ------<br>--- ----- -- ----,43401.700000047684,43400.800000071526,42993.543,43003,43010.209,43410.193,,1,it
screen,html.Screen,0_2_0_1_2,2021-11-26T13:26:13.502Z,,,,,,,,,,,,,,,,53,,,,,,,,,,,,,,1494.5070000476844,,response,,,99,,,,,,Space,keypress(Space),,,,,---- -- comes -- ------ - ------- --- ----------<br>------------- ------ ------ ---- ---- ------- ----- -- ----<br>-------- ------- -- ---------- --- - --- ----- ----- ----<br>---- --- --- ----- --- ---- ---- ------- ----- ---- -------<br>--- --- -- ----- -- --- ---- -- --- ---- -- ------ ------<br>--- ----- -- ----,44905.60000002384,44904.700000047684,43393.527,43402,43410.193,44910.133,,2,comes
screen,html.Screen,0_2_0_1_3,2021-11-26T13:26:13.958Z,,,,,,,,,,,,,,,,53,,,,,,,,,,,,,,450.5670000476821,,response,,,99,,,,,,Space,keypress(Space),,,,,---- -- ----- to ------ - ------- --- ----------<br>------------- ------ ------ ---- ---- ------- ----- -- ----<br>-------- ------- -- ---------- --- - --- ----- ----- ----<br>---- --- --- ----- --- ---- ---- ------- ----- ---- -------<br>--- --- -- ----- -- --- ---- -- --- ---- -- ------ ------<br>--- ----- -- ----,45361.60000002384,45360.700000047684,44893.467,44905.89999997616,44910.133,45376.781,,3,to
screen,html.Screen,0_2_0_1_4,2021-11-26T13:26:14.366Z,,,,,,,,,,,,,,,,53,,,,,,,,,,,,,,391.91900004768104,,response,,,99,,,,,,Space,keypress(Space),,,,,---- -- ----- -- having - ------- --- ----------<br>------------- ------ ------ ---- ---- ------- ----- -- ----<br>-------- ------- -- ---------- --- - --- ----- ----- ----<br>---- --- --- ----- --- ---- ---- ------- ----- ---- -------<br>--- --- -- ----- -- --- ---- -- --- ---- -- ------ ------<br>--- ----- -- ----,45769.800000071526,45768.700000047684,45360.115,45362.200000047684,45376.781,45776.765,,4,having
screen,html.Screen,0_2_0_1_5,2021-11-26T13:26:14.765Z,,,,,,,,,,,,,,,,53,,,,,,,,,,,,,,391.53500007152616,,response,,,99,,,,,,Space,keypress(Space),,,,,---- -- ----- -- ------ a ------- --- ----------<br>------------- ------ ------ ---- ---- ------- ----- -- ----<br>-------- ------- -- ---------- --- - --- ----- ----- ----<br>---- --- --- ----- --- ---- ---- ------- ----- ---- -------<br>--- --- -- ----- -- --- ---- -- --- ---- -- ------ ------<br>--- ----- -- ----,46168.60000002384,46168.300000071526,45760.099,45770.10000002384,45776.765,46176.749,,5,a
screen,html.Screen,0_2_0_1_6,2021-11-26T13:26:15.430Z,,,,,,,,,,,,,,,,53,,,,,,,,,,,,,,655.8510000238384,,response,,,99,,,,,,Space,keypress(Space),,,,,---- -- ----- -- ------ - lasting --- ----------<br>------------- ------ ------ ---- ---- ------- ----- -- ----<br>-------- ------- -- ---------- --- - --- ----- ----- ----<br>---- --- --- ----- --- ---- ---- ------- ----- ---- -------<br>--- --- -- ----- -- --- ---- -- --- ---- -- ------ ------<br>--- ----- -- ----,46833.60000002384,46832.60000002384,46160.083,46168.800000071526,46176.749,46843.389,,6,lasting
screen,html.Screen,0_2_0_1_7,2021-11-26T13:26:15.878Z,,,,,,,,,,,,,,,,53,,,,,,,,,,,,,,437.11099999999715,,response,,,99,,,,,,Space,keypress(Space),,,,,---- -- ----- -- ------ - ------- and ----------<br>------------- ------ ------ ---- ---- ------- ----- -- ----<br>-------- ------- -- ---------- --- - --- ----- ----- ----<br>---- --- --- ----- --- ---- ---- ------- ----- ---- -------<br>--- --- -- ----- -- --- ---- -- --- ---- -- ------ ------<br>--- ----- -- ----,47281.5,47280.5,46826.723,46833.89999997616,46843.389,47293.371,,7,and
screen,html.Screen,0_2_0_1_8,2021-11-26T13:26:16.510Z,,,,,,,,,,,,,,,,53,,,,,,,,,,,,,,619.1290000000008,,response,,,99,,,,,,Space,keypress(Space),,,,,---- -- ----- -- ------ - ------- --- fulfilling<br>------------- ------ ------ ---- ---- ------- ----- -- ----<br>-------- ------- -- ---------- --- - --- ----- ----- ----<br>---- --- --- ----- --- ---- ---- ------- ----- ---- -------<br>--- --- -- ----- -- --- ---- -- --- ---- -- ------ ------<br>--- ----- -- ----,47913.60000002384,47912.5,47276.705,47281.800000071526,47293.371,47926.679,,8,fulfilling
screen,html.Screen,0_2_0_1_9,2021-11-26T13:26:17.445Z,,,,,,,,,,,,,,,,53,,,,,,,,,,,,,,921.7209999761617,,response,,,99,,,,,,Space,keypress(Space),,,,,"---- -- ----- -- ------ - ------- --- ----------<br>relationship, ------ ------ ---- ---- ------- ----- -- ----<br>-------- ------- -- ---------- --- - --- ----- ----- ----<br>---- --- --- ----- --- ---- ---- ------- ----- ---- -------<br>--- --- -- ----- -- --- ---- -- --- ---- -- ------ ------<br>--- ----- -- ----",48849.39999997616,48848.39999997616,47910.013,47914,47926.679,48859.975,,9,"relationship,"
screen,html.Screen,0_2_0_1_10,2021-11-26T13:26:17.837Z,,,,,,,,,,,,,,,,53,,,,,,,,,,,,,,380.4249999761596,,response,,,99,,,,,,Space,keypress(Space),,,,,---- -- ----- -- ------ - ------- --- ----------<br>------------- common ------ ---- ---- ------- ----- -- ----<br>-------- ------- -- ---------- --- - --- ----- ----- ----<br>---- --- --- ----- --- ---- ---- ------- ----- ---- -------<br>--- --- -- ----- -- --- ---- -- --- ---- -- ------ ------<br>--- ----- -- ----,49241.300000071526,49240.39999997616,48843.309,48849.700000047684,48859.975,49243.293,,10,common
screen,html.Screen,0_2_0_1_11,2021-11-26T13:26:18.261Z,,,,,,,,,,,,,,,,53,,,,,,,,,,,,,,421.1069999761603,,response,,,99,,,,,,Space,keypress(Space),,,,,---- -- ----- -- ------ - ------- --- ----------<br>------------- ------ wisdom ---- ---- ------- ----- -- ----<br>-------- ------- -- ---------- --- - --- ----- ----- ----<br>---- --- --- ----- --- ---- ---- ------- ----- ---- -------<br>--- --- -- ----- -- --- ---- -- --- ---- -- ------ ------<br>--- ----- -- ----,49665.39999997616,49664.39999997616,49226.627,49241.60000002384,49243.293,49676.609,,11,wisdom
screen,html.Screen,0_2_0_1_12,2021-11-26T13:26:18.709Z,,,,,,,,,,,,,,,,53,,,,,,,,,,,,,,435.7909999761614,,response,,,99,,,,,,Space,keypress(Space),,,,,---- -- ----- -- ------ - ------- --- ----------<br>------------- ------ ------ says ---- ------- ----- -- ----<br>-------- ------- -- ---------- --- - --- ----- ----- ----<br>---- --- --- ----- --- ---- ---- ------- ----- ---- -------<br>--- --- -- ----- -- --- ---- -- --- ---- -- ------ ------<br>--- ----- -- ----,50113.200000047684,50112.39999997616,49659.943,49665.60000002384,49676.609,50126.591,,12,says
screen,html.Screen,0_2_0_1_13,2021-11-26T13:26:19.093Z,,,,,,,,,,,,,,,,53,,,,,,,,,,,,,,369.7090000715252,,response,,,99,,,,,,Space,keypress(Space),,,,,---- -- ----- -- ------ - ------- --- ----------<br>------------- ------ ------ ---- that ------- ----- -- ----<br>-------- ------- -- ---------- --- - --- ----- ----- ----<br>---- --- --- ----- --- ---- ---- ------- ----- ---- -------<br>--- --- -- ----- -- --- ---- -- --- ---- -- ------ ------<br>--- ----- -- ----,50497.10000002384,50496.300000071526,50109.925,50113.39999997616,50126.591,50509.909,,13,that
screen,html.Screen,0_2_0_1_14,2021-11-26T13:26:19.445Z,,,,,,,,,,,,,,,,53,,,,,,,,,,,,,,338.3910000715259,,response,,,99,,,,,,Space,keypress(Space),,,,,---- -- ----- -- ------ - ------- --- ----------<br>------------- ------ ------ ---- ---- feeling ----- -- ----<br>-------- ------- -- ---------- --- - --- ----- ----- ----<br>---- --- --- ----- --- ---- ---- ------- ----- ---- -------<br>--- --- -- ----- -- --- ---- -- --- ---- -- ------ ------<br>--- ----- -- ----,50849.10000002384,50848.300000071526,50493.243,50497.39999997616,50509.909,50859.895,,14,feeling
screen,html.Screen,0_2_0_1_15,2021-11-26T13:26:19.869Z,,,,,,,,,,,,,,,,53,,,,,,,,,,,,,,412.3050000476869,,response,,,99,,,,,,Space,keypress(Space),,,,,---- -- ----- -- ------ - ------- --- ----------<br>------------- ------ ------ ---- ---- ------- close -- ----<br>-------- ------- -- ---------- --- - --- ----- ----- ----<br>---- --- --- ----- --- ---- ---- ------- ----- ---- -------<br>--- --- -- ----- -- --- ---- -- --- ---- -- ------ ------<br>--- ----- -- ----,51273.10000002384,51272.200000047684,50843.229,50849.39999997616,50859.895,51276.545,,15,close
screen,html.Screen,0_2_0_1_16,2021-11-26T13:26:20.245Z,,,,,,,,,,,,,,,,53,,,,,,,,,,,,,,371.65500004768546,,response,,,99,,,,,,Space,keypress(Space),,,,,---- -- ----- -- ------ - ------- --- ----------<br>------------- ------ ------ ---- ---- ------- ----- to ----<br>-------- ------- -- ---------- --- - --- ----- ----- ----<br>---- --- --- ----- --- ---- ---- ------- ----- ---- -------<br>--- --- -- ----- -- --- ---- -- --- ---- -- ------ ------<br>--- ----- -- ----,51649.10000002384,51648.200000047684,51259.879,51273.39999997616,51276.545,51659.863,,16,to
screen,html.Screen,0_2_0_1_17,2021-11-26T13:26:20.613Z,,,,,,,,,,,,,,,,53,,,,,,,,,,,,,,356.33700004768616,,response,,,99,,,,,,Space,keypress(Space),,,,,---- -- ----- -- ------ - ------- --- ----------<br>------------- ------ ------ ---- ---- ------- ----- -- your<br>-------- ------- -- ---------- --- - --- ----- ----- ----<br>---- --- --- ----- --- ---- ---- ------- ----- ---- -------<br>--- --- -- ----- -- --- ---- -- --- ---- -- ------ ------<br>--- ----- -- ----,52017,52016.200000047684,51643.197,51649.39999997616,51659.863,52026.515,,17,your
screen,html.Screen,0_2_0_1_18,2021-11-26T13:26:21.053Z,,,,,,,,,,,,,,,,53,,,,,,,,,,,,,,429.58500002384244,,response,,,99,,,,,,Space,keypress(Space),,,,,---- -- ----- -- ------ - ------- --- ----------<br>------------- ------ ------ ---- ---- ------- ----- -- ----<br>romantic ------- -- ---------- --- - --- ----- ----- ----<br>---- --- --- ----- --- ---- ---- ------- ----- ---- -------<br>--- --- -- ----- -- --- ---- -- --- ---- -- ------ ------<br>--- ----- -- ----,52456.89999997616,52456.10000002384,52009.849,52017.200000047684,52026.515,52459.831,,18,romantic
screen,html.Screen,0_2_0_1_19,2021-11-26T13:26:21.477Z,,,,,,,,,,,,,,,,53,,,,,,,,,,,,,,420.3690000476854,,response,,,99,,,,,,Space,keypress(Space),,,,,---- -- ----- -- ------ - ------- --- ----------<br>------------- ------ ------ ---- ---- ------- ----- -- ----<br>-------- partner -- ---------- --- - --- ----- ----- ----<br>---- --- --- ----- --- ---- ---- ------- ----- ---- -------<br>--- --- -- ----- -- --- ---- -- --- ---- -- ------ ------<br>--- ----- -- ----,52881,52880.200000047684,52443.165,52457.200000047684,52459.831,52893.147,,19,partner
screen,html.Screen,0_2_0_1_20,2021-11-26T13:26:21.837Z,,,,,,,,,,,,,,,,53,,,,,,,,,,,,,,347.25299997616094,,response,,,99,,,,,,Space,keypress(Space),,,,,---- -- ----- -- ------ - ------- --- ----------<br>------------- ------ ------ ---- ---- ------- ----- -- ----<br>-------- ------- is ---------- --- - --- ----- ----- ----<br>---- --- --- ----- --- ---- ---- ------- ----- ---- -------<br>--- --- -- ----- -- --- ---- -- --- ---- -- ------ ------<br>--- ----- -- ----,53241.300000071526,53240.39999997616,52876.481,52881.300000071526,52893.147,53243.133,,20,is
screen,html.Screen,0_2_0_1_21,2021-11-26T13:26:22.213Z,,,,,,,,,,,,,,,,53,,,,,,,,,,,,,,372.9670000238402,,response,,,99,,,,,,Space,keypress(Space),,,,,---- -- ----- -- ------ - ------- --- ----------<br>------------- ------ ------ ---- ---- ------- ----- -- ----<br>-------- ------- -- paramount. --- - --- ----- ----- ----<br>---- --- --- ----- --- ---- ---- ------- ----- ---- -------<br>--- --- -- ----- -- --- ---- -- --- ---- -- ------ ------<br>--- ----- -- ----,53616.89999997616,53616.10000002384,53226.467,53241.5,53243.133,53626.451,,21,paramount.
screen,html.Screen,0_2_0_1_22,2021-11-26T13:26:22.717Z,,,,,,,,,,,,,,,,53,,,,,,,,,,,,,,493.54899999999907,,response,,,99,,,,,,Space,keypress(Space),,,,,---- -- ----- -- ------ - ------- --- ----------<br>------------- ------ ------ ---- ---- ------- ----- -- ----<br>-------- ------- -- ---------- But - --- ----- ----- ----<br>---- --- --- ----- --- ---- ---- ------- ----- ---- -------<br>--- --- -- ----- -- --- ---- -- --- ---- -- ------ ------<br>--- ----- -- ----,54120.89999997616,54120,53609.785,53617.39999997616,53626.451,54126.431,,22,But
screen,html.Screen,0_2_0_1_23,2021-11-26T13:26:23.061Z,,,,,,,,,,,,,,,,53,,,,,,,,,,,,,,337.669000023845,,response,,,99,,,,,,Space,keypress(Space),,,,,---- -- ----- -- ------ - ------- --- ----------<br>------------- ------ ------ ---- ---- ------- ----- -- ----<br>-------- ------- -- ---------- --- a --- ----- ----- ----<br>---- --- --- ----- --- ---- ---- ------- ----- ---- -------<br>--- --- -- ----- -- --- ---- -- --- ---- -- ------ ------<br>--- ----- -- ----,54464.89999997616,54464.10000002384,54109.765,54121.10000002384,54126.431,54476.417,,23,a
screen,html.Screen,0_2_0_1_24,2021-11-26T13:26:23.389Z,,,,,,,,,,,,,,,,53,,,,,,,,,,,,,,315.5829999999987,,response,,,99,,,,,,Space,keypress(Space),,,,,---- -- ----- -- ------ - ------- --- ----------<br>------------- ------ ------ ---- ---- ------- ----- -- ----<br>-------- ------- -- ---------- --- - new ----- ----- ----<br>---- --- --- ----- --- ---- ---- ------- ----- ---- -------<br>--- --- -- ----- -- --- ---- -- --- ---- -- ------ ------<br>--- ----- -- ----,54792.800000071526,54792,54459.751,54465.200000047684,54476.417,54809.737,,24,new
screen,html.Screen,0_2_0_1_25,2021-11-26T13:26:23.765Z,,,,,,,,,,,,,,,,53,,,,,,,,,,,,,,358.262999999999,,response,,,99,,,,,,Space,keypress(Space),,,,,---- -- ----- -- ------ - ------- --- ----------<br>------------- ------ ------ ---- ---- ------- ----- -- ----<br>-------- ------- -- ---------- --- - --- study ----- ----<br>---- --- --- ----- --- ---- ---- ------- ----- ---- -------<br>--- --- -- ----- -- --- ---- -- --- ---- -- ------ ------<br>--- ----- -- ----,55168.800000071526,55168,54793.071,54793.10000002384,54809.737,55176.389,,25,study
screen,html.Screen,0_2_0_1_26,2021-11-26T13:26:24.101Z,,,,,,,,,,,,,,,,53,,,,,,,,,,,,,,327.61099999999715,,response,,,99,,,,,,Space,keypress(Space),,,,,---- -- ----- -- ------ - ------- --- ----------<br>------------- ------ ------ ---- ---- ------- ----- -- ----<br>-------- ------- -- ---------- --- - --- ----- finds ----<br>---- --- --- ----- --- ---- ---- ------- ----- ---- -------<br>--- --- -- ----- -- --- ---- -- --- ---- -- ------ ------<br>--- ----- -- ----,55504.89999997616,55504,55159.723,55169.10000002384,55176.389,55509.709,,26,finds
screen,html.Screen,0_2_0_1_27,2021-11-26T13:26:24.445Z,,,,,,,,,,,,,,,,53,,,,,,,,,,,,,,338.29099999999744,,response,,,99,,,,,,Space,keypress(Space),,,,,---- -- ----- -- ------ - ------- --- ----------<br>------------- ------ ------ ---- ---- ------- ----- -- ----<br>-------- ------- -- ---------- --- - --- ----- ----- that<br>---- --- --- ----- --- ---- ---- ------- ----- ---- -------<br>--- --- -- ----- -- --- ---- -- --- ---- -- ------ ------<br>--- ----- -- ----,55848.89999997616,55848,55493.043,55505.10000002384,55509.709,55859.695,,27,that
screen,html.Screen,0_2_0_1_28,2021-11-26T13:26:24.829Z,,,,,,,,,,,,,,,,53,,,,,,,,,,,,,,372.20499997615843,,response,,,99,,,,,,Space,keypress(Space),,,,,---- -- ----- -- ------ - ------- --- ----------<br>------------- ------ ------ ---- ---- ------- ----- -- ----<br>-------- ------- -- ---------- --- - --- ----- ----- ----<br>it's --- --- ----- --- ---- ---- ------- ----- ---- -------<br>--- --- -- ----- -- --- ---- -- --- ---- -- ------ ------<br>--- ----- -- ----,56232.800000071526,56231.89999997616,55843.029,55849.10000002384,55859.695,56243.013,,28,it's
screen,html.Screen,0_2_0_1_29,2021-11-26T13:26:25.173Z,,,,,,,,,,,,,,,,53,,,,,,,,,,,,,,332.88699997615913,,response,,,99,,,,,,Space,keypress(Space),,,,,---- -- ----- -- ------ - ------- --- ----------<br>------------- ------ ------ ---- ---- ------- ----- -- ----<br>-------- ------- -- ---------- --- - --- ----- ----- ----<br>---- not --- ----- --- ---- ---- ------- ----- ---- -------<br>--- --- -- ----- -- --- ---- -- --- ---- -- ------ ------<br>--- ----- -- ----,56576.89999997616,56575.89999997616,56226.347,56233,56243.013,56592.999,,29,not
screen,html.Screen,0_2_0_1_30,2021-11-26T13:26:25.541Z,,,,,,,,,,,,,,,,53,,,,,,,,,,,,,,351.00099999999657,,response,,,99,,,,,,Space,keypress(Space),,,,,---- -- ----- -- ------ - ------- --- ----------<br>------------- ------ ------ ---- ---- ------- ----- -- ----<br>-------- ------- -- ---------- --- - --- ----- ----- ----<br>---- --- how ----- --- ---- ---- ------- ----- ---- -------<br>--- --- -- ----- -- --- ---- -- --- ---- -- ------ ------<br>--- ----- -- ----,56944.700000047684,56944,56576.333,56577.200000047684,56592.999,56959.651,,30,how
screen,html.Screen,0_2_0_1_31,2021-11-26T13:26:26.029Z,,,,,,,,,,,,,,,,53,,,,,,,,,,,,,,472.2489999761601,,response,,,99,,,,,,Space,keypress(Space),,,,,---- -- ----- -- ------ - ------- --- ----------<br>------------- ------ ------ ---- ---- ------- ----- -- ----<br>-------- ------- -- ---------- --- - --- ----- ----- ----<br>---- --- --- close --- ---- ---- ------- ----- ---- -------<br>--- --- -- ----- -- --- ---- -- --- ---- -- ------ ------<br>--- ----- -- ----,57432.89999997616,57431.89999997616,56942.985,56945,56959.651,57442.965,,31,close
screen,html.Screen,0_2_0_1_32,2021-11-26T13:26:26.397Z,,,,,,,,,,,,,,,,53,,,,,,,,,,,,,,356.83500007152907,,response,,,99,,,,,,Space,keypress(Space),,,,,---- -- ----- -- ------ - ------- --- ----------<br>------------- ------ ------ ---- ---- ------- ----- -- ----<br>-------- ------- -- ---------- --- - --- ----- ----- ----<br>---- --- --- ----- you ---- ---- ------- ----- ---- -------<br>--- --- -- ----- -- --- ---- -- --- ---- -- ------ ------<br>--- ----- -- ----,57800.700000047684,57799.800000071526,57426.299,57433.200000047684,57442.965,57809.617,,32,you
screen,html.Screen,0_2_0_1_33,2021-11-26T13:26:26.709Z,,,,,,,,,,,,,,,,53,,,,,,,,,,,,,,302.1830000715272,,response,,,99,,,,,,Space,keypress(Space),,,,,---- -- ----- -- ------ - ------- --- ----------<br>------------- ------ ------ ---- ---- ------- ----- -- ----<br>-------- ------- -- ---------- --- - --- ----- ----- ----<br>---- --- --- ----- --- feel ---- ------- ----- ---- -------<br>--- --- -- ----- -- --- ---- -- --- ---- -- ------ ------<br>--- ----- -- ----,58112.60000002384,58111.800000071526,57792.951,57800.89999997616,57809.617,58126.271,,33,feel
screen,html.Screen,0_2_0_1_34,2021-11-26T13:26:27.061Z,,,,,,,,,,,,,,,,53,,,,,,,,,,,,,,337.52900007152493,,response,,,99,,,,,,Space,keypress(Space),,,,,---- -- ----- -- ------ - ------- --- ----------<br>------------- ------ ------ ---- ---- ------- ----- -- ----<br>-------- ------- -- ---------- --- - --- ----- ----- ----<br>---- --- --- ----- --- ---- that ------- ----- ---- -------<br>--- --- -- ----- -- --- ---- -- --- ---- -- ------ ------<br>--- ----- -- ----,58464.60000002384,58463.800000071526,58109.605,58112.89999997616,58126.271,58476.257,,34,that
screen,html.Screen,0_2_0_1_35,2021-11-26T13:26:27.365Z,,,,,,,,,,,,,,,,53,,,,,,,,,,,,,,291.5430000715278,,response,,,99,,,,,,Space,keypress(Space),,,,,---- -- ----- -- ------ - ------- --- ----------<br>------------- ------ ------ ---- ---- ------- ----- -- ----<br>-------- ------- -- ---------- --- - --- ----- ----- ----<br>---- --- --- ----- --- ---- ---- matters ----- ---- -------<br>--- --- -- ----- -- --- ---- -- --- ---- -- ------ ------<br>--- ----- -- ----,58768.60000002384,58767.800000071526,58459.591,58464.89999997616,58476.257,58776.245,,35,matters
screen,html.Screen,0_2_0_1_36,2021-11-26T13:26:27.701Z,,,,,,,,,,,,,,,,53,,,,,,,,,,,,,,327.55500007152295,,response,,,99,,,,,,Space,keypress(Space),,,,,"---- -- ----- -- ------ - ------- --- ----------<br>------------- ------ ------ ---- ---- ------- ----- -- ----<br>-------- ------- -- ---------- --- - --- ----- ----- ----<br>---- --- --- ----- --- ---- ---- ------- most, ---- -------<br>--- --- -- ----- -- --- ---- -- --- ---- -- ------ ------<br>--- ----- -- ----",59104.89999997616,59103.800000071526,58759.579,58768.89999997616,58776.245,59109.565,,36,"most,"
screen,html.Screen,0_2_0_1_37,2021-11-26T13:26:28.053Z,,,,,,,,,,,,,,,,53,,,,,,,,,,,,,,346.23500007152325,,response,,,99,,,,,,Space,keypress(Space),,,,,---- -- ----- -- ------ - ------- --- ----------<br>------------- ------ ------ ---- ---- ------- ----- -- ----<br>-------- ------- -- ---------- --- - --- ----- ----- ----<br>---- --- --- ----- --- ---- ---- ------- ----- it's -------<br>--- --- -- ----- -- --- ---- -- --- ---- -- ------ ------<br>--- ----- -- ----,59456.5,59455.800000071526,59092.899,59105.200000047684,59109.565,59459.551,,37,it's
screen,html.Screen,0_2_0_1_38,2021-11-26T13:26:28.405Z,,,,,,,,,,,,,,,,53,,,,,,,,,,,,,,348.2490000715261,,response,,,99,,,,,,Space,keypress(Space),,,,,---- -- ----- -- ------ - ------- --- ----------<br>------------- ------ ------ ---- ---- ------- ----- -- ----<br>-------- ------- -- ---------- --- - --- ----- ----- ----<br>---- --- --- ----- --- ---- ---- ------- ----- ---- whether<br>--- --- -- ----- -- --- ---- -- --- ---- -- ------ ------<br>--- ----- -- ----,59808.5,59807.800000071526,59442.885,59456.800000071526,59459.551,59809.537,,38,whether
screen,html.Screen,0_2_0_1_39,2021-11-26T13:26:28.833Z,,,,,,,,,,,,,,,,53,,,,,,,,,,,,,,422.1630000476871,,response,,,99,,,,,,Space,keypress(Space),,,,,---- -- ----- -- ------ - ------- --- ----------<br>------------- ------ ------ ---- ---- ------- ----- -- ----<br>-------- ------- -- ---------- --- - --- ----- ----- ----<br>---- --- --- ----- --- ---- ---- ------- ----- ---- -------<br>you --- -- ----- -- --- ---- -- --- ---- -- ------ ------<br>--- ----- -- ----,60232.5,60231.700000047684,59792.871,59808.800000071526,59809.537,60242.853,,39,you
screen,html.Screen,0_2_0_1_40,2021-11-26T13:26:29.153Z,,,,,,,,,,,,,,,,53,,,,,,,,,,,,,,308.8470000476809,,response,,,99,,,,,,Space,keypress(Space),,,,,---- -- ----- -- ------ - ------- --- ----------<br>------------- ------ ------ ---- ---- ------- ----- -- ----<br>-------- ------- -- ---------- --- - --- ----- ----- ----<br>---- --- --- ----- --- ---- ---- ------- ----- ---- -------<br>--- are -- ----- -- --- ---- -- --- ---- -- ------ ------<br>--- ----- -- ----,60552.5,60551.700000047684,60226.187,60232.700000047684,60242.853,60559.507,,40,are
screen,html.Screen,0_2_0_1_41,2021-11-26T13:26:29.537Z,,,,,,,,,,,,,,,,53,,,,,,,,,,,,,,376.1930000476859,,response,,,99,,,,,,Space,keypress(Space),,,,,---- -- ----- -- ------ - ------- --- ----------<br>------------- ------ ------ ---- ---- ------- ----- -- ----<br>-------- ------- -- ---------- --- - --- ----- ----- ----<br>---- --- --- ----- --- ---- ---- ------- ----- ---- -------<br>--- --- as ----- -- --- ---- -- --- ---- -- ------ ------<br>--- ----- -- ----,60936.5,60935.700000047684,60542.841,60552.700000047684,60559.507,60942.825,,41,as
screen,html.Screen,0_2_0_1_42,2021-11-26T13:26:29.865Z,,,,,,,,,,,,,,,,53,,,,,,,,,,,,,,320.8750000476866,,response,,,99,,,,,,Space,keypress(Space),,,,,---- -- ----- -- ------ - ------- --- ----------<br>------------- ------ ------ ---- ---- ------- ----- -- ----<br>-------- ------- -- ---------- --- - --- ----- ----- ----<br>---- --- --- ----- --- ---- ---- ------- ----- ---- -------<br>--- --- -- close -- --- ---- -- --- ---- -- ------ ------<br>--- ----- -- ----,61264.300000071526,61263.700000047684,60926.159,60936.700000047684,60942.825,61276.145,,42,close
screen,html.Screen,0_2_0_1_43,2021-11-26T13:26:30.209Z,,,,,,,,,,,,,,,,53,,,,,,,,,,,,,,331.45500002384506,,response,,,99,,,,,,Space,keypress(Space),,,,,---- -- ----- -- ------ - ------- --- ----------<br>------------- ------ ------ ---- ---- ------- ----- -- ----<br>-------- ------- -- ---------- --- - --- ----- ----- ----<br>---- --- --- ----- --- ---- ---- ------- ----- ---- -------<br>--- --- -- ----- as --- ---- -- --- ---- -- ------ ------<br>--- ----- -- ----,61608.39999997616,61607.60000002384,61259.479,61264.700000047684,61276.145,61609.465,,43,as
screen,html.Screen,0_2_0_1_44,2021-11-26T13:26:30.537Z,,,,,,,,,,,,,,,,53,,,,,,,,,,,,,,326.13500002384535,,response,,,99,,,,,,Space,keypress(Space),,,,,---- -- ----- -- ------ - ------- --- ----------<br>------------- ------ ------ ---- ---- ------- ----- -- ----<br>-------- ------- -- ---------- --- - --- ----- ----- ----<br>---- --- --- ----- --- ---- ---- ------- ----- ---- -------<br>--- --- -- ----- -- you ---- -- --- ---- -- ------ ------<br>--- ----- -- ----,61936.300000071526,61935.60000002384,61592.799,61608.60000002384,61609.465,61942.785,,44,you
screen,html.Screen,0_2_0_1_45,2021-11-26T13:26:30.865Z,,,,,,,,,,,,,,,,53,,,,,,,,,,,,,,320.81500002383837,,response,,,99,,,,,,Space,keypress(Space),,,,,---- -- ----- -- ------ - ------- --- ----------<br>------------- ------ ------ ---- ---- ------- ----- -- ----<br>-------- ------- -- ---------- --- - --- ----- ----- ----<br>---- --- --- ----- --- ---- ---- ------- ----- ---- -------<br>--- --- -- ----- -- --- want -- --- ---- -- ------ ------<br>--- ----- -- ----,62264.39999997616,62263.60000002384,61926.119,61936.60000002384,61942.785,62276.105,,45,want
screen,html.Screen,0_2_0_1_46,2021-11-26T13:26:31.217Z,,,,,,,,,,,,,,,,53,,,,,,,,,,,,,,339.49500002383866,,response,,,99,,,,,,Space,keypress(Space),,,,,---- -- ----- -- ------ - ------- --- ----------<br>------------- ------ ------ ---- ---- ------- ----- -- ----<br>-------- ------- -- ---------- --- - --- ----- ----- ----<br>---- --- --- ----- --- ---- ---- ------- ----- ---- -------<br>--- --- -- ----- -- --- ---- to --- ---- -- ------ ------<br>--- ----- -- ----,62616.300000071526,62615.60000002384,62259.439,62264.60000002384,62276.105,62626.091,,46,to
screen,html.Screen,0_2_0_1_47,2021-11-26T13:26:31.529Z,,,,,,,,,,,,,,,,53,,,,,,,,,,,,,,301.5090000238415,,response,,,99,,,,,,Space,keypress(Space),,,,,"---- -- ----- -- ------ - ------- --- ----------<br>------------- ------ ------ ---- ---- ------- ----- -- ----<br>-------- ------- -- ---------- --- - --- ----- ----- ----<br>---- --- --- ----- --- ---- ---- ------- ----- ---- -------<br>--- --- -- ----- -- --- ---- -- be, ---- -- ------ ------<br>--- ----- -- ----",62928.300000071526,62927.60000002384,62609.425,62616.60000002384,62626.091,62942.745,,47,"be,"
screen,html.Screen,0_2_0_1_48,2021-11-26T13:26:31.929Z,,,,,,,,,,,,,,,,53,,,,,,,,,,,,,,385.1549999761555,,response,,,99,,,,,,Space,keypress(Space),,,,,---- -- ----- -- ------ - ------- --- ----------<br>------------- ------ ------ ---- ---- ------- ----- -- ----<br>-------- ------- -- ---------- --- - --- ----- ----- ----<br>---- --- --- ----- --- ---- ---- ------- ----- ---- -------<br>--- --- -- ----- -- --- ---- -- --- even -- ------ ------<br>--- ----- -- ----,63328.700000047684,63327.89999997616,62926.079,62928.60000002384,62942.745,63342.729,,48,even
screen,html.Screen,0_2_0_1_49,2021-11-26T13:26:32.217Z,,,,,,,,,,,,,,,,53,,,,,,,,,,,,,,272.77100000000064,,response,,,99,,,,,,Space,keypress(Space),,,,,---- -- ----- -- ------ - ------- --- ----------<br>------------- ------ ------ ---- ---- ------- ----- -- ----<br>-------- ------- -- ---------- --- - --- ----- ----- ----<br>---- --- --- ----- --- ---- ---- ------- ----- ---- -------<br>--- --- -- ----- -- --- ---- -- --- ---- if ------ ------<br>--- ----- -- ----,63616.300000071526,63615.5,63326.063,63328.89999997616,63342.729,63626.051,,49,if
screen,html.Screen,0_2_0_1_50,2021-11-26T13:26:32.585Z,,,,,,,,,,,,,,,,53,,,,,,,,,,,,,,357.4490000000005,,response,,,99,,,,,,Space,keypress(Space),,,,,---- -- ----- -- ------ - ------- --- ----------<br>------------- ------ ------ ---- ---- ------- ----- -- ----<br>-------- ------- -- ---------- --- - --- ----- ----- ----<br>---- --- --- ----- --- ---- ---- ------- ----- ---- -------<br>--- --- -- ----- -- --- ---- -- --- ---- -- that's ------<br>--- ----- -- ----,63984.200000047684,63983.5,63609.385,63616.5,63626.051,63992.703,,50,that's
screen,html.Screen,0_2_0_1_51,2021-11-26T13:26:33.009Z,,,,,,,,,,,,,,,,53,,,,,,,,,,,,,,414.6969999761568,,response,,,99,,,,,,Space,keypress(Space),,,,,---- -- ----- -- ------ - ------- --- ----------<br>------------- ------ ------ ---- ---- ------- ----- -- ----<br>-------- ------- -- ---------- --- - --- ----- ----- ----<br>---- --- --- ----- --- ---- ---- ------- ----- ---- -------<br>--- --- -- ----- -- --- ---- -- --- ---- -- ------ really<br>--- ----- -- ----,64408.300000071526,64407.39999997616,63976.037,63984.5,63992.703,64409.353,,51,really
screen,html.Screen,0_2_0_1_52,2021-11-26T13:26:33.385Z,,,,,,,,,,,,,,,,53,,,,,,,,,,,,,,374.04699997615535,,response,,,99,,,,,,Space,keypress(Space),,,,,---- -- ----- -- ------ - ------- --- ----------<br>------------- ------ ------ ---- ---- ------- ----- -- ----<br>-------- ------- -- ---------- --- - --- ----- ----- ----<br>---- --- --- ----- --- ---- ---- ------- ----- ---- -------<br>--- --- -- ----- -- --- ---- -- --- ---- -- ------ ------<br>not ----- -- ----,64784.200000047684,64783.39999997616,64392.687,64408.5,64409.353,64792.671,,52,not
screen,html.Screen,0_2_0_1_53,2021-11-26T13:26:33.737Z,,,,,,,,,,,,,,,,53,,,,,,,,,,,,,,342.72899997615605,,response,,,99,,,,,,Space,keypress(Space),,,,,---- -- ----- -- ------ - ------- --- ----------<br>------------- ------ ------ ---- ---- ------- ----- -- ----<br>-------- ------- -- ---------- --- - --- ----- ----- ----<br>---- --- --- ----- --- ---- ---- ------- ----- ---- -------<br>--- --- -- ----- -- --- ---- -- --- ---- -- ------ ------<br>--- close -- ----,65136.200000047684,65135.39999997616,64776.005,64784.5,64792.671,65142.657,,53,close
screen,html.Screen,0_2_0_1_54,2021-11-26T13:26:34.065Z,,,,,,,,,,,,,,,,53,,,,,,,,,,,,,,320.64300007152633,,response,,,99,,,,,,Space,keypress(Space),,,,,---- -- ----- -- ------ - ------- --- ----------<br>------------- ------ ------ ---- ---- ------- ----- -- ----<br>-------- ------- -- ---------- --- - --- ----- ----- ----<br>---- --- --- ----- --- ---- ---- ------- ----- ---- -------<br>--- --- -- ----- -- --- ---- -- --- ---- -- ------ ------<br>--- ----- at ----,65464.10000002384,65463.300000071526,65125.991,65136.39999997616,65142.657,65475.977,,54,at
screen,html.Screen,0_2_0_1_55,2021-11-26T13:26:35.385Z,,,,,,,,,,,,,,,,53,,,,,,,,,,,,,,1307.3230000715266,,response,,,99,,,,,,Space,keypress(Space),,,,,---- -- ----- -- ------ - ------- --- ----------<br>------------- ------ ------ ---- ---- ------- ----- -- ----<br>-------- ------- -- ---------- --- - --- ----- ----- ----<br>---- --- --- ----- --- ---- ---- ------- ----- ---- -------<br>--- --- -- ----- -- --- ---- -- --- ---- -- ------ ------<br>--- ----- -- all.,66784.10000002384,66783.30000007153,65459.311,65464.39999997616,65475.977,66792.591,,55,all.
Item 99,flow.Loop,0_2_0_1,2021-11-26T13:26:35.389Z,,,,,,,,,,,,,,,,,,,,,,,,,,,,,,24889.713000071526,,completion,,,,F,,,,,,,,,,silence,,66788.70000004768,66783.30000007153,41876.921,41886.10000002384,41893.587,66792.591,,,
Question 1,html.Screen,0_2_0_2,2021-11-26T13:26:38.573Z,,,,,,,,,,,,,,,,,,,,,,,,,,,true,FALSE,,3178.308999976158,,response,,,99,F,,,,,FALSE,click #choice-2,,,,silence,,69972.30000007153,69970.89999997616,66775.925,66789,66792.591,69975.797,,,
Question 2,html.Screen,0_2_0_3,2021-11-26T13:26:38.805Z,,,,,,,,,,,,,,,,,,,,,,,,,,,false,TRUE,,227.20299999999406,,response,,,99,F,,,,,FALSE,click #choice-2,,,,silence,,70204.20000004768,70203,69959.131,69972.60000002384,69975.797,70209.121,,,
Item 99,flow.Sequence,0_2_0,2021-11-26T13:26:38.805Z,,,,,,,,,,,,,,,,,,,,,,,,,,,,,,38309.013,,completion,,,,,,,,,,,,,,,,70204.80000007153,70203,31877.321,31863.5,31893.987,70209.121,,,
Holding screen,html.Screen,0_2_1_0,2021-11-26T13:26:48.794Z,,,,,,,,,,,,,,,,,,,,,,,,,,,,,,9999.600000000006,,timeout,,,,,,,,,,,,,,,,80193.20000004768,80192.055,70192.455,70205,70209.121,80208.721,,,
screen,html.Screen,0_2_1_1_0,2021-11-26T13:26:50.016Z,,,,,,,,,,,,,,,,54,,,,,,,,,,,,,,1205.6789999761531,,response,,,100,,,,,,Space,keypress(Space),,,,,At --- ---- --- ------ ----- ------- ---- -- --- ------- --<br>------- ---------- ------ -- ----- -- ----- -- ---- ------<br>--- ----- --- --- ------ -------- ----- --- ------ ----- --<br>----- ----- ---------- --- --- ------ ------ ---- -- ------<br>------- --- ------ ----- --- ---- ------- -- ---- --- --<br>------- ------,81415.20000004768,81414.39999997616,80192.055,80193.60000002384,80208.721,81425.339,,0,At
screen,html.Screen,0_2_1_1_1,2021-11-26T13:26:50.408Z,,,,,,,,,,,,,,,,54,,,,,,,,,,,,,,381.0609999761509,,response,,,100,,,,,,Space,keypress(Space),,,,,-- the ---- --- ------ ----- ------- ---- -- --- ------- --<br>------- ---------- ------ -- ----- -- ----- -- ---- ------<br>--- ----- --- --- ------ -------- ----- --- ------ ----- --<br>----- ----- ---------- --- --- ------ ------ ---- -- ------<br>------- --- ------ ----- --- ---- ------- -- ---- --- --<br>------- ------,81807.20000004768,81806.39999997616,81408.673,81415.5,81425.339,81808.657,,1,the
screen,html.Screen,0_2_1_1_2,2021-11-26T13:26:51.224Z,,,,,,,,,,,,,,,,54,,,,,,,,,,,,,,813.643000071519,,response,,,100,,,,,,Space,keypress(Space),,,,,-- --- time --- ------ ----- ------- ---- -- --- ------- --<br>------- ---------- ------ -- ----- -- ----- -- ---- ------<br>--- ----- --- --- ------ -------- ----- --- ------ ----- --<br>----- ----- ---------- --- --- ------ ------ ---- -- ------<br>------- --- ------ ----- --- ---- ------- -- ---- --- --<br>------- ------,82623.10000002384,82622.30000007153,81791.991,81807.39999997616,81808.657,82625.291,,2,time
screen,html.Screen,0_2_1_1_3,2021-11-26T13:26:51.624Z,,,,,,,,,,,,,,,,54,,,,,,,,,,,,,,396.9090000476863,,response,,,100,,,,,,Space,keypress(Space),,,,,-- --- ---- the ------ ----- ------- ---- -- --- ------- --<br>------- ---------- ------ -- ----- -- ----- -- ---- ------<br>--- ----- --- --- ------ -------- ----- --- ------ ----- --<br>----- ----- ---------- --- --- ------ ------ ---- -- ------<br>------- --- ------ ----- --- ---- ------- -- ---- --- --<br>------- ------,83023,83022.20000004768,82608.625,82623.30000007153,82625.291,83025.275,,3,the
screen,html.Screen,0_2_1_1_4,2021-11-26T13:26:51.936Z,,,,,,,,,,,,,,,,54,,,,,,,,,,,,,,308.92500004768954,,response,,,100,,,,,,Space,keypress(Space),,,,,-- --- ---- --- French ----- ------- ---- -- --- ------- --<br>------- ---------- ------ -- ----- -- ----- -- ---- ------<br>--- ----- --- --- ------ -------- ----- --- ------ ----- --<br>----- ----- ---------- --- --- ------ ------ ---- -- ------<br>------- --- ------ ----- --- ---- ------- -- ---- --- --<br>------- ------,83335,83334.20000004768,83008.609,83023.30000007153,83025.275,83341.929,,4,French
screen,html.Screen,0_2_1_1_5,2021-11-26T13:26:52.304Z,,,,,,,,,,,,,,,,54,,,,,,,,,,,,,,360.67100002383813,,response,,,100,,,,,,Space,keypress(Space),,,,,-- --- ---- --- ------ crown ------- ---- -- --- ------- --<br>------- ---------- ------ -- ----- -- ----- -- ---- ------<br>--- ----- --- --- ------ -------- ----- --- ------ ----- --<br>----- ----- ---------- --- --- ------ ------ ---- -- ------<br>------- --- ------ ----- --- ---- ------- -- ---- --- --<br>------- ------,83703.5,83702.60000002384,83325.263,83335.20000004768,83341.929,83708.581,,5,crown
screen,html.Screen,0_2_1_1_6,2021-11-26T13:26:52.672Z,,,,,,,,,,,,,,,,54,,,,,,,,,,,,,,361.6190000476781,,response,,,100,,,,,,Space,keypress(Space),,,,,-- --- ---- --- ------ ----- secured ---- -- --- ------- --<br>------- ---------- ------ -- ----- -- ----- -- ---- ------<br>--- ----- --- --- ------ -------- ----- --- ------ ----- --<br>----- ----- ---------- --- --- ------ ------ ---- -- ------<br>------- --- ------ ----- --- ---- ------- -- ---- --- --<br>------- ------,84071,84070.20000004768,83691.915,83703.70000004768,83708.581,84075.233,,6,secured
screen,html.Screen,0_2_1_1_7,2021-11-26T13:26:53.096Z,,,,,,,,,,,,,,,,54,,,,,,,,,,,,,,418.9670000476908,,response,,,100,,,,,,Space,keypress(Space),,,,,-- --- ---- --- ------ ----- ------- much -- --- ------- --<br>------- ---------- ------ -- ----- -- ----- -- ---- ------<br>--- ----- --- --- ------ -------- ----- --- ------ ----- --<br>----- ----- ---------- --- --- ------ ------ ---- -- ------<br>------- --- ------ ----- --- ---- ------- -- ---- --- --<br>------- ------,84495,84494.20000004768,84058.567,84071.20000004768,84075.233,84508.549,,7,much
screen,html.Screen,0_2_1_1_8,2021-11-26T13:26:53.448Z,,,,,,,,,,,,,,,,54,,,,,,,,,,,,,,337.65100004768465,,response,,,100,,,,,,Space,keypress(Space),,,,,-- --- ---- --- ------ ----- ------- ---- of --- ------- --<br>------- ---------- ------ -- ----- -- ----- -- ---- ------<br>--- ----- --- --- ------ -------- ----- --- ------ ----- --<br>----- ----- ---------- --- --- ------ ------ ---- -- ------<br>------- --- ------ ----- --- ---- ------- -- ---- --- --<br>------- ------,84847,84846.20000004768,84491.883,84495.20000004768,84508.549,84858.535,,8,of
screen,html.Screen,0_2_1_1_9,2021-11-26T13:26:53.784Z,,,,,,,,,,,,,,,,54,,,,,,,,,,,,,,323.56500002383837,,response,,,100,,,,,,Space,keypress(Space),,,,,-- --- ---- --- ------ ----- ------- ---- -- its ------- --<br>------- ---------- ------ -- ----- -- ----- -- ---- ------<br>--- ----- --- --- ------ -------- ----- --- ------ ----- --<br>----- ----- ---------- --- --- ------ ------ ---- -- ------<br>------- --- ------ ----- --- ---- ------- -- ---- --- --<br>------- ------,85182.89999997616,85182.10000002384,84841.869,84847.20000004768,84858.535,85191.855,,9,its
screen,html.Screen,0_2_1_1_10,2021-11-26T13:26:54.120Z,,,,,,,,,,,,,,,,54,,,,,,,,,,,,,,326.24500002384593,,response,,,100,,,,,,Space,keypress(Space),,,,,-- --- ---- --- ------ ----- ------- ---- -- --- revenue --<br>------- ---------- ------ -- ----- -- ----- -- ---- ------<br>--- ----- --- --- ------ -------- ----- --- ------ ----- --<br>----- ----- ---------- --- --- ------ ------ ---- -- ------<br>------- --- ------ ----- --- ---- ------- -- ---- --- --<br>------- ------,85518.89999997616,85518.10000002384,85175.189,85183.10000002384,85191.855,85525.175,,10,revenue
screen,html.Screen,0_2_1_1_11,2021-11-26T13:26:54.696Z,,,,,,,,,,,,,,,,54,,,,,,,,,,,,,,568.8249999999971,,response,,,100,,,,,,Space,keypress(Space),,,,,-- --- ---- --- ------ ----- ------- ---- -- --- ------- by<br>------- ---------- ------ -- ----- -- ----- -- ---- ------<br>--- ----- --- --- ------ -------- ----- --- ------ ----- --<br>----- ----- ---------- --- --- ------ ------ ---- -- ------<br>------- --- ------ ----- --- ---- ------- -- ---- --- --<br>------- ------,86094.89999997616,86094,85508.509,85519.10000002384,85525.175,86108.485,,11,by
screen,html.Screen,0_2_1_1_12,2021-11-26T13:26:55.288Z,,,,,,,,,,,,,,,,54,,,,,,,,,,,,,,577.5149999999994,,response,,,100,,,,,,Space,keypress(Space),,,,,-- --- ---- --- ------ ----- ------- ---- -- --- ------- --<br>issuing ---------- ------ -- ----- -- ----- -- ---- ------<br>--- ----- --- --- ------ -------- ----- --- ------ ----- --<br>----- ----- ---------- --- --- ------ ------ ---- -- ------<br>------- --- ------ ----- --- ---- ------- -- ---- --- --<br>------- ------,86686.80000007153,86686,86091.819,86095.10000002384,86108.485,86691.795,,12,issuing
screen,html.Screen,0_2_1_1_13,2021-11-26T13:26:55.800Z,,,,,,,,,,,,,,,,54,,,,,,,,,,,,,,506.20500000000175,,response,,,100,,,,,,Space,keypress(Space),,,,,-- --- ---- --- ------ ----- ------- ---- -- --- ------- --<br>------- government ------ -- ----- -- ----- -- ---- ------<br>--- ----- --- --- ------ -------- ----- --- ------ ----- --<br>----- ----- ---------- --- --- ------ ------ ---- -- ------<br>------- --- ------ ----- --- ---- ------- -- ---- --- --<br>------- ------,87198.80000007153,87198,86675.129,86687.10000002384,86691.795,87208.441,,13,government
screen,html.Screen,0_2_1_1_14,2021-11-26T13:26:56.823Z,,,,,,,,,,,,,,,,54,,,,,,,,,,,,,,1013.458999976152,,response,,,100,,,,,,Space,keypress(Space),,,,,-- --- ---- --- ------ ----- ------- ---- -- --- ------- --<br>------- ---------- bonds. -- ----- -- ----- -- ---- ------<br>--- ----- --- --- ------ -------- ----- --- ------ ----- --<br>----- ----- ---------- --- --- ------ ------ ---- -- ------<br>------- --- ------ ----- --- ---- ------- -- ---- --- --<br>------- ------,88222.70000004768,88221.89999997616,87191.775,87199,87208.441,88225.067,,14,bonds.
screen,html.Screen,0_2_1_1_15,2021-11-26T13:26:57.255Z,,,,,,,,,,,,,,,,54,,,,,,,,,,,,,,428.8329999761627,,response,,,100,,,,,,Space,keypress(Space),,,,,-- --- ---- --- ------ ----- ------- ---- -- --- ------- --<br>------- ---------- ------ In ----- -- ----- -- ---- ------<br>--- ----- --- --- ------ -------- ----- --- ------ ----- --<br>----- ----- ---------- --- --- ------ ------ ---- -- ------<br>------- --- ------ ----- --- ---- ------- -- ---- --- --<br>------- ------,88654.70000004768,88653.89999997616,88208.401,88222.89999997616,88225.067,88658.383,,15,In
screen,html.Screen,0_2_1_1_16,2021-11-26T13:26:58.703Z,,,,,,,,,,,,,,,,54,,,,,,,,,,,,,,1443.417000071524,,response,,,100,,,,,,Space,keypress(Space),,,,,"-- --- ---- --- ------ ----- ------- ---- -- --- ------- --<br>------- ---------- ------ -- 1727, -- ----- -- ---- ------<br>--- ----- --- --- ------ -------- ----- --- ------ ----- --<br>----- ----- ---------- --- --- ------ ------ ---- -- ------<br>------- --- ------ ----- --- ---- ------- -- ---- --- --<br>------- ------",90102.70000004768,90101.80000007153,88641.717,88654.89999997616,88658.383,90108.325,,16,"1727,"
screen,html.Screen,0_2_1_1_17,2021-11-26T13:26:59.575Z,,,,,,,,,,,,,,,,54,,,,,,,,,,,,,,865.4750000715285,,response,,,100,,,,,,Space,keypress(Space),,,,,-- --- ---- --- ------ ----- ------- ---- -- --- ------- --<br>------- ---------- ------ -- ----- in ----- -- ---- ------<br>--- ----- --- --- ------ -------- ----- --- ------ ----- --<br>----- ----- ---------- --- --- ------ ------ ---- -- ------<br>------- --- ------ ----- --- ---- ------- -- ---- --- --<br>------- ------,90974.60000002384,90973.80000007153,90091.659,90102.89999997616,90108.325,90991.623,,17,in
screen,html.Screen,0_2_1_1_18,2021-11-26T13:27:00.151Z,,,,,,,,,,,,,,,,54,,,,,,,,,,,,,,558.0770000476768,,response,,,100,,,,,,Space,keypress(Space),,,,,-- --- ---- --- ------ ----- ------- ---- -- --- ------- --<br>------- ---------- ------ -- ----- -- order -- ---- ------<br>--- ----- --- --- ------ -------- ----- --- ------ ----- --<br>----- ----- ---------- --- --- ------ ------ ---- -- ------<br>------- --- ------ ----- --- ---- ------- -- ---- --- --<br>------- ------,91550.5,91549.70000004768,90974.957,90974.80000007153,90991.623,91558.267,,18,order
screen,html.Screen,0_2_1_1_19,2021-11-26T13:27:00.471Z,,,,,,,,,,,,,,,,54,,,,,,,,,,,,,,311.4330000476766,,response,,,100,,,,,,Space,keypress(Space),,,,,-- --- ---- --- ------ ----- ------- ---- -- --- ------- --<br>------- ---------- ------ -- ----- -- ----- to ---- ------<br>--- ----- --- --- ------ -------- ----- --- ------ ----- --<br>----- ----- ---------- --- --- ------ ------ ---- -- ------<br>------- --- ------ ----- --- ---- ------- -- ---- --- --<br>------- ------,91870.5,91869.70000004768,91541.601,91550.70000004768,91558.267,91874.921,,19,to
screen,html.Screen,0_2_1_1_20,2021-11-26T13:27:00.799Z,,,,,,,,,,,,,,,,54,,,,,,,,,,,,,,322.7790000476816,,response,,,100,,,,,,Space,keypress(Space),,,,,-- --- ---- --- ------ ----- ------- ---- -- --- ------- --<br>------- ---------- ------ -- ----- -- ----- -- save ------<br>--- ----- --- --- ------ -------- ----- --- ------ ----- --<br>----- ----- ---------- --- --- ------ ------ ---- -- ------<br>------- --- ------ ----- --- ---- ------- -- ---- --- --<br>------- ------,92198.5,92197.70000004768,91858.255,91870.80000007153,91874.921,92208.241,,20,save
screen,html.Screen,0_2_1_1_21,2021-11-26T13:27:01.255Z,,,,,,,,,,,,,,,,54,,,,,,,,,,,,,,445.4590000476892,,response,,,100,,,,,,Space,keypress(Space),,,,,"-- --- ---- --- ------ ----- ------- ---- -- --- ------- --<br>------- ---------- ------ -- ----- -- ----- -- ---- money,<br>--- ----- --- --- ------ -------- ----- --- ------ ----- --<br>----- ----- ---------- --- --- ------ ------ ---- -- ------<br>------- --- ------ ----- --- ---- ------- -- ---- --- --<br>------- ------",92654.5,92653.70000004768,92191.575,92198.70000004768,92208.241,92658.223,,21,"money,"
screen,html.Screen,0_2_1_1_22,2021-11-26T13:27:01.679Z,,,,,,,,,,,,,,,,54,,,,,,,,,,,,,,419.3770000238437,,response,,,100,,,,,,Space,keypress(Space),,,,,-- --- ---- --- ------ ----- ------- ---- -- --- ------- --<br>------- ---------- ------ -- ----- -- ----- -- ---- ------<br>the ----- --- --- ------ -------- ----- --- ------ ----- --<br>----- ----- ---------- --- --- ------ ------ ---- -- ------<br>------- --- ------ ----- --- ---- ------- -- ---- --- --<br>------- ------,93078.39999997616,93077.60000002384,92641.557,92654.70000004768,92658.223,93091.539,,22,the
screen,html.Screen,0_2_1_1_23,2021-11-26T13:27:02.119Z,,,,,,,,,,,,,,,,54,,,,,,,,,,,,,,426.06100002383755,,response,,,100,,,,,,Space,keypress(Space),,,,,-- --- ---- --- ------ ----- ------- ---- -- --- ------- --<br>------- ---------- ------ -- ----- -- ----- -- ---- ------<br>--- state --- --- ------ -------- ----- --- ------ ----- --<br>----- ----- ---------- --- --- ------ ------ ---- -- ------<br>------- --- ------ ----- --- ---- ------- -- ---- --- --<br>------- ------,93518.39999997616,93517.60000002384,93074.873,93078.60000002384,93091.539,93524.855,,23,state
screen,html.Screen,0_2_1_1_24,2021-11-26T13:27:02.608Z,,,,,,,,,,,,,,,,54,,,,,,,,,,,,,,481.0449999761622,,response,,,100,,,,,,Space,keypress(Space),,,,,-- --- ---- --- ------ ----- ------- ---- -- --- ------- --<br>------- ---------- ------ -- ----- -- ----- -- ---- ------<br>--- ----- cut --- ------ -------- ----- --- ------ ----- --<br>----- ----- ---------- --- --- ------ ------ ---- -- ------<br>------- --- ------ ----- --- ---- ------- -- ---- --- --<br>------- ------,94006.80000007153,94005.89999997616,93508.189,93518.60000002384,93524.855,94008.169,,24,cut
screen,html.Screen,0_2_1_1_25,2021-11-26T13:27:03.007Z,,,,,,,,,,,,,,,,54,,,,,,,,,,,,,,397.43100002384745,,response,,,100,,,,,,Space,keypress(Space),,,,,-- --- ---- --- ------ ----- ------- ---- -- --- ------- --<br>------- ---------- ------ -- ----- -- ----- -- ---- ------<br>--- ----- --- the ------ -------- ----- --- ------ ----- --<br>----- ----- ---------- --- --- ------ ------ ---- -- ------<br>------- --- ------ ----- --- ---- ------- -- ---- --- --<br>------- ------,94406.39999997616,94405.60000002384,93991.503,94007.10000002384,94008.169,94408.153,,25,the
screen,html.Screen,0_2_1_1_26,2021-11-26T13:27:03.439Z,,,,,,,,,,,,,,,,54,,,,,,,,,,,,,,429.3469999999943,,response,,,100,,,,,,Space,keypress(Space),,,,,-- --- ---- --- ------ ----- ------- ---- -- --- ------- --<br>------- ---------- ------ -- ----- -- ----- -- ---- ------<br>--- ----- --- --- bonds' -------- ----- --- ------ ----- --<br>----- ----- ---------- --- --- ------ ------ ---- -- ------<br>------- --- ------ ----- --- ---- ------- -- ---- --- --<br>------- ------,94838.30000007153,94837.5,94391.487,94406.60000002384,94408.153,94841.469,,26,bonds'
screen,html.Screen,0_2_1_1_27,2021-11-26T13:27:03.831Z,,,,,,,,,,,,,,,,54,,,,,,,,,,,,,,388.0310000000027,,response,,,100,,,,,,Space,keypress(Space),,,,,-- --- ---- --- ------ ----- ------- ---- -- --- ------- --<br>------- ---------- ------ -- ----- -- ----- -- ---- ------<br>--- ----- --- --- ------ interest ----- --- ------ ----- --<br>----- ----- ---------- --- --- ------ ------ ---- -- ------<br>------- --- ------ ----- --- ---- ------- -- ---- --- --<br>------- ------,95230.30000007153,95229.5,94824.803,94838.5,94841.469,95241.453,,27,interest
screen,html.Screen,0_2_1_1_28,2021-11-26T13:27:05.231Z,,,,,,,,,,,,,,,,54,,,,,,,,,,,,,,1387.946999976164,,response,,,100,,,,,,Space,keypress(Space),,,,,-- --- ---- --- ------ ----- ------- ---- -- --- ------- --<br>------- ---------- ------ -- ----- -- ----- -- ---- ------<br>--- ----- --- --- ------ -------- rate. --- ------ ----- --<br>----- ----- ---------- --- --- ------ ------ ---- -- ------<br>------- --- ------ ----- --- ---- ------- -- ---- --- --<br>------- ------,96630.30000007153,96629.39999997616,95224.787,95230.5,95241.453,96641.397,,28,rate.
screen,html.Screen,0_2_1_1_29,2021-11-26T13:27:05.703Z,,,,,,,,,,,,,,,,54,,,,,,,,,,,,,,459.90300007152837,,response,,,100,,,,,,Space,keypress(Space),,,,,-- --- ---- --- ------ ----- ------- ---- -- --- ------- --<br>------- ---------- ------ -- ----- -- ----- -- ---- ------<br>--- ----- --- --- ------ -------- ----- The ------ ----- --<br>----- ----- ---------- --- --- ------ ------ ---- -- ------<br>------- --- ------ ----- --- ---- ------- -- ---- --- --<br>------- ------,97102.20000004768,97101.30000007153,96624.731,96630.39999997616,96641.397,97108.045,,29,The
screen,html.Screen,0_2_1_1_30,2021-11-26T13:27:06.095Z,,,,,,,,,,,,,,,,54,,,,,,,,,,,,,,385.2550000715273,,response,,,100,,,,,,Space,keypress(Space),,,,,-- --- ---- --- ------ ----- ------- ---- -- --- ------- --<br>------- ---------- ------ -- ----- -- ----- -- ---- ------<br>--- ----- --- --- ------ -------- ----- --- market ----- --<br>----- ----- ---------- --- --- ------ ------ ---- -- ------<br>------- --- ------ ----- --- ---- ------- -- ---- --- --<br>------- ------,97494.10000002384,97493.30000007153,97091.379,97102.39999997616,97108.045,97508.029,,30,market
screen,html.Screen,0_2_1_1_31,2021-11-26T13:27:06.551Z,,,,,,,,,,,,,,,,54,,,,,,,,,,,,,,441.2710000715306,,response,,,100,,,,,,Space,keypress(Space),,,,,-- --- ---- --- ------ ----- ------- ---- -- --- ------- --<br>------- ---------- ------ -- ----- -- ----- -- ---- ------<br>--- ----- --- --- ------ -------- ----- --- ------ value --<br>----- ----- ---------- --- --- ------ ------ ---- -- ------<br>------- --- ------ ----- --- ---- ------- -- ---- --- --<br>------- ------,97950.10000002384,97949.30000007153,97491.363,97494.39999997616,97508.029,97958.011,,31,value
screen,html.Screen,0_2_1_1_32,2021-11-26T13:27:06.959Z,,,,,,,,,,,,,,,,54,,,,,,,,,,,,,,399.38899997615954,,response,,,100,,,,,,Space,keypress(Space),,,,,-- --- ---- --- ------ ----- ------- ---- -- --- ------- --<br>------- ---------- ------ -- ----- -- ----- -- ---- ------<br>--- ----- --- --- ------ -------- ----- --- ------ ----- of<br>----- ----- ---------- --- --- ------ ------ ---- -- ------<br>------- --- ------ ----- --- ---- ------- -- ---- --- --<br>------- ------,98358.10000002384,98357.39999997616,97941.345,97950.30000007153,97958.011,98374.661,,32,of
screen,html.Screen,0_2_1_1_33,2021-11-26T13:27:07.311Z,,,,,,,,,,,,,,,,54,,,,,,,,,,,,,,334.6390000715328,,response,,,100,,,,,,Space,keypress(Space),,,,,-- --- ---- --- ------ ----- ------- ---- -- --- ------- --<br>------- ---------- ------ -- ----- -- ----- -- ---- ------<br>--- ----- --- --- ------ -------- ----- --- ------ ----- --<br>these ----- ---------- --- --- ------ ------ ---- -- ------<br>------- --- ------ ----- --- ---- ------- -- ---- --- --<br>------- ------,98710,98709.30000007153,98357.995,98358.30000007153,98374.661,98724.647,,33,these
screen,html.Screen,0_2_1_1_34,2021-11-26T13:27:07.687Z,,,,,,,,,,,,,,,,54,,,,,,,,,,,,,,360.65300007152837,,response,,,100,,,,,,Space,keypress(Space),,,,,-- --- ---- --- ------ ----- ------- ---- -- --- ------- --<br>------- ---------- ------ -- ----- -- ----- -- ---- ------<br>--- ----- --- --- ------ -------- ----- --- ------ ----- --<br>----- bonds ---------- --- --- ------ ------ ---- -- ------<br>------- --- ------ ----- --- ---- ------- -- ---- --- --<br>------- ------,99086.20000004768,99085.30000007153,98707.981,98710.30000007153,98724.647,99091.299,,34,bonds
screen,html.Screen,0_2_1_1_35,2021-11-26T13:27:08.391Z,,,,,,,,,,,,,,,,54,,,,,,,,,,,,,,697.9010000476846,,response,,,100,,,,,,Space,keypress(Space),,,,,"-- --- ---- --- ------ ----- ------- ---- -- --- ------- --<br>------- ---------- ------ -- ----- -- ----- -- ---- ------<br>--- ----- --- --- ------ -------- ----- --- ------ ----- --<br>----- ----- plummeted, --- --- ------ ------ ---- -- ------<br>------- --- ------ ----- --- ---- ------- -- ---- --- --<br>------- ------",99790,99789.20000004768,99074.633,99086.39999997616,99091.299,99791.271,,35,"plummeted,"
screen,html.Screen,0_2_1_1_36,2021-11-26T13:27:08.943Z,,,,,,,,,,,,,,,,54,,,,,,,,,,,,,,549.9290000476904,,response,,,100,,,,,,Space,keypress(Space),,,,,-- --- ---- --- ------ ----- ------- ---- -- --- ------- --<br>------- ---------- ------ -- ----- -- ----- -- ---- ------<br>--- ----- --- --- ------ -------- ----- --- ------ ----- --<br>----- ----- ---------- and --- ------ ------ ---- -- ------<br>------- --- ------ ----- --- ---- ------- -- ---- --- --<br>------- ------,100341.89999997616,100341.20000004768,99774.605,99790.30000007153,99791.271,100357.915,,36,and
screen,html.Screen,0_2_1_1_37,2021-11-26T13:27:09.287Z,,,,,,,,,,,,,,,,54,,,,,,,,,,,,,,327.18500002384826,,response,,,100,,,,,,Space,keypress(Space),,,,,-- --- ---- --- ------ ----- ------- ---- -- --- ------- --<br>------- ---------- ------ -- ----- -- ----- -- ---- ------<br>--- ----- --- --- ------ -------- ----- --- ------ ----- --<br>----- ----- ---------- --- the ------ ------ ---- -- ------<br>------- --- ------ ----- --- ---- ------- -- ---- --- --<br>------- ------,100686,100685.10000002384,100341.249,100342.20000004768,100357.915,100691.235,,37,the
screen,html.Screen,0_2_1_1_38,2021-11-26T13:27:09.687Z,,,,,,,,,,,,,,,,54,,,,,,,,,,,,,,393.8650000238413,,response,,,100,,,,,,Space,keypress(Space),,,,,-- --- ---- --- ------ ----- ------- ---- -- --- ------- --<br>------- ---------- ------ -- ----- -- ----- -- ---- ------<br>--- ----- --- --- ------ -------- ----- --- ------ ----- --<br>----- ----- ---------- --- --- market ------ ---- -- ------<br>------- --- ------ ----- --- ---- ------- -- ---- --- --<br>------- ------,101085.89999997616,101085.10000002384,100674.569,100686.20000004768,100691.235,101091.219,,38,market
screen,html.Screen,0_2_1_1_39,2021-11-26T13:27:10.071Z,,,,,,,,,,,,,,,,54,,,,,,,,,,,,,,377.88100002384454,,response,,,100,,,,,,Space,keypress(Space),,,,,-- --- ---- --- ------ ----- ------- ---- -- --- ------- --<br>------- ---------- ------ -- ----- -- ----- -- ---- ------<br>--- ----- --- --- ------ -------- ----- --- ------ ----- --<br>----- ----- ---------- --- --- ------ became ---- -- ------<br>------- --- ------ ----- --- ---- ------- -- ---- --- --<br>------- ------,101470,101469.10000002384,101074.553,101086.10000002384,101091.219,101474.537,,39,became
screen,html.Screen,0_2_1_1_40,2021-11-26T13:27:10.399Z,,,,,,,,,,,,,,,,54,,,,,,,,,,,,,,322.56300002384523,,response,,,100,,,,,,Space,keypress(Space),,,,,-- --- ---- --- ------ ----- ------- ---- -- --- ------- --<br>------- ---------- ------ -- ----- -- ----- -- ---- ------<br>--- ----- --- --- ------ -------- ----- --- ------ ----- --<br>----- ----- ---------- --- --- ------ ------ wary -- ------<br>------- --- ------ ----- --- ---- ------- -- ---- --- --<br>------- ------,101798,101797.10000002384,101457.871,101470.20000004768,101474.537,101807.857,,40,wary
screen,html.Screen,0_2_1_1_41,2021-11-26T13:27:10.846Z,,,,,,,,,,,,,,,,54,,,,,,,,,,,,,,437.1429999999964,,response,,,100,,,,,,Space,keypress(Space),,,,,-- --- ---- --- ------ ----- ------- ---- -- --- ------- --<br>------- ---------- ------ -- ----- -- ----- -- ---- ------<br>--- ----- --- --- ------ -------- ----- --- ------ ----- --<br>----- ----- ---------- --- --- ------ ------ ---- of ------<br>------- --- ------ ----- --- ---- ------- -- ---- --- --<br>------- ------,102245.80000007153,102245,101791.191,101798.20000004768,101807.857,102257.839,,41,of
screen,html.Screen,0_2_1_1_42,2021-11-26T13:27:11.255Z,,,,,,,,,,,,,,,,54,,,,,,,,,,,,,,395.1609999999928,,response,,,100,,,,,,Space,keypress(Space),,,,,-- --- ---- --- ------ ----- ------- ---- -- --- ------- --<br>------- ---------- ------ -- ----- -- ----- -- ---- ------<br>--- ----- --- --- ------ -------- ----- --- ------ ----- --<br>----- ----- ---------- --- --- ------ ------ ---- -- French<br>------- --- ------ ----- --- ---- ------- -- ---- --- --<br>------- ------,102653.80000007153,102653,102241.173,102247.20000004768,102257.839,102657.823,,42,French
screen,html.Screen,0_2_1_1_43,2021-11-26T13:27:11.854Z,,,,,,,,,,,,,,,,54,,,,,,,,,,,,,,595.176999999996,,response,,,100,,,,,,Space,keypress(Space),,,,,-- --- ---- --- ------ ----- ------- ---- -- --- ------- --<br>------- ---------- ------ -- ----- -- ----- -- ---- ------<br>--- ----- --- --- ------ -------- ----- --- ------ ----- --<br>----- ----- ---------- --- --- ------ ------ ---- -- ------<br>credit. --- ------ ----- --- ---- ------- -- ---- --- --<br>------- ------,103253.80000007153,103253,102641.157,102654,102657.823,103257.799,,43,credit.
screen,html.Screen,0_2_1_1_44,2021-11-26T13:27:12.238Z,,,,,,,,,,,,,,,,54,,,,,,,,,,,,,,379.1009999761591,,response,,,100,,,,,,Space,keypress(Space),,,,,-- --- ---- --- ------ ----- ------- ---- -- --- ------- --<br>------- ---------- ------ -- ----- -- ----- -- ---- ------<br>--- ----- --- --- ------ -------- ----- --- ------ ----- --<br>----- ----- ---------- --- --- ------ ------ ---- -- ------<br>------- The ------ ----- --- ---- ------- -- ---- --- --<br>------- ------,103637.70000004768,103636.89999997616,103241.133,103254,103257.799,103641.117,,44,The
screen,html.Screen,0_2_1_1_45,2021-11-26T13:27:12.582Z,,,,,,,,,,,,,,,,54,,,,,,,,,,,,,,339.7829999761598,,response,,,100,,,,,,Space,keypress(Space),,,,,-- --- ---- --- ------ ----- ------- ---- -- --- ------- --<br>------- ---------- ------ -- ----- -- ----- -- ---- ------<br>--- ----- --- --- ------ -------- ----- --- ------ ----- --<br>----- ----- ---------- --- --- ------ ------ ---- -- ------<br>------- --- French ----- --- ---- ------- -- ---- --- --<br>------- ------,103981.70000004768,103980.89999997616,103624.451,103637.89999997616,103641.117,103991.103,,45,French
screen,html.Screen,0_2_1_1_46,2021-11-26T13:27:12.911Z,,,,,,,,,,,,,,,,54,,,,,,,,,,,,,,318.0970000476809,,response,,,100,,,,,,Space,keypress(Space),,,,,-- --- ---- --- ------ ----- ------- ---- -- --- ------- --<br>------- ---------- ------ -- ----- -- ----- -- ---- ------<br>--- ----- --- --- ------ -------- ----- --- ------ ----- --<br>----- ----- ---------- --- --- ------ ------ ---- -- ------<br>------- --- ------ state --- ---- ------- -- ---- --- --<br>------- ------,104310,104309.20000004768,103974.437,103981.89999997616,103991.103,104324.423,,46,state
screen,html.Screen,0_2_1_1_47,2021-11-26T13:27:13.262Z,,,,,,,,,,,,,,,,54,,,,,,,,,,,,,,336.4769999761629,,response,,,100,,,,,,Space,keypress(Space),,,,,-- --- ---- --- ------ ----- ------- ---- -- --- ------- --<br>------- ---------- ------ -- ----- -- ----- -- ---- ------<br>--- ----- --- --- ------ -------- ----- --- ------ ----- --<br>----- ----- ---------- --- --- ------ ------ ---- -- ------<br>------- --- ------ ----- was ---- ------- -- ---- --- --<br>------- ------,104661.70000004768,104660.89999997616,104307.757,104310.30000007153,104324.423,104674.409,,47,was
screen,html.Screen,0_2_1_1_48,2021-11-26T13:27:13.614Z,,,,,,,,,,,,,,,,54,,,,,,,,,,,,,,338.3910000715259,,response,,,100,,,,,,Space,keypress(Space),,,,,-- --- ---- --- ------ ----- ------- ---- -- --- ------- --<br>------- ---------- ------ -- ----- -- ----- -- ---- ------<br>--- ----- --- --- ------ -------- ----- --- ------ ----- --<br>----- ----- ---------- --- --- ------ ------ ---- -- ------<br>------- --- ------ ----- --- left ------- -- ---- --- --<br>------- ------,105013.70000004768,105012.80000007153,104657.743,104661.89999997616,104674.409,105024.395,,48,left
screen,html.Screen,0_2_1_1_49,2021-11-26T13:27:13.934Z,,,,,,,,,,,,,,,,54,,,,,,,,,,,,,,308.4050000715215,,response,,,100,,,,,,Space,keypress(Space),,,,,-- --- ---- --- ------ ----- ------- ---- -- --- ------- --<br>------- ---------- ------ -- ----- -- ----- -- ---- ------<br>--- ----- --- --- ------ -------- ----- --- ------ ----- --<br>----- ----- ---------- --- --- ------ ------ ---- -- ------<br>------- --- ------ ----- --- ---- without -- ---- --- --<br>------- ------,105333.60000002384,105332.80000007153,105007.729,105013.89999997616,105024.395,105341.049,,49,without
screen,html.Screen,0_2_1_1_50,2021-11-26T13:27:14.254Z,,,,,,,,,,,,,,,,54,,,,,,,,,,,,,,311.7510000715265,,response,,,100,,,,,,Space,keypress(Space),,,,,-- --- ---- --- ------ ----- ------- ---- -- --- ------- --<br>------- ---------- ------ -- ----- -- ----- -- ---- ------<br>--- ----- --- --- ------ -------- ----- --- ------ ----- --<br>----- ----- ---------- --- --- ------ ------ ---- -- ------<br>------- --- ------ ----- --- ---- ------- an ---- --- --<br>------- ------,105653.60000002384,105652.80000007153,105324.383,105333.80000007153,105341.049,105657.703,,50,an
screen,html.Screen,0_2_1_1_51,2021-11-26T13:27:14.542Z,,,,,,,,,,,,,,,,54,,,,,,,,,,,,,,283.0970000715315,,response,,,100,,,,,,Space,keypress(Space),,,,,-- --- ---- --- ------ ----- ------- ---- -- --- ------- --<br>------- ---------- ------ -- ----- -- ----- -- ---- ------<br>--- ----- --- --- ------ -------- ----- --- ------ ----- --<br>----- ----- ---------- --- --- ------ ------ ---- -- ------<br>------- --- ------ ----- --- ---- ------- -- easy --- --<br>------- ------,105941.60000002384,105940.80000007153,105641.037,105653.80000007153,105657.703,105957.691,,51,easy
screen,html.Screen,0_2_1_1_52,2021-11-26T13:27:14.886Z,,,,,,,,,,,,,,,,54,,,,,,,,,,,,,,327.00900004767755,,response,,,100,,,,,,Space,keypress(Space),,,,,-- --- ---- --- ------ ----- ------- ---- -- --- ------- --<br>------- ---------- ------ -- ----- -- ----- -- ---- ------<br>--- ----- --- --- ------ -------- ----- --- ------ ----- --<br>----- ----- ---------- --- --- ------ ------ ---- -- ------<br>------- --- ------ ----- --- ---- ------- -- ---- way --<br>------- ------,106285.5,106284.70000004768,105941.025,105941.80000007153,105957.691,106291.011,,52,way
screen,html.Screen,0_2_1_1_53,2021-11-26T13:27:15.350Z,,,,,,,,,,,,,,,,54,,,,,,,,,,,,,,457.6890000476851,,response,,,100,,,,,,Space,keypress(Space),,,,,-- --- ---- --- ------ ----- ------- ---- -- --- ------- --<br>------- ---------- ------ -- ----- -- ----- -- ---- ------<br>--- ----- --- --- ------ -------- ----- --- ------ ----- --<br>----- ----- ---------- --- --- ------ ------ ---- -- ------<br>------- --- ------ ----- --- ---- ------- -- ---- --- of<br>------- ------,106749.5,106748.70000004768,106274.345,106285.80000007153,106291.011,106757.659,,53,of
screen,html.Screen,0_2_1_1_54,2021-11-26T13:27:15.758Z,,,,,,,,,,,,,,,,54,,,,,,,,,,,,,,399.04100004768407,,response,,,100,,,,,,Space,keypress(Space),,,,,-- --- ---- --- ------ ----- ------- ---- -- --- ------- --<br>------- ---------- ------ -- ----- -- ----- -- ---- ------<br>--- ----- --- --- ------ -------- ----- --- ------ ----- --<br>----- ----- ---------- --- --- ------ ------ ---- -- ------<br>------- --- ------ ----- --- ---- ------- -- ---- --- --<br>raising ------,107157.39999997616,107156.70000004768,106740.993,106749.80000007153,106757.659,107174.309,,54,raising
screen,html.Screen,0_2_1_1_55,2021-11-26T13:27:16.926Z,,,,,,,,,,,,,,,,54,,,,,,,,,,,,,,1150.291000023848,,response,,,100,,,,,,Space,keypress(Space),,,,,-- --- ---- --- ------ ----- ------- ---- -- --- ------- --<br>------- ---------- ------ -- ----- -- ----- -- ---- ------<br>--- ----- --- --- ------ -------- ----- --- ------ ----- --<br>----- ----- ---------- --- --- ------ ------ ---- -- ------<br>------- --- ------ ----- --- ---- ------- -- ---- --- --<br>------- money.,108325.39999997616,108324.60000002384,107157.643,107157.80000007153,107174.309,108340.929,,55,money.
Item 100,flow.Loop,0_2_1_1,2021-11-26T13:27:16.926Z,,,,,,,,,,,,,,,,,,,,,,,,,,,,,,28115.879000023837,,completion,,,,F,,,,,,,,,,silence,,108325.80000007153,108324.60000002384,80192.055,80193.5,80208.721,108340.929,,,
Question 1,html.Screen,0_2_1_2,2021-11-26T13:27:20.106Z,,,,,,,,,,,,,,,,,,,,,,,,,,,true,TRUE,,3163.371000071522,,response,,,100,F,,,,,TRUE,click #choice-1,,,,silence,,111505.5,111504.30000007153,108324.263,108326,108340.929,111507.469,,,
Question 2,html.Screen,0_2_1_3,2021-11-26T13:27:22.194Z,,,,,,,,,,,,,,,,,,,,,,,,,,,true,FALSE,,2085.3310000715283,,response,,,100,F,,,,,FALSE,click #choice-2,,,,silence,,113593.70000004768,113592.80000007153,111490.803,111505.70000004768,111507.469,113607.385,,,
Item 100,flow.Sequence,0_2_1,2021-11-26T13:27:22.195Z,,,,,,,,,,,,,,,,,,,,,,,,,,,,,,43383.67900007153,,completion,,,,,,,,,,,,,,,,113594.10000002384,113592.80000007153,70192.455,70205,70209.121,113607.385,,,
End of Practice,html.Page,0_2_2,2021-11-26T13:27:26.571Z,,,,,,,,,,,,,,,,,,,,,,,,,,,,,,4362.215000023847,,form submission,,,,,,,,,,,,,,,,117970.30000007153,117969.60000002384,113590.719,113594.30000007153,113607.385,117973.877,,,
Practice,flow.Sequence,0_2,2021-11-26T13:27:26.572Z,,,,,,,,,,,,,,,,,,,,,,,,,,,,,,86075.61300002385,,completion,,,,,,,,,,,,,,,,117970.89999997616,117969.60000002384,31877.321,31863.399999976158,31893.987,117973.877,,,
Trap_instruction,html.Page,0_3_0,2021-11-26T13:27:30.438Z,,,,,,,,,,,,,,,,,,,,,,,,,,,,,,3859.4230000715324,,form submission,,,,,,,,,,,,,,,,121833.89999997616,121833.30000007153,117957.211,117971.20000004768,117973.877,121857.055,,,
trap_trial,html.Screen,0_3_1,2021-11-26T13:27:33.293Z,,,,,,,,,,,,,,,,,,,,,,,,,,,true,1,,2830.445000000007,,response,,,,,,,,,1,click #choice-1,,,,,,124688.80000007153,124687.5,121823.723,121834.30000007153,121857.055,124690.275,,,
end of trap trial,html.Page,0_3_2,2021-11-26T13:27:35.414Z,,,,,,,,,,,,,,,,,,,,,,,,,,,,,,2118.8250000238477,,form submission,,,,,,,,,,,,,,,,126809.70000004768,126809.10000002384,124673.609,124689,124690.275,126823.523,,,
Trap 1,flow.Sequence,0_3,2021-11-26T13:27:35.414Z,,,,,,,,,,,,,,,,,,,,,,,,,,,,,,8835.223000023849,,completion,,,,,,,,,,,,,,,,126809.89999997616,126809.10000002384,117957.211,117971.10000002384,117973.877,126823.523,,,
Standby,html.Page,0_4_0,2021-11-26T13:27:43.412Z,,,,,,,,,,,,,,,,,,,,,,,,,,,,,,7999.680000000008,,timeout,,,,,,,,,,,,,,,,134807.70000004768,134806.537,126806.857,126810.20000004768,126823.523,134823.203,,,
Holding screen,html.Screen,0_4_1_0_0,2021-11-26T13:27:50.412Z,,,,,,,,,,,,,,,,,,,,,,,,,,,,,,6999.720000000001,,timeout,,,,,,,,,,,,,,,,141808.20000004768,141806.257,134806.537,134808.20000004768,134823.203,141822.923,,,
screen,html.Screen,0_4_1_0_1_0,2021-11-26T13:27:52.472Z,,,,,,,,,,,,,,,,48,,,,,,,,,,,,,,2043.8770000715158,,response,,,10,F,,,,,Space,keypress(Space),,,,instrumental,As -- --- ------ ------- --------- ----------- --------<br>--------- -------- --- ------- -- ------- ---- -- ------<br>-- --- -------- -------- ---------- ---- ---- ---- ------<br>-- --------- -- ---- -- --- -- --- ------- -- - -----<br>---------- -- -- -- ---- ----- -- ------ -- --- ------<br>-------,143867.89999997616,143866.80000007153,141806.257,141808.70000004768,141822.923,143872.841,,0,As
screen,html.Screen,0_4_1_0_1_1,2021-11-26T13:27:52.911Z,,,,,,,,,,,,,,,,48,,,,,,,,,,,,,,433.4590000715398,,response,,,10,F,,,,,Space,keypress(Space),,,,instrumental,-- in --- ------ ------- --------- ----------- --------<br>--------- -------- --- ------- -- ------- ---- -- ------<br>-- --- -------- -------- ---------- ---- ---- ---- ------<br>-- --------- -- ---- -- --- -- --- ------- -- - -----<br>---------- -- -- -- ---- ----- -- ------ -- --- ------<br>-------,144307.20000004768,144306.30000007153,143856.175,143868.20000004768,143872.841,144322.823,,1,in
screen,html.Screen,0_4_1_0_1_2,2021-11-26T13:27:53.383Z,,,,,,,,,,,,,,,,48,,,,,,,,,,,,,,455.5769999761542,,response,,,10,F,,,,,Space,keypress(Space),,,,instrumental,-- -- the ------ ------- --------- ----------- --------<br>--------- -------- --- ------- -- ------- ---- -- ------<br>-- --- -------- -------- ---------- ---- ---- ---- ------<br>-- --------- -- ---- -- --- -- --- ------- -- - -----<br>---------- -- -- -- ---- ----- -- ------ -- --- ------<br>-------,144779.10000002384,144778.39999997616,144306.157,144307.39999997616,144322.823,144789.471,,2,the
screen,html.Screen,0_4_1_0_1_3,2021-11-26T13:27:53.903Z,,,,,,,,,,,,,,,,48,,,,,,,,,,,,,,508.8290000715351,,response,,,10,F,,,,,Space,keypress(Space),,,,instrumental,-- -- --- United ------- --------- ----------- --------<br>--------- -------- --- ------- -- ------- ---- -- ------<br>-- --- -------- -------- ---------- ---- ---- ---- ------<br>-- --------- -- ---- -- --- -- --- ------- -- - -----<br>---------- -- -- -- ---- ----- -- ------ -- --- ------<br>-------,145299.10000002384,145298.30000007153,144772.805,144779.39999997616,144789.471,145306.117,,3,United
screen,html.Screen,0_4_1_0_1_4,2021-11-26T13:27:54.927Z,,,,,,,,,,,,,,,,48,,,,,,,,,,,,,,1015.9830000238435,,response,,,10,F,,,,,Space,keypress(Space),,,,instrumental,"-- -- --- ------ States, --------- ----------- --------<br>--------- -------- --- ------- -- ------- ---- -- ------<br>-- --- -------- -------- ---------- ---- ---- ---- ------<br>-- --------- -- ---- -- --- -- --- ------- -- - -----<br>---------- -- -- -- ---- ----- -- ------ -- --- ------<br>-------",146322.89999997616,146322.10000002384,145289.451,145299.39999997616,145306.117,146339.409,,4,"States,"
screen,html.Screen,0_4_1_0_1_5,2021-11-26T13:27:55.375Z,,,,,,,,,,,,,,,,48,,,,,,,,,,,,,,430.7910000476695,,response,,,10,F,,,,,Space,keypress(Space),,,,instrumental,-- -- --- ------ ------- Colombian ----------- --------<br>--------- -------- --- ------- -- ------- ---- -- ------<br>-- --- -------- -------- ---------- ---- ---- ---- ------<br>-- --------- -- ---- -- --- -- --- ------- -- - -----<br>---------- -- -- -- ---- ----- -- ------ -- --- ------<br>-------,146771.10000002384,146770.20000004768,146322.743,146323.10000002384,146339.409,146772.725,,5,Colombian
screen,html.Screen,0_4_1_0_1_6,2021-11-26T13:27:55.967Z,,,,,,,,,,,,,,,,48,,,,,,,,,,,,,,589.375000023836,,response,,,10,F,,,,,Space,keypress(Space),,,,instrumental,-- -- --- ------ ------- --------- legislation --------<br>--------- -------- --- ------- -- ------- ---- -- ------<br>-- --- -------- -------- ---------- ---- ---- ---- ------<br>-- --------- -- ---- -- --- -- --- ------- -- - -----<br>---------- -- -- -- ---- ----- -- ------ -- --- ------<br>-------,147363,147362.10000002384,146756.059,146771.39999997616,146772.725,147372.701,,6,legislation
screen,html.Screen,0_4_1_0_1_7,2021-11-26T13:27:56.527Z,,,,,,,,,,,,,,,,48,,,,,,,,,,,,,,549.3990000238409,,response,,,10,F,,,,,Space,keypress(Space),,,,instrumental,-- -- --- ------ ------- --------- ----------- requires<br>--------- -------- --- ------- -- ------- ---- -- ------<br>-- --- -------- -------- ---------- ---- ---- ---- ------<br>-- --------- -- ---- -- --- -- --- ------- -- - -----<br>---------- -- -- -- ---- ----- -- ------ -- --- ------<br>-------,147922.89999997616,147922.10000002384,147356.035,147363.30000007153,147372.701,147939.345,,7,requires
screen,html.Screen,0_4_1_0_1_8,2021-11-26T13:27:57.167Z,,,,,,,,,,,,,,,,48,,,,,,,,,,,,,,622.8550000476826,,response,,,10,F,,,,,Space,keypress(Space),,,,instrumental,-- -- --- ------ ------- --------- ----------- --------<br>travelers -------- --- ------- -- ------- ---- -- ------<br>-- --- -------- -------- ---------- ---- ---- ---- ------<br>-- --------- -- ---- -- --- -- --- ------- -- - -----<br>---------- -- -- -- ---- ----- -- ------ -- --- ------<br>-------,148562.89999997616,148562.20000004768,147922.679,147923.20000004768,147939.345,148572.653,,8,travelers
screen,html.Screen,0_4_1_0_1_9,2021-11-26T13:27:57.719Z,,,,,,,,,,,,,,,,48,,,,,,,,,,,,,,541.4470000238507,,response,,,10,F,,,,,Space,keypress(Space),,,,instrumental,-- -- --- ------ ------- --------- ----------- --------<br>--------- entering --- ------- -- ------- ---- -- ------<br>-- --- -------- -------- ---------- ---- ---- ---- ------<br>-- --------- -- ---- -- --- -- --- ------- -- - -----<br>---------- -- -- -- ---- ----- -- ------ -- --- ------<br>-------,149114.80000007153,149114.10000002384,148555.987,148563.20000004768,148572.653,149122.631,,9,entering
screen,html.Screen,0_4_1_0_1_10,2021-11-26T13:27:58.119Z,,,,,,,,,,,,,,,,48,,,,,,,,,,,,,,391.4690000238479,,response,,,10,F,,,,,Space,keypress(Space),,,,instrumental,-- -- --- ------ ------- --------- ----------- --------<br>--------- -------- the ------- -- ------- ---- -- ------<br>-- --- -------- -------- ---------- ---- ---- ---- ------<br>-- --------- -- ---- -- --- -- --- ------- -- - -----<br>---------- -- -- -- ---- ----- -- ------ -- --- ------<br>-------,149514.80000007153,149514.10000002384,149105.965,149115.10000002384,149122.631,149522.615,,10,the
screen,html.Screen,0_4_1_0_1_11,2021-11-26T13:27:58.567Z,,,,,,,,,,,,,,,,48,,,,,,,,,,,,,,439.3850000000093,,response,,,10,F,,,,,Space,keypress(Space),,,,instrumental,-- -- --- ------ ------- --------- ----------- --------<br>--------- -------- --- country -- ------- ---- -- ------<br>-- --- -------- -------- ---------- ---- ---- ---- ------<br>-- --------- -- ---- -- --- -- --- ------- -- - -----<br>---------- -- -- -- ---- ----- -- ------ -- --- ------<br>-------,149962.89999997616,149962,149505.949,149515.10000002384,149522.615,149972.597,,11,country
screen,html.Screen,0_4_1_0_1_12,2021-11-26T13:27:59.055Z,,,,,,,,,,,,,,,,48,,,,,,,,,,,,,,477.40299999999115,,response,,,10,F,,,,,Space,keypress(Space),,,,instrumental,-- -- --- ------ ------- --------- ----------- --------<br>--------- -------- --- ------- to ------- ---- -- ------<br>-- --- -------- -------- ---------- ---- ---- ---- ------<br>-- --------- -- ---- -- --- -- --- ------- -- - -----<br>---------- -- -- -- ---- ----- -- ------ -- --- ------<br>-------,150450.80000007153,150450,149955.931,149963.10000002384,149972.597,150455.911,,12,to
screen,html.Screen,0_4_1_0_1_13,2021-11-26T13:27:59.847Z,,,,,,,,,,,,,,,,48,,,,,,,,,,,,,,786.0890000000072,,response,,,10,F,,,,,Space,keypress(Space),,,,instrumental,-- -- --- ------ ------- --------- ----------- --------<br>--------- -------- --- ------- -- declare ---- -- ------<br>-- --- -------- -------- ---------- ---- ---- ---- ------<br>-- --------- -- ---- -- --- -- --- ------- -- - -----<br>---------- -- -- -- ---- ----- -- ------ -- --- ------<br>-------,151242.70000004768,151242,150439.245,150451,150455.911,151255.879,,13,declare
screen,html.Screen,0_4_1_0_1_14,2021-11-26T13:28:00.455Z,,,,,,,,,,,,,,,,48,,,,,,,,,,,,,,594.0209999761719,,response,,,10,F,,,,,Space,keypress(Space),,,,instrumental,-- -- --- ------ ------- --------- ----------- --------<br>--------- -------- --- ------- -- ------- cash -- ------<br>-- --- -------- -------- ---------- ---- ---- ---- ------<br>-- --------- -- ---- -- --- -- --- ------- -- - -----<br>---------- -- -- -- ---- ----- -- ------ -- --- ------<br>-------,151850.70000004768,151849.89999997616,151239.213,151243,151255.879,151855.855,,14,cash
screen,html.Screen,0_4_1_0_1_15,2021-11-26T13:28:00.831Z,,,,,,,,,,,,,,,,48,,,,,,,,,,,,,,370.04499997614766,,response,,,10,F,,,,,Space,keypress(Space),,,,instrumental,-- -- --- ------ ------- --------- ----------- --------<br>--------- -------- --- ------- -- ------- ---- in ------<br>-- --- -------- -------- ---------- ---- ---- ---- ------<br>-- --------- -- ---- -- --- -- --- ------- -- - -----<br>---------- -- -- -- ---- ----- -- ------ -- --- ------<br>-------,152226.60000002384,152225.89999997616,151839.189,151850.89999997616,151855.855,152239.173,,15,in
screen,html.Screen,0_4_1_0_1_16,2021-11-26T13:28:01.455Z,,,,,,,,,,,,,,,,48,,,,,,,,,,,,,,610.7269999761484,,response,,,10,F,,,,,Space,keypress(Space),,,,instrumental,-- -- --- ------ ------- --------- ----------- --------<br>--------- -------- --- ------- -- ------- ---- -- excess<br>-- --- -------- -------- ---------- ---- ---- ---- ------<br>-- --------- -- ---- -- --- -- --- ------- -- - -----<br>---------- -- -- -- ---- ----- -- ------ -- --- ------<br>-------,152850.60000002384,152849.89999997616,152222.507,152226.89999997616,152239.173,152855.815,,16,excess
screen,html.Screen,0_4_1_0_1_17,2021-11-26T13:28:01.951Z,,,,,,,,,,,,,,,,48,,,,,,,,,,,,,,489.98500007152325,,response,,,10,F,,,,,Space,keypress(Space),,,,instrumental,-- -- --- ------ ------- --------- ----------- --------<br>--------- -------- --- ------- -- ------- ---- -- ------<br>of --- -------- -------- ---------- ---- ---- ---- ------<br>-- --------- -- ---- -- --- -- --- ------- -- - -----<br>---------- -- -- -- ---- ----- -- ------ -- --- ------<br>-------,153346.60000002384,153345.80000007153,152839.149,152850.89999997616,152855.815,153355.795,,17,of
screen,html.Screen,0_4_1_0_1_18,2021-11-26T13:28:02.391Z,,,,,,,,,,,,,,,,48,,,,,,,,,,,,,,429.9050000476709,,response,,,10,F,,,,,Space,keypress(Space),,,,instrumental,-- -- --- ------ ------- --------- ----------- --------<br>--------- -------- --- ------- -- ------- ---- -- ------<br>-- ten -------- -------- ---------- ---- ---- ---- ------<br>-- --------- -- ---- -- --- -- --- ------- -- - -----<br>---------- -- -- -- ---- ----- -- ------ -- --- ------<br>-------,153786.60000002384,153785.70000004768,153339.129,153346.80000007153,153355.795,153789.111,,18,ten
screen,html.Screen,0_4_1_0_1_19,2021-11-26T13:28:02.823Z,,,,,,,,,,,,,,,,48,,,,,,,,,,,,,,428.98900002383743,,response,,,10,F,,,,,Space,keypress(Space),,,,instrumental,-- -- --- ------ ------- --------- ----------- --------<br>--------- -------- --- ------- -- ------- ---- -- ------<br>-- --- thousand -------- ---------- ---- ---- ---- ------<br>-- --------- -- ---- -- --- -- --- ------- -- - -----<br>---------- -- -- -- ---- ----- -- ------ -- --- ------<br>-------,154219.10000002384,154218.10000002384,153772.445,153786.80000007153,153789.111,154222.427,,19,thousand
screen,html.Screen,0_4_1_0_1_20,2021-11-26T13:28:03.414Z,,,,,,,,,,,,,,,,48,,,,,,,,,,,,,,587.2730000476877,,response,,,10,F,,,,,Space,keypress(Space),,,,instrumental,-- -- --- ------ ------- --------- ----------- --------<br>--------- -------- --- ------- -- ------- ---- -- ------<br>-- --- -------- dollars. ---------- ---- ---- ---- ------<br>-- --------- -- ---- -- --- -- --- ------- -- - -----<br>---------- -- -- -- ---- ----- -- ------ -- --- ------<br>-------,154810.5,154809.70000004768,154205.761,154219.30000007153,154222.427,154822.403,,20,dollars.
screen,html.Screen,0_4_1_0_1_21,2021-11-26T13:28:03.878Z,,,,,,,,,,,,,,,,48,,,,,,,,,,,,,,451.29700004769256,,response,,,10,F,,,,,Space,keypress(Space),,,,instrumental,-- -- --- ------ ------- --------- ----------- --------<br>--------- -------- --- ------- -- ------- ---- -- ------<br>-- --- -------- -------- Concealing ---- ---- ---- ------<br>-- --------- -- ---- -- --- -- --- ------- -- - -----<br>---------- -- -- -- ---- ----- -- ------ -- --- ------<br>-------,155274.5,155273.70000004768,154805.737,154810.70000004768,154822.403,155289.051,,21,Concealing
screen,html.Screen,0_4_1_0_1_22,2021-11-26T13:28:04.366Z,,,,,,,,,,,,,,,,48,,,,,,,,,,,,,,472.5490000238351,,response,,,10,F,,,,,Space,keypress(Space),,,,instrumental,-- -- --- ------ ------- --------- ----------- --------<br>--------- -------- --- ------- -- ------- ---- -- ------<br>-- --- -------- -------- ---------- more ---- ---- ------<br>-- --------- -- ---- -- --- -- --- ------- -- - -----<br>---------- -- -- -- ---- ----- -- ------ -- --- ------<br>-------,155762.5,155761.60000002384,155272.385,155274.70000004768,155289.051,155772.365,,22,more
screen,html.Screen,0_4_1_0_1_23,2021-11-26T13:28:04.734Z,,,,,,,,,,,,,,,,48,,,,,,,,,,,,,,357.23500002385117,,response,,,10,F,,,,,Space,keypress(Space),,,,instrumental,-- -- --- ------ ------- --------- ----------- --------<br>--------- -------- --- ------- -- ------- ---- -- ------<br>-- --- -------- -------- ---------- ---- than ---- ------<br>-- --------- -- ---- -- --- -- --- ------- -- - -----<br>---------- -- -- -- ---- ----- -- ------ -- --- ------<br>-------,156130.39999997616,156129.60000002384,155755.699,155762.70000004768,155772.365,156139.017,,23,than
screen,html.Screen,0_4_1_0_1_24,2021-11-26T13:28:05.086Z,,,,,,,,,,,,,,,,48,,,,,,,,,,,,,,342.5830000238493,,response,,,10,F,,,,,Space,keypress(Space),,,,instrumental,-- -- --- ------ ------- --------- ----------- --------<br>--------- -------- --- ------- -- ------- ---- -- ------<br>-- --- -------- -------- ---------- ---- ---- that ------<br>-- --------- -- ---- -- --- -- --- ------- -- - -----<br>---------- -- -- -- ---- ----- -- ------ -- --- ------<br>-------,156482.39999997616,156481.60000002384,156122.351,156130.60000002384,156139.017,156489.003,,24,that
screen,html.Screen,0_4_1_0_1_25,2021-11-26T13:28:05.582Z,,,,,,,,,,,,,,,,48,,,,,,,,,,,,,,488.497000000003,,response,,,10,F,,,,,Space,keypress(Space),,,,instrumental,-- -- --- ------ ------- --------- ----------- --------<br>--------- -------- --- ------- -- ------- ---- -- ------<br>-- --- -------- -------- ---------- ---- ---- ---- amount<br>-- --------- -- ---- -- --- -- --- ------- -- - -----<br>---------- -- -- -- ---- ----- -- ------ -- --- ------<br>-------,156978.39999997616,156977.5,156472.337,156482.60000002384,156489.003,156988.983,,25,amount
screen,html.Screen,0_4_1_0_1_26,2021-11-26T13:28:05.982Z,,,,,,,,,,,,,,,,48,,,,,,,,,,,,,,388.6170000238344,,response,,,10,F,,,,,Space,keypress(Space),,,,instrumental,-- -- --- ------ ------- --------- ----------- --------<br>--------- -------- --- ------- -- ------- ---- -- ------<br>-- --- -------- -------- ---------- ---- ---- ---- ------<br>to --------- -- ---- -- --- -- --- ------- -- - -----<br>---------- -- -- -- ---- ----- -- ------ -- --- ------<br>-------,157378.30000007153,157377.60000002384,156972.317,156978.60000002384,156988.983,157388.967,,26,to
screen,html.Screen,0_4_1_0_1_27,2021-11-26T13:28:06.486Z,,,,,,,,,,,,,,,,48,,,,,,,,,,,,,,492.5329999999958,,response,,,10,F,,,,,Space,keypress(Space),,,,instrumental,-- -- --- ------ ------- --------- ----------- --------<br>--------- -------- --- ------- -- ------- ---- -- ------<br>-- --- -------- -------- ---------- ---- ---- ---- ------<br>-- transport -- ---- -- --- -- --- ------- -- - -----<br>---------- -- -- -- ---- ----- -- ------ -- --- ------<br>-------,157882.30000007153,157881.5,157372.301,157378.60000002384,157388.967,157888.947,,27,transport
screen,html.Screen,0_4_1_0_1_28,2021-11-26T13:28:06.862Z,,,,,,,,,,,,,,,,48,,,,,,,,,,,,,,368.55300000001444,,response,,,10,F,,,,,Space,keypress(Space),,,,instrumental,-- -- --- ------ ------- --------- ----------- --------<br>--------- -------- --- ------- -- ------- ---- -- ------<br>-- --- -------- -------- ---------- ---- ---- ---- ------<br>-- --------- it ---- -- --- -- --- ------- -- - -----<br>---------- -- -- -- ---- ----- -- ------ -- --- ------<br>-------,158258.30000007153,158257.5,157872.281,157882.5,157888.947,158272.265,,28,it
screen,html.Screen,0_4_1_0_1_29,2021-11-26T13:28:07.302Z,,,,,,,,,,,,,,,,48,,,,,,,,,,,,,,425.1349999761442,,response,,,10,F,,,,,Space,keypress(Space),,,,instrumental,-- -- --- ------ ------- --------- ----------- --------<br>--------- -------- --- ------- -- ------- ---- -- ------<br>-- --- -------- -------- ---------- ---- ---- ---- ------<br>-- --------- -- into -- --- -- --- ------- -- - -----<br>---------- -- -- -- ---- ----- -- ------ -- --- ------<br>-------,158698.20000004768,158697.39999997616,158255.599,158258.60000002384,158272.265,158705.581,,29,into
screen,html.Screen,0_4_1_0_1_30,2021-11-26T13:28:07.630Z,,,,,,,,,,,,,,,,48,,,,,,,,,,,,,,319.81899997615255,,response,,,10,F,,,,,Space,keypress(Space),,,,instrumental,-- -- --- ------ ------- --------- ----------- --------<br>--------- -------- --- ------- -- ------- ---- -- ------<br>-- --- -------- -------- ---------- ---- ---- ---- ------<br>-- --------- -- ---- or --- -- --- ------- -- - -----<br>---------- -- -- -- ---- ----- -- ------ -- --- ------<br>-------,159026.20000004768,159025.39999997616,158688.915,158698.5,158705.581,159038.901,,30,or
screen,html.Screen,0_4_1_0_1_31,2021-11-26T13:28:07.990Z,,,,,,,,,,,,,,,,48,,,,,,,,,,,,,,346.49899997614557,,response,,,10,F,,,,,Space,keypress(Space),,,,instrumental,-- -- --- ------ ------- --------- ----------- --------<br>--------- -------- --- ------- -- ------- ---- -- ------<br>-- --- -------- -------- ---------- ---- ---- ---- ------<br>-- --------- -- ---- -- out -- --- ------- -- - -----<br>---------- -- -- -- ---- ----- -- ------ -- --- ------<br>-------,159386.20000004768,159385.39999997616,159022.235,159026.39999997616,159038.901,159388.887,,31,out
screen,html.Screen,0_4_1_0_1_32,2021-11-26T13:28:08.366Z,,,,,,,,,,,,,,,,48,,,,,,,,,,,,,,372.51299997617025,,response,,,10,F,,,,,Space,keypress(Space),,,,instrumental,-- -- --- ------ ------- --------- ----------- --------<br>--------- -------- --- ------- -- ------- ---- -- ------<br>-- --- -------- -------- ---------- ---- ---- ---- ------<br>-- --------- -- ---- -- --- of --- ------- -- - -----<br>---------- -- -- -- ---- ----- -- ------ -- --- ------<br>-------,159762.20000004768,159761.39999997616,159372.221,159386.39999997616,159388.887,159772.205,,32,of
screen,html.Screen,0_4_1_0_1_33,2021-11-26T13:28:08.726Z,,,,,,,,,,,,,,,,48,,,,,,,,,,,,,,349.0950000715384,,response,,,10,F,,,,,Space,keypress(Space),,,,instrumental,-- -- --- ------ ------- --------- ----------- --------<br>--------- -------- --- ------- -- ------- ---- -- ------<br>-- --- -------- -------- ---------- ---- ---- ---- ------<br>-- --------- -- ---- -- --- -- the ------- -- - -----<br>---------- -- -- -- ---- ----- -- ------ -- --- ------<br>-------,160122.10000002384,160121.30000007153,159755.539,159762.39999997616,159772.205,160138.857,,33,the
screen,html.Screen,0_4_1_0_1_34,2021-11-26T13:28:09.030Z,,,,,,,,,,,,,,,,48,,,,,,,,,,,,,,286.5429999761691,,response,,,10,F,,,,,Space,keypress(Space),,,,instrumental,-- -- --- ------ ------- --------- ----------- --------<br>--------- -------- --- ------- -- ------- ---- -- ------<br>-- --- -------- -------- ---------- ---- ---- ---- ------<br>-- --------- -- ---- -- --- -- --- country -- - -----<br>---------- -- -- -- ---- ----- -- ------ -- --- ------<br>-------,160426.10000002384,160425.39999997616,160122.191,160122.39999997616,160138.857,160438.845,,34,country
screen,html.Screen,0_4_1_0_1_35,2021-11-26T13:28:09.382Z,,,,,,,,,,,,,,,,48,,,,,,,,,,,,,,338.554999976157,,response,,,10,F,,,,,Space,keypress(Space),,,,instrumental,-- -- --- ------ ------- --------- ----------- --------<br>--------- -------- --- ------- -- ------- ---- -- ------<br>-- --- -------- -------- ---------- ---- ---- ---- ------<br>-- --------- -- ---- -- --- -- --- ------- is - -----<br>---------- -- -- -- ---- ----- -- ------ -- --- ------<br>-------,160778.10000002384,160777.39999997616,160422.179,160426.30000007153,160438.845,160788.831,,35,is
screen,html.Screen,0_4_1_0_1_36,2021-11-26T13:28:09.694Z,,,,,,,,,,,,,,,,48,,,,,,,,,,,,,,300.46900007152,,response,,,10,F,,,,,Space,keypress(Space),,,,instrumental,-- -- --- ------ ------- --------- ----------- --------<br>--------- -------- --- ------- -- ------- ---- -- ------<br>-- --- -------- -------- ---------- ---- ---- ---- ------<br>-- --------- -- ---- -- --- -- --- ------- -- a -----<br>---------- -- -- -- ---- ----- -- ------ -- --- ------<br>-------,161090.20000004768,161089.30000007153,160772.165,160778.39999997616,160788.831,161105.485,,36,a
screen,html.Screen,0_4_1_0_1_37,2021-11-26T13:28:10.190Z,,,,,,,,,,,,,,,,48,,,,,,,,,,,,,,479.81500007153954,,response,,,10,F,,,,,Space,keypress(Space),,,,instrumental,-- -- --- ------ ------- --------- ----------- --------<br>--------- -------- --- ------- -- ------- ---- -- ------<br>-- --- -------- -------- ---------- ---- ---- ---- ------<br>-- --------- -- ---- -- --- -- --- ------- -- - crime<br>---------- -- -- -- ---- ----- -- ------ -- --- ------<br>-------,161586.20000004768,161585.30000007153,161088.819,161090.5,161105.485,161588.799,,37,crime
screen,html.Screen,0_4_1_0_1_38,2021-11-26T13:28:10.590Z,,,,,,,,,,,,,,,,48,,,,,,,,,,,,,,396.5010000715265,,response,,,10,F,,,,,Space,keypress(Space),,,,instrumental,-- -- --- ------ ------- --------- ----------- --------<br>--------- -------- --- ------- -- ------- ---- -- ------<br>-- --- -------- -------- ---------- ---- ---- ---- ------<br>-- --------- -- ---- -- --- -- --- ------- -- - -----<br>punishable -- -- -- ---- ----- -- ------ -- --- ------<br>-------,161986,161985.30000007153,161572.133,161586.5,161588.799,161988.783,,38,punishable
screen,html.Screen,0_4_1_0_1_39,2021-11-26T13:28:10.942Z,,,,,,,,,,,,,,,,48,,,,,,,,,,,,,,348.31700002384605,,response,,,10,F,,,,,Space,keypress(Space),,,,instrumental,-- -- --- ------ ------- --------- ----------- --------<br>--------- -------- --- ------- -- ------- ---- -- ------<br>-- --- -------- -------- ---------- ---- ---- ---- ------<br>-- --------- -- ---- -- --- -- --- ------- -- - -----<br>---------- by -- -- ---- ----- -- ------ -- --- ------<br>-------,162338,162337.10000002384,161972.117,161986.30000007153,161988.783,162338.769,,39,by
screen,html.Screen,0_4_1_0_1_40,2021-11-26T13:28:11.310Z,,,,,,,,,,,,,,,,48,,,,,,,,,,,,,,366.4310000476835,,response,,,10,F,,,,,Space,keypress(Space),,,,instrumental,-- -- --- ------ ------- --------- ----------- --------<br>--------- -------- --- ------- -- ------- ---- -- ------<br>-- --- -------- -------- ---------- ---- ---- ---- ------<br>-- --------- -- ---- -- --- -- --- ------- -- - -----<br>---------- -- up -- ---- ----- -- ------ -- --- ------<br>-------,162706,162705.20000004768,162322.103,162338.10000002384,162338.769,162722.087,,40,up
screen,html.Screen,0_4_1_0_1_41,2021-11-26T13:28:11.654Z,,,,,,,,,,,,,,,,48,,,,,,,,,,,,,,327.1130000476842,,response,,,10,F,,,,,Space,keypress(Space),,,,instrumental,-- -- --- ------ ------- --------- ----------- --------<br>--------- -------- --- ------- -- ------- ---- -- ------<br>-- --- -------- -------- ---------- ---- ---- ---- ------<br>-- --------- -- ---- -- --- -- --- ------- -- - -----<br>---------- -- -- to ---- ----- -- ------ -- --- ------<br>-------,163050,163049.20000004768,162705.421,162706.20000004768,162722.087,163055.407,,41,to
screen,html.Screen,0_4_1_0_1_42,2021-11-26T13:28:11.974Z,,,,,,,,,,,,,,,,48,,,,,,,,,,,,,,313.7930000476772,,response,,,10,F,,,,,Space,keypress(Space),,,,instrumental,-- -- --- ------ ------- --------- ----------- --------<br>--------- -------- --- ------- -- ------- ---- -- ------<br>-- --- -------- -------- ---------- ---- ---- ---- ------<br>-- --------- -- ---- -- --- -- --- ------- -- - -----<br>---------- -- -- -- five ----- -- ------ -- --- ------<br>-------,163370,163369.20000004768,163038.741,163050.20000004768,163055.407,163372.061,,42,five
screen,html.Screen,0_4_1_0_1_43,2021-11-26T13:28:12.302Z,,,,,,,,,,,,,,,,48,,,,,,,,,,,,,,325.0390000238549,,response,,,10,F,,,,,Space,keypress(Space),,,,instrumental,-- -- --- ------ ------- --------- ----------- --------<br>--------- -------- --- ------- -- ------- ---- -- ------<br>-- --- -------- -------- ---------- ---- ---- ---- ------<br>-- --------- -- ---- -- --- -- --- ------- -- - -----<br>---------- -- -- -- ---- years -- ------ -- --- ------<br>-------,163697.89999997616,163697.10000002384,163355.395,163370.20000004768,163372.061,163705.381,,43,years
screen,html.Screen,0_4_1_0_1_44,2021-11-26T13:28:12.662Z,,,,,,,,,,,,,,,,48,,,,,,,,,,,,,,351.7190000238479,,response,,,10,F,,,,,Space,keypress(Space),,,,instrumental,-- -- --- ------ ------- --------- ----------- --------<br>--------- -------- --- ------- -- ------- ---- -- ------<br>-- --- -------- -------- ---------- ---- ---- ---- ------<br>-- --------- -- ---- -- --- -- --- ------- -- - -----<br>---------- -- -- -- ---- ----- in ------ -- --- ------<br>-------,164057.89999997616,164057.10000002384,163688.715,163698.10000002384,163705.381,164072.033,,44,in
screen,html.Screen,0_4_1_0_1_45,2021-11-26T13:28:12.974Z,,,,,,,,,,,,,,,,48,,,,,,,,,,,,,,297.4670000000042,,response,,,10,F,,,,,Space,keypress(Space),,,,instrumental,-- -- --- ------ ------- --------- ----------- --------<br>--------- -------- --- ------- -- ------- ---- -- ------<br>-- --- -------- -------- ---------- ---- ---- ---- ------<br>-- --------- -- ---- -- --- -- --- ------- -- - -----<br>---------- -- -- -- ---- ----- -- prison -- --- ------<br>-------,164370.20000004768,164369.5,164055.367,164058.20000004768,164072.033,164372.021,,45,prison
screen,html.Screen,0_4_1_0_1_46,2021-11-26T13:28:13.358Z,,,,,,,,,,,,,,,,48,,,,,,,,,,,,,,380.9789999999921,,response,,,10,F,,,,,Space,keypress(Space),,,,instrumental,-- -- --- ------ ------- --------- ----------- --------<br>--------- -------- --- ------- -- ------- ---- -- ------<br>-- --- -------- -------- ---------- ---- ---- ---- ------<br>-- --------- -- ---- -- --- -- --- ------- -- - -----<br>---------- -- -- -- ---- ----- -- ------ in --- ------<br>-------,164753.89999997616,164753,164355.355,164370.5,164372.021,164755.339,,46,in
screen,html.Screen,0_4_1_0_1_47,2021-11-26T13:28:13.710Z,,,,,,,,,,,,,,,,48,,,,,,,,,,,,,,349.6609999999928,,response,,,10,F,,,,,Space,keypress(Space),,,,instrumental,-- -- --- ------ ------- --------- ----------- --------<br>--------- -------- --- ------- -- ------- ---- -- ------<br>-- --- -------- -------- ---------- ---- ---- ---- ------<br>-- --------- -- ---- -- --- -- --- ------- -- - -----<br>---------- -- -- -- ---- ----- -- ------ -- the ------<br>-------,165105.80000007153,165105,164738.673,164754.10000002384,164755.339,165121.991,,47,the
screen,html.Screen,0_4_1_0_1_48,2021-11-26T13:28:14.182Z,,,,,,,,,,,,,,,,48,,,,,,,,,,,,,,455.1090000238328,,response,,,10,F,,,,,Space,keypress(Space),,,,instrumental,-- -- --- ------ ------- --------- ----------- --------<br>--------- -------- --- ------- -- ------- ---- -- ------<br>-- --- -------- -------- ---------- ---- ---- ---- ------<br>-- --------- -- ---- -- --- -- --- ------- -- - -----<br>---------- -- -- -- ---- ----- -- ------ -- --- United<br>-------,165577.80000007153,165577.10000002384,165105.325,165106.10000002384,165121.991,165588.639,,48,United
screen,html.Screen,0_4_1_0_1_49,2021-11-26T13:28:14.862Z,,,,,,,,,,,,,,,,48,,,,,,,,,,,,,,668.3610000000044,,response,,,10,F,,,,,Space,keypress(Space),,,,instrumental,-- -- --- ------ ------- --------- ----------- --------<br>--------- -------- --- ------- -- ------- ---- -- ------<br>-- --- -------- -------- ---------- ---- ---- ---- ------<br>-- --------- -- ---- -- --- -- --- ------- -- - -----<br>---------- -- -- -- ---- ----- -- ------ -- --- ------<br>States.,166257.70000004768,166257,165571.973,165578,165588.639,166271.945,,49,States.
Item 10,flow.Loop,0_4_1_0_1,2021-11-26T13:28:14.862Z,,,,,,,,,,,,,,,,,,,,,,,,,,,,,,24434.07699999999,,completion,,,,,,,,,,,,,,,,166258.20000004768,166257,141806.257,141808.60000002384,141822.923,166271.945,,,
Question 1,html.Screen,0_4_1_0_2,2021-11-26T13:28:19.634Z,,,,,,,,,,,,,,,,,,,,,,,,,,,true,TRUE,,4756.755000047677,,response,,,10,F,,,,,TRUE,click #choice-1,,,,instrumental,,171029.80000007153,171028.70000004768,166255.279,166258.30000007153,166271.945,171038.421,,,
Question 2,html.Screen,0_4_1_0_3,2021-11-26T13:28:25.601Z,,,,,,,,,,,,,,,,,,,,,,,,,,,true,TRUE,,5957.779000047682,,response,,,10,F,,,,,TRUE,click #choice-1,,,,instrumental,,176997.30000007153,176996.20000004768,171021.755,171030.10000002384,171038.421,177004.849,,,
Item 10,flow.Sequence,0_4_1_0,2021-11-26T13:28:25.602Z,,,,,,,,,,,,,,,,,,,,,,,,,,,,,,42172.997000047675,,completion,,,,,,,,,,,,,,,,176997.70000004768,176996.20000004768,134806.537,134808.10000002384,134823.203,177004.849,,,
Holding screen,html.Screen,0_4_1_1_0,2021-11-26T13:28:32.596Z,,,,,,,,,,,,,,,,,,,,,,,,,,,,,,6999.720000000001,,timeout,,,,,,,,,,,,,,,,183989,183987.903,176988.183,176998.10000002384,177004.849,184004.569,,,
screen,html.Screen,0_4_1_1_1_0,2021-11-26T13:28:33.679Z,,,,,,,,,,,,,,,,11,,,,,,,,,,,,,,1067.231000071537,,response,,,4,F,,,,,Space,keypress(Space),,,,instrumental,Known -- ---- --- -- --- -------- ------------ ---------- --<br>- ------- ------ --------- -- ------------ -- --- ---- -----<br>------ ---- ---- ------ ------ ------- --- ----- ---------<br>---- --- -------- -------- --- --- -- ------- --- --- -----<br>-- --- ------ ------- --- --- -------- ---- --------- --<br>---------- -- -------- ----------------,185072.70000004768,185071.80000007153,183987.903,183989.70000004768,184004.569,185087.859,,0,Known
screen,html.Screen,0_4_1_1_1_1,2021-11-26T13:28:34.031Z,,,,,,,,,,,,,,,,11,,,,,,,,,,,,,,335.94100007152883,,response,,,4,F,,,,,Space,keypress(Space),,,,instrumental,----- as ---- --- -- --- -------- ------------ ---------- --<br>- ------- ------ --------- -- ------------ -- --- ---- -----<br>------ ---- ---- ------ ------ ------- --- ----- ---------<br>---- --- -------- -------- --- --- -- ------- --- --- -----<br>-- --- ------ ------- --- --- -------- ---- --------- --<br>---------- -- -------- ----------------,185424.60000002384,185423.80000007153,185071.193,185073.10000002384,185087.859,185437.845,,1,as
screen,html.Screen,0_4_1_1_1_2,2021-11-26T13:28:34.535Z,,,,,,,,,,,,,,,,11,,,,,,,,,,,,,,489.85500004768255,,response,,,4,F,,,,,Space,keypress(Space),,,,instrumental,----- -- Rapa --- -- --- -------- ------------ ---------- --<br>- ------- ------ --------- -- ------------ -- --- ---- -----<br>------ ---- ---- ------ ------ ------- --- ----- ---------<br>---- --- -------- -------- --- --- -- ------- --- --- -----<br>-- --- ------ ------- --- --- -------- ---- --------- --<br>---------- -- -------- ----------------,185928.5,185927.70000004768,185421.179,185424.89999997616,185437.845,185937.825,,2,Rapa
