sender,sender_type,sender_id,timestamp,meta,,Blues,Classical,Country,Dance,Electronic,Folk,Gospel,Hip-Hop,Jazz,Latin,Musical/Film,New-age,Pop,Provo_ID,R&B,Rap,Reggae,Religious,Rock,Soul,Swing,Traditional,age,artist_name,correct,correctResponse,distraction,duration,education,ended_on,familiarity,gender,item,list,music_frequency,offensiveness,pleasantness,preference,response,response_action,snippet_file,song_name,song_rating,sound,text,time_commit,time_end,time_render,time_run,time_show,time_switch,url,word,word_ID
Instructions,html.Page,0_0,2021-11-04T12:35:21.653Z,"{""labjs_version"":""20.2.3"",""labjs_build"":{""flavor"":""production"",""commit"":""7ea907d66ca8aeef8054924ca5d82ffbe11e34e5""},""location"":""https://run.pavlovia.org/mvasilev/lab_music_a/"",""userAgent"":""Mozilla/5.0 (Windows NT 6.1; Win64; x64) AppleWebKit/537.36 (KHTML, like Gecko) Chrome/95.0.4638.69 Safari/537.36"",""platform"":""Win32"",""language"":""en-US"",""locale"":""en-US"",""timeZone"":""Europe/London"",""timezoneOffset"":0,""screen_width"":1920,""screen_height"":1080,""scroll_width"":1920,""scroll_height"":959,""window_innerWidth"":1920,""window_innerHeight"":1007,""devicePixelRatio"":1}",,,,,,,,,,,,,,,,,,,,,,,,,,,,,66843.863,,form submission,,,,,,,,,,,,,,,,81055.70000000112,81054.5,14193.967,14208.200000001118,14210.637,81061.065,{},,
Headphones,html.Page,0_1,2021-11-04T12:35:26.367Z,,,,,,,,,,,,,,,,,,,,,,,,,,,,,,4707.934999999998,,form submission,,,,,,,,,,,,,,,,85769.5,85769,81044.435,81056.5,81061.065,85780.469,,,
Holding screen,html.Screen,0_2_0_0,2021-11-04T12:35:36.370Z,,,,,,,,,,,,,,,,,,,,,,,,,,,,,,10085.953999999998,,timeout,,,,,,,,,,,,,,,,95773,95766.403,85763.799,85770.09999999963,85780.469,95866.423,,,
screen,html.Screen,0_2_0_1_0,2021-11-04T12:35:37.846Z,,,,,,,,,,,,,,,,53,,,,,,,,,,,,,,1380.8770000007498,,response,,,99,,,,,,Space,keypress(Space),,,,,When -- ----- -- ------ - ------- --- ----------<br>------------- ------ ------ ---- ---- ------- ----- -- ----<br>-------- ------- -- ---------- --- - --- ----- ----- ----<br>---- --- --- ----- --- ---- ---- ------- ----- ---- -------<br>--- --- -- ----- -- --- ---- -- --- ---- -- ------ ------<br>--- ----- -- ----,97248.70000000112,97247.30000000075,95766.403,95773.40000000037,95866.423,97250.36,,0,When
screen,html.Screen,0_2_0_1_1,2021-11-04T12:35:38.581Z,,,,,,,,,,,,,,,,53,,,,,,,,,,,,,,732.9400000007445,,response,,,99,,,,,,Space,keypress(Space),,,,,---- it ----- -- ------ - ------- --- ----------<br>------------- ------ ------ ---- ---- ------- ----- -- ----<br>-------- ------- -- ---------- --- - --- ----- ----- ----<br>---- --- --- ----- --- ---- ---- ------- ----- ---- -------<br>--- --- -- ----- -- --- ---- -- --- ---- -- ------ ------<br>--- ----- -- ----,97984.20000000112,97983.30000000075,97233.689,97249.09999999963,97250.36,98000.43,,1,it
screen,html.Screen,0_2_0_1_2,2021-11-04T12:35:39.405Z,,,,,,,,,,,,,,,,53,,,,,,,,,,,,,,806.7700000011246,,response,,,99,,,,,,Space,keypress(Space),,,,,---- -- comes -- ------ - ------- --- ----------<br>------------- ------ ------ ---- ---- ------- ----- -- ----<br>-------- ------- -- ---------- --- - --- ----- ----- ----<br>---- --- --- ----- --- ---- ---- ------- ----- ---- -------<br>--- --- -- ----- -- --- ---- -- --- ---- -- ------ ------<br>--- ----- -- ----,98808.09999999963,98807.20000000112,97983.76,97984.5,98000.43,98817.397,,2,comes
screen,html.Screen,0_2_0_1_3,2021-11-04T12:35:40.069Z,,,,,,,,,,,,,,,,53,,,,,,,,,,,,,,653.8030000011204,,response,,,99,,,,,,Space,keypress(Space),,,,,---- -- ----- to ------ - ------- --- ----------<br>------------- ------ ------ ---- ---- ------- ----- -- ----<br>-------- ------- -- ---------- --- - --- ----- ----- ----<br>---- --- --- ----- --- ---- ---- ------- ----- ---- -------<br>--- --- -- ----- -- --- ---- -- --- ---- -- ------ ------<br>--- ----- -- ----,99472.20000000112,99471.20000000112,98800.726,98808.40000000037,98817.397,99484.243,,3,to
screen,html.Screen,0_2_0_1_4,2021-11-04T12:35:40.845Z,,,,,,,,,,,,,,,,53,,,,,,,,,,,,,,762.9570000011154,,response,,,99,,,,,,Space,keypress(Space),,,,,---- -- ----- -- having - ------- --- ----------<br>------------- ------ ------ ---- ---- ------- ----- -- ----<br>-------- ------- -- ---------- --- - --- ----- ----- ----<br>---- --- --- ----- --- ---- ---- ------- ----- ---- -------<br>--- --- -- ----- -- --- ---- -- --- ---- -- ------ ------<br>--- ----- -- ----,100248.30000000075,100247.20000000112,99467.572,99472.59999999963,99484.243,100251.053,,4,having
screen,html.Screen,0_2_0_1_5,2021-11-04T12:35:41.349Z,,,,,,,,,,,,,,,,53,,,,,,,,,,,,,,500.1470000011177,,response,,,99,,,,,,Space,keypress(Space),,,,,---- -- ----- -- ------ a ------- --- ----------<br>------------- ------ ------ ---- ---- ------- ----- -- ----<br>-------- ------- -- ---------- --- - --- ----- ----- ----<br>---- --- --- ----- --- ---- ---- ------- ----- ---- -------<br>--- --- -- ----- -- --- ---- -- --- ---- -- ------ ------<br>--- ----- -- ----,100752.09999999963,100751.20000000112,100234.383,100248.59999999963,100251.053,100767.86,,5,a
screen,html.Screen,0_2_0_1_6,2021-11-04T12:35:42.477Z,,,,,,,,,,,,,,,,53,,,,,,,,,,,,,,1111.239999999627,,response,,,99,,,,,,Space,keypress(Space),,,,,---- -- ----- -- ------ - lasting --- ----------<br>------------- ------ ------ ---- ---- ------- ----- -- ----<br>-------- ------- -- ---------- --- - --- ----- ----- ----<br>---- --- --- ----- --- ---- ---- ------- ----- ---- -------<br>--- --- -- ----- -- --- ---- -- --- ---- -- ------ ------<br>--- ----- -- ----,101880.09999999963,101879.09999999963,100751.19,100752.59999999963,100767.86,101884.892,,6,lasting
screen,html.Screen,0_2_0_1_7,2021-11-04T12:35:43.453Z,,,,,,,,,,,,,,,,53,,,,,,,,,,,,,,970.6079999999929,,response,,,99,,,,,,Space,keypress(Space),,,,,---- -- ----- -- ------ - ------- and ----------<br>------------- ------ ------ ---- ---- ------- ----- -- ----<br>-------- ------- -- ---------- --- - --- ----- ----- ----<br>---- --- --- ----- --- ---- ---- ------- ----- ---- -------<br>--- --- -- ----- -- --- ---- -- --- ---- -- ------ ------<br>--- ----- -- ----,102856.5,102855.5,101868.221,101880.30000000075,101884.892,102868.479,,7,and
screen,html.Screen,0_2_0_1_8,2021-11-04T12:35:44.269Z,,,,,,,,,,,,,,,,53,,,,,,,,,,,,,,802.4210000003659,,response,,,99,,,,,,Space,keypress(Space),,,,,---- -- ----- -- ------ - ------- --- fulfilling<br>------------- ------ ------ ---- ---- ------- ----- -- ----<br>-------- ------- -- ---------- --- - --- ----- ----- ----<br>---- --- --- ----- --- ---- ---- ------- ----- ---- -------<br>--- --- -- ----- -- --- ---- -- --- ---- -- ------ ------<br>--- ----- -- ----,103672,103670.90000000037,102851.808,102856.70000000112,102868.479,103685.374,,8,fulfilling
screen,html.Screen,0_2_0_1_9,2021-11-04T12:35:45.061Z,,,,,,,,,,,,,,,,53,,,,,,,,,,,,,,777.5260000003764,,response,,,99,,,,,,Space,keypress(Space),,,,,"---- -- ----- -- ------ - ------- --- ----------<br>relationship, ------ ------ ---- ---- ------- ----- -- ----<br>-------- ------- -- ---------- --- - --- ----- ----- ----<br>---- --- --- ----- --- ---- ---- ------- ----- ---- -------<br>--- --- -- ----- -- --- ---- -- --- ---- -- ------ ------<br>--- ----- -- ----",104463.90000000037,104462.90000000037,103668.703,103672.40000000037,103685.374,104468.85,,9,"relationship,"
screen,html.Screen,0_2_0_1_10,2021-11-04T12:35:45.789Z,,,,,,,,,,,,,,,,53,,,,,,,,,,,,,,721.9500000007392,,response,,,99,,,,,,Space,keypress(Space),,,,,---- -- ----- -- ------ - ------- --- ----------<br>------------- common ------ ---- ---- ------- ----- -- ----<br>-------- ------- -- ---------- --- - --- ----- ----- ----<br>---- --- --- ----- --- ---- ---- ------- ----- ---- -------<br>--- --- -- ----- -- --- ---- -- --- ---- -- ------ ------<br>--- ----- -- ----,105191.80000000075,105190.80000000075,104452.18,104464.20000000112,104468.85,105202.377,,10,common
screen,html.Screen,0_2_0_1_11,2021-11-04T12:35:46.493Z,,,,,,,,,,,,,,,,53,,,,,,,,,,,,,,692.5230000003794,,response,,,99,,,,,,Space,keypress(Space),,,,,---- -- ----- -- ------ - ------- --- ----------<br>------------- ------ wisdom ---- ---- ------- ----- -- ----<br>-------- ------- -- ---------- --- - --- ----- ----- ----<br>---- --- --- ----- --- ---- ---- ------- ----- ---- -------<br>--- --- -- ----- -- --- ---- -- --- ---- -- ------ ------<br>--- ----- -- ----,105895.80000000075,105894.90000000037,105185.707,105192,105202.377,105902.646,,11,wisdom
screen,html.Screen,0_2_0_1_12,2021-11-04T12:35:47.109Z,,,,,,,,,,,,,,,,53,,,,,,,,,,,,,,608.1540000007517,,response,,,99,,,,,,Space,keypress(Space),,,,,---- -- ----- -- ------ - ------- --- ----------<br>------------- ------ ------ says ---- ------- ----- -- ----<br>-------- ------- -- ---------- --- - --- ----- ----- ----<br>---- --- --- ----- --- ---- ---- ------- ----- ---- -------<br>--- --- -- ----- -- --- ---- -- --- ---- -- ------ ------<br>--- ----- -- ----,106511.70000000112,106510.80000000075,105885.975,105896.09999999963,105902.646,106519.303,,12,says
screen,html.Screen,0_2_0_1_13,2021-11-04T12:35:47.765Z,,,,,,,,,,,,,,,,53,,,,,,,,,,,,,,647.4970000007452,,response,,,99,,,,,,Space,keypress(Space),,,,,---- -- ----- -- ------ - ------- --- ----------<br>------------- ------ ------ ---- that ------- ----- -- ----<br>-------- ------- -- ---------- --- - --- ----- ----- ----<br>---- --- --- ----- --- ---- ---- ------- ----- ---- -------<br>--- --- -- ----- -- --- ---- -- --- ---- -- ------ ------<br>--- ----- -- ----,107167.70000000112,107166.80000000075,106502.634,106511.90000000037,106519.303,107169.67,,13,that
screen,html.Screen,0_2_0_1_14,2021-11-04T12:35:48.693Z,,,,,,,,,,,,,,,,53,,,,,,,,,,,,,,925.1300000007468,,response,,,99,,,,,,Space,keypress(Space),,,,,---- -- ----- -- ------ - ------- --- ----------<br>------------- ------ ------ ---- ---- feeling ----- -- ----<br>-------- ------- -- ---------- --- - --- ----- ----- ----<br>---- --- --- ----- --- ---- ---- ------- ----- ---- -------<br>--- --- -- ----- -- --- ---- -- --- ---- -- ------ ------<br>--- ----- -- ----,108095.5,108094.80000000075,107152.999,107168,107169.67,108103.221,,14,feeling
screen,html.Screen,0_2_0_1_15,2021-11-04T12:35:49.461Z,,,,,,,,,,,,,,,,53,,,,,,,,,,,,,,759.4790000011126,,response,,,99,,,,,,Space,keypress(Space),,,,,---- -- ----- -- ------ - ------- --- ----------<br>------------- ------ ------ ---- ---- ------- close -- ----<br>-------- ------- -- ---------- --- - --- ----- ----- ----<br>---- --- --- ----- --- ---- ---- ------- ----- ---- -------<br>--- --- -- ----- -- --- ---- -- --- ---- -- ------ ------<br>--- ----- -- ----,108863.5,108862.70000000112,108086.55,108095.80000000075,108103.221,108870.119,,15,close
screen,html.Screen,0_2_0_1_16,2021-11-04T12:35:50.181Z,,,,,,,,,,,,,,,,53,,,,,,,,,,,,,,712.681000000739,,response,,,99,,,,,,Space,keypress(Space),,,,,---- -- ----- -- ------ - ------- --- ----------<br>------------- ------ ------ ---- ---- ------- ----- to ----<br>-------- ------- -- ---------- --- - --- ----- ----- ----<br>---- --- --- ----- --- ---- ---- ------- ----- ---- -------<br>--- --- -- ----- -- --- ---- -- --- ---- -- ------ ------<br>--- ----- -- ----,109583.5,109582.80000000075,108853.448,108863.80000000075,108870.119,109586.961,,16,to
screen,html.Screen,0_2_0_1_17,2021-11-04T12:35:50.869Z,,,,,,,,,,,,,,,,53,,,,,,,,,,,,,,683.7390000011219,,response,,,99,,,,,,Space,keypress(Space),,,,,---- -- ----- -- ------ - ------- --- ----------<br>------------- ------ ------ ---- ---- ------- ----- -- your<br>-------- ------- -- ---------- --- - --- ----- ----- ----<br>---- --- --- ----- --- ---- ---- ------- ----- ---- -------<br>--- --- -- ----- -- --- ---- -- --- ---- -- ------ ------<br>--- ----- -- ----,110271.5,110270.70000000112,109570.29,109583.80000000075,109586.961,110287.147,,17,your
screen,html.Screen,0_2_0_1_18,2021-11-04T12:35:51.461Z,,,,,,,,,,,,,,,,53,,,,,,,,,,,,,,575.5530000011204,,response,,,99,,,,,,Space,keypress(Space),,,,,---- -- ----- -- ------ - ------- --- ----------<br>------------- ------ ------ ---- ---- ------- ----- -- ----<br>romantic ------- -- ---------- --- - --- ----- ----- ----<br>---- --- --- ----- --- ---- ---- ------- ----- ---- -------<br>--- --- -- ----- -- --- ---- -- --- ---- -- ------ ------<br>--- ----- -- ----,110863.5,110862.70000000112,110270.476,110271.80000000075,110287.147,110870.644,,18,romantic
screen,html.Screen,0_2_0_1_19,2021-11-04T12:35:51.957Z,,,,,,,,,,,,,,,,53,,,,,,,,,,,,,,488.05600000111735,,response,,,99,,,,,,Space,keypress(Space),,,,,---- -- ----- -- ------ - ------- --- ----------<br>------------- ------ ------ ---- ---- ------- ----- -- ----<br>-------- partner -- ---------- --- - --- ----- ----- ----<br>---- --- --- ----- --- ---- ---- ------- ----- ---- -------<br>--- --- -- ----- -- --- ---- -- --- ---- -- ------ ------<br>--- ----- -- ----,111359.5,111358.70000000112,110853.973,110863.70000000112,110870.644,111370.732,,19,partner
screen,html.Screen,0_2_0_1_20,2021-11-04T12:35:52.477Z,,,,,,,,,,,,,,,,53,,,,,,,,,,,,,,507.968000001114,,response,,,99,,,,,,Space,keypress(Space),,,,,---- -- ----- -- ------ - ------- --- ----------<br>------------- ------ ------ ---- ---- ------- ----- -- ----<br>-------- ------- is ---------- --- - --- ----- ----- ----<br>---- --- --- ----- --- ---- ---- ------- ----- ---- -------<br>--- --- -- ----- -- --- ---- -- --- ---- -- ------ ------<br>--- ----- -- ----,111879.5,111878.70000000112,111354.062,111359.70000000112,111370.732,111887.583,,20,is
screen,html.Screen,0_2_0_1_21,2021-11-04T12:35:54.237Z,,,,,,,,,,,,,,,,53,,,,,,,,,,,,,,1751.5169999996288,,response,,,99,,,,,,Space,keypress(Space),,,,,---- -- ----- -- ------ - ------- --- ----------<br>------------- ------ ------ ---- ---- ------- ----- -- ----<br>-------- ------- -- paramount. --- - --- ----- ----- ----<br>---- --- --- ----- --- ---- ---- ------- ----- ---- -------<br>--- --- -- ----- -- --- ---- -- --- ---- -- ------ ------<br>--- ----- -- ----,113639.90000000037,113639.09999999963,111870.912,111879.70000000112,111887.583,113654.59,,21,paramount.
screen,html.Screen,0_2_0_1_22,2021-11-04T12:35:55.356Z,,,,,,,,,,,,,,,,53,,,,,,,,,,,,,,1103.9100000000035,,response,,,99,,,,,,Space,keypress(Space),,,,,---- -- ----- -- ------ - ------- --- ----------<br>------------- ------ ------ ---- ---- ------- ----- -- ----<br>-------- ------- -- ---------- But - --- ----- ----- ----<br>---- --- --- ----- --- ---- ---- ------- ----- ---- -------<br>--- --- -- ----- -- --- ---- -- --- ---- -- ------ ------<br>--- ----- -- ----,114759.40000000037,114758.5,113637.92,113640.30000000075,113654.59,114771.714,,22,But
screen,html.Screen,0_2_0_1_23,2021-11-04T12:35:55.772Z,,,,,,,,,,,,,,,,53,,,,,,,,,,,,,,402.6860000003653,,response,,,99,,,,,,Space,keypress(Space),,,,,---- -- ----- -- ------ - ------- --- ----------<br>------------- ------ ------ ---- ---- ------- ----- -- ----<br>-------- ------- -- ---------- --- a --- ----- ----- ----<br>---- --- --- ----- --- ---- ---- ------- ----- ---- -------<br>--- --- -- ----- -- --- ---- -- --- ---- -- ------ ------<br>--- ----- -- ----,115175.40000000037,115174.40000000037,114755.043,114759.80000000075,114771.714,115188.314,,23,a
screen,html.Screen,0_2_0_1_24,2021-11-04T12:35:56.188Z,,,,,,,,,,,,,,,,53,,,,,,,,,,,,,,402.1860000000015,,response,,,99,,,,,,Space,keypress(Space),,,,,---- -- ----- -- ------ - ------- --- ----------<br>------------- ------ ------ ---- ---- ------- ----- -- ----<br>-------- ------- -- ---------- --- - new ----- ----- ----<br>---- --- --- ----- --- ---- ---- ------- ----- ---- -------<br>--- --- -- ----- -- --- ---- -- --- ---- -- ------ ------<br>--- ----- -- ----,115591.30000000075,115590.5,115171.644,115175.70000000112,115188.314,115605.263,,24,new
screen,html.Screen,0_2_0_1_25,2021-11-04T12:35:56.556Z,,,,,,,,,,,,,,,,53,,,,,,,,,,,,,,353.2369999999937,,response,,,99,,,,,,Space,keypress(Space),,,,,---- -- ----- -- ------ - ------- --- ----------<br>------------- ------ ------ ---- ---- ------- ----- -- ----<br>-------- ------- -- ---------- --- - --- study ----- ----<br>---- --- --- ----- --- ---- ---- ------- ----- ---- -------<br>--- --- -- ----- -- --- ---- -- --- ---- -- ------ ------<br>--- ----- -- ----,115959.40000000037,115958.5,115588.592,115591.59999999963,115605.263,115971.947,,25,study
screen,html.Screen,0_2_0_1_26,2021-11-04T12:35:56.956Z,,,,,,,,,,,,,,,,53,,,,,,,,,,,,,,386.4530000003724,,response,,,99,,,,,,Space,keypress(Space),,,,,---- -- ----- -- ------ - ------- --- ----------<br>------------- ------ ------ ---- ---- ------- ----- -- ----<br>-------- ------- -- ---------- --- - --- ----- finds ----<br>---- --- --- ----- --- ---- ---- ------- ----- ---- -------<br>--- --- -- ----- -- --- ---- -- --- ---- -- ------ ------<br>--- ----- -- ----,116359.20000000112,116358.40000000037,115955.277,115959.70000000112,115971.947,116372.128,,26,finds
screen,html.Screen,0_2_0_1_27,2021-11-04T12:35:57.876Z,,,,,,,,,,,,,,,,53,,,,,,,,,,,,,,906.2720000003756,,response,,,99,,,,,,Space,keypress(Space),,,,,---- -- ----- -- ------ - ------- --- ----------<br>------------- ------ ------ ---- ---- ------- ----- -- ----<br>-------- ------- -- ---------- --- - --- ----- ----- that<br>---- --- --- ----- --- ---- ---- ------- ----- ---- -------<br>--- --- -- ----- -- --- ---- -- --- ---- -- ------ ------<br>--- ----- -- ----,117279.30000000075,117278.40000000037,116355.457,116359.59999999963,116372.128,117289.041,,27,that
screen,html.Screen,0_2_0_1_28,2021-11-04T12:35:58.556Z,,,,,,,,,,,,,,,,53,,,,,,,,,,,,,,669.3590000003751,,response,,,99,,,,,,Space,keypress(Space),,,,,---- -- ----- -- ------ - ------- --- ----------<br>------------- ------ ------ ---- ---- ------- ----- -- ----<br>-------- ------- -- ---------- --- - --- ----- ----- ----<br>it's --- --- ----- --- ---- ---- ------- ----- ---- -------<br>--- --- -- ----- -- --- ---- -- --- ---- -- ------ ------<br>--- ----- -- ----,117959.30000000075,117958.40000000037,117272.37,117279.70000000112,117289.041,117972.468,,28,it's
screen,html.Screen,0_2_0_1_29,2021-11-04T12:35:59.276Z,,,,,,,,,,,,,,,,53,,,,,,,,,,,,,,705.8320000007516,,response,,,99,,,,,,Space,keypress(Space),,,,,---- -- ----- -- ------ - ------- --- ----------<br>------------- ------ ------ ---- ---- ------- ----- -- ----<br>-------- ------- -- ---------- --- - --- ----- ----- ----<br>---- not --- ----- --- ---- ---- ------- ----- ---- -------<br>--- --- -- ----- -- --- ---- -- --- ---- -- ------ ------<br>--- ----- -- ----,118679.09999999963,118678.30000000075,117955.798,117959.59999999963,117972.468,118689.4,,29,not
screen,html.Screen,0_2_0_1_30,2021-11-04T12:35:59.684Z,,,,,,,,,,,,,,,,53,,,,,,,,,,,,,,396.9000000007509,,response,,,99,,,,,,Space,keypress(Space),,,,,---- -- ----- -- ------ - ------- --- ----------<br>------------- ------ ------ ---- ---- ------- ----- -- ----<br>-------- ------- -- ---------- --- - --- ----- ----- ----<br>---- --- how ----- --- ---- ---- ------- ----- ---- -------<br>--- --- -- ----- -- --- ---- -- --- ---- -- ------ ------<br>--- ----- -- ----,119087.20000000112,119086.30000000075,118672.729,118679.40000000037,118689.4,119089.436,,30,how
screen,html.Screen,0_2_0_1_31,2021-11-04T12:36:00.212Z,,,,,,,,,,,,,,,,53,,,,,,,,,,,,,,524.8640000007435,,response,,,99,,,,,,Space,keypress(Space),,,,,---- -- ----- -- ------ - ------- --- ----------<br>------------- ------ ------ ---- ---- ------- ----- -- ----<br>-------- ------- -- ---------- --- - --- ----- ----- ----<br>---- --- --- close --- ---- ---- ------- ----- ---- -------<br>--- --- -- ----- -- --- ---- -- --- ---- -- ------ ------<br>--- ----- -- ----,119615.09999999963,119614.30000000075,119072.766,119087.40000000037,119089.436,119623.023,,31,close
screen,html.Screen,0_2_0_1_32,2021-11-04T12:36:00.644Z,,,,,,,,,,,,,,,,53,,,,,,,,,,,,,,423.277000000744,,response,,,99,,,,,,Space,keypress(Space),,,,,---- -- ----- -- ------ - ------- --- ----------<br>------------- ------ ------ ---- ---- ------- ----- -- ----<br>-------- ------- -- ---------- --- - --- ----- ----- ----<br>---- --- --- ----- you ---- ---- ------- ----- ---- -------<br>--- --- -- ----- -- --- ---- -- --- ---- -- ------ ------<br>--- ----- -- ----,120047.09999999963,120046.30000000075,119606.352,119615.40000000037,119623.023,120056.414,,32,you
screen,html.Screen,0_2_0_1_33,2021-11-04T12:36:01.140Z,,,,,,,,,,,,,,,,53,,,,,,,,,,,,,,485.7860000011133,,response,,,99,,,,,,Space,keypress(Space),,,,,---- -- ----- -- ------ - ------- --- ----------<br>------------- ------ ------ ---- ---- ------- ----- -- ----<br>-------- ------- -- ---------- --- - --- ----- ----- ----<br>---- --- --- ----- --- feel ---- ------- ----- ---- -------<br>--- --- -- ----- -- --- ---- -- --- ---- -- ------ ------<br>--- ----- -- ----,120543.09999999963,120542.20000000112,120039.744,120047.30000000075,120056.414,120556.526,,33,feel
screen,html.Screen,0_2_0_1_34,2021-11-04T12:36:02.060Z,,,,,,,,,,,,,,,,53,,,,,,,,,,,,,,905.6740000011196,,response,,,99,,,,,,Space,keypress(Space),,,,,---- -- ----- -- ------ - ------- --- ----------<br>------------- ------ ------ ---- ---- ------- ----- -- ----<br>-------- ------- -- ---------- --- - --- ----- ----- ----<br>---- --- --- ----- --- ---- that ------- ----- ---- -------<br>--- --- -- ----- -- --- ---- -- --- ---- -- ------ ------<br>--- ----- -- ----,121463,121462.20000000112,120539.856,120543.40000000037,120556.526,121473.526,,34,that
screen,html.Screen,0_2_0_1_35,2021-11-04T12:36:03.036Z,,,,,,,,,,,,,,,,53,,,,,,,,,,,,,,964.6740000011196,,response,,,99,,,,,,Space,keypress(Space),,,,,---- -- ----- -- ------ - ------- --- ----------<br>------------- ------ ------ ---- ---- ------- ----- -- ----<br>-------- ------- -- ---------- --- - --- ----- ----- ----<br>---- --- --- ----- --- ---- ---- matters ----- ---- -------<br>--- --- -- ----- -- --- ---- -- --- ---- -- ------ ------<br>--- ----- -- ----,122439.20000000112,122438.20000000112,121456.855,121463.30000000075,121473.526,122440.08,,35,matters
screen,html.Screen,0_2_0_1_36,2021-11-04T12:36:03.956Z,,,,,,,,,,,,,,,,53,,,,,,,,,,,,,,918.0199999996257,,response,,,99,,,,,,Space,keypress(Space),,,,,"---- -- ----- -- ------ - ------- --- ----------<br>------------- ------ ------ ---- ---- ------- ----- -- ----<br>-------- ------- -- ---------- --- - --- ----- ----- ----<br>---- --- --- ----- --- ---- ---- ------- most, ---- -------<br>--- --- -- ----- -- --- ---- -- --- ---- -- ------ ------<br>--- ----- -- ----",123358.90000000037,123358.09999999963,122423.412,122439.5,122440.08,123374.047,,36,"most,"
screen,html.Screen,0_2_0_1_37,2021-11-04T12:36:04.428Z,,,,,,,,,,,,,,,,53,,,,,,,,,,,,,,456.45299999999406,,response,,,99,,,,,,Space,keypress(Space),,,,,---- -- ----- -- ------ - ------- --- ----------<br>------------- ------ ------ ---- ---- ------- ----- -- ----<br>-------- ------- -- ---------- --- - --- ----- ----- ----<br>---- --- --- ----- --- ---- ---- ------- ----- it's -------<br>--- --- -- ----- -- --- ---- -- --- ---- -- ------ ------<br>--- ----- -- ----,123831.30000000075,123830.5,123357.376,123359.20000000112,123374.047,123840.742,,37,it's
screen,html.Screen,0_2_0_1_38,2021-11-04T12:36:05.036Z,,,,,,,,,,,,,,,,53,,,,,,,,,,,,,,597.3579999996291,,response,,,99,,,,,,Space,keypress(Space),,,,,---- -- ----- -- ------ - ------- --- ----------<br>------------- ------ ------ ---- ---- ------- ----- -- ----<br>-------- ------- -- ---------- --- - --- ----- ----- ----<br>---- --- --- ----- --- ---- ---- ------- ----- ---- whether<br>--- --- -- ----- -- --- ---- -- --- ---- -- ------ ------<br>--- ----- -- ----,124438.80000000075,124438.09999999963,123824.072,123831.5,123840.742,124440.954,,38,whether
screen,html.Screen,0_2_0_1_39,2021-11-04T12:36:05.556Z,,,,,,,,,,,,,,,,53,,,,,,,,,,,,,,517.1459999996296,,response,,,99,,,,,,Space,keypress(Space),,,,,---- -- ----- -- ------ - ------- --- ----------<br>------------- ------ ------ ---- ---- ------- ----- -- ----<br>-------- ------- -- ---------- --- - --- ----- ----- ----<br>---- --- --- ----- --- ---- ---- ------- ----- ---- -------<br>you --- -- ----- -- --- ---- -- --- ---- -- ------ ------<br>--- ----- -- ----,124958.90000000037,124958.09999999963,124424.283,124439.20000000112,124440.954,124974.428,,39,you
screen,html.Screen,0_2_0_1_40,2021-11-04T12:36:06.636Z,,,,,,,,,,,,,,,,53,,,,,,,,,,,,,,1063.5720000000001,,response,,,99,,,,,,Space,keypress(Space),,,,,---- -- ----- -- ------ - ------- --- ----------<br>------------- ------ ------ ---- ---- ------- ----- -- ----<br>-------- ------- -- ---------- --- - --- ----- ----- ----<br>---- --- --- ----- --- ---- ---- ------- ----- ---- -------<br>--- are -- ----- -- --- ---- -- --- ---- -- ------ ------<br>--- ----- -- ----,126038.80000000075,126038,124957.757,124959.20000000112,124974.428,126041.251,,40,are
screen,html.Screen,0_2_0_1_41,2021-11-04T12:36:07.636Z,,,,,,,,,,,,,,,,53,,,,,,,,,,,,,,996.6490000003687,,response,,,99,,,,,,Space,keypress(Space),,,,,---- -- ----- -- ------ - ------- --- ----------<br>------------- ------ ------ ---- ---- ------- ----- -- ----<br>-------- ------- -- ---------- --- - --- ----- ----- ----<br>---- --- --- ----- --- ---- ---- ------- ----- ---- -------<br>--- --- as ----- -- --- ---- -- --- ---- -- ------ ------<br>--- ----- -- ----,127038.70000000112,127037.90000000037,126024.581,126039,126041.251,127041.746,,41,as
screen,html.Screen,0_2_0_1_42,2021-11-04T12:36:08.380Z,,,,,,,,,,,,,,,,53,,,,,,,,,,,,,,740.1540000003733,,response,,,99,,,,,,Space,keypress(Space),,,,,---- -- ----- -- ------ - ------- --- ----------<br>------------- ------ ------ ---- ---- ------- ----- -- ----<br>-------- ------- -- ---------- --- - --- ----- ----- ----<br>---- --- --- ----- --- ---- ---- ------- ----- ---- -------<br>--- --- -- close -- --- ---- -- --- ---- -- ------ ------<br>--- ----- -- ----,127782.70000000112,127781.90000000037,127025.074,127038.90000000037,127041.746,127791.703,,42,close
screen,html.Screen,0_2_0_1_43,2021-11-04T12:36:08.972Z,,,,,,,,,,,,,,,,53,,,,,,,,,,,,,,582.1970000003785,,response,,,99,,,,,,Space,keypress(Space),,,,,---- -- ----- -- ------ - ------- --- ----------<br>------------- ------ ------ ---- ---- ------- ----- -- ----<br>-------- ------- -- ---------- --- - --- ----- ----- ----<br>---- --- --- ----- --- ---- ---- ------- ----- ---- -------<br>--- --- -- ----- as --- ---- -- --- ---- -- ------ ------<br>--- ----- -- ----,128374.70000000112,128373.90000000037,127775.033,127782.90000000037,127791.703,128392.05,,43,as
screen,html.Screen,0_2_0_1_44,2021-11-04T12:36:09.916Z,,,,,,,,,,,,,,,,53,,,,,,,,,,,,,,925.8500000003696,,response,,,99,,,,,,Space,keypress(Space),,,,,---- -- ----- -- ------ - ------- --- ----------<br>------------- ------ ------ ---- ---- ------- ----- -- ----<br>-------- ------- -- ---------- --- - --- ----- ----- ----<br>---- --- --- ----- --- ---- ---- ------- ----- ---- -------<br>--- --- -- ----- -- you ---- -- --- ---- -- ------ ------<br>--- ----- -- ----,129318.70000000112,129317.90000000037,128375.379,128375,128392.05,129325.599,,44,you
screen,html.Screen,0_2_0_1_45,2021-11-04T12:36:10.556Z,,,,,,,,,,,,,,,,53,,,,,,,,,,,,,,632.2010000007431,,response,,,99,,,,,,Space,keypress(Space),,,,,---- -- ----- -- ------ - ------- --- ----------<br>------------- ------ ------ ---- ---- ------- ----- -- ----<br>-------- ------- -- ---------- --- - --- ----- ----- ----<br>---- --- --- ----- --- ---- ---- ------- ----- ---- -------<br>--- --- -- ----- -- --- want -- --- ---- -- ------ ------<br>--- ----- -- ----,129958.70000000112,129957.80000000075,129308.928,129318.90000000037,129325.599,129975.777,,45,want
screen,html.Screen,0_2_0_1_46,2021-11-04T12:36:11.332Z,,,,,,,,,,,,,,,,53,,,,,,,,,,,,,,758.0230000007432,,response,,,99,,,,,,Space,keypress(Space),,,,,---- -- ----- -- ------ - ------- --- ----------<br>------------- ------ ------ ---- ---- ------- ----- -- ----<br>-------- ------- -- ---------- --- - --- ----- ----- ----<br>---- --- --- ----- --- ---- ---- ------- ----- ---- -------<br>--- --- -- ----- -- --- ---- to --- ---- -- ------ ------<br>--- ----- -- ----,130734.70000000112,130733.80000000075,129959.106,129958.80000000075,129975.777,130742.645,,46,to
screen,html.Screen,0_2_0_1_47,2021-11-04T12:36:12.244Z,,,,,,,,,,,,,,,,53,,,,,,,,,,,,,,903.155000000741,,response,,,99,,,,,,Space,keypress(Space),,,,,"---- -- ----- -- ------ - ------- --- ----------<br>------------- ------ ------ ---- ---- ------- ----- -- ----<br>-------- ------- -- ---------- --- - --- ----- ----- ----<br>---- --- --- ----- --- ---- ---- ------- ----- ---- -------<br>--- --- -- ----- -- --- ---- -- be, ---- -- ------ ------<br>--- ----- -- ----",131646.59999999963,131645.80000000075,130725.974,130734.90000000037,130742.645,131659.478,,47,"be,"
screen,html.Screen,0_2_0_1_48,2021-11-04T12:36:12.956Z,,,,,,,,,,,,,,,,53,,,,,,,,,,,,,,698.3220000007423,,response,,,99,,,,,,Space,keypress(Space),,,,,---- -- ----- -- ------ - ------- --- ----------<br>------------- ------ ------ ---- ---- ------- ----- -- ----<br>-------- ------- -- ---------- --- - --- ----- ----- ----<br>---- --- --- ----- --- ---- ---- ------- ----- ---- -------<br>--- --- -- ----- -- --- ---- -- --- even -- ------ ------<br>--- ----- -- ----,132358.59999999963,132357.80000000075,131642.808,131646.80000000075,131659.478,132359.763,,48,even
screen,html.Screen,0_2_0_1_49,2021-11-04T12:36:13.412Z,,,,,,,,,,,,,,,,53,,,,,,,,,,,,,,453.9370000011113,,response,,,99,,,,,,Space,keypress(Space),,,,,---- -- ----- -- ------ - ------- --- ----------<br>------------- ------ ------ ---- ---- ------- ----- -- ----<br>-------- ------- -- ---------- --- - --- ----- ----- ----<br>---- --- --- ----- --- ---- ---- ------- ----- ---- -------<br>--- --- -- ----- -- --- ---- -- --- ---- if ------ ------<br>--- ----- -- ----,132814.5,132813.70000000112,132343.092,132358.80000000075,132359.763,132826.566,,49,if
screen,html.Screen,0_2_0_1_50,2021-11-04T12:36:14.020Z,,,,,,,,,,,,,,,,53,,,,,,,,,,,,,,595.134000001126,,response,,,99,,,,,,Space,keypress(Space),,,,,---- -- ----- -- ------ - ------- --- ----------<br>------------- ------ ------ ---- ---- ------- ----- -- ----<br>-------- ------- -- ---------- --- - --- ----- ----- ----<br>---- --- --- ----- --- ---- ---- ------- ----- ---- -------<br>--- --- -- ----- -- --- ---- -- --- ---- -- that's ------<br>--- ----- -- ----,133422.70000000112,133421.70000000112,132809.895,132814.70000000112,132826.566,133426.656,,50,that's
screen,html.Screen,0_2_0_1_51,2021-11-04T12:36:14.596Z,,,,,,,,,,,,,,,,53,,,,,,,,,,,,,,571.5440000011295,,response,,,99,,,,,,Space,keypress(Space),,,,,---- -- ----- -- ------ - ------- --- ----------<br>------------- ------ ------ ---- ---- ------- ----- -- ----<br>-------- ------- -- ---------- --- - --- ----- ----- ----<br>---- --- --- ----- --- ---- ---- ------- ----- ---- -------<br>--- --- -- ----- -- --- ---- -- --- ---- -- ------ really<br>--- ----- -- ----,133998.90000000037,133998.20000000112,133409.986,133422.90000000037,133426.656,134009.961,,51,really
screen,html.Screen,0_2_0_1_52,2021-11-04T12:36:15.068Z,,,,,,,,,,,,,,,,53,,,,,,,,,,,,,,459.73900000110734,,response,,,99,,,,,,Space,keypress(Space),,,,,---- -- ----- -- ------ - ------- --- ----------<br>------------- ------ ------ ---- ---- ------- ----- -- ----<br>-------- ------- -- ---------- --- - --- ----- ----- ----<br>---- --- --- ----- --- ---- ---- ------- ----- ---- -------<br>--- --- -- ----- -- --- ---- -- --- ---- -- ------ ------<br>not ----- -- ----,134470.5,134469.70000000112,133993.293,133999.20000000112,134009.961,134477.054,,52,not
screen,html.Screen,0_2_0_1_53,2021-11-04T12:36:15.459Z,,,,,,,,,,,,,,,,53,,,,,,,,,,,,,,384.54599999962375,,response,,,99,,,,,,Space,keypress(Space),,,,,---- -- ----- -- ------ - ------- --- ----------<br>------------- ------ ------ ---- ---- ------- ----- -- ----<br>-------- ------- -- ---------- --- - --- ----- ----- ----<br>---- --- --- ----- --- ---- ---- ------- ----- ---- -------<br>--- --- -- ----- -- --- ---- -- --- ---- -- ------ ------<br>--- close -- ----,134862.30000000075,134861.59999999963,134460.382,134470.70000000112,134477.054,134877.1,,53,close
screen,html.Screen,0_2_0_1_54,2021-11-04T12:36:16.028Z,,,,,,,,,,,,,,,,53,,,,,,,,,,,,,,552.4999999996217,,response,,,99,,,,,,Space,keypress(Space),,,,,---- -- ----- -- ------ - ------- --- ----------<br>------------- ------ ------ ---- ---- ------- ----- -- ----<br>-------- ------- -- ---------- --- - --- ----- ----- ----<br>---- --- --- ----- --- ---- ---- ------- ----- ---- -------<br>--- --- -- ----- -- --- ---- -- --- ---- -- ------ ------<br>--- ----- at ----,135430.5,135429.59999999963,134860.429,134862.59999999963,134877.1,135443.875,,54,at
screen,html.Screen,0_2_0_1_55,2021-11-04T12:36:16.859Z,,,,,,,,,,,,,,,,53,,,,,,,,,,,,,,817.625,,response,,,99,,,,,,Space,keypress(Space),,,,,---- -- ----- -- ------ - ------- --- ----------<br>------------- ------ ------ ---- ---- ------- ----- -- ----<br>-------- ------- -- ---------- --- - --- ----- ----- ----<br>---- --- --- ----- --- ---- ---- ------- ----- ---- -------<br>--- --- -- ----- -- --- ---- -- --- ---- -- ------ ------<br>--- ----- -- all.,136262.5,136261.5,135427.205,135430.70000000112,135443.875,136277.4,,55,all.
Item 99,flow.Loop,0_2_0_1,2021-11-04T12:36:16.864Z,,,,,,,,,,,,,,,,,,,,,,,,,,,,,,40395.077000000005,,completion,,,,A,,,,,,,,,,silence,,136266.80000000075,136261.5,95766.403,95773.40000000037,95866.423,136277.4,,,
Question 1,html.Screen,0_2_0_2,2021-11-04T12:36:22.750Z,,,,,,,,,,,,,,,,,,,,,,,,,,,true,FALSE,,5871.699999999633,,response,,,99,A,,,,,FALSE,click #choice-2,,,,silence,,142150.70000000112,142149.09999999963,136260.73,136267.09999999963,136277.4,142162.243,,,
Question 2,html.Screen,0_2_0_3,2021-11-04T12:36:39.365Z,,,,,,,,,,,,,,,,,,,,,,,,,,,true,TRUE,,16602.057000000757,,response,,,99,A,,,,,TRUE,click #choice-1,,,,silence,,158765.59999999963,158764.30000000075,142145.574,142151,142162.243,158766.91,,,
Item 99,flow.Sequence,0_2_0,2021-11-04T12:36:39.365Z,,,,,,,,,,,,,,,,,,,,,,,,,,,,,,72983.83100000075,,completion,,,,,,,,,,,,,,,,158766.09999999963,158764.30000000075,85763.799,85770,85780.469,158766.91,,,
Holding screen,html.Screen,0_2_1_0,2021-11-04T12:36:49.353Z,,,,,,,,,,,,,,,,,,,,,,,,,,,,,,10002.554999999993,,timeout,,,,,,,,,,,,,,,,168753.80000000075,168752.794,158750.236,158766.59999999963,158766.91,168769.465,,,
screen,html.Screen,0_2_1_1_0,2021-11-04T12:36:50.421Z,,,,,,,,,,,,,,,,54,,,,,,,,,,,,,,1051.235000001121,,response,,,100,,,,,,Space,keypress(Space),,,,,At --- ---- --- ------ ----- ------- ---- -- --- ------- --<br>------- ---------- ------ -- ----- -- ----- -- ---- ------<br>--- ----- --- --- ------ -------- ----- --- ------ ----- --<br>----- ----- ---------- --- --- ------ ------ ---- -- ------<br>------- --- ------ ----- --- ---- ------- -- ---- --- --<br>------- ------,169821.59999999963,169820.70000000112,168752.794,168754.20000000112,168769.465,169836.533,,0,At
screen,html.Screen,0_2_1_1_1,2021-11-04T12:36:50.868Z,,,,,,,,,,,,,,,,54,,,,,,,,,,,,,,431.56699999963166,,response,,,100,,,,,,Space,keypress(Space),,,,,-- the ---- --- ------ ----- ------- ---- -- --- ------- --<br>------- ---------- ------ -- ----- -- ----- -- ---- ------<br>--- ----- --- --- ------ -------- ----- --- ------ ----- --<br>----- ----- ---------- --- --- ------ ------ ---- -- ------<br>------- --- ------ ----- --- ---- ------- -- ---- --- --<br>------- ------,170268.80000000075,170268.09999999963,169819.862,169821.80000000075,169836.533,170269.878,,1,the
screen,html.Screen,0_2_1_1_2,2021-11-04T12:36:51.220Z,,,,,,,,,,,,,,,,54,,,,,,,,,,,,,,350.2219999996305,,response,,,100,,,,,,Space,keypress(Space),,,,,-- --- time --- ------ ----- ------- ---- -- --- ------- --<br>------- ---------- ------ -- ----- -- ----- -- ---- ------<br>--- ----- --- --- ------ -------- ----- --- ------ ----- --<br>----- ----- ---------- --- --- ------ ------ ---- -- ------<br>------- --- ------ ----- --- ---- ------- -- ---- --- --<br>------- ------,170620.90000000037,170620.09999999963,170253.208,170269.09999999963,170269.878,170636.694,,2,time
screen,html.Screen,0_2_1_1_3,2021-11-04T12:36:52.421Z,,,,,,,,,,,,,,,,54,,,,,,,,,,,,,,1183.3060000000114,,response,,,100,,,,,,Space,keypress(Space),,,,,-- --- ---- the ------ ----- ------- ---- -- --- ------- --<br>------- ---------- ------ -- ----- -- ----- -- ---- ------<br>--- ----- --- --- ------ -------- ----- --- ------ ----- --<br>----- ----- ---------- --- --- ------ ------ ---- -- ------<br>------- --- ------ ----- --- ---- ------- -- ---- --- --<br>------- ------,171822.30000000075,171820,170620.023,170621.09999999963,170636.694,171837.027,,3,the
screen,html.Screen,0_2_1_1_4,2021-11-04T12:36:53.124Z,,,,,,,,,,,,,,,,54,,,,,,,,,,,,,,687.1730000011157,,response,,,100,,,,,,Space,keypress(Space),,,,,-- --- ---- --- French ----- ------- ---- -- --- ------- --<br>------- ---------- ------ -- ----- -- ----- -- ---- ------<br>--- ----- --- --- ------ -------- ----- --- ------ ----- --<br>----- ----- ---------- --- --- ------ ------ ---- -- ------<br>------- --- ------ ----- --- ---- ------- -- ---- --- --<br>------- ------,172524.90000000037,172524.20000000112,171820.356,171822.5,171837.027,172537.143,,4,French
screen,html.Screen,0_2_1_1_5,2021-11-04T12:36:53.852Z,,,,,,,,,,,,,,,,54,,,,,,,,,,,,,,714.8569999999891,,response,,,100,,,,,,Space,keypress(Space),,,,,-- --- ---- --- ------ crown ------- ---- -- --- ------- --<br>------- ---------- ------ -- ----- -- ----- -- ---- ------<br>--- ----- --- --- ------ -------- ----- --- ------ ----- --<br>----- ----- ---------- --- --- ------ ------ ---- -- ------<br>------- --- ------ ----- --- ---- ------- -- ---- --- --<br>------- ------,173252.80000000075,173252,172520.473,172525.20000000112,172537.143,173254.073,,5,crown
screen,html.Screen,0_2_1_1_6,2021-11-04T12:36:55.348Z,,,,,,,,,,,,,,,,54,,,,,,,,,,,,,,1493.926999999996,,response,,,100,,,,,,Space,keypress(Space),,,,,-- --- ---- --- ------ ----- secured ---- -- --- ------- --<br>------- ---------- ------ -- ----- -- ----- -- ---- ------<br>--- ----- --- --- ------ -------- ----- --- ------ ----- --<br>----- ----- ---------- --- --- ------ ------ ---- -- ------<br>------- --- ------ ----- --- ---- ------- -- ---- --- --<br>------- ------,174748.70000000112,174748,173237.402,173253.09999999963,173254.073,174754.17,,6,secured
screen,html.Screen,0_2_1_1_7,2021-11-04T12:36:56.028Z,,,,,,,,,,,,,,,,54,,,,,,,,,,,,,,673.6300000007323,,response,,,100,,,,,,Space,keypress(Space),,,,,-- --- ---- --- ------ ----- ------- much -- --- ------- --<br>------- ---------- ------ -- ----- -- ----- -- ---- ------<br>--- ----- --- --- ------ -------- ----- --- ------ ----- --<br>----- ----- ---------- --- --- ------ ------ ---- -- ------<br>------- --- ------ ----- --- ---- ------- -- ---- --- --<br>------- ------,175428.59999999963,175427.80000000075,174737.501,174749,174754.17,175438.008,,7,much
screen,html.Screen,0_2_1_1_8,2021-11-04T12:36:56.660Z,,,,,,,,,,,,,,,,54,,,,,,,,,,,,,,621.7920000007434,,response,,,100,,,,,,Space,keypress(Space),,,,,-- --- ---- --- ------ ----- ------- ---- of --- ------- --<br>------- ---------- ------ -- ----- -- ----- -- ---- ------<br>--- ----- --- --- ------ -------- ----- --- ------ ----- --<br>----- ----- ---------- --- --- ------ ------ ---- -- ------<br>------- --- ------ ----- --- ---- ------- -- ---- --- --<br>------- ------,176060.59999999963,176059.80000000075,175421.336,175428.90000000037,175438.008,176071.379,,8,of
screen,html.Screen,0_2_1_1_9,2021-11-04T12:36:57.164Z,,,,,,,,,,,,,,,,54,,,,,,,,,,,,,,492.4210000007588,,response,,,100,,,,,,Space,keypress(Space),,,,,-- --- ---- --- ------ ----- ------- ---- -- its ------- --<br>------- ---------- ------ -- ----- -- ----- -- ---- ------<br>--- ----- --- --- ------ -------- ----- --- ------ ----- --<br>----- ----- ---------- --- --- ------ ------ ---- -- ------<br>------- --- ------ ----- --- ---- ------- -- ---- --- --<br>------- ------,176564.59999999963,176563.80000000075,176054.709,176061,176071.379,176571.689,,9,its
screen,html.Screen,0_2_1_1_10,2021-11-04T12:36:57.948Z,,,,,,,,,,,,,,,,54,,,,,,,,,,,,,,776.0110000011045,,response,,,100,,,,,,Space,keypress(Space),,,,,-- --- ---- --- ------ ----- ------- ---- -- --- revenue --<br>------- ---------- ------ -- ----- -- ----- -- ---- ------<br>--- ----- --- --- ------ -------- ----- --- ------ ----- --<br>----- ----- ---------- --- --- ------ ------ ---- -- ------<br>------- --- ------ ----- --- ---- ------- -- ---- --- --<br>------- ------,177348.59999999963,177347.70000000112,176555.017,176565,176571.689,177354.994,,10,revenue
screen,html.Screen,0_2_1_1_11,2021-11-04T12:36:58.436Z,,,,,,,,,,,,,,,,54,,,,,,,,,,,,,,480.70600000111153,,response,,,100,,,,,,Space,keypress(Space),,,,,-- --- ---- --- ------ ----- ------- ---- -- --- ------- by<br>------- ---------- ------ -- ----- -- ----- -- ---- ------<br>--- ----- --- --- ------ -------- ----- --- ------ ----- --<br>----- ----- ---------- --- --- ------ ------ ---- -- ------<br>------- --- ------ ----- --- ---- ------- -- ---- --- --<br>------- ------,177836.40000000037,177835.70000000112,177338.325,177348.90000000037,177354.994,177838.73,,11,by
screen,html.Screen,0_2_1_1_12,2021-11-04T12:36:59.108Z,,,,,,,,,,,,,,,,54,,,,,,,,,,,,,,668.9700000011071,,response,,,100,,,,,,Space,keypress(Space),,,,,-- --- ---- --- ------ ----- ------- ---- -- --- ------- --<br>issuing ---------- ------ -- ----- -- ----- -- ---- ------<br>--- ----- --- --- ------ -------- ----- --- ------ ----- --<br>----- ----- ---------- --- --- ------ ------ ---- -- ------<br>------- --- ------ ----- --- ---- ------- -- ---- --- --<br>------- ------,178508.5,178507.70000000112,177822.058,177836.70000000112,177838.73,178522.153,,12,issuing
screen,html.Screen,0_2_1_1_13,2021-11-04T12:36:59.788Z,,,,,,,,,,,,,,,,54,,,,,,,,,,,,,,665.5470000011264,,response,,,100,,,,,,Space,keypress(Space),,,,,-- --- ---- --- ------ ----- ------- ---- -- --- ------- --<br>------- government ------ -- ----- -- ----- -- ---- ------<br>--- ----- --- --- ------ -------- ----- --- ------ ----- --<br>----- ----- ---------- --- --- ------ ------ ---- -- ------<br>------- --- ------ ----- --- ---- ------- -- ---- --- --<br>------- ------,179188.5,179187.70000000112,178505.482,178508.70000000112,178522.153,179205.673,,13,government
screen,html.Screen,0_2_1_1_14,2021-11-04T12:37:02.444Z,,,,,,,,,,,,,,,,54,,,,,,,,,,,,,,2638.4269999996177,,response,,,100,,,,,,Space,keypress(Space),,,,,-- --- ---- --- ------ ----- ------- ---- -- --- ------- --<br>------- ---------- bonds. -- ----- -- ----- -- ---- ------<br>--- ----- --- --- ------ -------- ----- --- ------ ----- --<br>----- ----- ---------- --- --- ------ ------ ---- -- ------<br>------- --- ------ ----- --- ---- ------- -- ---- --- --<br>------- ------,181844.90000000037,181844.09999999963,179189.002,179188.70000000112,179205.673,181856.373,,14,bonds.
screen,html.Screen,0_2_1_1_15,2021-11-04T12:37:02.971Z,,,,,,,,,,,,,,,,54,,,,,,,,,,,,,,515.2269999996352,,response,,,100,,,,,,Space,keypress(Space),,,,,-- --- ---- --- ------ ----- ------- ---- -- --- ------- --<br>------- ---------- ------ In ----- -- ----- -- ---- ------<br>--- ----- --- --- ------ -------- ----- --- ------ ----- --<br>----- ----- ---------- --- --- ------ ------ ---- -- ------<br>------- --- ------ ----- --- ---- ------- -- ---- --- --<br>------- ------,182372.30000000075,182371.59999999963,181839.702,181845.09999999963,181856.373,182389.768,,15,In
screen,html.Screen,0_2_1_1_16,2021-11-04T12:37:04.260Z,,,,,,,,,,,,,,,,54,,,,,,,,,,,,,,1270.0320000007341,,response,,,100,,,,,,Space,keypress(Space),,,,,"-- --- ---- --- ------ ----- ------- ---- -- --- ------- --<br>------- ---------- ------ -- 1727, -- ----- -- ---- ------<br>--- ----- --- --- ------ -------- ----- --- ------ ----- --<br>----- ----- ---------- --- --- ------ ------ ---- -- ------<br>------- --- ------ ----- --- ---- ------- -- ---- --- --<br>------- ------",183660.5,183659.80000000075,182373.098,182372.5,182389.768,183673.368,,16,"1727,"
screen,html.Screen,0_2_1_1_17,2021-11-04T12:37:05.323Z,,,,,,,,,,,,,,,,54,,,,,,,,,,,,,,1050.0320000003849,,response,,,100,,,,,,Space,keypress(Space),,,,,-- --- ---- --- ------ ----- ------- ---- -- --- ------- --<br>------- ---------- ------ -- ----- in ----- -- ---- ------<br>--- ----- --- --- ------ -------- ----- --- ------ ----- --<br>----- ----- ---------- --- --- ------ ------ ---- -- ------<br>------- --- ------ ----- --- ---- ------- -- ---- --- --<br>------- ------,184724.30000000075,184723.40000000037,183656.698,183660.70000000112,183673.368,184740.694,,17,in
screen,html.Screen,0_2_1_1_18,2021-11-04T12:37:05.843Z,,,,,,,,,,,,,,,,54,,,,,,,,,,,,,,502.8060000000114,,response,,,100,,,,,,Space,keypress(Space),,,,,-- --- ---- --- ------ ----- ------- ---- -- --- ------- --<br>------- ---------- ------ -- ----- -- order -- ---- ------<br>--- ----- --- --- ------ -------- ----- --- ------ ----- --<br>----- ----- ---------- --- --- ------ ------ ---- -- ------<br>------- --- ------ ----- --- ---- ------- -- ---- --- --<br>------- ------,185244.40000000037,185243.5,184724.021,184724.59999999963,184740.694,185257.23,,18,order
screen,html.Screen,0_2_1_1_19,2021-11-04T12:37:06.155Z,,,,,,,,,,,,,,,,54,,,,,,,,,,,,,,298.17000000036205,,response,,,100,,,,,,Space,keypress(Space),,,,,-- --- ---- --- ------ ----- ------- ---- -- --- ------- --<br>------- ---------- ------ -- ----- -- ----- to ---- ------<br>--- ----- --- --- ------ -------- ----- --- ------ ----- --<br>----- ----- ---------- --- --- ------ ------ ---- -- ------<br>------- --- ------ ----- --- ---- ------- -- ---- --- --<br>------- ------,185556.20000000112,185555.40000000037,185240.56,185244.70000000112,185257.23,185557.396,,19,to
screen,html.Screen,0_2_1_1_20,2021-11-04T12:37:06.483Z,,,,,,,,,,,,,,,,54,,,,,,,,,,,,,,326.0040000003646,,response,,,100,,,,,,Space,keypress(Space),,,,,-- --- ---- --- ------ ----- ------- ---- -- --- ------- --<br>------- ---------- ------ -- ----- -- ----- -- save ------<br>--- ----- --- --- ------ -------- ----- --- ------ ----- --<br>----- ----- ---------- --- --- ------ ------ ---- -- ------<br>------- --- ------ ----- --- ---- ------- -- ---- --- --<br>------- ------,185884.30000000075,185883.40000000037,185540.725,185556.40000000037,185557.396,185890.813,,20,save
screen,html.Screen,0_2_1_1_21,2021-11-04T12:37:07.083Z,,,,,,,,,,,,,,,,54,,,,,,,,,,,,,,592.5870000003779,,response,,,100,,,,,,Space,keypress(Space),,,,,"-- --- ---- --- ------ ----- ------- ---- -- --- ------- --<br>------- ---------- ------ -- ----- -- ----- -- ---- money,<br>--- ----- --- --- ------ -------- ----- --- ------ ----- --<br>----- ----- ---------- --- --- ------ ------ ---- -- ------<br>------- --- ------ ----- --- ---- ------- -- ---- --- --<br>------- ------",186484.20000000112,186483.40000000037,185874.142,185884.5,185890.813,186490.913,,21,"money,"
screen,html.Screen,0_2_1_1_22,2021-11-04T12:37:07.531Z,,,,,,,,,,,,,,,,54,,,,,,,,,,,,,,440.48700000037206,,response,,,100,,,,,,Space,keypress(Space),,,,,-- --- ---- --- ------ ----- ------- ---- -- --- ------- --<br>------- ---------- ------ -- ----- -- ----- -- ---- ------<br>the ----- --- --- ------ -------- ----- --- ------ ----- --<br>----- ----- ---------- --- --- ------ ------ ---- -- ------<br>------- --- ------ ----- --- ---- ------- -- ---- --- --<br>------- ------,186932.20000000112,186931.40000000037,186474.243,186484.40000000037,186490.913,186941.131,,22,the
screen,html.Screen,0_2_1_1_23,2021-11-04T12:37:07.979Z,,,,,,,,,,,,,,,,54,,,,,,,,,,,,,,438.2690000003786,,response,,,100,,,,,,Space,keypress(Space),,,,,-- --- ---- --- ------ ----- ------- ---- -- --- ------- --<br>------- ---------- ------ -- ----- -- ----- -- ---- ------<br>--- state --- --- ------ -------- ----- --- ------ ----- --<br>----- ----- ---------- --- --- ------ ------ ---- -- ------<br>------- --- ------ ----- --- ---- ------- -- ---- --- --<br>------- ------,187380.09999999963,187379.40000000037,186924.46,186932.40000000037,186941.131,187391.062,,23,state
screen,html.Screen,0_2_1_1_24,2021-11-04T12:37:08.827Z,,,,,,,,,,,,,,,,54,,,,,,,,,,,,,,836.2380000007397,,response,,,100,,,,,,Space,keypress(Space),,,,,-- --- ---- --- ------ ----- ------- ---- -- --- ------- --<br>------- ---------- ------ -- ----- -- ----- -- ---- ------<br>--- ----- cut --- ------ -------- ----- --- ------ ----- --<br>----- ----- ---------- --- --- ------ ------ ---- -- ------<br>------- --- ------ ----- --- ---- ------- -- ---- --- --<br>------- ------,188228.09999999963,188227.30000000075,187374.393,187380.40000000037,187391.062,188241.515,,24,cut
screen,html.Screen,0_2_1_1_25,2021-11-04T12:37:09.211Z,,,,,,,,,,,,,,,,54,,,,,,,,,,,,,,369.7850000007311,,response,,,100,,,,,,Space,keypress(Space),,,,,-- --- ---- --- ------ ----- ------- ---- -- --- ------- --<br>------- ---------- ------ -- ----- -- ----- -- ---- ------<br>--- ----- --- the ------ -------- ----- --- ------ ----- --<br>----- ----- ---------- --- --- ------ ------ ---- -- ------<br>------- --- ------ ----- --- ---- ------- -- ---- --- --<br>------- ------,188612.09999999963,188611.30000000075,188224.843,188228.40000000037,188241.515,188624.866,,25,the
screen,html.Screen,0_2_1_1_26,2021-11-04T12:37:09.955Z,,,,,,,,,,,,,,,,54,,,,,,,,,,,,,,730.434000000736,,response,,,100,,,,,,Space,keypress(Space),,,,,-- --- ---- --- ------ ----- ------- ---- -- --- ------- --<br>------- ---------- ------ -- ----- -- ----- -- ---- ------<br>--- ----- --- --- bonds' -------- ----- --- ------ ----- --<br>----- ----- ---------- --- --- ------ ------ ---- -- ------<br>------- --- ------ ----- --- ---- ------- -- ---- --- --<br>------- ------,189356.09999999963,189355.30000000075,188608.195,188612.30000000075,188624.866,189358.396,,26,bonds'
screen,html.Screen,0_2_1_1_27,2021-11-04T12:37:10.419Z,,,,,,,,,,,,,,,,54,,,,,,,,,,,,,,460.80400000110967,,response,,,100,,,,,,Space,keypress(Space),,,,,-- --- ---- --- ------ ----- ------- ---- -- --- ------- --<br>------- ---------- ------ -- ----- -- ----- -- ---- ------<br>--- ----- --- --- ------ interest ----- --- ------ ----- --<br>----- ----- ---------- --- --- ------ ------ ---- -- ------<br>------- --- ------ ----- --- ---- ------- -- ---- --- --<br>------- ------,189820,189819.20000000112,189341.725,189356.30000000075,189358.396,189825.206,,27,interest
screen,html.Screen,0_2_1_1_28,2021-11-04T12:37:11.323Z,,,,,,,,,,,,,,,,54,,,,,,,,,,,,,,897.994000001112,,response,,,100,,,,,,Space,keypress(Space),,,,,-- --- ---- --- ------ ----- ------- ---- -- --- ------- --<br>------- ---------- ------ -- ----- -- ----- -- ---- ------<br>--- ----- --- --- ------ -------- rate. --- ------ ----- --<br>----- ----- ---------- --- --- ------ ------ ---- -- ------<br>------- --- ------ ----- --- ---- ------- -- ---- --- --<br>------- ------,190724,190723.20000000112,189808.535,189820.20000000112,189825.206,190725.429,,28,rate.
screen,html.Screen,0_2_1_1_29,2021-11-04T12:37:12.075Z,,,,,,,,,,,,,,,,54,,,,,,,,,,,,,,749.6709999996237,,response,,,100,,,,,,Space,keypress(Space),,,,,-- --- ---- --- ------ ----- ------- ---- -- --- ------- --<br>------- ---------- ------ -- ----- -- ----- -- ---- ------<br>--- ----- --- --- ------ -------- ----- The ------ ----- --<br>----- ----- ---------- --- --- ------ ------ ---- -- ------<br>------- --- ------ ----- --- ---- ------- -- ---- --- --<br>------- ------,191476,191475.09999999963,190708.758,190724.20000000112,190725.429,191492.236,,29,The
screen,html.Screen,0_2_1_1_30,2021-11-04T12:37:12.707Z,,,,,,,,,,,,,,,,54,,,,,,,,,,,,,,615.363999999623,,response,,,100,,,,,,Space,keypress(Space),,,,,-- --- ---- --- ------ ----- ------- ---- -- --- ------- --<br>------- ---------- ------ -- ----- -- ----- -- ---- ------<br>--- ----- --- --- ------ -------- ----- --- market ----- --<br>----- ----- ---------- --- --- ------ ------ ---- -- ------<br>------- --- ------ ----- --- ---- ------- -- ---- --- --<br>------- ------,192108.30000000075,192107.59999999963,191475.566,191476.20000000112,191492.236,192125.803,,30,market
screen,html.Screen,0_2_1_1_31,2021-11-04T12:37:13.131Z,,,,,,,,,,,,,,,,54,,,,,,,,,,,,,,405.29699999961304,,response,,,100,,,,,,Space,keypress(Space),,,,,-- --- ---- --- ------ ----- ------- ---- -- --- ------- --<br>------- ---------- ------ -- ----- -- ----- -- ---- ------<br>--- ----- --- --- ------ -------- ----- --- ------ value --<br>----- ----- ---------- --- --- ------ ------ ---- -- ------<br>------- --- ------ ----- --- ---- ------- -- ---- --- --<br>------- ------,192531.90000000037,192531.09999999963,192109.132,192108.5,192125.803,192542.607,,31,value
screen,html.Screen,0_2_1_1_32,2021-11-04T12:37:13.707Z,,,,,,,,,,,,,,,,54,,,,,,,,,,,,,,564.4929999996384,,response,,,100,,,,,,Space,keypress(Space),,,,,-- --- ---- --- ------ ----- ------- ---- -- --- ------- --<br>------- ---------- ------ -- ----- -- ----- -- ---- ------<br>--- ----- --- --- ------ -------- ----- --- ------ ----- of<br>----- ----- ---------- --- --- ------ ------ ---- -- ------<br>------- --- ------ ----- --- ---- ------- -- ---- --- --<br>------- ------,193107.90000000037,193107.09999999963,192525.936,192532.20000000112,192542.607,193109.259,,32,of
screen,html.Screen,0_2_1_1_33,2021-11-04T12:37:14.123Z,,,,,,,,,,,,,,,,54,,,,,,,,,,,,,,413.7410000000091,,response,,,100,,,,,,Space,keypress(Space),,,,,-- --- ---- --- ------ ----- ------- ---- -- --- ------- --<br>------- ---------- ------ -- ----- -- ----- -- ---- ------<br>--- ----- --- --- ------ -------- ----- --- ------ ----- --<br>these ----- ---------- --- --- ------ ------ ---- -- ------<br>------- --- ------ ----- --- ---- ------- -- ---- --- --<br>------- ------,193523.80000000075,193523,193092.59,193108.09999999963,193109.259,193526.313,,33,these
screen,html.Screen,0_2_1_1_34,2021-11-04T12:37:14.555Z,,,,,,,,,,,,,,,,54,,,,,,,,,,,,,,428.68700000000536,,response,,,100,,,,,,Space,keypress(Space),,,,,-- --- ---- --- ------ ----- ------- ---- -- --- ------- --<br>------- ---------- ------ -- ----- -- ----- -- ---- ------<br>--- ----- --- --- ------ -------- ----- --- ------ ----- --<br>----- bonds ---------- --- --- ------ ------ ---- -- ------<br>------- --- ------ ----- --- ---- ------- -- ---- --- --<br>------- ------,193955.80000000075,193955,193509.64,193524,193526.313,193959.643,,34,bonds
screen,html.Screen,0_2_1_1_35,2021-11-04T12:37:15.571Z,,,,,,,,,,,,,,,,54,,,,,,,,,,,,,,1011.2570000003616,,response,,,100,,,,,,Space,keypress(Space),,,,,"-- --- ---- --- ------ ----- ------- ---- -- --- ------- --<br>------- ---------- ------ -- ----- -- ----- -- ---- ------<br>--- ----- --- --- ------ -------- ----- --- ------ ----- --<br>----- ----- plummeted, --- --- ------ ------ ---- -- ------<br>------- --- ------ ----- --- ---- ------- -- ---- --- --<br>------- ------",194971.80000000075,194970.90000000037,193942.972,193956.09999999963,193959.643,194976.471,,35,"plummeted,"
screen,html.Screen,0_2_1_1_36,2021-11-04T12:37:16.019Z,,,,,,,,,,,,,,,,54,,,,,,,,,,,,,,442.4290000003821,,response,,,100,,,,,,Space,keypress(Space),,,,,-- --- ---- --- ------ ----- ------- ---- -- --- ------- --<br>------- ---------- ------ -- ----- -- ----- -- ---- ------<br>--- ----- --- --- ------ -------- ----- --- ------ ----- --<br>----- ----- ---------- and --- ------ ------ ---- -- ------<br>------- --- ------ ----- --- ---- ------- -- ---- --- --<br>------- ------,195419.80000000075,195418.90000000037,194959.801,194972,194976.471,195426.725,,36,and
screen,html.Screen,0_2_1_1_37,2021-11-04T12:37:16.507Z,,,,,,,,,,,,,,,,54,,,,,,,,,,,,,,480.1750000003667,,response,,,100,,,,,,Space,keypress(Space),,,,,-- --- ---- --- ------ ----- ------- ---- -- --- ------- --<br>------- ---------- ------ -- ----- -- ----- -- ---- ------<br>--- ----- --- --- ------ -------- ----- --- ------ ----- --<br>----- ----- ---------- --- the ------ ------ ---- -- ------<br>------- --- ------ ----- --- ---- ------- -- ---- --- --<br>------- ------,195907.70000000112,195906.90000000037,195410.054,195420.09999999963,195426.725,195910.156,,37,the
screen,html.Screen,0_2_1_1_38,2021-11-04T12:37:17.179Z,,,,,,,,,,,,,,,,54,,,,,,,,,,,,,,668.8440000000119,,response,,,100,,,,,,Space,keypress(Space),,,,,-- --- ---- --- ------ ----- ------- ---- -- --- ------- --<br>------- ---------- ------ -- ----- -- ----- -- ---- ------<br>--- ----- --- --- ------ -------- ----- --- ------ ----- --<br>----- ----- ---------- --- --- market ------ ---- -- ------<br>------- --- ------ ----- --- ---- ------- -- ---- --- --<br>------- ------,196579.70000000112,196579,195893.485,195907.90000000037,195910.156,196593.671,,38,market
screen,html.Screen,0_2_1_1_39,2021-11-04T12:37:17.731Z,,,,,,,,,,,,,,,,54,,,,,,,,,,,,,,537.2290000003704,,response,,,100,,,,,,Space,keypress(Space),,,,,-- --- ---- --- ------ ----- ------- ---- -- --- ------- --<br>------- ---------- ------ -- ----- -- ----- -- ---- ------<br>--- ----- --- --- ------ -------- ----- --- ------ ----- --<br>----- ----- ---------- --- --- ------ became ---- -- ------<br>------- --- ------ ----- --- ---- ------- -- ---- --- --<br>------- ------,197131.59999999963,197130.90000000037,196577,196580,196593.671,197143.818,,39,became
screen,html.Screen,0_2_1_1_40,2021-11-04T12:37:19.171Z,,,,,,,,,,,,,,,,54,,,,,,,,,,,,,,1427.0820000003732,,response,,,100,,,,,,Space,keypress(Space),,,,,-- --- ---- --- ------ ----- ------- ---- -- --- ------- --<br>------- ---------- ------ -- ----- -- ----- -- ---- ------<br>--- ----- --- --- ------ -------- ----- --- ------ ----- --<br>----- ----- ---------- --- --- ------ ------ wary -- ------<br>------- --- ------ ----- --- ---- ------- -- ---- --- --<br>------- ------,198571.59999999963,198570.90000000037,197127.147,197132,197143.818,198577.422,,40,wary
screen,html.Screen,0_2_1_1_41,2021-11-04T12:37:19.539Z,,,,,,,,,,,,,,,,54,,,,,,,,,,,,,,361.3780000007537,,response,,,100,,,,,,Space,keypress(Space),,,,,-- --- ---- --- ------ ----- ------- ---- -- --- ------- --<br>------- ---------- ------ -- ----- -- ----- -- ---- ------<br>--- ----- --- --- ------ -------- ----- --- ------ ----- --<br>----- ----- ---------- --- --- ------ ------ ---- of ------<br>------- --- ------ ----- --- ---- ------- -- ---- --- --<br>------- ------,198939.59999999963,198938.80000000075,198560.752,198571.90000000037,198577.422,198944.321,,41,of
screen,html.Screen,0_2_1_1_42,2021-11-04T12:37:20.179Z,,,,,,,,,,,,,,,,54,,,,,,,,,,,,,,634.4790000007488,,response,,,100,,,,,,Space,keypress(Space),,,,,-- --- ---- --- ------ ----- ------- ---- -- --- ------- --<br>------- ---------- ------ -- ----- -- ----- -- ---- ------<br>--- ----- --- --- ------ -------- ----- --- ------ ----- --<br>----- ----- ---------- --- --- ------ ------ ---- -- French<br>------- --- ------ ----- --- ---- ------- -- ---- --- --<br>------- ------,199579.59999999963,199578.80000000075,198927.65,198939.80000000075,198944.321,199594.486,,42,French
screen,html.Screen,0_2_1_1_43,2021-11-04T12:37:21.206Z,,,,,,,,,,,,,,,,54,,,,,,,,,,,,,,1008.3140000007406,,response,,,100,,,,,,Space,keypress(Space),,,,,-- --- ---- --- ------ ----- ------- ---- -- --- ------- --<br>------- ---------- ------ -- ----- -- ----- -- ---- ------<br>--- ----- --- --- ------ -------- ----- --- ------ ----- --<br>----- ----- ---------- --- --- ------ ------ ---- -- ------<br>credit. --- ------ ----- --- ---- ------- -- ---- --- --<br>------- ------,200603.59999999963,200602.80000000075,199577.815,199579.90000000037,199594.486,200611.342,,43,credit.
screen,html.Screen,0_2_1_1_44,2021-11-04T12:37:22.046Z,,,,,,,,,,,,,,,,54,,,,,,,,,,,,,,831.3580000011134,,response,,,100,,,,,,Space,keypress(Space),,,,,-- --- ---- --- ------ ----- ------- ---- -- --- ------- --<br>------- ---------- ------ -- ----- -- ----- -- ---- ------<br>--- ----- --- --- ------ -------- ----- --- ------ ----- --<br>----- ----- ---------- --- --- ------ ------ ---- -- ------<br>------- The ------ ----- --- ---- ------- -- ---- --- --<br>------- ------,201443.59999999963,201442.70000000112,200594.672,200603.80000000075,200611.342,201444.995,,44,The
screen,html.Screen,0_2_1_1_45,2021-11-04T12:37:22.510Z,,,,,,,,,,,,,,,,54,,,,,,,,,,,,,,461.70500000112224,,response,,,100,,,,,,Space,keypress(Space),,,,,-- --- ---- --- ------ ----- ------- ---- -- --- ------- --<br>------- ---------- ------ -- ----- -- ----- -- ---- ------<br>--- ----- --- --- ------ -------- ----- --- ------ ----- --<br>----- ----- ---------- --- --- ------ ------ ---- -- ------<br>------- --- French ----- --- ---- ------- -- ---- --- --<br>------- ------,201907.5,201906.70000000112,201428.324,201443.80000000075,201444.995,201911.775,,45,French
screen,html.Screen,0_2_1_1_46,2021-11-04T12:37:22.950Z,,,,,,,,,,,,,,,,54,,,,,,,,,,,,,,435.4250000011234,,response,,,100,,,,,,Space,keypress(Space),,,,,-- --- ---- --- ------ ----- ------- ---- -- --- ------- --<br>------- ---------- ------ -- ----- -- ----- -- ---- ------<br>--- ----- --- --- ------ -------- ----- --- ------ ----- --<br>----- ----- ---------- --- --- ------ ------ ---- -- ------<br>------- --- ------ state --- ---- ------- -- ---- --- --<br>------- ------,202347.90000000037,202347.20000000112,201895.104,201907.70000000112,201911.775,202361.899,,46,state
screen,html.Screen,0_2_1_1_47,2021-11-04T12:37:23.358Z,,,,,,,,,,,,,,,,54,,,,,,,,,,,,,,392.8010000011127,,response,,,100,,,,,,Space,keypress(Space),,,,,-- --- ---- --- ------ ----- ------- ---- -- --- ------- --<br>------- ---------- ------ -- ----- -- ----- -- ---- ------<br>--- ----- --- --- ------ -------- ----- --- ------ ----- --<br>----- ----- ---------- --- --- ------ ------ ---- -- ------<br>------- --- ------ ----- was ---- ------- -- ---- --- --<br>------- ------,202755.40000000037,202754.70000000112,202345.228,202348.30000000075,202361.899,202762.007,,47,was
screen,html.Screen,0_2_1_1_48,2021-11-04T12:37:23.742Z,,,,,,,,,,,,,,,,54,,,,,,,,,,,,,,376.69300000110525,,response,,,100,,,,,,Space,keypress(Space),,,,,-- --- ---- --- ------ ----- ------- ---- -- --- ------- --<br>------- ---------- ------ -- ----- -- ----- -- ---- ------<br>--- ----- --- --- ------ -------- ----- --- ------ ----- --<br>----- ----- ---------- --- --- ------ ------ ---- -- ------<br>------- --- ------ ----- --- left ------- -- ---- --- --<br>------- ------,203139.40000000037,203138.70000000112,202745.336,202755.59999999963,202762.007,203145.396,,48,left
screen,html.Screen,0_2_1_1_49,2021-11-04T12:37:24.342Z,,,,,,,,,,,,,,,,54,,,,,,,,,,,,,,593.3040000011097,,response,,,100,,,,,,Space,keypress(Space),,,,,-- --- ---- --- ------ ----- ------- ---- -- --- ------- --<br>------- ---------- ------ -- ----- -- ----- -- ---- ------<br>--- ----- --- --- ------ -------- ----- --- ------ ----- --<br>----- ----- ---------- --- --- ------ ------ ---- -- ------<br>------- --- ------ ----- --- ---- without -- ---- --- --<br>------- ------,203739.40000000037,203738.70000000112,203128.726,203139.70000000112,203145.396,203745.634,,49,without
screen,html.Screen,0_2_1_1_50,2021-11-04T12:37:24.702Z,,,,,,,,,,,,,,,,54,,,,,,,,,,,,,,352.96599999963655,,response,,,100,,,,,,Space,keypress(Space),,,,,-- --- ---- --- ------ ----- ------- ---- -- --- ------- --<br>------- ---------- ------ -- ----- -- ----- -- ---- ------<br>--- ----- --- --- ------ -------- ----- --- ------ ----- --<br>----- ----- ---------- --- --- ------ ------ ---- -- ------<br>------- --- ------ ----- --- ---- ------- an ---- --- --<br>------- ------,204099.40000000037,204098.59999999963,203728.963,203739.59999999963,203745.634,204112.325,,50,an
screen,html.Screen,0_2_1_1_51,2021-11-04T12:37:25.134Z,,,,,,,,,,,,,,,,54,,,,,,,,,,,,,,418.27499999961583,,response,,,100,,,,,,Space,keypress(Space),,,,,-- --- ---- --- ------ ----- ------- ---- -- --- ------- --<br>------- ---------- ------ -- ----- -- ----- -- ---- ------<br>--- ----- --- --- ------ -------- ----- --- ------ ----- --<br>----- ----- ---------- --- --- ------ ------ ---- -- ------<br>------- --- ------ ----- --- ---- ------- -- easy --- --<br>------- ------,204531.40000000037,204530.59999999963,204095.655,204099.70000000112,204112.325,204545.815,,51,easy
screen,html.Screen,0_2_1_1_52,2021-11-04T12:37:25.518Z,,,,,,,,,,,,,,,,54,,,,,,,,,,,,,,368.78499999962514,,response,,,100,,,,,,Space,keypress(Space),,,,,-- --- ---- --- ------ ----- ------- ---- -- --- ------- --<br>------- ---------- ------ -- ----- -- ----- -- ---- ------<br>--- ----- --- --- ------ -------- ----- --- ------ ----- --<br>----- ----- ---------- --- --- ------ ------ ---- -- ------<br>------- --- ------ ----- --- ---- ------- -- ---- way --<br>------- ------,204915.40000000037,204914.59999999963,204529.144,204531.59999999963,204545.815,204929.266,,52,way
screen,html.Screen,0_2_1_1_53,2021-11-04T12:37:25.958Z,,,,,,,,,,,,,,,,54,,,,,,,,,,,,,,425.3339999996242,,response,,,100,,,,,,Space,keypress(Space),,,,,-- --- ---- --- ------ ----- ------- ---- -- --- ------- --<br>------- ---------- ------ -- ----- -- ----- -- ---- ------<br>--- ----- --- --- ------ -------- ----- --- ------ ----- --<br>----- ----- ---------- --- --- ------ ------ ---- -- ------<br>------- --- ------ ----- --- ---- ------- -- ---- --- of<br>------- ------,205355.30000000075,205354.59999999963,204912.595,204915.70000000112,204929.266,205362.583,,53,of
screen,html.Screen,0_2_1_1_54,2021-11-04T12:37:26.926Z,,,,,,,,,,,,,,,,54,,,,,,,,,,,,,,959.9169999999867,,response,,,100,,,,,,Space,keypress(Space),,,,,-- --- ---- --- ------ ----- ------- ---- -- --- ------- --<br>------- ---------- ------ -- ----- -- ----- -- ---- ------<br>--- ----- --- --- ------ -------- ----- --- ------ ----- --<br>----- ----- ---------- --- --- ------ ------ ---- -- ------<br>------- --- ------ ----- --- ---- ------- -- ---- --- --<br>raising ------,206323.30000000075,206322.5,205345.914,205355.59999999963,205362.583,206329.731,,54,raising
screen,html.Screen,0_2_1_1_55,2021-11-04T12:37:27.350Z,,,,,,,,,,,,,,,,54,,,,,,,,,,,,,,416.76900000000023,,response,,,100,,,,,,Space,keypress(Space),,,,,-- --- ---- --- ------ ----- ------- ---- -- --- ------- --<br>------- ---------- ------ -- ----- -- ----- -- ---- ------<br>--- ----- --- --- ------ -------- ----- --- ------ ----- --<br>----- ----- ---------- --- --- ------ ------ ---- -- ------<br>------- --- ------ ----- --- ---- ------- -- ---- --- --<br>------- money.,206747.30000000075,206746.5,206313.059,206323.59999999963,206329.731,206763.028,,55,money.
Item 100,flow.Loop,0_2_1_1,2021-11-04T12:37:27.350Z,,,,,,,,,,,,,,,,,,,,,,,,,,,,,,37977.035,,completion,,,,A,,,,,,,,,,silence,,206747.80000000075,206746.5,168752.794,168754.09999999963,168769.465,206763.028,,,
Question 1,html.Screen,0_2_1_2,2021-11-04T12:37:33.886Z,,,,,,,,,,,,,,,,,,,,,,,,,,,true,TRUE,,6518.972000000009,,response,,,100,A,,,,,TRUE,click #choice-1,,,,silence,,213283.30000000075,213282,206746.358,206748,206763.028,213298.261,,,
Question 2,html.Screen,0_2_1_3,2021-11-04T12:37:37.773Z,,,,,,,,,,,,,,,,,,,,,,,,,,,true,FALSE,,3871.439000001119,,response,,,100,A,,,,,FALSE,click #choice-2,,,,silence,,217170.90000000037,217169.70000000112,213281.587,213283.59999999963,213298.261,217182.497,,,
Item 100,flow.Sequence,0_2_1,2021-11-04T12:37:37.774Z,,,,,,,,,,,,,,,,,,,,,,,,,,,,,,58402.790000001114,,completion,,,,,,,,,,,,,,,,217171.20000000112,217169.70000000112,158750.236,158766.40000000037,158766.91,217182.497,,,
End of Practice,html.Page,0_2_2,2021-11-04T12:37:42.806Z,,,,,,,,,,,,,,,,,,,,,,,,,,,,,,5020.602999999624,,form submission,,,,,,,,,,,,,,,,222203.5,222203.09999999963,217165.827,217171.5,217182.497,222216.952,,,
Practice,flow.Sequence,0_2,2021-11-04T12:37:42.806Z,,,,,,,,,,,,,,,,,,,,,,,,,,,,,,136422.63099999964,,completion,,,,,,,,,,,,,,,,222204,222203.09999999963,85763.799,85769.90000000037,85780.469,222216.952,,,
Trap_instruction,html.Page,0_3_0,2021-11-04T12:37:44.606Z,,,,,,,,,,,,,,,,,,,,,,,,,,,,,,1785.9480000003823,,form submission,,,,,,,,,,,,,,,,224003.30000000075,224002.90000000037,222200.282,222204.30000000075,222216.952,224051.017,,,
trap_trial,html.Screen,0_3_1,2021-11-04T12:37:50.989Z,,,,,,,,,,,,,,,,,,,,,,,,,,,true,1,,6334.2830000007525,,response,,,,,,,,,1,click #choice-1,,,,,,230386.70000000112,230385.30000000075,224001.004,224003.5,224051.017,230400.966,,,
end of trap trial,html.Page,0_3_2,2021-11-04T12:37:52.661Z,,,,,,,,,,,,,,,,,,,,,,,,,,,,,,1657.6339999996417,,form submission,,,,,,,,,,,,,,,,232059,232058.59999999963,230384.344,230387,230400.966,232070.151,,,
Trap 1,flow.Sequence,0_3,2021-11-04T12:37:52.662Z,,,,,,,,,,,,,,,,,,,,,,,,,,,,,,9841.647999999637,,completion,,,,,,,,,,,,,,,,232059.5,232058.59999999963,222200.282,222204.30000000075,222216.952,232070.151,,,
Standby,html.Page,0_4_0,2021-11-04T12:38:00.659Z,,,,,,,,,,,,,,,,,,,,,,,,,,,,,,8001.281999999977,,timeout,,,,,,,,,,,,,,,,240056.40000000037,240054.763,232053.471,232059.90000000037,232070.151,240071.433,,,
Holding screen,html.Screen,0_4_1_0_0,2021-11-04T12:38:07.661Z,,,,,,,,,,,,,,,,,,,,,,,,,,,,,,7002.524000000005,,timeout,,,,,,,,,,,,,,,,247058.40000000037,247057.286,240054.763,240056.70000000112,240071.433,247073.957,,,
screen,html.Screen,0_4_1_0_1_0,2021-11-04T12:38:09.484Z,,,,,,,,,,,,,,,,48,,,,,,,,,,,,,,1807.2430000011227,,response,,,10,A,,,,,Space,keypress(Space),,,,silence,As -- --- ------ ------- --------- ----------- --------<br>--------- -------- --- ------- -- ------- ---- -- ------<br>-- --- -------- -------- ---------- ---- ---- ---- ------<br>-- --------- -- ---- -- --- -- --- ------- -- - -----<br>---------- -- -- -- ---- ----- -- ------ -- --- ------<br>-------,248882.09999999963,248881.20000000112,247057.286,247058.70000000112,247073.957,248891.036,,0,As
screen,html.Screen,0_4_1_0_1_1,2021-11-04T12:38:10.028Z,,,,,,,,,,,,,,,,48,,,,,,,,,,,,,,533.6640000011248,,response,,,10,A,,,,,Space,keypress(Space),,,,silence,-- in --- ------ ------- --------- ----------- --------<br>--------- -------- --- ------- -- ------- ---- -- ------<br>-- --- -------- -------- ---------- ---- ---- ---- ------<br>-- --------- -- ---- -- --- -- --- ------- -- - -----<br>---------- -- -- -- ---- ----- -- ------ -- --- ------<br>-------,249425.59999999963,249424.70000000112,248874.365,248882.40000000037,248891.036,249441.022,,1,in
screen,html.Screen,0_4_1_0_1_2,2021-11-04T12:38:10.604Z,,,,,,,,,,,,,,,,48,,,,,,,,,,,,,,559.4780000000028,,response,,,10,A,,,,,Space,keypress(Space),,,,silence,-- -- the ------ ------- --------- ----------- --------<br>--------- -------- --- ------- -- ------- ---- -- ------<br>-- --- -------- -------- ---------- ---- ---- ---- ------<br>-- --------- -- ---- -- --- -- --- ------- -- - -----<br>---------- -- -- -- ---- ----- -- ------ -- --- ------<br>-------,250001.40000000037,250000.5,249424.352,249425.90000000037,249441.022,250008.046,,2,the
screen,html.Screen,0_4_1_0_1_3,2021-11-04T12:38:11.332Z,,,,,,,,,,,,,,,,48,,,,,,,,,,,,,,720.4539999999979,,response,,,10,A,,,,,Space,keypress(Space),,,,silence,-- -- --- United ------- --------- ----------- --------<br>--------- -------- --- ------- -- ------- ---- -- ------<br>-- --- -------- -------- ---------- ---- ---- ---- ------<br>-- --------- -- ---- -- --- -- --- ------- -- - -----<br>---------- -- -- -- ---- ----- -- ------ -- --- ------<br>-------,250729.40000000037,250728.5,249991.375,250001.80000000075,250008.046,250741.56,,3,United
screen,html.Screen,0_4_1_0_1_4,2021-11-04T12:38:12.420Z,,,,,,,,,,,,,,,,48,,,,,,,,,,,,,,1075.0399999996298,,response,,,10,A,,,,,Space,keypress(Space),,,,silence,"-- -- --- ------ States, --------- ----------- --------<br>--------- -------- --- ------- -- ------- ---- -- ------<br>-- --- -------- -------- ---------- ---- ---- ---- ------<br>-- --------- -- ---- -- --- -- --- ------- -- - -----<br>---------- -- -- -- ---- ----- -- ------ -- --- ------<br>-------",251817.40000000037,251816.59999999963,250724.889,250729.70000000112,250741.56,251825.184,,4,"States,"
screen,html.Screen,0_4_1_0_1_5,2021-11-04T12:38:13.364Z,,,,,,,,,,,,,,,,48,,,,,,,,,,,,,,935.2160000003641,,response,,,10,A,,,,,Space,keypress(Space),,,,silence,-- -- --- ------ ------- Colombian ----------- --------<br>--------- -------- --- ------- -- ------- ---- -- ------<br>-- --- -------- -------- ---------- ---- ---- ---- ------<br>-- --------- -- ---- -- --- -- --- ------- -- - -----<br>---------- -- -- -- ---- ----- -- ------ -- --- ------<br>-------,252761.20000000112,252760.40000000037,251808.513,251817.70000000112,251825.184,252775.354,,5,Colombian
screen,html.Screen,0_4_1_0_1_6,2021-11-04T12:38:14.636Z,,,,,,,,,,,,,,,,48,,,,,,,,,,,,,,1257.0460000003804,,response,,,10,A,,,,,Space,keypress(Space),,,,silence,-- -- --- ------ ------- --------- legislation --------<br>--------- -------- --- ------- -- ------- ---- -- ------<br>-- --- -------- -------- ---------- ---- ---- ---- ------<br>-- --------- -- ---- -- --- -- --- ------- -- - -----<br>---------- -- -- -- ---- ----- -- ------ -- --- ------<br>-------,254033.20000000112,254032.40000000037,252758.684,252761.40000000037,252775.354,254042.437,,6,legislation
screen,html.Screen,0_4_1_0_1_7,2021-11-04T12:38:15.163Z,,,,,,,,,,,,,,,,48,,,,,,,,,,,,,,517.8630000007397,,response,,,10,A,,,,,Space,keypress(Space),,,,silence,-- -- --- ------ ------- --------- ----------- requires<br>--------- -------- --- ------- -- ------- ---- -- ------<br>-- --- -------- -------- ---------- ---- ---- ---- ------<br>-- --------- -- ---- -- --- -- --- ------- -- - -----<br>---------- -- -- -- ---- ----- -- ------ -- --- ------<br>-------,254561.09999999963,254560.30000000075,254025.766,254033.5,254042.437,254575.923,,7,requires
screen,html.Screen,0_4_1_0_1_8,2021-11-04T12:38:15.899Z,,,,,,,,,,,,,,,,48,,,,,,,,,,,,,,720.3770000007353,,response,,,10,A,,,,,Space,keypress(Space),,,,silence,-- -- --- ------ ------- --------- ----------- --------<br>travelers -------- --- ------- -- ------- ---- -- ------<br>-- --- -------- -------- ---------- ---- ---- ---- ------<br>-- --------- -- ---- -- --- -- --- ------- -- - -----<br>---------- -- -- -- ---- ----- -- ------ -- --- ------<br>-------,255297.09999999963,255296.30000000075,254559.252,254561.40000000037,254575.923,255309.386,,8,travelers
screen,html.Screen,0_4_1_0_1_9,2021-11-04T12:38:16.699Z,,,,,,,,,,,,,,,,48,,,,,,,,,,,,,,787.0140000003739,,response,,,10,A,,,,,Space,keypress(Space),,,,silence,-- -- --- ------ ------- --------- ----------- --------<br>--------- entering --- ------- -- ------- ---- -- ------<br>-- --- -------- -------- ---------- ---- ---- ---- ------<br>-- --------- -- ---- -- --- -- --- ------- -- - -----<br>---------- -- -- -- ---- ----- -- ------ -- --- ------<br>-------,256097.20000000112,256096.40000000037,255292.716,255297.40000000037,255309.386,256109.693,,9,entering
screen,html.Screen,0_4_1_0_1_10,2021-11-04T12:38:17.355Z,,,,,,,,,,,,,,,,48,,,,,,,,,,,,,,642.6070000007458,,response,,,10,A,,,,,Space,keypress(Space),,,,silence,-- -- --- ------ ------- --------- ----------- --------<br>--------- -------- the ------- -- ------- ---- -- ------<br>-- --- -------- -------- ---------- ---- ---- ---- ------<br>-- --------- -- ---- -- --- -- --- ------- -- - -----<br>---------- -- -- -- ---- ----- -- ------ -- --- ------<br>-------,256753.09999999963,256752.30000000075,256093.022,256097.40000000037,256109.693,256759.785,,10,the
screen,html.Screen,0_4_1_0_1_11,2021-11-04T12:38:18.003Z,,,,,,,,,,,,,,,,48,,,,,,,,,,,,,,640.4150000011141,,response,,,10,A,,,,,Space,keypress(Space),,,,silence,-- -- --- ------ ------- --------- ----------- --------<br>--------- -------- --- country -- ------- ---- -- ------<br>-- --- -------- -------- ---------- ---- ---- ---- ------<br>-- --------- -- ---- -- --- -- --- ------- -- - -----<br>---------- -- -- -- ---- ----- -- ------ -- --- ------<br>-------,257401,257400.20000000112,256743.115,256753.40000000037,256759.785,257410.019,,11,country
screen,html.Screen,0_4_1_0_1_12,2021-11-04T12:38:18.507Z,,,,,,,,,,,,,,,,48,,,,,,,,,,,,,,494.18100000111735,,response,,,10,A,,,,,Space,keypress(Space),,,,silence,-- -- --- ------ ------- --------- ----------- --------<br>--------- -------- --- ------- to ------- ---- -- ------<br>-- --- -------- -------- ---------- ---- ---- ---- ------<br>-- --------- -- ---- -- --- -- --- ------- -- - -----<br>---------- -- -- -- ---- ----- -- ------ -- --- ------<br>-------,257905,257904.20000000112,257393.348,257401.20000000112,257410.019,257910.16,,12,to
screen,html.Screen,0_4_1_0_1_13,2021-11-04T12:38:19.331Z,,,,,,,,,,,,,,,,48,,,,,,,,,,,,,,818.0400000011141,,response,,,10,A,,,,,Space,keypress(Space),,,,silence,-- -- --- ------ ------- --------- ----------- --------<br>--------- -------- --- ------- -- declare ---- -- ------<br>-- --- -------- -------- ---------- ---- ---- ---- ------<br>-- --------- -- ---- -- --- -- --- ------- -- - -----<br>---------- -- -- -- ---- ----- -- ------ -- --- ------<br>-------,258729,258728.20000000112,257893.489,257905.30000000075,257910.16,258743.733,,13,declare
screen,html.Screen,0_4_1_0_1_14,2021-11-04T12:38:20.092Z,,,,,,,,,,,,,,,,48,,,,,,,,,,,,,,744.9670000011101,,response,,,10,A,,,,,Space,keypress(Space),,,,silence,-- -- --- ------ ------- --------- ----------- --------<br>--------- -------- --- ------- -- ------- cash -- ------<br>-- --- -------- -------- ---------- ---- ---- ---- ------<br>-- --------- -- ---- -- --- -- --- ------- -- - -----<br>---------- -- -- -- ---- ----- -- ------ -- --- ------<br>-------,259489.5,259488.70000000112,258727.062,258729.30000000075,258743.733,259493.838,,14,cash
screen,html.Screen,0_4_1_0_1_15,2021-11-04T12:38:20.595Z,,,,,,,,,,,,,,,,48,,,,,,,,,,,,,,498.36200000112876,,response,,,10,A,,,,,Space,keypress(Space),,,,silence,-- -- --- ------ ------- --------- ----------- --------<br>--------- -------- --- ------- -- ------- ---- in ------<br>-- --- -------- -------- ---------- ---- ---- ---- ------<br>-- --------- -- ---- -- --- -- --- ------- -- - -----<br>---------- -- -- -- ---- ----- -- ------ -- --- ------<br>-------,259993,259992.20000000112,259477.168,259489.80000000075,259493.838,259994.055,,15,in
screen,html.Screen,0_4_1_0_1_16,2021-11-04T12:38:21.358Z,,,,,,,,,,,,,,,,48,,,,,,,,,,,,,,758.1450000011246,,response,,,10,A,,,,,Space,keypress(Space),,,,silence,-- -- --- ------ ------- --------- ----------- --------<br>--------- -------- --- ------- -- ------- ---- -- excess<br>-- --- -------- -------- ---------- ---- ---- ---- ------<br>-- --------- -- ---- -- --- -- --- ------- -- - -----<br>---------- -- -- -- ---- ----- -- ------ -- --- ------<br>-------,260752.90000000037,260752.20000000112,259977.384,259993.20000000112,259994.055,260760.859,,16,excess
screen,html.Screen,0_4_1_0_1_17,2021-11-04T12:38:21.862Z,,,,,,,,,,,,,,,,48,,,,,,,,,,,,,,495.24099999963073,,response,,,10,A,,,,,Space,keypress(Space),,,,silence,-- -- --- ------ ------- --------- ----------- --------<br>--------- -------- --- ------- -- ------- ---- -- ------<br>of --- -------- -------- ---------- ---- ---- ---- ------<br>-- --------- -- ---- -- --- -- --- ------- -- - -----<br>---------- -- -- -- ---- ----- -- ------ -- --- ------<br>-------,261256.90000000037,261256.09999999963,260744.189,260753.09999999963,260760.859,261261.074,,17,of
screen,html.Screen,0_4_1_0_1_18,2021-11-04T12:38:22.262Z,,,,,,,,,,,,,,,,48,,,,,,,,,,,,,,395.0259999996342,,response,,,10,A,,,,,Space,keypress(Space),,,,silence,-- -- --- ------ ------- --------- ----------- --------<br>--------- -------- --- ------- -- ------- ---- -- ------<br>-- ten -------- -------- ---------- ---- ---- ---- ------<br>-- --------- -- ---- -- --- -- --- ------- -- - -----<br>---------- -- -- -- ---- ----- -- ------ -- --- ------<br>-------,261656.90000000037,261656.09999999963,261244.403,261257.20000000112,261261.074,261661.169,,18,ten
screen,html.Screen,0_4_1_0_1_19,2021-11-04T12:38:23.214Z,,,,,,,,,,,,,,,,48,,,,,,,,,,,,,,946.9309999996331,,response,,,10,A,,,,,Space,keypress(Space),,,,silence,-- -- --- ------ ------- --------- ----------- --------<br>--------- -------- --- ------- -- ------- ---- -- ------<br>-- --- thousand -------- ---------- ---- ---- ---- ------<br>-- --------- -- ---- -- --- -- --- ------- -- - -----<br>---------- -- -- -- ---- ----- -- ------ -- --- ------<br>-------,262609,262608.0999999996,261644.498,261657.09999999963,261661.169,262611.353,,19,thousand
screen,html.Screen,0_4_1_0_1_20,2021-11-04T12:38:24.454Z,,,,,,,,,,,,,,,,48,,,,,,,,,,,,,,1236.6469999999972,,response,,,10,A,,,,,Space,keypress(Space),,,,silence,-- -- --- ------ ------- --------- ----------- --------<br>--------- -------- --- ------- -- ------- ---- -- ------<br>-- --- -------- dollars. ---------- ---- ---- ---- ------<br>-- --------- -- ---- -- --- -- --- ------- -- - -----<br>---------- -- -- -- ---- ----- -- ------ -- --- ------<br>-------,263848.9000000004,263848,262594.683,262609.2000000011,262611.353,263861.745,,20,dollars.
screen,html.Screen,0_4_1_0_1_21,2021-11-04T12:38:25.542Z,,,,,,,,,,,,,,,,48,,,,,,,,,,,,,,1074.2550000000047,,response,,,10,A,,,,,Space,keypress(Space),,,,silence,-- -- --- ------ ------- --------- ----------- --------<br>--------- -------- --- ------- -- ------- ---- -- ------<br>-- --- -------- -------- Concealing ---- ---- ---- ------<br>-- --------- -- ---- -- --- -- --- ------- -- - -----<br>---------- -- -- -- ---- ----- -- ------ -- --- ------<br>-------,264936.9000000004,264936,263845.074,263849.2000000011,263861.745,264945.378,,21,Concealing
screen,html.Screen,0_4_1_0_1_22,2021-11-04T12:38:26.046Z,,,,,,,,,,,,,,,,48,,,,,,,,,,,,,,494.6219999999739,,response,,,10,A,,,,,Space,keypress(Space),,,,silence,-- -- --- ------ ------- --------- ----------- --------<br>--------- -------- --- ------- -- ------- ---- -- ------<br>-- --- -------- -------- ---------- more ---- ---- ------<br>-- --------- -- ---- -- --- -- --- ------- -- - -----<br>---------- -- -- -- ---- ----- -- ------ -- --- ------<br>-------,265440.80000000075,265440,264928.707,264937.0999999996,264945.378,265445.46,,22,more
screen,html.Screen,0_4_1_0_1_23,2021-11-04T12:38:26.598Z,,,,,,,,,,,,,,,,48,,,,,,,,,,,,,,546.4400000003516,,response,,,10,A,,,,,Space,keypress(Space),,,,silence,-- -- --- ------ ------- --------- ----------- --------<br>--------- -------- --- ------- -- ------- ---- -- ------<br>-- --- -------- -------- ---------- ---- than ---- ------<br>-- --------- -- ---- -- --- -- --- ------- -- - -----<br>---------- -- -- -- ---- ----- -- ------ -- --- ------<br>-------,265992.7000000011,265991.9000000004,265428.79,265441.0999999996,265445.46,265995.663,,23,than
screen,html.Screen,0_4_1_0_1_24,2021-11-04T12:38:27.046Z,,,,,,,,,,,,,,,,48,,,,,,,,,,,,,,444.23700000037206,,response,,,10,A,,,,,Space,keypress(Space),,,,silence,-- -- --- ------ ------- --------- ----------- --------<br>--------- -------- --- ------- -- ------- ---- -- ------<br>-- --- -------- -------- ---------- ---- ---- that ------<br>-- --------- -- ---- -- --- -- --- ------- -- - -----<br>---------- -- -- -- ---- ----- -- ------ -- --- ------<br>-------,266440.80000000075,266439.9000000004,265978.992,265992.9000000004,265995.663,266445.659,,24,that
screen,html.Screen,0_4_1_0_1_25,2021-11-04T12:38:27.838Z,,,,,,,,,,,,,,,,48,,,,,,,,,,,,,,786.2410000003874,,response,,,10,A,,,,,Space,keypress(Space),,,,silence,-- -- --- ------ ------- --------- ----------- --------<br>--------- -------- --- ------- -- ------- ---- -- ------<br>-- --- -------- -------- ---------- ---- ---- ---- amount<br>-- --------- -- ---- -- --- -- --- ------- -- - -----<br>---------- -- -- -- ---- ----- -- ------ -- --- ------<br>-------,267232.7000000011,267231.9000000004,266428.99,266440.9000000004,266445.659,267246.012,,25,amount
screen,html.Screen,0_4_1_0_1_26,2021-11-04T12:38:28.350Z,,,,,,,,,,,,,,,,48,,,,,,,,,,,,,,497.78800000075717,,response,,,10,A,,,,,Space,keypress(Space),,,,silence,-- -- --- ------ ------- --------- ----------- --------<br>--------- -------- --- ------- -- ------- ---- -- ------<br>-- --- -------- -------- ---------- ---- ---- ---- ------<br>to --------- -- ---- -- --- -- --- ------- -- - -----<br>---------- -- -- -- ---- ----- -- ------ -- --- ------<br>-------,267744.5999999996,267743.80000000075,267229.341,267233,267246.012,267746.126,,26,to
screen,html.Screen,0_4_1_0_1_27,2021-11-04T12:38:29.126Z,,,,,,,,,,,,,,,,48,,,,,,,,,,,,,,773.6740000007558,,response,,,10,A,,,,,Space,keypress(Space),,,,silence,-- -- --- ------ ------- --------- ----------- --------<br>--------- -------- --- ------- -- ------- ---- -- ------<br>-- --- -------- -------- ---------- ---- ---- ---- ------<br>-- transport -- ---- -- --- -- --- ------- -- - -----<br>---------- -- -- -- ---- ----- -- ------ -- --- ------<br>-------,268520.5999999996,268519.80000000075,267729.455,267744.80000000075,267746.126,268529.676,,27,transport
screen,html.Screen,0_4_1_0_1_28,2021-11-04T12:38:29.718Z,,,,,,,,,,,,,,,,48,,,,,,,,,,,,,,582.0240000011399,,response,,,10,A,,,,,Space,keypress(Space),,,,silence,-- -- --- ------ ------- --------- ----------- --------<br>--------- -------- --- ------- -- ------- ---- -- ------<br>-- --- -------- -------- ---------- ---- ---- ---- ------<br>-- --------- it ---- -- --- -- --- ------- -- - -----<br>---------- -- -- -- ---- ----- -- ------ -- --- ------<br>-------,269112.5,269111.7000000011,268513.005,268520.9000000004,268529.676,269129.838,,28,it
screen,html.Screen,0_4_1_0_1_29,2021-11-04T12:38:30.614Z,,,,,,,,,,,,,,,,48,,,,,,,,,,,,,,878.2619999996386,,response,,,10,A,,,,,Space,keypress(Space),,,,silence,-- -- --- ------ ------- --------- ----------- --------<br>--------- -------- --- ------- -- ------- ---- -- ------<br>-- --- -------- -------- ---------- ---- ---- ---- ------<br>-- --------- -- into -- --- -- --- ------- -- - -----<br>---------- -- -- -- ---- ----- -- ------ -- --- ------<br>-------,270009,270008.0999999996,269113.167,269112.80000000075,269129.838,270013.339,,29,into
screen,html.Screen,0_4_1_0_1_30,2021-11-04T12:38:31.077Z,,,,,,,,,,,,,,,,48,,,,,,,,,,,,,,458.3610000011395,,response,,,10,A,,,,,Space,keypress(Space),,,,silence,-- -- --- ------ ------- --------- ----------- --------<br>--------- -------- --- ------- -- ------- ---- -- ------<br>-- --- -------- -------- ---------- ---- ---- ---- ------<br>-- --------- -- ---- or --- -- --- ------- -- - -----<br>---------- -- -- -- ---- ----- -- ------ -- --- ------<br>-------,270472.5,270471.7000000011,269996.669,270009.0999999996,270013.339,270480.22,,30,or
screen,html.Screen,0_4_1_0_1_31,2021-11-04T12:38:31.709Z,,,,,,,,,,,,,,,,48,,,,,,,,,,,,,,623.4800000011455,,response,,,10,A,,,,,Space,keypress(Space),,,,silence,-- -- --- ------ ------- --------- ----------- --------<br>--------- -------- --- ------- -- ------- ---- -- ------<br>-- --- -------- -------- ---------- ---- ---- ---- ------<br>-- --------- -- ---- -- out -- --- ------- -- - -----<br>---------- -- -- -- ---- ----- -- ------ -- --- ------<br>-------,271104.4000000004,271103.7000000011,270463.549,270472.7000000011,270480.22,271113.713,,31,out
screen,html.Screen,0_4_1_0_1_32,2021-11-04T12:38:32.077Z,,,,,,,,,,,,,,,,48,,,,,,,,,,,,,,357.88699999963865,,response,,,10,A,,,,,Space,keypress(Space),,,,silence,-- -- --- ------ ------- --------- ----------- --------<br>--------- -------- --- ------- -- ------- ---- -- ------<br>-- --- -------- -------- ---------- ---- ---- ---- ------<br>-- --------- -- ---- -- --- of --- ------- -- - -----<br>---------- -- -- -- ---- ----- -- ------ -- --- ------<br>-------,271472.30000000075,271471.5999999996,271097.042,271104.80000000075,271113.713,271480.442,,32,of
screen,html.Screen,0_4_1_0_1_33,2021-11-04T12:38:32.573Z,,,,,,,,,,,,,,,,48,,,,,,,,,,,,,,487.0580000000191,,response,,,10,A,,,,,Space,keypress(Space),,,,silence,-- -- --- ------ ------- --------- ----------- --------<br>--------- -------- --- ------- -- ------- ---- -- ------<br>-- --- -------- -------- ---------- ---- ---- ---- ------<br>-- --------- -- ---- -- --- -- the ------- -- - -----<br>---------- -- -- -- ---- ----- -- ------ -- --- ------<br>-------,271968.30000000075,271967.5,271463.772,271472.5999999996,271480.442,271980.563,,33,the
screen,html.Screen,0_4_1_0_1_34,2021-11-04T12:38:33.133Z,,,,,,,,,,,,,,,,48,,,,,,,,,,,,,,547.0369999996037,,response,,,10,A,,,,,Space,keypress(Space),,,,silence,-- -- --- ------ ------- --------- ----------- --------<br>--------- -------- --- ------- -- ------- ---- -- ------<br>-- --- -------- -------- ---------- ---- ---- ---- ------<br>-- --------- -- ---- -- --- -- --- country -- - -----<br>---------- -- -- -- ---- ----- -- ------ -- --- ------<br>-------,272528.5,272527.5999999996,271963.893,271968.5999999996,271980.563,272530.759,,34,country
screen,html.Screen,0_4_1_0_1_35,2021-11-04T12:38:33.517Z,,,,,,,,,,,,,,,,48,,,,,,,,,,,,,,380.74099999998,,response,,,10,A,,,,,Space,keypress(Space),,,,silence,-- -- --- ------ ------- --------- ----------- --------<br>--------- -------- --- ------- -- ------- ---- -- ------<br>-- --- -------- -------- ---------- ---- ---- ---- ------<br>-- --------- -- ---- -- --- -- --- ------- is - -----<br>---------- -- -- -- ---- ----- -- ------ -- --- ------<br>-------,272912.30000000075,272911.5,272514.088,272528.5999999996,272530.759,272914.152,,35,is
screen,html.Screen,0_4_1_0_1_36,2021-11-04T12:38:33.901Z,,,,,,,,,,,,,,,,48,,,,,,,,,,,,,,381.34799999999814,,response,,,10,A,,,,,Space,keypress(Space),,,,silence,-- -- --- ------ ------- --------- ----------- --------<br>--------- -------- --- ------- -- ------- ---- -- ------<br>-- --- -------- -------- ---------- ---- ---- ---- ------<br>-- --------- -- ---- -- --- -- --- ------- -- a -----<br>---------- -- -- -- ---- ----- -- ------ -- --- ------<br>-------,273296.30000000075,273295.5,272897.482,272912.5999999996,272914.152,273297.625,,36,a
screen,html.Screen,0_4_1_0_1_37,2021-11-04T12:38:34.421Z,,,,,,,,,,,,,,,,48,,,,,,,,,,,,,,517.875,,response,,,10,A,,,,,Space,keypress(Space),,,,silence,-- -- --- ------ ------- --------- ----------- --------<br>--------- -------- --- ------- -- ------- ---- -- ------<br>-- --- -------- -------- ---------- ---- ---- ---- ------<br>-- --------- -- ---- -- --- -- --- ------- -- - crime<br>---------- -- -- -- ---- ----- -- ------ -- --- ------<br>-------,273816.4000000004,273815.5,273280.954,273296.5999999996,273297.625,273831.101,,37,crime
screen,html.Screen,0_4_1_0_1_38,2021-11-04T12:38:36.533Z,,,,,,,,,,,,,,,,48,,,,,,,,,,,,,,2096.398999999976,,response,,,10,A,,,,,Space,keypress(Space),,,,silence,-- -- --- ------ ------- --------- ----------- --------<br>--------- -------- --- ------- -- ------- ---- -- ------<br>-- --- -------- -------- ---------- ---- ---- ---- ------<br>-- --------- -- ---- -- --- -- --- ------- -- - -----<br>punishable -- -- -- ---- ----- -- ------ -- --- ------<br>-------,275928.30000000075,275927.5,273814.43,273816.5999999996,273831.101,275931.166,,38,punishable
screen,html.Screen,0_4_1_0_1_39,2021-11-04T12:38:36.901Z,,,,,,,,,,,,,,,,48,,,,,,,,,,,,,,364.33399999997346,,response,,,10,A,,,,,Space,keypress(Space),,,,silence,-- -- --- ------ ------- --------- ----------- --------<br>--------- -------- --- ------- -- ------- ---- -- ------<br>-- --- -------- -------- ---------- ---- ---- ---- ------<br>-- --------- -- ---- -- --- -- --- ------- -- - -----<br>---------- by -- -- ---- ----- -- ------ -- --- ------<br>-------,276296.30000000075,276295.5,275914.498,275928.5,275931.166,276298.491,,39,by
screen,html.Screen,0_4_1_0_1_40,2021-11-04T12:38:37.221Z,,,,,,,,,,,,,,,,48,,,,,,,,,,,,,,317.00900000002,,response,,,10,A,,,,,Space,keypress(Space),,,,silence,-- -- --- ------ ------- --------- ----------- --------<br>--------- -------- --- ------- -- ------- ---- -- ------<br>-- --- -------- -------- ---------- ---- ---- ---- ------<br>-- --------- -- ---- -- --- -- --- ------- -- - -----<br>---------- -- up -- ---- ----- -- ------ -- --- ------<br>-------,276616.30000000075,276615.5,276281.819,276296.5,276298.491,276631.813,,40,up
screen,html.Screen,0_4_1_0_1_41,2021-11-04T12:38:37.589Z,,,,,,,,,,,,,,,,48,,,,,,,,,,,,,,351.18699999997625,,response,,,10,A,,,,,Space,keypress(Space),,,,silence,-- -- --- ------ ------- --------- ----------- --------<br>--------- -------- --- ------- -- ------- ---- -- ------<br>-- --- -------- -------- ---------- ---- ---- ---- ------<br>-- --------- -- ---- -- --- -- --- ------- -- - -----<br>---------- -- -- to ---- ----- -- ------ -- --- ------<br>-------,276983.5,276983,276615.143,276616.5,276631.813,276998.672,,41,to
screen,html.Screen,0_4_1_0_1_42,2021-11-04T12:38:38.221Z,,,,,,,,,,,,,,,,48,,,,,,,,,,,,,,616.427999999607,,response,,,10,A,,,,,Space,keypress(Space),,,,silence,-- -- --- ------ ------- --------- ----------- --------<br>--------- -------- --- ------- -- ------- ---- -- ------<br>-- --- -------- -------- ---------- ---- ---- ---- ------<br>-- --------- -- ---- -- --- -- --- ------- -- - -----<br>---------- -- -- -- five ----- -- ------ -- --- ------<br>-------,277615.5,277615.0999999996,276982,276983.5999999996,276998.672,277632.067,,42,five
screen,html.Screen,0_4_1_0_1_43,2021-11-04T12:38:38.653Z,,,,,,,,,,,,,,,,48,,,,,,,,,,,,,,415.3330000003916,,response,,,10,A,,,,,Space,keypress(Space),,,,silence,-- -- --- ------ ------- --------- ----------- --------<br>--------- -------- --- ------- -- ------- ---- -- ------<br>-- --- -------- -------- ---------- ---- ---- ---- ------<br>-- --------- -- ---- -- --- -- --- ------- -- - -----<br>---------- -- -- -- ---- years -- ------ -- --- ------<br>-------,278048.2000000011,278047.4000000004,277615.397,277615.7000000011,277632.067,278065.32,,43,years
screen,html.Screen,0_4_1_0_1_44,2021-11-04T12:38:39.661Z,,,,,,,,,,,,,,,,48,,,,,,,,,,,,,,990.0800000003655,,response,,,10,A,,,,,Space,keypress(Space),,,,silence,-- -- --- ------ ------- --------- ----------- --------<br>--------- -------- --- ------- -- ------- ---- -- ------<br>-- --- -------- -------- ---------- ---- ---- ---- ------<br>-- --------- -- ---- -- --- -- --- ------- -- - -----<br>---------- -- -- -- ---- ----- in ------ -- --- ------<br>-------,279056.0999999996,279055.4000000004,278048.652,278048.4000000004,278065.32,279065.789,,44,in
screen,html.Screen,0_4_1_0_1_45,2021-11-04T12:38:40.005Z,,,,,,,,,,,,,,,,48,,,,,,,,,,,,,,333.41100000112783,,response,,,10,A,,,,,Space,keypress(Space),,,,silence,-- -- --- ------ ------- --------- ----------- --------<br>--------- -------- --- ------- -- ------- ---- -- ------<br>-- --- -------- -------- ---------- ---- ---- ---- ------<br>-- --------- -- ---- -- --- -- --- ------- -- - -----<br>---------- -- -- -- ---- ----- -- prison -- --- ------<br>-------,279400,279399.2000000011,279049.118,279056.4000000004,279065.789,279416.066,,45,prison
screen,html.Screen,0_4_1_0_1_46,2021-11-04T12:38:40.437Z,,,,,,,,,,,,,,,,48,,,,,,,,,,,,,,415.23400000075344,,response,,,10,A,,,,,Space,keypress(Space),,,,silence,-- -- --- ------ ------- --------- ----------- --------<br>--------- -------- --- ------- -- ------- ---- -- ------<br>-- --- -------- -------- ---------- ---- ---- ---- ------<br>-- --------- -- ---- -- --- -- --- ------- -- - -----<br>---------- -- -- -- ---- ----- -- ------ in --- ------<br>-------,279832,279831.30000000075,279399.393,279400.30000000075,279416.066,279849.385,,46,in
screen,html.Screen,0_4_1_0_1_47,2021-11-04T12:38:41.342Z,,,,,,,,,,,,,,,,48,,,,,,,,,,,,,,886.3150000011083,,response,,,10,A,,,,,Space,keypress(Space),,,,silence,-- -- --- ------ ------- --------- ----------- --------<br>--------- -------- --- ------- -- ------- ---- -- ------<br>-- --- -------- -------- ---------- ---- ---- ---- ------<br>-- --------- -- ---- -- --- -- --- ------- -- - -----<br>---------- -- -- -- ---- ----- -- ------ -- the ------<br>-------,280736.5,280735.7000000011,279832.714,279832.30000000075,279849.385,280749.623,,47,the
screen,html.Screen,0_4_1_0_1_48,2021-11-04T12:38:41.932Z,,,,,,,,,,,,,,,,48,,,,,,,,,,,,,,577.2770000003511,,response,,,10,A,,,,,Space,keypress(Space),,,,silence,-- -- --- ------ ------- --------- ----------- --------<br>--------- -------- --- ------- -- ------- ---- -- ------<br>-- --- -------- -------- ---------- ---- ---- ---- ------<br>-- --------- -- ---- -- --- -- --- ------- -- - -----<br>---------- -- -- -- ---- ----- -- ------ -- --- United<br>-------,281327.30000000075,281326.9000000004,280732.952,280736.80000000075,280749.623,281332.927,,48,United
screen,html.Screen,0_4_1_0_1_49,2021-11-04T12:38:42.429Z,,,,,,,,,,,,,,,,48,,,,,,,,,,,,,,490.27300000109244,,response,,,10,A,,,,,Space,keypress(Space),,,,silence,-- -- --- ------ ------- --------- ----------- --------<br>--------- -------- --- ------- -- ------- ---- -- ------<br>-- --- -------- -------- ---------- ---- ---- ---- ------<br>-- --------- -- ---- -- --- -- --- ------- -- - -----<br>---------- -- -- -- ---- ----- -- ------ -- --- ------<br>States.,281824,281823.2000000011,281316.258,281327.4000000004,281332.927,281833.231,,49,States.
Item 10,flow.Loop,0_4_1_0_1,2021-11-04T12:38:42.429Z,,,,,,,,,,,,,,,,,,,,,,,,,,,,,,34749.24300000112,,completion,,,,,,,,,,,,,,,,281824.4000000004,281823.2000000011,247057.286,247058.70000000112,247073.957,281833.231,,,
Question 1,html.Screen,0_4_1_0_2,2021-11-04T12:38:47.229Z,,,,,,,,,,,,,,,,,,,,,,,,,,,true,TRUE,,4789.669000000344,,response,,,10,A,,,,,TRUE,click #choice-1,,,,silence,,286624.2000000011,286622.9000000004,281816.56,281824.5999999996,281833.231,286634.549,,,
Question 2,html.Screen,0_4_1_0_3,2021-11-04T12:38:51.301Z,,,,,,,,,,,,,,,,,,,,,,,,,,,true,TRUE,,4060.0509999996284,,response,,,10,A,,,,,TRUE,click #choice-1,,,,silence,,290695.7000000011,290694.5999999996,286617.878,286624.5,286634.549,290702.2,,,
Item 10,flow.Sequence,0_4_1_0,2021-11-04T12:38:51.301Z,,,,,,,,,,,,,,,,,,,,,,,,,,,,,,50623.16699999964,,completion,,,,,,,,,,,,,,,,290696.0999999996,290694.5999999996,240054.763,240056.70000000112,240071.433,290702.2,,,
Holding screen,html.Screen,0_4_1_1_0,2021-11-04T12:38:58.293Z,,,,,,,,,,,,,,,,,,,,,,,,,,,,,,7001.999000000011,,timeout,,,,,,,,,,,,,,,,297688.4000000004,297687.528,290685.53,290696.4000000004,290702.2,297704.199,,,
screen,html.Screen,0_4_1_1_1_0,2021-11-04T12:38:59.885Z,,,,,,,,,,,,,,,,2,,,,,,,,,,,,,,1574.7010000003502,,response,,,1,A,,,,,Space,keypress(Space),,,,silence,Two ---- ------ --- ------- ---------- ------- ----------<br>--- --------- --- ----------- ------- ----- ------- ---<br>--------- ---- -- --- ---- -- --------- -- ---- -------<br>-- --------- ------ --- ----- ------ ---- --- --------- --<br>------ - ---- -- --- ----------- ------- ---- ----- -----<br>--- -------- - ------ ---- -- ----- ---- --- --- -----------<br>-- -------,299279.80000000075,299278.9000000004,297687.528,297689.0999999996,297704.199,299287.93,,0,Two
screen,html.Screen,0_4_1_1_1_1,2021-11-04T12:39:00.492Z,,,,,,,,,,,,,,,,2,,,,,,,,,,,,,,598.4700000003795,,response,,,1,A,,,,,Space,keypress(Space),,,,silence,--- days ------ --- ------- ---------- ------- ----------<br>--- --------- --- ----------- ------- ----- ------- ---<br>--------- ---- -- --- ---- -- --------- -- ---- -------<br>-- --------- ------ --- ----- ------ ---- --- --------- --<br>------ - ---- -- --- ----------- ------- ---- ----- -----<br>--- -------- - ------ ---- -- ----- ---- --- --- -----------<br>-- -------,299887.2000000011,299886.4000000004,299271.259,299280.0999999996,299287.93,299904.523,,1,days
screen,html.Screen,0_4_1_1_1_2,2021-11-04T12:39:01.260Z,,,,,,,,,,,,,,,,2,,,,,,,,,,,,,,749.7770000007586,,response,,,1,A,,,,,Space,keypress(Space),,,,silence,"--- ---- later, --- ------- ---------- ------- ----------<br>--- --------- --- ----------- ------- ----- ------- ---<br>--------- ---- -- --- ---- -- --------- -- ---- -------<br>-- --------- ------ --- ----- ------ ---- --- --------- --<br>------ - ---- -- --- ----------- ------- ---- ----- -----<br>--- -------- - ------ ---- -- ----- ---- --- --- -----------<br>-- -------",300655.30000000075,300654.30000000075,299887.854,299887.5,299904.523,300671.666,,2,"later,"
