sender,sender_type,sender_id,timestamp,meta,,Blues,Classical,Country,Dance,Electronic,Folk,Gospel,Hip-Hop,Jazz,Latin,Musical/Film,New-age,Pop,Provo_ID,R&B,Rap,Reggae,Religious,Rock,Soul,Swing,Traditional,age,artist_name,correct,correctResponse,distraction,duration,education,ended_on,familiarity,gender,item,list,music_frequency,offensiveness,pleasantness,preference,response,response_action,snippet_file,song_name,song_rating,sound,text,time_commit,time_end,time_render,time_run,time_show,time_switch,url,word,word_ID
Instructions,html.Page,0_0,2021-11-19T15:24:54.961Z,"{""labjs_version"":""20.2.3"",""labjs_build"":{""flavor"":""production"",""commit"":""7ea907d66ca8aeef8054924ca5d82ffbe11e34e5""},""location"":""https://run.pavlovia.org/mvasilev/lab_music_e/"",""userAgent"":""Mozilla/5.0 (Windows NT 6.1; Win64; x64) AppleWebKit/537.36 (KHTML, like Gecko) Chrome/96.0.4664.45 Safari/537.36"",""platform"":""Win32"",""language"":""en-US"",""locale"":""en-US"",""timeZone"":""Europe/London"",""timezoneOffset"":0,""screen_width"":1920,""screen_height"":1080,""scroll_width"":1920,""scroll_height"":959,""window_innerWidth"":1920,""window_innerHeight"":1007,""devicePixelRatio"":1}",,,,,,,,,,,,,,,,,,,,,,,,,,,,,28026.144999976157,,form submission,,,,,,,,,,,,,,,,34478.59999990463,34477.39999997616,6417.917,6428.099999904633,6451.255,34474.559,{},,
Headphones,html.Page,0_1,2021-11-19T15:24:57.978Z,,,,,,,,,,,,,,,,,,,,,,,,,,,,,,3021.1409999284733,,form submission,,,,,,,,,,,,,,,,37496.199999928474,37495.699999928474,34457.92,34479.299999952316,34474.559,37509.581,,,
Holding screen,html.Screen,0_2_0_0,2021-11-19T15:25:07.983Z,,,,,,,,,,,,,,,,,,,,,,,,,,,,,,10001.652000000002,,timeout,,,,,,,,,,,,,,,,47500.89999997616,47494.564,37492.907,37496.59999990463,37509.581,47511.233,,,
screen,html.Screen,0_2_0_1_0,2021-11-19T15:25:09.105Z,,,,,,,,,,,,,,,,53,,,,,,,,,,,,,,1110.666999976158,,response,,,99,,,,,,Space,keypress(Space),,,,,When -- ----- -- ------ - ------- --- ----------<br>------------- ------ ------ ---- ---- ------- ----- -- ----<br>-------- ------- -- ---------- --- - --- ----- ----- ----<br>---- --- --- ----- --- ---- ---- ------- ----- ---- -------<br>--- --- -- ----- -- --- ---- -- --- ---- -- ------ ------<br>--- ----- -- ----,48623.299999952316,48621.89999997616,47494.564,47501.39999997616,47511.233,48628.475,,0,When
screen,html.Screen,0_2_0_1_1,2021-11-19T15:25:09.601Z,,,,,,,,,,,,,,,,53,,,,,,,,,,,,,,489.32499995231774,,response,,,99,,,,,,Space,keypress(Space),,,,,---- it ----- -- ------ - ------- --- ----------<br>------------- ------ ------ ---- ---- ------- ----- -- ----<br>-------- ------- -- ---------- --- - --- ----- ----- ----<br>---- --- --- ----- --- ---- ---- ------- ----- ---- -------<br>--- --- -- ----- -- --- ---- -- --- ---- -- ------ ------<br>--- ----- -- ----,49118.699999928474,49117.799999952316,48611.804,48623.59999990463,48628.475,49128.523,,1,it
screen,html.Screen,0_2_0_1_2,2021-11-19T15:25:10.129Z,,,,,,,,,,,,,,,,53,,,,,,,,,,,,,,517.2769999523152,,response,,,99,,,,,,Space,keypress(Space),,,,,---- -- comes -- ------ - ------- --- ----------<br>------------- ------ ------ ---- ---- ------- ----- -- ----<br>-------- ------- -- ---------- --- - --- ----- ----- ----<br>---- --- --- ----- --- ---- ---- ------- ----- ---- -------<br>--- --- -- ----- -- --- ---- -- --- ---- -- ------ ------<br>--- ----- -- ----,49646.699999928474,49645.799999952316,49111.853,49118.89999997616,49128.523,49661.983,,2,comes
screen,html.Screen,0_2_0_1_3,2021-11-19T15:25:10.617Z,,,,,,,,,,,,,,,,53,,,,,,,,,,,,,,471.71699992847425,,response,,,99,,,,,,Space,keypress(Space),,,,,---- -- ----- to ------ - ------- --- ----------<br>------------- ------ ------ ---- ---- ------- ----- -- ----<br>-------- ------- -- ---------- --- - --- ----- ----- ----<br>---- --- --- ----- --- ---- ---- ------- ----- ---- -------<br>--- --- -- ----- -- --- ---- -- --- ---- -- ------ ------<br>--- ----- -- ----,50134.59999990463,50133.699999928474,49645.313,49647,49661.983,50145.451,,3,to
screen,html.Screen,0_2_0_1_4,2021-11-19T15:25:11.105Z,,,,,,,,,,,,,,,,53,,,,,,,,,,,,,,476.2489999284735,,response,,,99,,,,,,Space,keypress(Space),,,,,---- -- ----- -- having - ------- --- ----------<br>------------- ------ ------ ---- ---- ------- ----- -- ----<br>-------- ------- -- ---------- --- - --- ----- ----- ----<br>---- --- --- ----- --- ---- ---- ------- ----- ---- -------<br>--- --- -- ----- -- --- ---- -- --- ---- -- ------ ------<br>--- ----- -- ----,50622.799999952316,50621.699999928474,50128.781,50135.09999990463,50145.451,50628.871,,4,having
screen,html.Screen,0_2_0_1_5,2021-11-19T15:25:11.553Z,,,,,,,,,,,,,,,,53,,,,,,,,,,,,,,441.1290000000008,,response,,,99,,,,,,Space,keypress(Space),,,,,---- -- ----- -- ------ a ------- --- ----------<br>------------- ------ ------ ---- ---- ------- ----- -- ----<br>-------- ------- -- ---------- --- - --- ----- ----- ----<br>---- --- --- ----- --- ---- ---- ------- ----- ---- -------<br>--- --- -- ----- -- --- ---- -- --- ---- -- ------ ------<br>--- ----- -- ----,51070.89999997616,51070,50612.201,50623.09999990463,50628.871,51078.995,,5,a
screen,html.Screen,0_2_0_1_6,2021-11-19T15:25:12.161Z,,,,,,,,,,,,,,,,53,,,,,,,,,,,,,,598.7049999284718,,response,,,99,,,,,,Space,keypress(Space),,,,,---- -- ----- -- ------ - lasting --- ----------<br>------------- ------ ------ ---- ---- ------- ----- -- ----<br>-------- ------- -- ---------- --- - --- ----- ----- ----<br>---- --- --- ----- --- ---- ---- ------- ----- ---- -------<br>--- --- -- ----- -- --- ---- -- --- ---- -- ------ ------<br>--- ----- -- ----,51678.5,51677.699999928474,51062.325,51071.39999997616,51078.995,51695.808,,6,lasting
screen,html.Screen,0_2_0_1_7,2021-11-19T15:25:12.705Z,,,,,,,,,,,,,,,,53,,,,,,,,,,,,,,525.7919999046353,,response,,,99,,,,,,Space,keypress(Space),,,,,---- -- ----- -- ------ - ------- and ----------<br>------------- ------ ------ ---- ---- ------- ----- -- ----<br>-------- ------- -- ---------- --- - --- ----- ----- ----<br>---- --- --- ----- --- ---- ---- ------- ----- ---- -------<br>--- --- -- ----- -- --- ---- -- --- ---- -- ------ ------<br>--- ----- -- ----,52222.5,52221.59999990463,51679.138,51678.89999997616,51695.808,52229.275,,7,and
screen,html.Screen,0_2_0_1_8,2021-11-19T15:25:13.433Z,,,,,,,,,,,,,,,,53,,,,,,,,,,,,,,720.2249999999985,,response,,,99,,,,,,Space,keypress(Space),,,,,---- -- ----- -- ------ - ------- --- fulfilling<br>------------- ------ ------ ---- ---- ------- ----- -- ----<br>-------- ------- -- ---------- --- - --- ----- ----- ----<br>---- --- --- ----- --- ---- ---- ------- ----- ---- -------<br>--- --- -- ----- -- --- ---- -- --- ---- -- ------ ------<br>--- ----- -- ----,52950.59999990463,52949.5,52212.605,52222.799999952316,52229.275,52962.81,,8,fulfilling
screen,html.Screen,0_2_0_1_9,2021-11-19T15:25:15.016Z,,,,,,,,,,,,,,,,53,,,,,,,,,,,,,,1570.5899999761605,,response,,,99,,,,,,Space,keypress(Space),,,,,"---- -- ----- -- ------ - ------- --- ----------<br>relationship, ------ ------ ---- ---- ------- ----- -- ----<br>-------- ------- -- ---------- --- - --- ----- ----- ----<br>---- --- --- ----- --- ---- ---- ------- ----- ---- -------<br>--- --- -- ----- -- --- ---- -- --- ---- -- ------ ------<br>--- ----- -- ----",54534.39999997616,54533.39999997616,52946.14,52950.89999997616,52962.81,54546.298,,9,"relationship,"
screen,html.Screen,0_2_0_1_10,2021-11-19T15:25:15.544Z,,,,,,,,,,,,,,,,53,,,,,,,,,,,,,,515.1019999761556,,response,,,99,,,,,,Space,keypress(Space),,,,,---- -- ----- -- ------ - ------- --- ----------<br>------------- common ------ ---- ---- ------- ----- -- ----<br>-------- ------- -- ---------- --- - --- ----- ----- ----<br>---- --- --- ----- --- ---- ---- ------- ----- ---- -------<br>--- --- -- ----- -- --- ---- -- --- ---- -- ------ ------<br>--- ----- -- ----,55062.299999952316,55061.39999997616,54529.629,54534.59999990463,54546.298,55063.382,,10,common
screen,html.Screen,0_2_0_1_11,2021-11-19T15:25:16.384Z,,,,,,,,,,,,,,,,53,,,,,,,,,,,,,,837.9179999523185,,response,,,99,,,,,,Space,keypress(Space),,,,,---- -- ----- -- ------ - ------- --- ----------<br>------------- ------ wisdom ---- ---- ------- ----- -- ----<br>-------- ------- -- ---------- --- - --- ----- ----- ----<br>---- --- --- ----- --- ---- ---- ------- ----- ---- -------<br>--- --- -- ----- -- --- ---- -- --- ---- -- ------ ------<br>--- ----- -- ----,55902.199999928474,55901.299999952316,55046.711,55062.59999990463,55063.382,55913.504,,11,wisdom
screen,html.Screen,0_2_0_1_12,2021-11-19T15:25:16.896Z,,,,,,,,,,,,,,,,53,,,,,,,,,,,,,,499.79599995231547,,response,,,99,,,,,,Space,keypress(Space),,,,,---- -- ----- -- ------ - ------- --- ----------<br>------------- ------ ------ says ---- ------- ----- -- ----<br>-------- ------- -- ---------- --- - --- ----- ----- ----<br>---- --- --- ----- --- ---- ---- ------- ----- ---- -------<br>--- --- -- ----- -- --- ---- -- --- ---- -- ------ ------<br>--- ----- -- ----,56414.09999990463,56413.299999952316,55896.834,55902.5,55913.504,56430.283,,12,says
screen,html.Screen,0_2_0_1_13,2021-11-19T15:25:17.304Z,,,,,,,,,,,,,,,,53,,,,,,,,,,,,,,391.0169999523132,,response,,,99,,,,,,Space,keypress(Space),,,,,---- -- ----- -- ------ - ------- --- ----------<br>------------- ------ ------ ---- that ------- ----- -- ----<br>-------- ------- -- ---------- --- - --- ----- ----- ----<br>---- --- --- ----- --- ---- ---- ------- ----- ---- -------<br>--- --- -- ----- -- --- ---- -- --- ---- -- ------ ------<br>--- ----- -- ----,56822.09999990463,56821.299999952316,56413.613,56414.39999997616,56430.283,56830.422,,13,that
screen,html.Screen,0_2_0_1_14,2021-11-19T15:25:17.720Z,,,,,,,,,,,,,,,,53,,,,,,,,,,,,,,406.77799992847577,,response,,,99,,,,,,Space,keypress(Space),,,,,---- -- ----- -- ------ - ------- --- ----------<br>------------- ------ ------ ---- ---- feeling ----- -- ----<br>-------- ------- -- ---------- --- - --- ----- ----- ----<br>---- --- --- ----- --- ---- ---- ------- ----- ---- -------<br>--- --- -- ----- -- --- ---- -- --- ---- -- ------ ------<br>--- ----- -- ----,57238.09999990463,57237.199999928474,56813.752,56822.39999997616,56830.422,57247.165,,14,feeling
screen,html.Screen,0_2_0_1_15,2021-11-19T15:25:18.304Z,,,,,,,,,,,,,,,,53,,,,,,,,,,,,,,574.0349999284736,,response,,,99,,,,,,Space,keypress(Space),,,,,---- -- ----- -- ------ - ------- --- ----------<br>------------- ------ ------ ---- ---- ------- close -- ----<br>-------- ------- -- ---------- --- - --- ----- ----- ----<br>---- --- --- ----- --- ---- ---- ------- ----- ---- -------<br>--- --- -- ----- -- --- ---- -- --- ---- -- ------ ------<br>--- ----- -- ----,57822.09999990463,57821.199999928474,57230.495,57238.299999952316,57247.165,57830.627,,15,close
screen,html.Screen,0_2_0_1_16,2021-11-19T15:25:19.128Z,,,,,,,,,,,,,,,,53,,,,,,,,,,,,,,814.4729999046322,,response,,,99,,,,,,Space,keypress(Space),,,,,---- -- ----- -- ------ - ------- --- ----------<br>------------- ------ ------ ---- ---- ------- ----- to ----<br>-------- ------- -- ---------- --- - --- ----- ----- ----<br>---- --- --- ----- --- ---- ---- ------- ----- ---- -------<br>--- --- -- ----- -- --- ---- -- --- ---- -- ------ ------<br>--- ----- -- ----,58646,58645.09999990463,57813.957,57822.199999928474,57830.627,58647.296,,16,to
screen,html.Screen,0_2_0_1_17,2021-11-19T15:25:19.496Z,,,,,,,,,,,,,,,,53,,,,,,,,,,,,,,365.7039999999979,,response,,,99,,,,,,Space,keypress(Space),,,,,---- -- ----- -- ------ - ------- --- ----------<br>------------- ------ ------ ---- ---- ------- ----- -- your<br>-------- ------- -- ---------- --- - --- ----- ----- ----<br>---- --- --- ----- --- ---- ---- ------- ----- ---- -------<br>--- --- -- ----- -- --- ---- -- --- ---- -- ------ ------<br>--- ----- -- ----,59013.89999997616,59013,58630.628,58646.199999928474,58647.296,59031.041,,17,your
screen,html.Screen,0_2_0_1_18,2021-11-19T15:25:19.888Z,,,,,,,,,,,,,,,,53,,,,,,,,,,,,,,373.95900000000256,,response,,,99,,,,,,Space,keypress(Space),,,,,---- -- ----- -- ------ - ------- --- ----------<br>------------- ------ ------ ---- ---- ------- ----- -- ----<br>romantic ------- -- ---------- --- - --- ----- ----- ----<br>---- --- --- ----- --- ---- ---- ------- ----- ---- -------<br>--- --- -- ----- -- --- ---- -- --- ---- -- ------ ------<br>--- ----- -- ----,59405.799999952316,59405,59014.369,59014.09999990463,59031.041,59414.361,,18,romantic
screen,html.Screen,0_2_0_1_19,2021-11-19T15:25:20.328Z,,,,,,,,,,,,,,,,53,,,,,,,,,,,,,,430.538999976161,,response,,,99,,,,,,Space,keypress(Space),,,,,---- -- ----- -- ------ - ------- --- ----------<br>------------- ------ ------ ---- ---- ------- ----- -- ----<br>-------- partner -- ---------- --- - --- ----- ----- ----<br>---- --- --- ----- --- ---- ---- ------- ----- ---- -------<br>--- --- -- ----- -- --- ---- -- --- ---- -- ------ ------<br>--- ----- -- ----,59845.799999952316,59844.89999997616,59397.691,59406,59414.361,59847.648,,19,partner
screen,html.Screen,0_2_0_1_20,2021-11-19T15:25:21.076Z,,,,,,,,,,,,,,,,53,,,,,,,,,,,,,,741.2519999761571,,response,,,99,,,,,,Space,keypress(Space),,,,,---- -- ----- -- ------ - ------- --- ----------<br>------------- ------ ------ ---- ---- ------- ----- -- ----<br>-------- ------- is ---------- --- - --- ----- ----- ----<br>---- --- --- ----- --- ---- ---- ------- ----- ---- -------<br>--- --- -- ----- -- --- ---- -- --- ---- -- ------ ------<br>--- ----- -- ----,60589.799999952316,60588.89999997616,59830.98,59846.09999990463,59847.648,60598.032,,20,is
screen,html.Screen,0_2_0_1_21,2021-11-19T15:25:22.228Z,,,,,,,,,,,,,,,,53,,,,,,,,,,,,,,1143.267999952317,,response,,,99,,,,,,Space,keypress(Space),,,,,---- -- ----- -- ------ - ------- --- ----------<br>------------- ------ ------ ---- ---- ------- ----- -- ----<br>-------- ------- -- paramount. --- - --- ----- ----- ----<br>---- --- --- ----- --- ---- ---- ------- ----- ---- -------<br>--- --- -- ----- -- --- ---- -- --- ---- -- ------ ------<br>--- ----- -- ----,61742.199999928474,61741.299999952316,60581.361,60589.89999997616,60598.032,61748.33,,21,paramount.
screen,html.Screen,0_2_0_1_22,2021-11-19T15:25:22.668Z,,,,,,,,,,,,,,,,53,,,,,,,,,,,,,,432.5699999761564,,response,,,99,,,,,,Space,keypress(Space),,,,,---- -- ----- -- ------ - ------- --- ----------<br>------------- ------ ------ ---- ---- ------- ----- -- ----<br>-------- ------- -- ---------- But - --- ----- ----- ----<br>---- --- --- ----- --- ---- ---- ------- ----- ---- -------<br>--- --- -- ----- -- --- ---- -- --- ---- -- ------ ------<br>--- ----- -- ----,62181.699999928474,62180.89999997616,61731.659,61742.699999928474,61748.33,62198.223,,22,But
screen,html.Screen,0_2_0_1_23,2021-11-19T15:25:23.044Z,,,,,,,,,,,,,,,,53,,,,,,,,,,,,,,358.67699997616,,response,,,99,,,,,,Space,keypress(Space),,,,,---- -- ----- -- ------ - ------- --- ----------<br>------------- ------ ------ ---- ---- ------- ----- -- ----<br>-------- ------- -- ---------- --- a --- ----- ----- ----<br>---- --- --- ----- --- ---- ---- ------- ----- ---- -------<br>--- --- -- ----- -- --- ---- -- --- ---- -- ------ ------<br>--- ----- -- ----,62557.699999928474,62556.89999997616,62181.554,62181.89999997616,62198.223,62565.165,,23,a
screen,html.Screen,0_2_0_1_24,2021-11-19T15:25:23.396Z,,,,,,,,,,,,,,,,53,,,,,,,,,,,,,,343.6349999523154,,response,,,99,,,,,,Space,keypress(Space),,,,,---- -- ----- -- ------ - ------- --- ----------<br>------------- ------ ------ ---- ---- ------- ----- -- ----<br>-------- ------- -- ---------- --- - new ----- ----- ----<br>---- --- --- ----- --- ---- ---- ------- ----- ---- -------<br>--- --- -- ----- -- --- ---- -- --- ---- -- ------ ------<br>--- ----- -- ----,62909.59999990463,62908.799999952316,62548.494,62557.89999997616,62565.165,62915.128,,24,new
screen,html.Screen,0_2_0_1_25,2021-11-19T15:25:23.716Z,,,,,,,,,,,,,,,,53,,,,,,,,,,,,,,313.6719999523193,,response,,,99,,,,,,Space,keypress(Space),,,,,---- -- ----- -- ------ - ------- --- ----------<br>------------- ------ ------ ---- ---- ------- ----- -- ----<br>-------- ------- -- ---------- --- - --- study ----- ----<br>---- --- --- ----- --- ---- ---- ------- ----- ---- -------<br>--- --- -- ----- -- --- ---- -- --- ---- -- ------ ------<br>--- ----- -- ----,63229.59999990463,63228.799999952316,62898.459,62909.89999997616,62915.128,63231.987,,25,study
screen,html.Screen,0_2_0_1_26,2021-11-19T15:25:24.068Z,,,,,,,,,,,,,,,,53,,,,,,,,,,,,,,348.8129999523153,,response,,,99,,,,,,Space,keypress(Space),,,,,---- -- ----- -- ------ - ------- --- ----------<br>------------- ------ ------ ---- ---- ------- ----- -- ----<br>-------- ------- -- ---------- --- - --- ----- finds ----<br>---- --- --- ----- --- ---- ---- ------- ----- ---- -------<br>--- --- -- ----- -- --- ---- -- --- ---- -- ------ ------<br>--- ----- -- ----,63581.59999990463,63580.799999952316,63215.316,63229.799999952316,63231.987,63598.63,,26,finds
screen,html.Screen,0_2_0_1_27,2021-11-19T15:25:24.932Z,,,,,,,,,,,,,,,,53,,,,,,,,,,,,,,846.069999928477,,response,,,99,,,,,,Space,keypress(Space),,,,,---- -- ----- -- ------ - ------- --- ----------<br>------------- ------ ------ ---- ---- ------- ----- -- ----<br>-------- ------- -- ---------- --- - --- ----- ----- that<br>---- --- --- ----- --- ---- ---- ------- ----- ---- -------<br>--- --- -- ----- -- --- ---- -- --- ---- -- ------ ------<br>--- ----- -- ----,64445.59999990463,64444.699999928474,63581.961,63581.799999952316,63598.63,64449.058,,27,that
screen,html.Screen,0_2_0_1_28,2021-11-19T15:25:25.468Z,,,,,,,,,,,,,,,,53,,,,,,,,,,,,,,531.6419999284772,,response,,,99,,,,,,Space,keypress(Space),,,,,---- -- ----- -- ------ - ------- --- ----------<br>------------- ------ ------ ---- ---- ------- ----- -- ----<br>-------- ------- -- ---------- --- - --- ----- ----- ----<br>it's --- --- ----- --- ---- ---- ------- ----- ---- -------<br>--- --- -- ----- -- --- ---- -- --- ---- -- ------ ------<br>--- ----- -- ----,64981.5,64980.699999928474,64432.386,64445.799999952316,64449.058,64998.919,,28,it's
screen,html.Screen,0_2_0_1_29,2021-11-19T15:25:25.860Z,,,,,,,,,,,,,,,,53,,,,,,,,,,,,,,373.78099992847274,,response,,,99,,,,,,Space,keypress(Space),,,,,---- -- ----- -- ------ - ------- --- ----------<br>------------- ------ ------ ---- ---- ------- ----- -- ----<br>-------- ------- -- ---------- --- - --- ----- ----- ----<br>---- not --- ----- --- ---- ---- ------- ----- ---- -------<br>--- --- -- ----- -- --- ---- -- --- ---- -- ------ ------<br>--- ----- -- ----,65373.5,65372.699999928474,64982.25,64981.699999928474,64998.919,65382.534,,29,not
screen,html.Screen,0_2_0_1_30,2021-11-19T15:25:26.228Z,,,,,,,,,,,,,,,,53,,,,,,,,,,,,,,358.0659999046329,,response,,,99,,,,,,Space,keypress(Space),,,,,---- -- ----- -- ------ - ------- --- ----------<br>------------- ------ ------ ---- ---- ------- ----- -- ----<br>-------- ------- -- ---------- --- - --- ----- ----- ----<br>---- --- how ----- --- ---- ---- ------- ----- ---- -------<br>--- --- -- ----- -- --- ---- -- --- ---- -- ------ ------<br>--- ----- -- ----,65741.39999997616,65740.59999990463,65365.863,65373.799999952316,65382.534,65749.232,,30,how
screen,html.Screen,0_2_0_1_31,2021-11-19T15:25:26.620Z,,,,,,,,,,,,,,,,53,,,,,,,,,,,,,,383.36799990462896,,response,,,99,,,,,,Space,keypress(Space),,,,,---- -- ----- -- ------ - ------- --- ----------<br>------------- ------ ------ ---- ---- ------- ----- -- ----<br>-------- ------- -- ---------- --- - --- ----- ----- ----<br>---- --- --- close --- ---- ---- ------- ----- ---- -------<br>--- --- -- ----- -- --- ---- -- --- ---- -- ------ ------<br>--- ----- -- ----,66133.59999990463,66132.59999990463,65732.562,65741.69999992847,65749.232,66149.321,,31,close
screen,html.Screen,0_2_0_1_32,2021-11-19T15:25:26.948Z,,,,,,,,,,,,,,,,53,,,,,,,,,,,,,,311.2789999046363,,response,,,99,,,,,,Space,keypress(Space),,,,,---- -- ----- -- ------ - ------- --- ----------<br>------------- ------ ------ ---- ---- ------- ----- -- ----<br>-------- ------- -- ---------- --- - --- ----- ----- ----<br>---- --- --- ----- you ---- ---- ------- ----- ---- -------<br>--- --- -- ----- -- --- ---- -- --- ---- -- ------ ------<br>--- ----- -- ----,66461.39999997616,66460.59999990463,66132.651,66133.79999995232,66149.321,66466.094,,32,you
screen,html.Screen,0_2_0_1_33,2021-11-19T15:25:27.227Z,,,,,,,,,,,,,,,,53,,,,,,,,,,,,,,274.50599990463525,,response,,,99,,,,,,Space,keypress(Space),,,,,---- -- ----- -- ------ - ------- --- ----------<br>------------- ------ ------ ---- ---- ------- ----- -- ----<br>-------- ------- -- ---------- --- - --- ----- ----- ----<br>---- --- --- ----- --- feel ---- ------- ----- ---- -------<br>--- --- -- ----- -- --- ---- -- --- ---- -- ------ ------<br>--- ----- -- ----,66741.29999995232,66740.59999990463,66449.424,66461.69999992847,66466.094,66749.482,,33,feel
screen,html.Screen,0_2_0_1_34,2021-11-19T15:25:27.779Z,,,,,,,,,,,,,,,,53,,,,,,,,,,,,,,543.0179999999964,,response,,,99,,,,,,Space,keypress(Space),,,,,---- -- ----- -- ------ - ------- --- ----------<br>------------- ------ ------ ---- ---- ------- ----- -- ----<br>-------- ------- -- ---------- --- - --- ----- ----- ----<br>---- --- --- ----- --- ---- that ------- ----- ---- -------<br>--- --- -- ----- -- --- ---- -- --- ---- -- ------ ------<br>--- ----- -- ----,67293.29999995232,67292.5,66732.812,66741.59999990463,66749.482,67299.471,,34,that
screen,html.Screen,0_2_0_1_35,2021-11-19T15:25:28.211Z,,,,,,,,,,,,,,,,53,,,,,,,,,,,,,,425.028999999995,,response,,,99,,,,,,Space,keypress(Space),,,,,---- -- ----- -- ------ - ------- --- ----------<br>------------- ------ ------ ---- ---- ------- ----- -- ----<br>-------- ------- -- ---------- --- - --- ----- ----- ----<br>---- --- --- ----- --- ---- ---- matters ----- ---- -------<br>--- --- -- ----- -- --- ---- -- --- ---- -- ------ ------<br>--- ----- -- ----,67725.29999995232,67724.5,67282.803,67293.59999990463,67299.471,67733.158,,35,matters
screen,html.Screen,0_2_0_1_36,2021-11-19T15:25:28.524Z,,,,,,,,,,,,,,,,53,,,,,,,,,,,,,,303.3420000000042,,response,,,99,,,,,,Space,keypress(Space),,,,,"---- -- ----- -- ------ - ------- --- ----------<br>------------- ------ ------ ---- ---- ------- ----- -- ----<br>-------- ------- -- ---------- --- - --- ----- ----- ----<br>---- --- --- ----- --- ---- ---- ------- most, ---- -------<br>--- --- -- ----- -- --- ---- -- --- ---- -- ------ ------<br>--- ----- -- ----",68037.5,68036.5,67716.486,67725.59999990463,67733.158,68049.784,,36,"most,"
screen,html.Screen,0_2_0_1_37,2021-11-19T15:25:28.723Z,,,,,,,,,,,,,,,,53,,,,,,,,,,,,,,186.71600000000035,,response,,,99,,,,,,Space,keypress(Space),,,,,---- -- ----- -- ------ - ------- --- ----------<br>------------- ------ ------ ---- ---- ------- ----- -- ----<br>-------- ------- -- ---------- --- - --- ----- ----- ----<br>---- --- --- ----- --- ---- ---- ------- ----- it's -------<br>--- --- -- ----- -- --- ---- -- --- ---- -- ------ ------<br>--- ----- -- ----,68237.29999995232,68236.5,68033.114,68037.79999995232,68049.784,68249.778,,37,it's
screen,html.Screen,0_2_0_1_38,2021-11-19T15:25:29.075Z,,,,,,,,,,,,,,,,53,,,,,,,,,,,,,,338.7219999999943,,response,,,99,,,,,,Space,keypress(Space),,,,,---- -- ----- -- ------ - ------- --- ----------<br>------------- ------ ------ ---- ---- ------- ----- -- ----<br>-------- ------- -- ---------- --- - --- ----- ----- ----<br>---- --- --- ----- --- ---- ---- ------- ----- ---- whether<br>--- --- -- ----- -- --- ---- -- --- ---- -- ------ ------<br>--- ----- -- ----,68589.19999992847,68588.5,68233.109,68237.5,68249.778,68599.99,,38,whether
screen,html.Screen,0_2_0_1_39,2021-11-19T15:25:29.499Z,,,,,,,,,,,,,,,,53,,,,,,,,,,,,,,412.50999999999476,,response,,,99,,,,,,Space,keypress(Space),,,,,---- -- ----- -- ------ - ------- --- ----------<br>------------- ------ ------ ---- ---- ------- ----- -- ----<br>-------- ------- -- ---------- --- - --- ----- ----- ----<br>---- --- --- ----- --- ---- ---- ------- ----- ---- -------<br>you --- -- ----- -- --- ---- -- --- ---- -- ------ ------<br>--- ----- -- ----,69013.19999992847,69012.5,68583.318,68589.5,68599.99,69016.756,,39,you
screen,html.Screen,0_2_0_1_40,2021-11-19T15:25:29.883Z,,,,,,,,,,,,,,,,53,,,,,,,,,,,,,,379.6439999761642,,response,,,99,,,,,,Space,keypress(Space),,,,,---- -- ----- -- ------ - ------- --- ----------<br>------------- ------ ------ ---- ---- ------- ----- -- ----<br>-------- ------- -- ---------- --- - --- ----- ----- ----<br>---- --- --- ----- --- ---- ---- ------- ----- ---- -------<br>--- are -- ----- -- --- ---- -- --- ---- -- ------ ------<br>--- ----- -- ----,69397.09999990463,69396.39999997616,69000.085,69013.39999997616,69016.756,69400.124,,40,are
screen,html.Screen,0_2_0_1_41,2021-11-19T15:25:30.155Z,,,,,,,,,,,,,,,,53,,,,,,,,,,,,,,268.275999976162,,response,,,99,,,,,,Space,keypress(Space),,,,,---- -- ----- -- ------ - ------- --- ----------<br>------------- ------ ------ ---- ---- ------- ----- -- ----<br>-------- ------- -- ---------- --- - --- ----- ----- ----<br>---- --- --- ----- --- ---- ---- ------- ----- ---- -------<br>--- --- as ----- -- --- ---- -- --- ---- -- ------ ------<br>--- ----- -- ----,69669.09999990463,69668.39999997616,69383.454,69397.39999997616,69400.124,69683.526,,41,as
screen,html.Screen,0_2_0_1_42,2021-11-19T15:25:30.403Z,,,,,,,,,,,,,,,,53,,,,,,,,,,,,,,232.77399995231826,,response,,,99,,,,,,Space,keypress(Space),,,,,---- -- ----- -- ------ - ------- --- ----------<br>------------- ------ ------ ---- ---- ------- ----- -- ----<br>-------- ------- -- ---------- --- - --- ----- ----- ----<br>---- --- --- ----- --- ---- ---- ------- ----- ---- -------<br>--- --- -- close -- --- ---- -- --- ---- -- ------ ------<br>--- ----- -- ----,69917.09999990463,69916.29999995232,69666.856,69669.39999997616,69683.526,69933.585,,42,close
screen,html.Screen,0_2_0_1_43,2021-11-19T15:25:30.651Z,,,,,,,,,,,,,,,,53,,,,,,,,,,,,,,230.71499995230988,,response,,,99,,,,,,Space,keypress(Space),,,,,---- -- ----- -- ------ - ------- --- ----------<br>------------- ------ ------ ---- ---- ------- ----- -- ----<br>-------- ------- -- ---------- --- - --- ----- ----- ----<br>---- --- --- ----- --- ---- ---- ------- ----- ---- -------<br>--- --- -- ----- as --- ---- -- --- ---- -- ------ ------<br>--- ----- -- ----,70165.09999990463,70164.29999995232,69916.915,69917.29999995232,69933.585,70167.03,,43,as
screen,html.Screen,0_2_0_1_44,2021-11-19T15:25:30.915Z,,,,,,,,,,,,,,,,53,,,,,,,,,,,,,,261.26999995231745,,response,,,99,,,,,,Space,keypress(Space),,,,,---- -- ----- -- ------ - ------- --- ----------<br>------------- ------ ------ ---- ---- ------- ----- -- ----<br>-------- ------- -- ---------- --- - --- ----- ----- ----<br>---- --- --- ----- --- ---- ---- ------- ----- ---- -------<br>--- --- -- ----- -- you ---- -- --- ---- -- ------ ------<br>--- ----- -- ----,70429,70428.29999995232,70150.359,70165.39999997616,70167.03,70433.72,,44,you
screen,html.Screen,0_2_0_1_45,2021-11-19T15:25:31.179Z,,,,,,,,,,,,,,,,53,,,,,,,,,,,,,,258.47999992847326,,response,,,99,,,,,,Space,keypress(Space),,,,,---- -- ----- -- ------ - ------- --- ----------<br>------------- ------ ------ ---- ---- ------- ----- -- ----<br>-------- ------- -- ---------- --- - --- ----- ----- ----<br>---- --- --- ----- --- ---- ---- ------- ----- ---- -------<br>--- --- -- ----- -- --- want -- --- ---- -- ------ ------<br>--- ----- -- ----,70692.89999997616,70692.19999992847,70417.05,70429.29999995232,70433.72,70700.405,,45,want
screen,html.Screen,0_2_0_1_46,2021-11-19T15:25:31.411Z,,,,,,,,,,,,,,,,53,,,,,,,,,,,,,,223.89499995231745,,response,,,99,,,,,,Space,keypress(Space),,,,,---- -- ----- -- ------ - ------- --- ----------<br>------------- ------ ------ ---- ---- ------- ----- -- ----<br>-------- ------- -- ---------- --- - --- ----- ----- ----<br>---- --- --- ----- --- ---- ---- ------- ----- ---- -------<br>--- --- -- ----- -- --- ---- to --- ---- -- ------ ------<br>--- ----- -- ----,70925.09999990463,70924.29999995232,70683.736,70693.19999992847,70700.405,70933.859,,46,to
screen,html.Screen,0_2_0_1_47,2021-11-19T15:25:31.651Z,,,,,,,,,,,,,,,,53,,,,,,,,,,,,,,230.44099995231954,,response,,,99,,,,,,Space,keypress(Space),,,,,"---- -- ----- -- ------ - ------- --- ----------<br>------------- ------ ------ ---- ---- ------- ----- -- ----<br>-------- ------- -- ---------- --- - --- ----- ----- ----<br>---- --- --- ----- --- ---- ---- ------- ----- ---- -------<br>--- --- -- ----- -- --- ---- -- be, ---- -- ------ ------<br>--- ----- -- ----",71165.09999990463,71164.29999995232,70917.188,70925.39999997616,70933.859,71167.258,,47,"be,"
screen,html.Screen,0_2_0_1_48,2021-11-19T15:25:31.875Z,,,,,,,,,,,,,,,,53,,,,,,,,,,,,,,221.04199995231465,,response,,,99,,,,,,Space,keypress(Space),,,,,---- -- ----- -- ------ - ------- --- ----------<br>------------- ------ ------ ---- ---- ------- ----- -- ----<br>-------- ------- -- ---------- --- - --- ----- ----- ----<br>---- --- --- ----- --- ---- ---- ------- ----- ---- -------<br>--- --- -- ----- -- --- ---- -- --- even -- ------ ------<br>--- ----- -- ----,71389.09999990463,71388.29999995232,71150.587,71165.29999995232,71167.258,71400.64,,48,even
screen,html.Screen,0_2_0_1_49,2021-11-19T15:25:32.131Z,,,,,,,,,,,,,,,,53,,,,,,,,,,,,,,243.65999995231687,,response,,,99,,,,,,Space,keypress(Space),,,,,---- -- ----- -- ------ - ------- --- ----------<br>------------- ------ ------ ---- ---- ------- ----- -- ----<br>-------- ------- -- ---------- --- - --- ----- ----- ----<br>---- --- --- ----- --- ---- ---- ------- ----- ---- -------<br>--- --- -- ----- -- --- ---- -- --- ---- if ------ ------<br>--- ----- -- ----,71645,71644.29999995232,71383.97,71389.19999992847,71400.64,71650.66,,49,if
screen,html.Screen,0_2_0_1_50,2021-11-19T15:25:32.555Z,,,,,,,,,,,,,,,,53,,,,,,,,,,,,,,417.8399999999965,,response,,,99,,,,,,Space,keypress(Space),,,,,---- -- ----- -- ------ - ------- --- ----------<br>------------- ------ ------ ---- ---- ------- ----- -- ----<br>-------- ------- -- ---------- --- - --- ----- ----- ----<br>---- --- --- ----- --- ---- ---- ------- ----- ---- -------<br>--- --- -- ----- -- --- ---- -- --- ---- -- that's ------<br>--- ----- -- ----,72069.29999995232,72068.5,71633.991,71645.19999992847,71650.66,72084.001,,50,that's
screen,html.Screen,0_2_0_1_51,2021-11-19T15:25:32.995Z,,,,,,,,,,,,,,,,53,,,,,,,,,,,,,,424.1989999284706,,response,,,99,,,,,,Space,keypress(Space),,,,,---- -- ----- -- ------ - ------- --- ----------<br>------------- ------ ------ ---- ---- ------- ----- -- ----<br>-------- ------- -- ---------- --- - --- ----- ----- ----<br>---- --- --- ----- --- ---- ---- ------- ----- ---- -------<br>--- --- -- ----- -- --- ---- -- --- ---- -- ------ really<br>--- ----- -- ----,72509,72508.19999992847,72067.333,72069.59999990463,72084.001,72517.645,,51,really
screen,html.Screen,0_2_0_1_52,2021-11-19T15:25:33.411Z,,,,,,,,,,,,,,,,53,,,,,,,,,,,,,,406.4549999046285,,response,,,99,,,,,,Space,keypress(Space),,,,,---- -- ----- -- ------ - ------- --- ----------<br>------------- ------ ------ ---- ---- ------- ----- -- ----<br>-------- ------- -- ---------- --- - --- ----- ----- ----<br>---- --- --- ----- --- ---- ---- ------- ----- ---- -------<br>--- --- -- ----- -- --- ---- -- --- ---- -- ------ ------<br>not ----- -- ----,72925,72924.09999990463,72500.973,72509.19999992847,72517.645,72934.306,,52,not
screen,html.Screen,0_2_0_1_53,2021-11-19T15:25:33.755Z,,,,,,,,,,,,,,,,53,,,,,,,,,,,,,,333.7939999046357,,response,,,99,,,,,,Space,keypress(Space),,,,,---- -- ----- -- ------ - ------- --- ----------<br>------------- ------ ------ ---- ---- ------- ----- -- ----<br>-------- ------- -- ---------- --- - --- ----- ----- ----<br>---- --- --- ----- --- ---- ---- ------- ----- ---- -------<br>--- --- -- ----- -- --- ---- -- --- ---- -- ------ ------<br>--- close -- ----,73268.89999997616,73268.09999990463,72917.636,72925.19999992847,72934.306,73284.396,,53,close
screen,html.Screen,0_2_0_1_54,2021-11-19T15:25:34.107Z,,,,,,,,,,,,,,,,53,,,,,,,,,,,,,,335.60400000000664,,response,,,99,,,,,,Space,keypress(Space),,,,,---- -- ----- -- ------ - ------- --- ----------<br>------------- ------ ------ ---- ---- ------- ----- -- ----<br>-------- ------- -- ---------- --- - --- ----- ----- ----<br>---- --- --- ----- --- ---- ---- ------- ----- ---- -------<br>--- --- -- ----- -- --- ---- -- --- ---- -- ------ ------<br>--- ----- at ----,73620.79999995232,73620,73267.726,73269.19999992847,73284.396,73634.504,,54,at
screen,html.Screen,0_2_0_1_55,2021-11-19T15:25:34.507Z,,,,,,,,,,,,,,,,53,,,,,,,,,,,,,,385.4959999999992,,response,,,99,,,,,,Space,keypress(Space),,,,,---- -- ----- -- ------ - ------- --- ----------<br>------------- ------ ------ ---- ---- ------- ----- -- ----<br>-------- ------- -- ---------- --- - --- ----- ----- ----<br>---- --- --- ----- --- ---- ---- ------- ----- ---- -------<br>--- --- -- ----- -- --- ---- -- --- ---- -- ------ ------<br>--- ----- -- all.,74020.79999995232,74020,73617.834,73621.09999990463,73634.504,74034.608,,55,all.
Item 99,flow.Loop,0_2_0_1,2021-11-19T15:25:34.511Z,,,,,,,,,,,,,,,,,,,,,,,,,,,,,,26508.767,,completion,,,,E,,,,,,,,,,silence,,74025.19999992847,74020,47494.564,47501.299999952316,47511.233,74034.608,,,
Question 1,html.Screen,0_2_0_2,2021-11-19T15:25:40.011Z,,,,,,,,,,,,,,,,,,,,,,,,,,,true,FALSE,,5488.892000000007,,response,,,99,E,,,,,FALSE,click #choice-2,,,,silence,,79524.89999997616,79523.5,74017.938,74025.39999997616,74034.608,79535.884,,,
Question 2,html.Screen,0_2_0_3,2021-11-19T15:25:43.667Z,,,,,,,,,,,,,,,,,,,,,,,,,,,true,TRUE,,3643.415999952311,,response,,,99,E,,,,,TRUE,click #choice-1,,,,silence,,83180.39999997616,83179.29999995232,79519.214,79525.09999990463,79535.884,83186.803,,,
Item 99,flow.Sequence,0_2_0,2021-11-19T15:25:43.667Z,,,,,,,,,,,,,,,,,,,,,,,,,,,,,,45669.71899995232,,completion,,,,,,,,,,,,,,,,83180.79999995232,83179.29999995232,37492.907,37496.59999990463,37509.581,83186.803,,,
Holding screen,html.Screen,0_2_1_0,2021-11-19T15:25:53.660Z,,,,,,,,,,,,,,,,,,,,,,,,,,,,,,10002.311000000002,,timeout,,,,,,,,,,,,,,,,93174,93172.444,83170.133,83181.09999990463,83186.803,93189.114,,,
screen,html.Screen,0_2_1_1_0,2021-11-19T15:25:55.258Z,,,,,,,,,,,,,,,,54,,,,,,,,,,,,,,1581.9859999046312,,response,,,100,,,,,,Space,keypress(Space),,,,,At --- ---- --- ------ ----- ------- ---- -- --- ------- --<br>------- ---------- ------ -- ----- -- ----- -- ---- ------<br>--- ----- --- --- ------ -------- ----- --- ------ ----- --<br>----- ----- ---------- --- --- ------ ------ ---- -- ------<br>------- --- ------ ----- --- ---- ------- -- ---- --- --<br>------- ------,94771.89999997616,94771.09999990463,93172.444,93174.39999997616,93189.114,94773.031,,0,At
screen,html.Screen,0_2_1_1_1,2021-11-19T15:25:55.738Z,,,,,,,,,,,,,,,,54,,,,,,,,,,,,,,477.66899992847175,,response,,,100,,,,,,Space,keypress(Space),,,,,-- the ---- --- ------ ----- ------- ---- -- --- ------- --<br>------- ---------- ------ -- ----- -- ----- -- ---- ------<br>--- ----- --- --- ------ -------- ----- --- ------ ----- --<br>----- ----- ---------- --- --- ------ ------ ---- -- ------<br>------- --- ------ ----- --- ---- ------- -- ---- --- --<br>------- ------,95251.39999997616,95250.69999992847,94756.36,94772.19999992847,94773.031,95256.313,,1,the
screen,html.Screen,0_2_1_1_2,2021-11-19T15:25:56.170Z,,,,,,,,,,,,,,,,54,,,,,,,,,,,,,,426.2869999046379,,response,,,100,,,,,,Space,keypress(Space),,,,,-- --- time --- ------ ----- ------- ---- -- --- ------- --<br>------- ---------- ------ -- ----- -- ----- -- ---- ------<br>--- ----- --- --- ------ -------- ----- --- ------ ----- --<br>----- ----- ---------- --- --- ------ ------ ---- -- ------<br>------- --- ------ ----- --- ---- ------- -- ---- --- --<br>------- ------,95683.39999997616,95682.59999990463,95239.643,95251.69999992847,95256.313,95689.778,,2,time
screen,html.Screen,0_2_1_1_3,2021-11-19T15:25:56.657Z,,,,,,,,,,,,,,,,54,,,,,,,,,,,,,,480.7219999999943,,response,,,100,,,,,,Space,keypress(Space),,,,,-- --- ---- the ------ ----- ------- ---- -- --- ------- --<br>------- ---------- ------ -- ----- -- ----- -- ---- ------<br>--- ----- --- --- ------ -------- ----- --- ------ ----- --<br>----- ----- ---------- --- --- ------ ------ ---- -- ------<br>------- --- ------ ----- --- ---- ------- -- ---- --- --<br>------- ------,96171.29999995232,96170.5,95673.108,95683.69999992847,95689.778,96190.068,,3,the
screen,html.Screen,0_2_1_1_4,2021-11-19T15:25:57.137Z,,,,,,,,,,,,,,,,54,,,,,,,,,,,,,,460.4320000000007,,response,,,100,,,,,,Space,keypress(Space),,,,,-- --- ---- --- French ----- ------- ---- -- --- ------- --<br>------- ---------- ------ -- ----- -- ----- -- ---- ------<br>--- ----- --- --- ------ -------- ----- --- ------ ----- --<br>----- ----- ---------- --- --- ------ ------ ---- -- ------<br>------- --- ------ ----- --- ---- ------- -- ---- --- --<br>------- ------,96651.29999995232,96650.5,96173.396,96173.59999990463,96190.068,96656.708,,4,French
screen,html.Screen,0_2_1_1_5,2021-11-19T15:25:57.785Z,,,,,,,,,,,,,,,,54,,,,,,,,,,,,,,641.6919999761594,,response,,,100,,,,,,Space,keypress(Space),,,,,-- --- ---- --- ------ crown ------- ---- -- --- ------- --<br>------- ---------- ------ -- ----- -- ----- -- ---- ------<br>--- ----- --- --- ------ -------- ----- --- ------ ----- --<br>----- ----- ---------- --- --- ------ ------ ---- -- ------<br>------- --- ------ ----- --- ---- ------- -- ---- --- --<br>------- ------,97299.19999992847,97298.39999997616,96640.038,96651.69999992847,96656.708,97306.937,,5,crown
screen,html.Screen,0_2_1_1_6,2021-11-19T15:25:58.505Z,,,,,,,,,,,,,,,,54,,,,,,,,,,,,,,711.4629999761528,,response,,,100,,,,,,Space,keypress(Space),,,,,-- --- ---- --- ------ ----- secured ---- -- --- ------- --<br>------- ---------- ------ -- ----- -- ----- -- ---- ------<br>--- ----- --- --- ------ -------- ----- --- ------ ----- --<br>----- ----- ---------- --- --- ------ ------ ---- -- ------<br>------- --- ------ ----- --- ---- ------- -- ---- --- --<br>------- ------,98019.09999990463,98018.39999997616,97290.266,97299.39999997616,97306.937,98023.716,,6,secured
screen,html.Screen,0_2_1_1_7,2021-11-19T15:25:58.961Z,,,,,,,,,,,,,,,,54,,,,,,,,,,,,,,450.6839999761578,,response,,,100,,,,,,Space,keypress(Space),,,,,-- --- ---- --- ------ ----- ------- much -- --- ------- --<br>------- ---------- ------ -- ----- -- ----- -- ---- ------<br>--- ----- --- --- ------ -------- ----- --- ------ ----- --<br>----- ----- ---------- --- --- ------ ------ ---- -- ------<br>------- --- ------ ----- --- ---- ------- -- ---- --- --<br>------- ------,98475.09999990463,98474.39999997616,98007.046,98019.39999997616,98023.716,98490.484,,7,much
screen,html.Screen,0_2_1_1_8,2021-11-19T15:25:59.385Z,,,,,,,,,,,,,,,,54,,,,,,,,,,,,,,407.9159999761614,,response,,,100,,,,,,Space,keypress(Space),,,,,-- --- ---- --- ------ ----- ------- ---- of --- ------- --<br>------- ---------- ------ -- ----- -- ----- -- ---- ------<br>--- ----- --- --- ------ -------- ----- --- ------ ----- --<br>----- ----- ---------- --- --- ------ ------ ---- -- ------<br>------- --- ------ ----- --- ---- ------- -- ---- --- --<br>------- ------,98899.09999990463,98898.39999997616,98473.814,98475.39999997616,98490.484,98907.346,,8,of
screen,html.Screen,0_2_1_1_9,2021-11-19T15:25:59.753Z,,,,,,,,,,,,,,,,54,,,,,,,,,,,,,,359.05399997615314,,response,,,100,,,,,,Space,keypress(Space),,,,,-- --- ---- --- ------ ----- ------- ---- -- its ------- --<br>------- ---------- ------ -- ----- -- ----- -- ---- ------<br>--- ----- --- --- ------ -------- ----- --- ------ ----- --<br>----- ----- ---------- --- --- ------ ------ ---- -- ------<br>------- --- ------ ----- --- ---- ------- -- ---- --- --<br>------- ------,99267.09999990463,99266.39999997616,98890.675,98899.29999995232,98907.346,99273.911,,9,its
screen,html.Screen,0_2_1_1_10,2021-11-19T15:26:00.121Z,,,,,,,,,,,,,,,,54,,,,,,,,,,,,,,360.3889999523235,,response,,,100,,,,,,Space,keypress(Space),,,,,-- --- ---- --- ------ ----- ------- ---- -- --- revenue --<br>------- ---------- ------ -- ----- -- ----- -- ---- ------<br>--- ----- --- --- ------ -------- ----- --- ------ ----- --<br>----- ----- ---------- --- --- ------ ------ ---- -- ------<br>------- --- ------ ----- --- ---- ------- -- ---- --- --<br>------- ------,99635.09999990463,99634.29999995232,99257.243,99267.39999997616,99273.911,99640.835,,10,revenue
screen,html.Screen,0_2_1_1_11,2021-11-19T15:26:00.897Z,,,,,,,,,,,,,,,,54,,,,,,,,,,,,,,769.4649999523099,,response,,,100,,,,,,Space,keypress(Space),,,,,-- --- ---- --- ------ ----- ------- ---- -- --- ------- by<br>------- ---------- ------ -- ----- -- ----- -- ---- ------<br>--- ----- --- --- ------ -------- ----- --- ------ ----- --<br>----- ----- ---------- --- --- ------ ------ ---- -- ------<br>------- --- ------ ----- --- ---- ------- -- ---- --- --<br>------- ------,100411,100410.29999995232,99624.164,99635.29999995232,99640.835,100424.311,,11,by
screen,html.Screen,0_2_1_1_12,2021-11-19T15:26:01.417Z,,,,,,,,,,,,,,,,54,,,,,,,,,,,,,,505.8889999284729,,response,,,100,,,,,,Space,keypress(Space),,,,,-- --- ---- --- ------ ----- ------- ---- -- --- ------- --<br>issuing ---------- ------ -- ----- -- ----- -- ---- ------<br>--- ----- --- --- ------ -------- ----- --- ------ ----- --<br>----- ----- ---------- --- --- ------ ------ ---- -- ------<br>------- --- ------ ----- --- ---- ------- -- ---- --- --<br>------- ------,100931,100930.19999992847,100407.641,100411.19999992847,100424.311,100940.984,,12,issuing
screen,html.Screen,0_2_1_1_13,2021-11-19T15:26:02.137Z,,,,,,,,,,,,,,,,54,,,,,,,,,,,,,,709.2159999284777,,response,,,100,,,,,,Space,keypress(Space),,,,,-- --- ---- --- ------ ----- ------- ---- -- --- ------- --<br>------- government ------ -- ----- -- ----- -- ---- ------<br>--- ----- --- --- ------ -------- ----- --- ------ ----- --<br>----- ----- ---------- --- --- ------ ------ ---- -- ------<br>------- --- ------ ----- --- ---- ------- -- ---- --- --<br>------- ------,101651,101650.19999992847,100924.315,100931.29999995232,100940.984,101658.044,,13,government
screen,html.Screen,0_2_1_1_14,2021-11-19T15:26:02.569Z,,,,,,,,,,,,,,,,54,,,,,,,,,,,,,,424.05599990463816,,response,,,100,,,,,,Space,keypress(Space),,,,,-- --- ---- --- ------ ----- ------- ---- -- --- ------- --<br>------- ---------- bonds. -- ----- -- ----- -- ---- ------<br>--- ----- --- --- ------ -------- ----- --- ------ ----- --<br>----- ----- ---------- --- --- ------ ------ ---- -- ------<br>------- --- ------ ----- --- ---- ------- -- ---- --- --<br>------- ------,102083,102082.09999990463,101641.373,101651.29999995232,101658.044,102091.395,,14,bonds.
screen,html.Screen,0_2_1_1_15,2021-11-19T15:26:03.017Z,,,,,,,,,,,,,,,,54,,,,,,,,,,,,,,438.7049999046285,,response,,,100,,,,,,Space,keypress(Space),,,,,-- --- ---- --- ------ ----- ------- ---- -- --- ------- --<br>------- ---------- ------ In ----- -- ----- -- ---- ------<br>--- ----- --- --- ------ -------- ----- --- ------ ----- --<br>----- ----- ---------- --- --- ------ ------ ---- -- ------<br>------- --- ------ ----- --- ---- ------- -- ---- --- --<br>------- ------,102530.79999995232,102530.09999990463,102074.725,102083.19999992847,102091.395,102541.5,,15,In
screen,html.Screen,0_2_1_1_16,2021-11-19T15:26:05.009Z,,,,,,,,,,,,,,,,54,,,,,,,,,,,,,,1980.3999999761581,,response,,,100,,,,,,Space,keypress(Space),,,,,"-- --- ---- --- ------ ----- ------- ---- -- --- ------- --<br>------- ---------- ------ -- 1727, -- ----- -- ---- ------<br>--- ----- --- --- ------ -------- ----- --- ------ ----- --<br>----- ----- ---------- --- --- ------ ------ ---- -- ------<br>------- --- ------ ----- --- ---- ------- -- ---- --- --<br>------- ------",104522.69999992847,104521.89999997616,102524.83,102531.09999990463,102541.5,104525.248,,16,"1727,"
screen,html.Screen,0_2_1_1_17,2021-11-19T15:26:05.417Z,,,,,,,,,,,,,,,,54,,,,,,,,,,,,,,404.95199992846756,,response,,,100,,,,,,Space,keypress(Space),,,,,-- --- ---- --- ------ ----- ------- ---- -- --- ------- --<br>------- ---------- ------ -- ----- in ----- -- ---- ------<br>--- ----- --- --- ------ -------- ----- --- ------ ----- --<br>----- ----- ---------- --- --- ------ ------ ---- -- ------<br>------- --- ------ ----- --- ---- ------- -- ---- --- --<br>------- ------,104931,104930.19999992847,104508.578,104523,104525.248,104941.844,,17,in
screen,html.Screen,0_2_1_1_18,2021-11-19T15:26:05.777Z,,,,,,,,,,,,,,,,54,,,,,,,,,,,,,,348.0559999761608,,response,,,100,,,,,,Space,keypress(Space),,,,,-- --- ---- --- ------ ----- ------- ---- -- --- ------- --<br>------- ---------- ------ -- ----- -- order -- ---- ------<br>--- ----- --- --- ------ -------- ----- --- ------ ----- --<br>----- ----- ---------- --- --- ------ ------ ---- -- ------<br>------- --- ------ ----- --- ---- ------- -- ---- --- --<br>------- ------,105290.79999995232,105289.89999997616,104925.175,104931.29999995232,104941.844,105292.128,,18,order
screen,html.Screen,0_2_1_1_19,2021-11-19T15:26:06.113Z,,,,,,,,,,,,,,,,54,,,,,,,,,,,,,,333.77199997616117,,response,,,100,,,,,,Space,keypress(Space),,,,,-- --- ---- --- ------ ----- ------- ---- -- --- ------- --<br>------- ---------- ------ -- ----- -- ----- to ---- ------<br>--- ----- --- --- ------ -------- ----- --- ------ ----- --<br>----- ----- ---------- --- --- ------ ------ ---- -- ------<br>------- --- ------ ----- --- ---- ------- -- ---- --- --<br>------- ------,105626.79999995232,105625.89999997616,105275.458,105291.09999990463,105292.128,105642.379,,19,to
screen,html.Screen,0_2_1_1_20,2021-11-19T15:26:06.697Z,,,,,,,,,,,,,,,,54,,,,,,,,,,,,,,567.5209999761573,,response,,,100,,,,,,Space,keypress(Space),,,,,-- --- ---- --- ------ ----- ------- ---- -- --- ------- --<br>------- ---------- ------ -- ----- -- ----- -- save ------<br>--- ----- --- --- ------ -------- ----- --- ------ ----- --<br>----- ----- ---------- --- --- ------ ------ ---- -- ------<br>------- --- ------ ----- --- ---- ------- -- ---- --- --<br>------- ------,106210.79999995232,106209.89999997616,105625.706,105627.09999990463,105642.379,106225.728,,20,save
screen,html.Screen,0_2_1_1_21,2021-11-19T15:26:07.401Z,,,,,,,,,,,,,,,,54,,,,,,,,,,,,,,688.0719999523135,,response,,,100,,,,,,Space,keypress(Space),,,,,"-- --- ---- --- ------ ----- ------- ---- -- --- ------- --<br>------- ---------- ------ -- ----- -- ----- -- ---- money,<br>--- ----- --- --- ------ -------- ----- --- ------ ----- --<br>----- ----- ---------- --- --- ------ ------ ---- -- ------<br>------- --- ------ ----- --- ---- ------- -- ---- --- --<br>------- ------",106914.59999990463,106913.79999995232,106209.058,106211.09999990463,106225.728,106925.981,,21,"money,"
screen,html.Screen,0_2_1_1_22,2021-11-19T15:26:07.889Z,,,,,,,,,,,,,,,,54,,,,,,,,,,,,,,475.8189999523165,,response,,,100,,,,,,Space,keypress(Space),,,,,-- --- ---- --- ------ ----- ------- ---- -- --- ------- --<br>------- ---------- ------ -- ----- -- ----- -- ---- ------<br>the ----- --- --- ------ -------- ----- --- ------ ----- --<br>----- ----- ---------- --- --- ------ ------ ---- -- ------<br>------- --- ------ ----- --- ---- ------- -- ---- --- --<br>------- ------,107402.69999992847,107401.79999995232,106909.31,106914.89999997616,106925.981,107409.328,,22,the
screen,html.Screen,0_2_1_1_23,2021-11-19T15:26:08.353Z,,,,,,,,,,,,,,,,54,,,,,,,,,,,,,,456.37199992848036,,response,,,100,,,,,,Space,keypress(Space),,,,,-- --- ---- --- ------ ----- ------- ---- -- --- ------- --<br>------- ---------- ------ -- ----- -- ----- -- ---- ------<br>--- state --- --- ------ -------- ----- --- ------ ----- --<br>----- ----- ---------- --- --- ------ ------ ---- -- ------<br>------- --- ------ ----- --- ---- ------- -- ---- --- --<br>------- ------,107866.59999990463,107865.69999992847,107392.658,107403,107409.328,107876.118,,23,state
screen,html.Screen,0_2_1_1_24,2021-11-19T15:26:09.049Z,,,,,,,,,,,,,,,,54,,,,,,,,,,,,,,685.5819999284722,,response,,,100,,,,,,Space,keypress(Space),,,,,-- --- ---- --- ------ ----- ------- ---- -- --- ------- --<br>------- ---------- ------ -- ----- -- ----- -- ---- ------<br>--- ----- cut --- ------ -------- ----- --- ------ ----- --<br>----- ----- ---------- --- --- ------ ------ ---- -- ------<br>------- --- ------ ----- --- ---- ------- -- ---- --- --<br>------- ------,108562.5,108561.69999992847,107859.448,107866.89999997616,107876.118,108576.309,,24,cut
screen,html.Screen,0_2_1_1_25,2021-11-19T15:26:09.537Z,,,,,,,,,,,,,,,,54,,,,,,,,,,,,,,473.3909999284806,,response,,,100,,,,,,Space,keypress(Space),,,,,-- --- ---- --- ------ ----- ------- ---- -- --- ------- --<br>------- ---------- ------ -- ----- -- ----- -- ---- ------<br>--- ----- --- the ------ -------- ----- --- ------ ----- --<br>----- ----- ---------- --- --- ------ ------ ---- -- ------<br>------- --- ------ ----- --- ---- ------- -- ---- --- --<br>------- ------,109050.5,109049.69999992847,108559.639,108562.69999992847,108576.309,109059.757,,25,the
screen,html.Screen,0_2_1_1_26,2021-11-19T15:26:10.160Z,,,,,,,,,,,,,,,,54,,,,,,,,,,,,,,613.7430000000022,,response,,,100,,,,,,Space,keypress(Space),,,,,-- --- ---- --- ------ ----- ------- ---- -- --- ------- --<br>------- ---------- ------ -- ----- -- ----- -- ---- ------<br>--- ----- --- --- bonds' -------- ----- --- ------ ----- --<br>----- ----- ---------- --- --- ------ ------ ---- -- ------<br>------- --- ------ ----- --- ---- ------- -- ---- --- --<br>------- ------,109674.29999995232,109673.5,109043.087,109050.79999995232,109059.757,109676.545,,26,bonds'
screen,html.Screen,0_2_1_1_27,2021-11-19T15:26:10.656Z,,,,,,,,,,,,,,,,54,,,,,,,,,,,,,,492.95500000000175,,response,,,100,,,,,,Space,keypress(Space),,,,,-- --- ---- --- ------ ----- ------- ---- -- --- ------- --<br>------- ---------- ------ -- ----- -- ----- -- ---- ------<br>--- ----- --- --- ------ interest ----- --- ------ ----- --<br>----- ----- ---------- --- --- ------ ------ ---- -- ------<br>------- --- ------ ----- --- ---- ------- -- ---- --- --<br>------- ------,110170.29999995232,110169.5,109659.875,109674.59999990463,109676.545,110176.67,,27,interest
screen,html.Screen,0_2_1_1_28,2021-11-19T15:26:11.416Z,,,,,,,,,,,,,,,,54,,,,,,,,,,,,,,752.8300000000017,,response,,,100,,,,,,Space,keypress(Space),,,,,-- --- ---- --- ------ ----- ------- ---- -- --- ------- --<br>------- ---------- ------ -- ----- -- ----- -- ---- ------<br>--- ----- --- --- ------ -------- rate. --- ------ ----- --<br>----- ----- ---------- --- --- ------ ------ ---- -- ------<br>------- --- ------ ----- --- ---- ------- -- ---- --- --<br>------- ------,110930.29999995232,110929.5,110160,110170.59999990463,110176.67,110943.611,,28,rate.
screen,html.Screen,0_2_1_1_29,2021-11-19T15:26:11.920Z,,,,,,,,,,,,,,,,54,,,,,,,,,,,,,,489.7889999761537,,response,,,100,,,,,,Space,keypress(Space),,,,,-- --- ---- --- ------ ----- ------- ---- -- --- ------- --<br>------- ---------- ------ -- ----- -- ----- -- ---- ------<br>--- ----- --- --- ------ -------- ----- The ------ ----- --<br>----- ----- ---------- --- --- ------ ------ ---- -- ------<br>------- --- ------ ----- --- ---- ------- -- ---- --- --<br>------- ------,111434.39999997616,111433.39999997616,110926.94,110930.59999990463,110943.611,111443.487,,29,The
screen,html.Screen,0_2_1_1_30,2021-11-19T15:26:12.472Z,,,,,,,,,,,,,,,,54,,,,,,,,,,,,,,542.0130000000063,,response,,,100,,,,,,Space,keypress(Space),,,,,-- --- ---- --- ------ ----- ------- ---- -- --- ------- --<br>------- ---------- ------ -- ----- -- ----- -- ---- ------<br>--- ----- --- --- ------ -------- ----- --- market ----- --<br>----- ----- ---------- --- --- ------ ------ ---- -- ------<br>------- --- ------ ----- --- ---- ------- -- ---- --- --<br>------- ------,111986.19999992847,111985.5,111426.819,111434.5,111443.487,111993.849,,30,market
screen,html.Screen,0_2_1_1_31,2021-11-19T15:26:12.976Z,,,,,,,,,,,,,,,,54,,,,,,,,,,,,,,495.55099997615616,,response,,,100,,,,,,Space,keypress(Space),,,,,-- --- ---- --- ------ ----- ------- ---- -- --- ------- --<br>------- ---------- ------ -- ----- -- ----- -- ---- ------<br>--- ----- --- --- ------ -------- ----- --- ------ value --<br>----- ----- ---------- --- --- ------ ------ ---- -- ------<br>------- --- ------ ----- --- ---- ------- -- ---- --- --<br>------- ------,112490.19999992847,112489.39999997616,111977.178,111986.5,111993.849,112493.806,,31,value
screen,html.Screen,0_2_1_1_32,2021-11-19T15:26:13.440Z,,,,,,,,,,,,,,,,54,,,,,,,,,,,,,,459.5939999761613,,response,,,100,,,,,,Space,keypress(Space),,,,,-- --- ---- --- ------ ----- ------- ---- -- --- ------- --<br>------- ---------- ------ -- ----- -- ----- -- ---- ------<br>--- ----- --- --- ------ -------- ----- --- ------ ----- of<br>----- ----- ---------- --- --- ------ ------ ---- -- ------<br>------- --- ------ ----- --- ---- ------- -- ---- --- --<br>------- ------,112954.19999992847,112953.39999997616,112477.137,112490.39999997616,112493.806,112960.767,,32,of
screen,html.Screen,0_2_1_1_33,2021-11-19T15:26:13.912Z,,,,,,,,,,,,,,,,54,,,,,,,,,,,,,,464.63299997615104,,response,,,100,,,,,,Space,keypress(Space),,,,,-- --- ---- --- ------ ----- ------- ---- -- --- ------- --<br>------- ---------- ------ -- ----- -- ----- -- ---- ------<br>--- ----- --- --- ------ -------- ----- --- ------ ----- --<br>these ----- ---------- --- --- ------ ------ ---- -- ------<br>------- --- ------ ----- --- ---- ------- -- ---- --- --<br>------- ------,113426.19999992847,113425.39999997616,112944.096,112954.59999990463,112960.767,113427.492,,33,these
screen,html.Screen,0_2_1_1_34,2021-11-19T15:26:14.376Z,,,,,,,,,,,,,,,,54,,,,,,,,,,,,,,461.8079999523179,,response,,,100,,,,,,Space,keypress(Space),,,,,-- --- ---- --- ------ ----- ------- ---- -- --- ------- --<br>------- ---------- ------ -- ----- -- ----- -- ---- ------<br>--- ----- --- --- ------ -------- ----- --- ------ ----- --<br>----- bonds ---------- --- --- ------ ------ ---- -- ------<br>------- --- ------ ----- --- ---- ------- -- ---- --- --<br>------- ------,113890.09999990463,113889.29999995232,113410.822,113426.39999997616,113427.492,113894.242,,34,bonds
screen,html.Screen,0_2_1_1_35,2021-11-19T15:26:14.944Z,,,,,,,,,,,,,,,,54,,,,,,,,,,,,,,562.957999928476,,response,,,100,,,,,,Space,keypress(Space),,,,,"-- --- ---- --- ------ ----- ------- ---- -- --- ------- --<br>------- ---------- ------ -- ----- -- ----- -- ---- ------<br>--- ----- --- --- ------ -------- ----- --- ------ ----- --<br>----- ----- plummeted, --- --- ------ ------ ---- -- ------<br>------- --- ------ ----- --- ---- ------- -- ---- --- --<br>------- ------",114458,114457.19999992847,113877.572,113890.39999997616,113894.242,114461.125,,35,"plummeted,"
screen,html.Screen,0_2_1_1_36,2021-11-19T15:26:15.408Z,,,,,,,,,,,,,,,,54,,,,,,,,,,,,,,460.1749999523163,,response,,,100,,,,,,Space,keypress(Space),,,,,-- --- ---- --- ------ ----- ------- ---- -- --- ------- --<br>------- ---------- ------ -- ----- -- ----- -- ---- ------<br>--- ----- --- --- ------ -------- ----- --- ------ ----- --<br>----- ----- ---------- and --- ------ ------ ---- -- ------<br>------- --- ------ ----- --- ---- ------- -- ---- --- --<br>------- ------,114922,114921.29999995232,114444.454,114458.29999995232,114461.125,114927.844,,36,and
screen,html.Screen,0_2_1_1_37,2021-11-19T15:26:15.840Z,,,,,,,,,,,,,,,,54,,,,,,,,,,,,,,425.75599990463525,,response,,,100,,,,,,Space,keypress(Space),,,,,-- --- ---- --- ------ ----- ------- ---- -- --- ------- --<br>------- ---------- ------ -- ----- -- ----- -- ---- ------<br>--- ----- --- --- ------ -------- ----- --- ------ ----- --<br>----- ----- ---------- --- the ------ ------ ---- -- ------<br>------- --- ------ ----- --- ---- ------- -- ---- --- --<br>------- ------,115354.39999997616,115353.59999990463,114911.174,114922.19999992847,114927.844,115361.279,,37,the
screen,html.Screen,0_2_1_1_38,2021-11-19T15:26:16.280Z,,,,,,,,,,,,,,,,54,,,,,,,,,,,,,,431.92099992847943,,response,,,100,,,,,,Space,keypress(Space),,,,,-- --- ---- --- ------ ----- ------- ---- -- --- ------- --<br>------- ---------- ------ -- ----- -- ----- -- ---- ------<br>--- ----- --- --- ------ -------- ----- --- ------ ----- --<br>----- ----- ---------- --- --- market ------ ---- -- ------<br>------- --- ------ ----- --- ---- ------- -- ---- --- --<br>------- ------,115793.89999997616,115793.19999992847,115344.609,115354.5,115361.279,115811.396,,38,market
screen,html.Screen,0_2_1_1_39,2021-11-19T15:26:16.784Z,,,,,,,,,,,,,,,,54,,,,,,,,,,,,,,485.80399992848106,,response,,,100,,,,,,Space,keypress(Space),,,,,-- --- ---- --- ------ ----- ------- ---- -- --- ------- --<br>------- ---------- ------ -- ----- -- ----- -- ---- ------<br>--- ----- --- --- ------ -------- ----- --- ------ ----- --<br>----- ----- ---------- --- --- ------ became ---- -- ------<br>------- --- ------ ----- --- ---- ------- -- ---- --- --<br>------- ------,116297.89999997616,116297.19999992847,115794.726,115794.19999992847,115811.396,116311.534,,39,became
screen,html.Screen,0_2_1_1_40,2021-11-19T15:26:17.208Z,,,,,,,,,,,,,,,,54,,,,,,,,,,,,,,409.5659999046329,,response,,,100,,,,,,Space,keypress(Space),,,,,-- --- ---- --- ------ ----- ------- ---- -- --- ------- --<br>------- ---------- ------ -- ----- -- ----- -- ---- ------<br>--- ----- --- --- ------ -------- ----- --- ------ ----- --<br>----- ----- ---------- --- --- ------ ------ wary -- ------<br>------- --- ------ ----- --- ---- ------- -- ---- --- --<br>------- ------,116721.89999997616,116721.09999990463,116294.864,116298.19999992847,116311.534,116728.152,,40,wary
screen,html.Screen,0_2_1_1_41,2021-11-19T15:26:17.592Z,,,,,,,,,,,,,,,,54,,,,,,,,,,,,,,376.9479999046307,,response,,,100,,,,,,Space,keypress(Space),,,,,-- --- ---- --- ------ ----- ------- ---- -- --- ------- --<br>------- ---------- ------ -- ----- -- ----- -- ---- ------<br>--- ----- --- --- ------ -------- ----- --- ------ ----- --<br>----- ----- ---------- --- --- ------ ------ ---- of ------<br>------- --- ------ ----- --- ---- ------- -- ---- --- --<br>------- ------,117105.79999995232,117105.09999990463,116711.484,116722.09999990463,116728.152,117111.766,,41,of
screen,html.Screen,0_2_1_1_42,2021-11-19T15:26:17.952Z,,,,,,,,,,,,,,,,54,,,,,,,,,,,,,,353.23399999999674,,response,,,100,,,,,,Space,keypress(Space),,,,,-- --- ---- --- ------ ----- ------- ---- -- --- ------- --<br>------- ---------- ------ -- ----- -- ----- -- ---- ------<br>--- ----- --- --- ------ -------- ----- --- ------ ----- --<br>----- ----- ---------- --- --- ------ ------ ---- -- French<br>------- --- ------ ----- --- ---- ------- -- ---- --- --<br>------- ------,117465.79999995232,117465,117095.095,117106.09999990463,117111.766,117478.473,,42,French
screen,html.Screen,0_2_1_1_43,2021-11-19T15:26:18.344Z,,,,,,,,,,,,,,,,54,,,,,,,,,,,,,,378.52700000000186,,response,,,100,,,,,,Space,keypress(Space),,,,,-- --- ---- --- ------ ----- ------- ---- -- --- ------- --<br>------- ---------- ------ -- ----- -- ----- -- ---- ------<br>--- ----- --- --- ------ -------- ----- --- ------ ----- --<br>----- ----- ---------- --- --- ------ ------ ---- -- ------<br>credit. --- ------ ----- --- ---- ------- -- ---- --- --<br>------- ------,117857.79999995232,117857,117461.803,117466,117478.473,117861.896,,43,credit.
screen,html.Screen,0_2_1_1_44,2021-11-19T15:26:18.864Z,,,,,,,,,,,,,,,,54,,,,,,,,,,,,,,515.1040000000066,,response,,,100,,,,,,Space,keypress(Space),,,,,-- --- ---- --- ------ ----- ------- ---- -- --- ------- --<br>------- ---------- ------ -- ----- -- ----- -- ---- ------<br>--- ----- --- --- ------ -------- ----- --- ------ ----- --<br>----- ----- ---------- --- --- ------ ------ ---- -- ------<br>------- The ------ ----- --- ---- ------- -- ---- --- --<br>------- ------,118377.79999995232,118377,117845.226,117858,117861.896,118395.355,,44,The
screen,html.Screen,0_2_1_1_45,2021-11-19T15:26:19.184Z,,,,,,,,,,,,,,,,54,,,,,,,,,,,,,,301.6450000000041,,response,,,100,,,,,,Space,keypress(Space),,,,,-- --- ---- --- ------ ----- ------- ---- -- --- ------- --<br>------- ---------- ------ -- ----- -- ----- -- ---- ------<br>--- ----- --- --- ------ -------- ----- --- ------ ----- --<br>----- ----- ---------- --- --- ------ ------ ---- -- ------<br>------- --- French ----- --- ---- ------- -- ---- --- --<br>------- ------,118697.79999995232,118697,118378.685,118378,118395.355,118712.122,,45,French
screen,html.Screen,0_2_1_1_46,2021-11-19T15:26:19.528Z,,,,,,,,,,,,,,,,54,,,,,,,,,,,,,,328.877999999997,,response,,,100,,,,,,Space,keypress(Space),,,,,-- --- ---- --- ------ ----- ------- ---- -- --- ------- --<br>------- ---------- ------ -- ----- -- ----- -- ---- ------<br>--- ----- --- --- ------ -------- ----- --- ------ ----- --<br>----- ----- ---------- --- --- ------ ------ ---- -- ------<br>------- --- ------ state --- ---- ------- -- ---- --- --<br>------- ------,119041.79999995232,119041,118695.452,118698,118712.122,119045.529,,46,state
screen,html.Screen,0_2_1_1_47,2021-11-19T15:26:19.880Z,,,,,,,,,,,,,,,,54,,,,,,,,,,,,,,347.37099997616315,,response,,,100,,,,,,Space,keypress(Space),,,,,-- --- ---- --- ------ ----- ------- ---- -- --- ------- --<br>------- ---------- ------ -- ----- -- ----- -- ---- ------<br>--- ----- --- --- ------ -------- ----- --- ------ ----- --<br>----- ----- ---------- --- --- ------ ------ ---- -- ------<br>------- --- ------ ----- was ---- ------- -- ---- --- --<br>------- ------,119393.69999992847,119392.89999997616,119028.859,119041.89999997616,119045.529,119395.614,,47,was
screen,html.Screen,0_2_1_1_48,2021-11-19T15:26:20.240Z,,,,,,,,,,,,,,,,54,,,,,,,,,,,,,,357.3859999999986,,response,,,100,,,,,,Space,keypress(Space),,,,,-- --- ---- --- ------ ----- ------- ---- -- --- ------- --<br>------- ---------- ------ -- ----- -- ----- -- ---- ------<br>--- ----- --- --- ------ -------- ----- --- ------ ----- --<br>----- ----- ---------- --- --- ------ ------ ---- -- ------<br>------- --- ------ ----- --- left ------- -- ---- --- --<br>------- ------,119753.69999992847,119753,119378.944,119394,119395.614,119762.298,,48,left
screen,html.Screen,0_2_1_1_49,2021-11-19T15:26:20.664Z,,,,,,,,,,,,,,,,54,,,,,,,,,,,,,,414.6019999761629,,response,,,100,,,,,,Space,keypress(Space),,,,,-- --- ---- --- ------ ----- ------- ---- -- --- ------- --<br>------- ---------- ------ -- ----- -- ----- -- ---- ------<br>--- ----- --- --- ------ -------- ----- --- ------ ----- --<br>----- ----- ---------- --- --- ------ ------ ---- -- ------<br>------- --- ------ ----- --- ---- without -- ---- --- --<br>------- ------,120177.69999992847,120176.89999997616,119745.629,119753.89999997616,119762.298,120179.101,,49,without
screen,html.Screen,0_2_1_1_50,2021-11-19T15:26:21.064Z,,,,,,,,,,,,,,,,54,,,,,,,,,,,,,,397.79899997616303,,response,,,100,,,,,,Space,keypress(Space),,,,,-- --- ---- --- ------ ----- ------- ---- -- --- ------- --<br>------- ---------- ------ -- ----- -- ----- -- ---- ------<br>--- ----- --- --- ------ -------- ----- --- ------ ----- --<br>----- ----- ---------- --- --- ------ ------ ---- -- ------<br>------- --- ------ ----- --- ---- ------- an ---- --- --<br>------- ------,120577.59999990463,120576.89999997616,120162.431,120177.89999997616,120179.101,120579.263,,50,an
screen,html.Screen,0_2_1_1_51,2021-11-19T15:26:21.395Z,,,,,,,,,,,,,,,,54,,,,,,,,,,,,,,325.53699995231,,response,,,100,,,,,,Space,keypress(Space),,,,,-- --- ---- --- ------ ----- ------- ---- -- --- ------- --<br>------- ---------- ------ -- ----- -- ----- -- ---- ------<br>--- ----- --- --- ------ -------- ----- --- ------ ----- --<br>----- ----- ---------- --- --- ------ ------ ---- -- ------<br>------- --- ------ ----- --- ---- ------- -- easy --- --<br>------- ------,120905.5,120904.79999995232,120562.592,120577.89999997616,120579.263,120912.647,,51,easy
screen,html.Screen,0_2_1_1_52,2021-11-19T15:26:21.796Z,,,,,,,,,,,,,,,,54,,,,,,,,,,,,,,392.1529999523191,,response,,,100,,,,,,Space,keypress(Space),,,,,-- --- ---- --- ------ ----- ------- ---- -- --- ------- --<br>------- ---------- ------ -- ----- -- ----- -- ---- ------<br>--- ----- --- --- ------ -------- ----- --- ------ ----- --<br>----- ----- ---------- --- --- ------ ------ ---- -- ------<br>------- --- ------ ----- --- ---- ------- -- ---- way --<br>------- ------,121305.69999992847,121304.79999995232,120895.977,120905.79999995232,120912.647,121312.743,,52,way
screen,html.Screen,0_2_1_1_53,2021-11-19T15:26:22.139Z,,,,,,,,,,,,,,,,54,,,,,,,,,,,,,,336.0569999523141,,response,,,100,,,,,,Space,keypress(Space),,,,,-- --- ---- --- ------ ----- ------- ---- -- --- ------- --<br>------- ---------- ------ -- ----- -- ----- -- ---- ------<br>--- ----- --- --- ------ -------- ----- --- ------ ----- --<br>----- ----- ---------- --- --- ------ ------ ---- -- ------<br>------- --- ------ ----- --- ---- ------- -- ---- --- of<br>------- ------,121649.5,121648.79999995232,121296.073,121305.89999997616,121312.743,121662.815,,53,of
screen,html.Screen,0_2_1_1_54,2021-11-19T15:26:22.651Z,,,,,,,,,,,,,,,,54,,,,,,,,,,,,,,497.8849999284721,,response,,,100,,,,,,Space,keypress(Space),,,,,-- --- ---- --- ------ ----- ------- ---- -- --- ------- --<br>------- ---------- ------ -- ----- -- ----- -- ---- ------<br>--- ----- --- --- ------ -------- ----- --- ------ ----- --<br>----- ----- ---------- --- --- ------ ------ ---- -- ------<br>------- --- ------ ----- --- ---- ------- -- ---- --- --<br>raising ------,122161.5,122160.69999992847,121646.145,121649.69999992847,121662.815,122162.952,,54,raising
screen,html.Screen,0_2_1_1_55,2021-11-19T15:26:23.043Z,,,,,,,,,,,,,,,,54,,,,,,,,,,,,,,389.74799992846965,,response,,,100,,,,,,Space,keypress(Space),,,,,-- --- ---- --- ------ ----- ------- ---- -- --- ------- --<br>------- ---------- ------ -- ----- -- ----- -- ---- ------<br>--- ----- --- --- ------ -------- ----- --- ------ ----- --<br>----- ----- ---------- --- --- ------ ------ ---- -- ------<br>------- --- ------ ----- --- ---- ------- -- ---- --- --<br>------- money.,122553.5,122552.69999992847,122146.282,122161.79999995232,122162.952,122563.046,,55,money.
Item 100,flow.Loop,0_2_1_1,2021-11-19T15:26:23.044Z,,,,,,,,,,,,,,,,,,,,,,,,,,,,,,29363.585999928473,,completion,,,,E,,,,,,,,,,silence,,122553.89999997616,122552.69999992847,93172.444,93174.29999995232,93189.114,122563.046,,,
Question 1,html.Screen,0_2_1_2,2021-11-19T15:26:25.684Z,,,,,,,,,,,,,,,,,,,,,,,,,,,true,TRUE,,2629.853999976156,,response,,,100,E,,,,,TRUE,click #choice-1,,,,silence,,125194.09999990463,125192.89999997616,122546.376,122554.09999990463,122563.046,125196.907,,,
Question 2,html.Screen,0_2_1_3,2021-11-19T15:26:27.867Z,,,,,,,,,,,,,,,,,,,,,,,,,,,true,FALSE,,2179.192999904626,,response,,,100,E,,,,,FALSE,click #choice-2,,,,silence,,127377.29999995232,127376.09999990463,125180.238,125194.29999995232,125196.907,127380.788,,,
Item 100,flow.Sequence,0_2_1,2021-11-19T15:26:27.868Z,,,,,,,,,,,,,,,,,,,,,,,,,,,,,,44189.29699990463,,completion,,,,,,,,,,,,,,,,127377.69999992847,127376.09999990463,83170.133,83181.09999990463,83186.803,127380.788,,,
End of Practice,html.Page,0_2_2,2021-11-19T15:26:33.372Z,,,,,,,,,,,,,,,,,,,,,,,,,,,,,,5501.011999952316,,form submission,,,,,,,,,,,,,,,,132882.29999995232,132881.79999995232,127364.121,127377.89999997616,127380.788,132882.258,,,
Practice,flow.Sequence,0_2,2021-11-19T15:26:33.373Z,,,,,,,,,,,,,,,,,,,,,,,,,,,,,,95372.21899995231,,completion,,,,,,,,,,,,,,,,132882.79999995232,132881.79999995232,37492.907,37496.5,37509.581,132882.258,,,
Trap_instruction,html.Page,0_3_0,2021-11-19T15:26:37.364Z,,,,,,,,,,,,,,,,,,,,,,,,,,,,,,3990.941999928473,,form submission,,,,,,,,,,,,,,,,136873.79999995232,136873.19999992847,132865.587,132883.09999990463,132882.258,136899.576,,,
trap_trial,html.Screen,0_3_1,2021-11-19T15:26:40.227Z,,,,,,,,,,,,,,,,,,,,,,,,,,,true,1,,2835.823999976157,,response,,,,,,,,,1,click #choice-1,,,,,,139736.59999990463,139735.39999997616,136866.238,136874.19999992847,136899.576,139749.888,,,
end of trap trial,html.Page,0_3_2,2021-11-19T15:26:41.875Z,,,,,,,,,,,,,,,,,,,,,,,,,,,,,,1634.91199995231,,form submission,,,,,,,,,,,,,,,,141385.39999997616,141384.79999995232,139733.221,139736.89999997616,139749.888,141384.177,,,
Trap 1,flow.Sequence,0_3,2021-11-19T15:26:41.876Z,,,,,,,,,,,,,,,,,,,,,,,,,,,,,,8502.541999952315,,completion,,,,,,,,,,,,,,,,141385.89999997616,141384.79999995232,132865.587,132883,132882.258,141384.177,,,
Standby,html.Page,0_4_0,2021-11-19T15:26:49.861Z,,,,,,,,,,,,,,,,,,,,,,,,,,,,,,8002.206999999995,,timeout,,,,,,,,,,,,,,,,149371,149369.713,141367.507,141386.19999992847,141384.177,149386.384,,,
Holding screen,html.Screen,0_4_1_0_0,2021-11-19T15:26:56.862Z,,,,,,,,,,,,,,,,,,,,,,,,,,,,,,7001.478000000003,,timeout,,,,,,,,,,,,,,,,156372.59999990463,156371.192,149369.713,149371.39999997616,149386.384,156387.862,,,
screen,html.Screen,0_4_1_0_1_0,2021-11-19T15:26:57.794Z,,,,,,,,,,,,,,,,51,,,,,,,,,,,,,,914.8379999284807,,response,,,13,E,,,,,Space,keypress(Space),,,,lyrical,American -------- --- --- ---- --- --- ------ -- --------<br>---- --------- --- ------- ------------ ---------- ---------<br>--- ---------- ------- ---------- ------- -- -------- ----<br>---- --- ------ ----- ------ -- ---- --- ----- -- - -------<br>-------- -- --- --- -- ----- ----------- ----- -----------<br>---- --- ---------- --- ---- --- -- ----------,157303.79999995232,157302.69999992847,156371.192,156372.89999997616,156387.862,157304.783,,0,American
screen,html.Screen,0_4_1_0_1_1,2021-11-19T15:26:58.513Z,,,,,,,,,,,,,,,,51,,,,,,,,,,,,,,717.5169999523205,,response,,,13,E,,,,,Space,keypress(Space),,,,lyrical,-------- industry --- --- ---- --- --- ------ -- --------<br>---- --------- --- ------- ------------ ---------- ---------<br>--- ---------- ------- ---------- ------- -- -------- ----<br>---- --- ------ ----- ------ -- ---- --- ----- -- - -------<br>-------- -- --- --- -- ----- ----------- ----- -----------<br>---- --- ---------- --- ---- --- -- ----------,158023.09999990463,158022.29999995232,157288.113,157304.19999992847,157304.783,158038.145,,1,industry
screen,html.Screen,0_4_1_0_1_2,2021-11-19T15:26:59.161Z,,,,,,,,,,,,,,,,51,,,,,,,,,,,,,,632.0549999284849,,response,,,13,E,,,,,Space,keypress(Space),,,,lyrical,-------- -------- may --- ---- --- --- ------ -- --------<br>---- --------- --- ------- ------------ ---------- ---------<br>--- ---------- ------- ---------- ------- -- -------- ----<br>---- --- ------ ----- ------ -- ---- --- ----- -- - -------<br>-------- -- --- --- -- ----- ----------- ----- -----------<br>---- --- ---------- --- ---- --- -- ----------,158671.19999992847,158670.19999992847,158021.476,158023.39999997616,158038.145,158688.442,,2,may
screen,html.Screen,0_4_1_0_1_3,2021-11-19T15:26:59.849Z,,,,,,,,,,,,,,,,51,,,,,,,,,,,,,,669.55799999999,,response,,,13,E,,,,,Space,keypress(Space),,,,lyrical,-------- -------- --- not ---- --- --- ------ -- --------<br>---- --------- --- ------- ------------ ---------- ---------<br>--- ---------- ------- ---------- ------- -- -------- ----<br>---- --- ------ ----- ------ -- ---- --- ----- -- - -------<br>-------- -- --- --- -- ----- ----------- ----- -----------<br>---- --- ---------- --- ---- --- -- ----------,159358.89999997616,159358,158671.772,158671.39999997616,158688.442,159372.047,,3,not
screen,html.Screen,0_4_1_0_1_4,2021-11-19T15:27:00.505Z,,,,,,,,,,,,,,,,51,,,,,,,,,,,,,,642.0529999046412,,response,,,13,E,,,,,Space,keypress(Space),,,,lyrical,-------- -------- --- --- know --- --- ------ -- --------<br>---- --------- --- ------- ------------ ---------- ---------<br>--- ---------- ------- ---------- ------- -- -------- ----<br>---- --- ------ ----- ------ -- ---- --- ----- -- - -------<br>-------- -- --- --- -- ----- ----------- ----- -----------<br>---- --- ---------- --- ---- --- -- ----------,160014.89999997616,160014.09999990463,159355.376,159359.09999990463,159372.047,160022.13,,4,know
screen,html.Screen,0_4_1_0_1_5,2021-11-19T15:27:01.025Z,,,,,,,,,,,,,,,,51,,,,,,,,,,,,,,511.9699999046279,,response,,,13,E,,,,,Space,keypress(Space),,,,lyrical,"-------- -------- --- --- ---- it, --- ------ -- --------<br>---- --------- --- ------- ------------ ---------- ---------<br>--- ---------- ------- ---------- ------- -- -------- ----<br>---- --- ------ ----- ------ -- ---- --- ----- -- - -------<br>-------- -- --- --- -- ----- ----------- ----- -----------<br>---- --- ---------- --- ---- --- -- ----------",160535,160534.09999990463,160005.46,160015.29999995232,160022.13,160538.792,,5,"it,"
screen,html.Screen,0_4_1_0_1_6,2021-11-19T15:27:01.633Z,,,,,,,,,,,,,,,,51,,,,,,,,,,,,,,603.1079999761714,,response,,,13,E,,,,,Space,keypress(Space),,,,lyrical,-------- -------- --- --- ---- --- but ------ -- --------<br>---- --------- --- ------- ------------ ---------- ---------<br>--- ---------- ------- ---------- ------- -- -------- ----<br>---- --- ------ ----- ------ -- ---- --- ----- -- - -------<br>-------- -- --- --- -- ----- ----------- ----- -----------<br>---- --- ---------- --- ---- --- -- ----------,161142.69999992847,161141.89999997616,160522.123,160535.19999992847,160538.792,161155.798,,6,but
screen,html.Screen,0_4_1_0_1_7,2021-11-19T15:27:02.113Z,,,,,,,,,,,,,,,,51,,,,,,,,,,,,,,466.2019999999902,,response,,,13,E,,,,,Space,keypress(Space),,,,lyrical,-------- -------- --- --- ---- --- --- debate -- --------<br>---- --------- --- ------- ------------ ---------- ---------<br>--- ---------- ------- ---------- ------- -- -------- ----<br>---- --- ------ ----- ------ -- ---- --- ----- -- - -------<br>-------- -- --- --- -- ----- ----------- ----- -----------<br>---- --- ---------- --- ---- --- -- ----------,161622.79999995232,161622,161139.127,161143,161155.798,161639.213,,7,debate
screen,html.Screen,0_4_1_0_1_8,2021-11-19T15:27:02.513Z,,,,,,,,,,,,,,,,51,,,,,,,,,,,,,,382.6869999761693,,response,,,13,E,,,,,Space,keypress(Space),,,,lyrical,-------- -------- --- --- ---- --- --- ------ in --------<br>---- --------- --- ------- ------------ ---------- ---------<br>--- ---------- ------- ---------- ------- -- -------- ----<br>---- --- ------ ----- ------ -- ---- --- ----- -- - -------<br>-------- -- --- --- -- ----- ----------- ----- -----------<br>---- --- ---------- --- ---- --- -- ----------,162022.69999992847,162021.89999997616,161622.543,161623,161639.213,162039.267,,8,in
screen,html.Screen,0_4_1_0_1_9,2021-11-19T15:27:03.137Z,,,,,,,,,,,,,,,,51,,,,,,,,,,,,,,606.7330000000075,,response,,,13,E,,,,,Space,keypress(Space),,,,lyrical,-------- -------- --- --- ---- --- --- ------ -- Congress<br>---- --------- --- ------- ------------ ---------- ---------<br>--- ---------- ------- ---------- ------- -- -------- ----<br>---- --- ------ ----- ------ -- ---- --- ----- -- - -------<br>-------- -- --- --- -- ----- ----------- ----- -----------<br>---- --- ---------- --- ---- --- -- ----------,162646.69999992847,162646,162022.597,162022.89999997616,162039.267,162656.158,,9,Congress
screen,html.Screen,0_4_1_0_1_10,2021-11-19T15:27:03.705Z,,,,,,,,,,,,,,,,51,,,,,,,,,,,,,,557.7419999761623,,response,,,13,E,,,,,Space,keypress(Space),,,,lyrical,-------- -------- --- --- ---- --- --- ------ -- --------<br>over --------- --- ------- ------------ ---------- ---------<br>--- ---------- ------- ---------- ------- -- -------- ----<br>---- --- ------ ----- ------ -- ---- --- ----- -- - -------<br>-------- -- --- --- -- ----- ----------- ----- -----------<br>---- --- ---------- --- ---- --- -- ----------,163214.59999990463,163213.89999997616,162639.487,162646.89999997616,162656.158,163222.912,,10,over
screen,html.Screen,0_4_1_0_1_11,2021-11-19T15:27:04.521Z,,,,,,,,,,,,,,,,51,,,,,,,,,,,,,,806.7879999284633,,response,,,13,E,,,,,Space,keypress(Space),,,,lyrical,-------- -------- --- --- ---- --- --- ------ -- --------<br>---- reforming --- ------- ------------ ---------- ---------<br>--- ---------- ------- ---------- ------- -- -------- ----<br>---- --- ------ ----- ------ -- ---- --- ----- -- - -------<br>-------- -- --- --- -- ----- ----------- ----- -----------<br>---- --- ---------- --- ---- --- -- ----------,164030.5,164029.69999992847,163206.242,163214.89999997616,163222.912,164039.744,,11,reforming
screen,html.Screen,0_4_1_0_1_12,2021-11-19T15:27:05.041Z,,,,,,,,,,,,,,,,51,,,,,,,,,,,,,,510.05599995231023,,response,,,13,E,,,,,Space,keypress(Space),,,,lyrical,-------- -------- --- --- ---- --- --- ------ -- --------<br>---- --------- the ------- ------------ ---------- ---------<br>--- ---------- ------- ---------- ------- -- -------- ----<br>---- --- ------ ----- ------ -- ---- --- ----- -- - -------<br>-------- -- --- --- -- ----- ----------- ----- -----------<br>---- --- ---------- --- ---- --- -- ----------,164550.59999990463,164549.79999995232,164023.074,164030.89999997616,164039.744,164556.635,,12,the
screen,html.Screen,0_4_1_0_1_13,2021-11-19T15:27:05.633Z,,,,,,,,,,,,,,,,51,,,,,,,,,,,,,,585.0649999284651,,response,,,13,E,,,,,Space,keypress(Space),,,,lyrical,-------- -------- --- --- ---- --- --- ------ -- --------<br>---- --------- --- federal ------------ ---------- ---------<br>--- ---------- ------- ---------- ------- -- -------- ----<br>---- --- ------ ----- ------ -- ---- --- ----- -- - -------<br>-------- -- --- --- -- ----- ----------- ----- -----------<br>---- --- ---------- --- ---- --- -- ----------,165142.59999990463,165141.69999992847,164539.964,164550.89999997616,164556.635,165156.704,,13,federal
screen,html.Screen,0_4_1_0_1_14,2021-11-19T15:27:06.200Z,,,,,,,,,,,,,,,,51,,,,,,,,,,,,,,552.8959999046347,,response,,,13,E,,,,,Space,keypress(Space),,,,lyrical,-------- -------- --- --- ---- --- --- ------ -- --------<br>---- --------- --- ------- government's ---------- ---------<br>--- ---------- ------- ---------- ------- -- -------- ----<br>---- --- ------ ----- ------ -- ---- --- ----- -- - -------<br>-------- -- --- --- -- ----- ----------- ----- -----------<br>---- --- ---------- --- ---- --- -- ----------,165710.39999997616,165709.59999990463,165140.034,165142.89999997616,165156.704,165723.518,,14,government's
screen,html.Screen,0_4_1_0_1_15,2021-11-19T15:27:06.857Z,,,,,,,,,,,,,,,,51,,,,,,,,,,,,,,642.1819999284635,,response,,,13,E,,,,,Space,keypress(Space),,,,lyrical,-------- -------- --- --- ---- --- --- ------ -- --------<br>---- --------- --- ------- ------------ regulatory ---------<br>--- ---------- ------- ---------- ------- -- -------- ----<br>---- --- ------ ----- ------ -- ---- --- ----- -- - -------<br>-------- -- --- --- -- ----- ----------- ----- -----------<br>---- --- ---------- --- ---- --- -- ----------,166366.69999992847,166365.69999992847,165706.848,165710.59999990463,165723.518,166373.662,,15,regulatory
screen,html.Screen,0_4_1_0_1_16,2021-11-19T15:27:07.488Z,,,,,,,,,,,,,,,,51,,,,,,,,,,,,,,623.8379999999888,,response,,,13,E,,,,,Space,keypress(Space),,,,lyrical,-------- -------- --- --- ---- --- --- ------ -- --------<br>---- --------- --- ------- ------------ ---------- apparatus<br>--- ---------- ------- ---------- ------- -- -------- ----<br>---- --- ------ ----- ------ -- ---- --- ----- -- - -------<br>-------- -- --- --- -- ----- ----------- ----- -----------<br>---- --- ---------- --- ---- --- -- ----------,166998.29999995232,166997.5,166356.992,166367.09999990463,166373.662,167007.02,,16,apparatus
screen,html.Screen,0_4_1_0_1_17,2021-11-19T15:27:08.033Z,,,,,,,,,,,,,,,,51,,,,,,,,,,,,,,534.9800000000105,,response,,,13,E,,,,,Space,keypress(Space),,,,lyrical,-------- -------- --- --- ---- --- --- ------ -- --------<br>---- --------- --- ------- ------------ ---------- ---------<br>may ---------- ------- ---------- ------- -- -------- ----<br>---- --- ------ ----- ------ -- ---- --- ----- -- - -------<br>-------- -- --- --- -- ----- ----------- ----- -----------<br>---- --- ---------- --- ---- --- -- ----------,167542.69999992847,167542,166990.351,166998.5,167007.02,167557.262,,17,may
screen,html.Screen,0_4_1_0_1_18,2021-11-19T15:27:08.584Z,,,,,,,,,,,,,,,,51,,,,,,,,,,,,,,536.2380000000121,,response,,,13,E,,,,,Space,keypress(Space),,,,lyrical,-------- -------- --- --- ---- --- --- ------ -- --------<br>---- --------- --- ------- ------------ ---------- ---------<br>--- profoundly ------- ---------- ------- -- -------- ----<br>---- --- ------ ----- ------ -- ---- --- ----- -- - -------<br>-------- -- --- --- -- ----- ----------- ----- -----------<br>---- --- ---------- --- ---- --- -- ----------,168094.29999995232,168093.5,167540.592,167542.89999997616,167557.262,168107.51,,18,profoundly
screen,html.Screen,0_4_1_0_1_19,2021-11-19T15:27:09.032Z,,,,,,,,,,,,,,,,51,,,,,,,,,,,,,,433.9899999999907,,response,,,13,E,,,,,Space,keypress(Space),,,,lyrical,-------- -------- --- --- ---- --- --- ------ -- --------<br>---- --------- --- ------- ------------ ---------- ---------<br>--- ---------- improve ---------- ------- -- -------- ----<br>---- --- ------ ----- ------ -- ---- --- ----- -- - -------<br>-------- -- --- --- -- ----- ----------- ----- -----------<br>---- --- ---------- --- ---- --- -- ----------,168542.19999992847,168541.5,168090.839,168094.5,168107.51,168557.43,,19,improve
screen,html.Screen,0_4_1_0_1_20,2021-11-19T15:27:09.704Z,,,,,,,,,,,,,,,,51,,,,,,,,,,,,,,656.070000000007,,response,,,13,E,,,,,Space,keypress(Space),,,,lyrical,-------- -------- --- --- ---- --- --- ------ -- --------<br>---- --------- --- ------- ------------ ---------- ---------<br>--- ---------- ------- companies' ------- -- -------- ----<br>---- --- ------ ----- ------ -- ---- --- ----- -- - -------<br>-------- -- --- --- -- ----- ----------- ----- -----------<br>---- --- ---------- --- ---- --- -- ----------,169214.19999992847,169213.5,168540.761,168542.5,168557.43,169224.418,,20,companies'
screen,html.Screen,0_4_1_0_1_21,2021-11-19T15:27:10.176Z,,,,,,,,,,,,,,,,51,,,,,,,,,,,,,,460.981999976153,,response,,,13,E,,,,,Space,keypress(Space),,,,lyrical,-------- -------- --- --- ---- --- --- ------ -- --------<br>---- --------- --- ------- ------------ ---------- ---------<br>--- ---------- ------- ---------- ability -- -------- ----<br>---- --- ------ ----- ------ -- ---- --- ----- -- - -------<br>-------- -- --- --- -- ----- ----------- ----- -----------<br>---- --- ---------- --- ---- --- -- ----------,169686.19999992847,169685.39999997616,169207.747,169214.39999997616,169224.418,169691.162,,21,ability
screen,html.Screen,0_4_1_0_1_22,2021-11-19T15:27:10.560Z,,,,,,,,,,,,,,,,51,,,,,,,,,,,,,,378.23799997614697,,response,,,13,E,,,,,Space,keypress(Space),,,,lyrical,-------- -------- --- --- ---- --- --- ------ -- --------<br>---- --------- --- ------- ------------ ---------- ---------<br>--- ---------- ------- ---------- ------- to -------- ----<br>---- --- ------ ----- ------ -- ---- --- ----- -- - -------<br>-------- -- --- --- -- ----- ----------- ----- -----------<br>---- --- ---------- --- ---- --- -- ----------,170070.29999995232,170069.39999997616,169674.492,169686.39999997616,169691.162,170074.564,,22,to
screen,html.Screen,0_4_1_0_1_23,2021-11-19T15:27:10.976Z,,,,,,,,,,,,,,,,51,,,,,,,,,,,,,,410.8359999761451,,response,,,13,E,,,,,Space,keypress(Space),,,,lyrical,-------- -------- --- --- ---- --- --- ------ -- --------<br>---- --------- --- ------- ------------ ---------- ---------<br>--- ---------- ------- ---------- ------- -- survive. ----<br>---- --- ------ ----- ------ -- ---- --- ----- -- - -------<br>-------- -- --- --- -- ----- ----------- ----- -----------<br>---- --- ---------- --- ---- --- -- ----------,170486.19999992847,170485.39999997616,170057.894,170070.59999990463,170074.564,170491.361,,23,survive.
screen,html.Screen,0_4_1_0_1_24,2021-11-19T15:27:11.864Z,,,,,,,,,,,,,,,,51,,,,,,,,,,,,,,881.9389999523119,,response,,,13,E,,,,,Space,keypress(Space),,,,lyrical,-------- -------- --- --- ---- --- --- ------ -- --------<br>---- --------- --- ------- ------------ ---------- ---------<br>--- ---------- ------- ---------- ------- -- -------- This<br>---- --- ------ ----- ------ -- ---- --- ----- -- - -------<br>-------- -- --- --- -- ----- ----------- ----- -----------<br>---- --- ---------- --- ---- --- -- ----------,171374.09999990463,171373.29999995232,170474.691,170486.39999997616,170491.361,171391.352,,24,This
screen,html.Screen,0_4_1_0_1_25,2021-11-19T15:27:12.560Z,,,,,,,,,,,,,,,,51,,,,,,,,,,,,,,677.9479999523028,,response,,,13,E,,,,,Space,keypress(Space),,,,lyrical,-------- -------- --- --- ---- --- --- ------ -- --------<br>---- --------- --- ------- ------------ ---------- ---------<br>--- ---------- ------- ---------- ------- -- -------- ----<br>week --- ------ ----- ------ -- ---- --- ----- -- - -------<br>-------- -- --- --- -- ----- ----------- ----- -----------<br>---- --- ---------- --- ---- --- -- ----------,172070,172069.29999995232,171374.684,171374.29999995232,171391.352,172075.214,,25,week
screen,html.Screen,0_4_1_0_1_26,2021-11-19T15:27:13.016Z,,,,,,,,,,,,,,,,51,,,,,,,,,,,,,,449.9859999284672,,response,,,13,E,,,,,Space,keypress(Space),,,,lyrical,-------- -------- --- --- ---- --- --- ------ -- --------<br>---- --------- --- ------- ------------ ---------- ---------<br>--- ---------- ------- ---------- ------- -- -------- ----<br>---- the ------ ----- ------ -- ---- --- ----- -- - -------<br>-------- -- --- --- -- ----- ----------- ----- -----------<br>---- --- ---------- --- ---- --- -- ----------,172526,172525.19999992847,172058.542,172070.29999995232,172075.214,172541.826,,26,the
screen,html.Screen,0_4_1_0_1_27,2021-11-19T15:27:13.600Z,,,,,,,,,,,,,,,,51,,,,,,,,,,,,,,567.3739999284735,,response,,,13,E,,,,,Space,keypress(Space),,,,lyrical,-------- -------- --- --- ---- --- --- ------ -- --------<br>---- --------- --- ------- ------------ ---------- ---------<br>--- ---------- ------- ---------- ------- -- -------- ----<br>---- --- Senate ----- ------ -- ---- --- ----- -- - -------<br>-------- -- --- --- -- ----- ----------- ----- -----------<br>---- --- ---------- --- ---- --- -- ----------,173110,173109.19999992847,172525.156,172526.19999992847,172541.826,173125.266,,27,Senate
screen,html.Screen,0_4_1_0_1_28,2021-11-19T15:27:14.872Z,,,,,,,,,,,,,,,,51,,,,,,,,,,,,,,1255.8339999046293,,response,,,13,E,,,,,Space,keypress(Space),,,,lyrical,-------- -------- --- --- ---- --- --- ------ -- --------<br>---- --------- --- ------- ------------ ---------- ---------<br>--- ---------- ------- ---------- ------- -- -------- ----<br>---- --- ------ seems ------ -- ---- --- ----- -- - -------<br>-------- -- --- --- -- ----- ----------- ----- -----------<br>---- --- ---------- --- ---- --- -- ----------,174381.79999995232,174381.09999990463,173108.596,173110.19999992847,173125.266,174392.48,,28,seems
screen,html.Screen,0_4_1_0_1_29,2021-11-19T15:27:15.736Z,,,,,,,,,,,,,,,,51,,,,,,,,,,,,,,852.5199999999895,,response,,,13,E,,,,,Space,keypress(Space),,,,lyrical,-------- -------- --- --- ---- --- --- ------ -- --------<br>---- --------- --- ------- ------------ ---------- ---------<br>--- ---------- ------- ---------- ------- -- -------- ----<br>---- --- ------ ----- poised -- ---- --- ----- -- - -------<br>-------- -- --- --- -- ----- ----------- ----- -----------<br>---- --- ---------- --- ---- --- -- ----------,175245.89999997616,175245,174375.808,174382.09999990463,174392.48,175259.134,,29,poised
screen,html.Screen,0_4_1_0_1_30,2021-11-19T15:27:16.232Z,,,,,,,,,,,,,,,,51,,,,,,,,,,,,,,481.96599990464165,,response,,,13,E,,,,,Space,keypress(Space),,,,lyrical,-------- -------- --- --- ---- --- --- ------ -- --------<br>---- --------- --- ------- ------------ ---------- ---------<br>--- ---------- ------- ---------- ------- -- -------- ----<br>---- --- ------ ----- ------ to ---- --- ----- -- - -------<br>-------- -- --- --- -- ----- ----------- ----- -----------<br>---- --- ---------- --- ---- --- -- ----------,175741.79999995232,175741.09999990463,175242.464,175246.09999990463,175259.134,175759.293,,30,to
screen,html.Screen,0_4_1_0_1_31,2021-11-19T15:27:16.824Z,,,,,,,,,,,,,,,,51,,,,,,,,,,,,,,573.606999976153,,response,,,13,E,,,,,Space,keypress(Space),,,,lyrical,-------- -------- --- --- ---- --- --- ------ -- --------<br>---- --------- --- ------- ------------ ---------- ---------<br>--- ---------- ------- ---------- ------- -- -------- ----<br>---- --- ------ ----- ------ -- join --- ----- -- - -------<br>-------- -- --- --- -- ----- ----------- ----- -----------<br>---- --- ---------- --- ---- --- -- ----------,176333.69999992847,176332.89999997616,175742.623,175742.09999990463,175759.293,176342.762,,31,join
screen,html.Screen,0_4_1_0_1_32,2021-11-19T15:27:17.272Z,,,,,,,,,,,,,,,,51,,,,,,,,,,,,,,438.13799997617025,,response,,,13,E,,,,,Space,keypress(Space),,,,lyrical,-------- -------- --- --- ---- --- --- ------ -- --------<br>---- --------- --- ------- ------------ ---------- ---------<br>--- ---------- ------- ---------- ------- -- -------- ----<br>---- --- ------ ----- ------ -- ---- the ----- -- - -------<br>-------- -- --- --- -- ----- ----------- ----- -----------<br>---- --- ---------- --- ---- --- -- ----------,176781.69999992847,176780.89999997616,176326.092,176334,176342.762,176792.88,,32,the
screen,html.Screen,0_4_1_0_1_33,2021-11-19T15:27:17.712Z,,,,,,,,,,,,,,,,51,,,,,,,,,,,,,,428.0199999761535,,response,,,13,E,,,,,Space,keypress(Space),,,,lyrical,-------- -------- --- --- ---- --- --- ------ -- --------<br>---- --------- --- ------- ------------ ---------- ---------<br>--- ---------- ------- ---------- ------- -- -------- ----<br>---- --- ------ ----- ------ -- ---- --- House -- - -------<br>-------- -- --- --- -- ----- ----------- ----- -----------<br>---- --- ---------- --- ---- --- -- ----------,177221.69999992847,177220.89999997616,176776.21,176782,176792.88,177226.245,,33,House
screen,html.Screen,0_4_1_0_1_34,2021-11-19T15:27:18.232Z,,,,,,,,,,,,,,,,51,,,,,,,,,,,,,,514.9549999284791,,response,,,13,E,,,,,Space,keypress(Space),,,,lyrical,-------- -------- --- --- ---- --- --- ------ -- --------<br>---- --------- --- ------- ------------ ---------- ---------<br>--- ---------- ------- ---------- ------- -- -------- ----<br>---- --- ------ ----- ------ -- ---- --- ----- in - -------<br>-------- -- --- --- -- ----- ----------- ----- -----------<br>---- --- ---------- --- ---- --- -- ----------,177742.09999990463,177741.19999992847,177209.576,177221.89999997616,177226.245,177743.147,,34,in
screen,html.Screen,0_4_1_0_1_35,2021-11-19T15:27:18.512Z,,,,,,,,,,,,,,,,51,,,,,,,,,,,,,,277.75299997616094,,response,,,13,E,,,,,Space,keypress(Space),,,,lyrical,-------- -------- --- --- ---- --- --- ------ -- --------<br>---- --------- --- ------- ------------ ---------- ---------<br>--- ---------- ------- ---------- ------- -- -------- ----<br>---- --- ------ ----- ------ -- ---- --- ----- -- a -------<br>-------- -- --- --- -- ----- ----------- ----- -----------<br>---- --- ---------- --- ---- --- -- ----------,178021.59999990463,178020.89999997616,177726.476,177742.29999995232,177743.147,178026.561,,35,a
screen,html.Screen,0_4_1_0_1_36,2021-11-19T15:27:19.247Z,,,,,,,,,,,,,,,,51,,,,,,,,,,,,,,730.1389999284875,,response,,,13,E,,,,,Space,keypress(Space),,,,lyrical,-------- -------- --- --- ---- --- --- ------ -- --------<br>---- --------- --- ------- ------------ ---------- ---------<br>--- ---------- ------- ---------- ------- -- -------- ----<br>---- --- ------ ----- ------ -- ---- --- ----- -- - massive<br>-------- -- --- --- -- ----- ----------- ----- -----------<br>---- --- ---------- --- ---- --- -- ----------,178757.5,178756.69999992847,178009.89,178021.89999997616,178026.561,178759.857,,36,massive
screen,html.Screen,0_4_1_0_1_37,2021-11-19T15:27:19.968Z,,,,,,,,,,,,,,,,51,,,,,,,,,,,,,,716.9429999523272,,response,,,13,E,,,,,Space,keypress(Space),,,,lyrical,-------- -------- --- --- ---- --- --- ------ -- --------<br>---- --------- --- ------- ------------ ---------- ---------<br>--- ---------- ------- ---------- ------- -- -------- ----<br>---- --- ------ ----- ------ -- ---- --- ----- -- - -------<br>overhaul -- --- --- -- ----- ----------- ----- -----------<br>---- --- ---------- --- ---- --- -- ----------,179477.59999990463,179476.79999995232,178743.189,178757.79999995232,178759.857,179493.697,,37,overhaul
screen,html.Screen,0_4_1_0_1_38,2021-11-19T15:27:20.583Z,,,,,,,,,,,,,,,,51,,,,,,,,,,,,,,599.0029999284889,,response,,,13,E,,,,,Space,keypress(Space),,,,lyrical,-------- -------- --- --- ---- --- --- ------ -- --------<br>---- --------- --- ------- ------------ ---------- ---------<br>--- ---------- ------- ---------- ------- -- -------- ----<br>---- --- ------ ----- ------ -- ---- --- ----- -- - -------<br>-------- of --- --- -- ----- ----------- ----- -----------<br>---- --- ---------- --- ---- --- -- ----------,180093.5,180092.69999992847,179477.024,179477.79999995232,179493.697,180110.216,,38,of
screen,html.Screen,0_4_1_0_1_39,2021-11-19T15:27:21.095Z,,,,,,,,,,,,,,,,51,,,,,,,,,,,,,,494.48399992848863,,response,,,13,E,,,,,Space,keypress(Space),,,,lyrical,-------- -------- --- --- ---- --- --- ------ -- --------<br>---- --------- --- ------- ------------ ---------- ---------<br>--- ---------- ------- ---------- ------- -- -------- ----<br>---- --- ------ ----- ------ -- ---- --- ----- -- - -------<br>-------- -- the --- -- ----- ----------- ----- -----------<br>---- --- ---------- --- ---- --- -- ----------,180605.39999997616,180604.69999992847,180093.547,180093.69999992847,180110.216,180610.507,,39,the
screen,html.Screen,0_4_1_0_1_40,2021-11-19T15:27:21.608Z,,,,,,,,,,,,,,,,51,,,,,,,,,,,,,,506.0929999046202,,response,,,13,E,,,,,Space,keypress(Space),,,,lyrical,-------- -------- --- --- ---- --- --- ------ -- --------<br>---- --------- --- ------- ------------ ---------- ---------<br>--- ---------- ------- ---------- ------- -- -------- ----<br>---- --- ------ ----- ------ -- ---- --- ----- -- - -------<br>-------- -- --- way -- ----- ----------- ----- -----------<br>---- --- ---------- --- ---- --- -- ----------,181117.39999997616,181116.59999990463,180593.836,180605.59999990463,180610.507,181127.164,,40,way
screen,html.Screen,0_4_1_0_1_41,2021-11-19T15:27:21.944Z,,,,,,,,,,,,,,,,51,,,,,,,,,,,,,,325.4359999046428,,response,,,13,E,,,,,Space,keypress(Space),,,,lyrical,-------- -------- --- --- ---- --- --- ------ -- --------<br>---- --------- --- ------- ------------ ---------- ---------<br>--- ---------- ------- ---------- ------- -- -------- ----<br>---- --- ------ ----- ------ -- ---- --- ----- -- - -------<br>-------- -- --- --- in ----- ----------- ----- -----------<br>---- --- ---------- --- ---- --- -- ----------,181453.39999997616,181452.59999990463,181110.495,181117.59999990463,181127.164,181460.736,,41,in
screen,html.Screen,0_4_1_0_1_42,2021-11-19T15:27:22.264Z,,,,,,,,,,,,,,,,51,,,,,,,,,,,,,,311.86399990462814,,response,,,13,E,,,,,Space,keypress(Space),,,,lyrical,-------- -------- --- --- ---- --- --- ------ -- --------<br>---- --------- --- ------- ------------ ---------- ---------<br>--- ---------- ------- ---------- ------- -- -------- ----<br>---- --- ------ ----- ------ -- ---- --- ----- -- - -------<br>-------- -- --- --- -- which ----------- ----- -----------<br>---- --- ---------- --- ---- --- -- ----------,181773.39999997616,181772.59999990463,181444.064,181453.59999990463,181460.736,181777.424,,42,which
screen,html.Screen,0_4_1_0_1_43,2021-11-19T15:27:23.096Z,,,,,,,,,,,,,,,,51,,,,,,,,,,,,,,827.1759999046335,,response,,,13,E,,,,,Space,keypress(Space),,,,lyrical,-------- -------- --- --- ---- --- --- ------ -- --------<br>---- --------- --- ------- ------------ ---------- ---------<br>--- ---------- ------- ---------- ------- -- -------- ----<br>---- --- ------ ----- ------ -- ---- --- ----- -- - -------<br>-------- -- --- --- -- ----- bureaucrats ----- -----------<br>---- --- ---------- --- ---- --- -- ----------,182605.29999995232,182604.59999990463,181760.754,181773.59999990463,181777.424,182610.95,,43,bureaucrats
screen,html.Screen,0_4_1_0_1_44,2021-11-19T15:27:23.520Z,,,,,,,,,,,,,,,,51,,,,,,,,,,,,,,417.54999999998836,,response,,,13,E,,,,,Space,keypress(Space),,,,lyrical,-------- -------- --- --- ---- --- --- ------ -- --------<br>---- --------- --- ------- ------------ ---------- ---------<br>--- ---------- ------- ---------- ------- -- -------- ----<br>---- --- ------ ----- ------ -- ---- --- ----- -- - -------<br>-------- -- --- --- -- ----- ----------- enact -----------<br>---- --- ---------- --- ---- --- -- ----------,183029.29999995232,183028.5,182594.28,182605.5,182610.95,183044.401,,44,enact
screen,html.Screen,0_4_1_0_1_45,2021-11-19T15:27:23.872Z,,,,,,,,,,,,,,,,51,,,,,,,,,,,,,,336.0989999999874,,response,,,13,E,,,,,Space,keypress(Space),,,,lyrical,-------- -------- --- --- ---- --- --- ------ -- --------<br>---- --------- --- ------- ------------ ---------- ---------<br>--- ---------- ------- ---------- ------- -- -------- ----<br>---- --- ------ ----- ------ -- ---- --- ----- -- - -------<br>-------- -- --- --- -- ----- ----------- ----- regulations<br>---- --- ---------- --- ---- --- -- ----------,183381.19999992847,183380.5,183027.731,183029.5,183044.401,183394.487,,45,regulations
screen,html.Screen,0_4_1_0_1_46,2021-11-19T15:27:24.376Z,,,,,,,,,,,,,,,,51,,,,,,,,,,,,,,489.91299997616443,,response,,,13,E,,,,,Space,keypress(Space),,,,lyrical,-------- -------- --- --- ---- --- --- ------ -- --------<br>---- --------- --- ------- ------------ ---------- ---------<br>--- ---------- ------- ---------- ------- -- -------- ----<br>---- --- ------ ----- ------ -- ---- --- ----- -- - -------<br>-------- -- --- --- -- ----- ----------- ----- -----------<br>that --- ---------- --- ---- --- -- ----------,183885.29999995232,183884.39999997616,183377.817,183381.5,183394.487,183894.467,,46,that
screen,html.Screen,0_4_1_0_1_47,2021-11-19T15:27:24.784Z,,,,,,,,,,,,,,,,51,,,,,,,,,,,,,,397.93299997615395,,response,,,13,E,,,,,Space,keypress(Space),,,,lyrical,-------- -------- --- --- ---- --- --- ------ -- --------<br>---- --------- --- ------- ------------ ---------- ---------<br>--- ---------- ------- ---------- ------- -- -------- ----<br>---- --- ------ ----- ------ -- ---- --- ----- -- - -------<br>-------- -- --- --- -- ----- ----------- ----- -----------<br>---- are ---------- --- ---- --- -- ----------,184293.19999992847,184292.39999997616,183877.799,183885.39999997616,183894.467,184294.798,,47,are
screen,html.Screen,0_4_1_0_1_48,2021-11-19T15:27:25.168Z,,,,,,,,,,,,,,,,51,,,,,,,,,,,,,,381.5019999523065,,response,,,13,E,,,,,Space,keypress(Space),,,,lyrical,-------- -------- --- --- ---- --- --- ------ -- --------<br>---- --------- --- ------- ------------ ---------- ---------<br>--- ---------- ------- ---------- ------- -- -------- ----<br>---- --- ------ ----- ------ -- ---- --- ----- -- - -------<br>-------- -- --- --- -- ----- ----------- ----- -----------<br>---- --- strangling --- ---- --- -- ----------,184677.19999992847,184676.29999995232,184278.126,184293.39999997616,184294.798,184678.146,,48,strangling
screen,html.Screen,0_4_1_0_1_49,2021-11-19T15:27:25.512Z,,,,,,,,,,,,,,,,51,,,,,,,,,,,,,,342.15399995230837,,response,,,13,E,,,,,Space,keypress(Space),,,,lyrical,-------- -------- --- --- ---- --- --- ------ -- --------<br>---- --------- --- ------- ------------ ---------- ---------<br>--- ---------- ------- ---------- ------- -- -------- ----<br>---- --- ------ ----- ------ -- ---- --- ----- -- - -------<br>-------- -- --- --- -- ----- ----------- ----- -----------<br>---- --- ---------- the ---- --- -- ----------,185021.19999992847,185020.29999995232,184661.476,184677.39999997616,184678.146,185028.093,,49,the
screen,html.Screen,0_4_1_0_1_50,2021-11-19T15:27:25.840Z,,,,,,,,,,,,,,,,51,,,,,,,,,,,,,,320.2069999523228,,response,,,13,E,,,,,Space,keypress(Space),,,,lyrical,-------- -------- --- --- ---- --- --- ------ -- --------<br>---- --------- --- ------- ------------ ---------- ---------<br>--- ---------- ------- ---------- ------- -- -------- ----<br>---- --- ------ ----- ------ -- ---- --- ----- -- - -------<br>-------- -- --- --- -- ----- ----------- ----- -----------<br>---- --- ---------- --- life --- -- ----------,185349.09999990463,185348.29999995232,185011.425,185021.29999995232,185028.093,185361.712,,50,life
