sender,sender_type,sender_id,timestamp,meta,,Blues,Classical,Country,Dance,Electronic,Folk,Gospel,Hip-Hop,Jazz,Latin,Musical/Film,New-age,Pop,Provo_ID,R&B,Rap,Reggae,Religious,Rock,Soul,Swing,Traditional,age,artist_name,correct,correctResponse,distraction,duration,education,ended_on,familiarity,gender,item,list,music_frequency,offensiveness,pleasantness,preference,response,response_action,snippet_file,song_name,song_rating,sound,text,time_commit,time_end,time_render,time_run,time_show,time_switch,url,word,word_ID
Instructions,html.Page,0_0,2021-12-03T10:00:23.052Z,"{""labjs_version"":""20.2.3"",""labjs_build"":{""flavor"":""production"",""commit"":""7ea907d66ca8aeef8054924ca5d82ffbe11e34e5""},""location"":""https://run.pavlovia.org/mvasilev/lab_music_c/"",""userAgent"":""Mozilla/5.0 (Windows NT 6.1; Win64; x64) AppleWebKit/537.36 (KHTML, like Gecko) Chrome/96.0.4664.45 Safari/537.36"",""platform"":""Win32"",""language"":""en-US"",""locale"":""en-US"",""timeZone"":""Europe/London"",""timezoneOffset"":0,""screen_width"":1920,""screen_height"":1080,""scroll_width"":1920,""scroll_height"":959,""window_innerWidth"":1920,""window_innerHeight"":1007,""devicePixelRatio"":1}",,,,,,,,,,,,,,,,,,,,,,,,,,,,,16478.64700000298,,form submission,,,,,,,,,,,,,,,,23032.79999999702,23031.70000000298,6519.713,6538.70000000298,6553.053,23042.305,{},,
Headphones,html.Page,0_1,2021-12-03T10:00:26.445Z,,,,,,,,,,,,,,,,,,,,,,,,,,,,,,3383.7949999940392,,form submission,,,,,,,,,,,,,,,,26426.59999999404,26426.09999999404,23025.621,23033.5,23042.305,26441.655,,,
Holding screen,html.Screen,0_2_0_0,2021-12-03T10:00:36.453Z,,,,,,,,,,,,,,,,,,,,,,,,,,,,,,10002.639000000003,,timeout,,,,,,,,,,,,,,,,36434.40000000596,36427.625,26424.985,26427.09999999404,26441.655,36444.294,,,
screen,html.Screen,0_2_0_1_0,2021-12-03T10:00:37.749Z,,,,,,,,,,,,,,,,53,,,,,,,,,,,,,,1284.7059999999983,,response,,,99,,,,,,Space,keypress(Space),,,,,When -- ----- -- ------ - ------- --- ----------<br>------------- ------ ------ ---- ---- ------- ----- -- ----<br>-------- ------- -- ---------- --- - --- ----- ----- ----<br>---- --- --- ----- --- ---- ---- ------- ----- ---- -------<br>--- --- -- ----- -- --- ---- -- --- ---- -- ------ ------<br>--- ----- -- ----,37730.29999999702,37729,36427.625,36434.90000000596,36444.294,37744.91,,0,When
screen,html.Screen,0_2_0_1_1,2021-12-03T10:00:38.180Z,,,,,,,,,,,,,,,,53,,,,,,,,,,,,,,415.5899999999965,,response,,,99,,,,,,Space,keypress(Space),,,,,---- it ----- -- ------ - ------- --- ----------<br>------------- ------ ------ ---- ---- ------- ----- -- ----<br>-------- ------- -- ---------- --- - --- ----- ----- ----<br>---- --- --- ----- --- ---- ---- ------- ----- ---- -------<br>--- --- -- ----- -- --- ---- -- --- ---- -- ------ ------<br>--- ----- -- ----,38161.40000000596,38160.5,37728.239,37730.70000000298,37744.91,38178.277,,1,it
screen,html.Screen,0_2_0_1_2,2021-12-03T10:00:38.628Z,,,,,,,,,,,,,,,,53,,,,,,,,,,,,,,430.1230000059586,,response,,,99,,,,,,Space,keypress(Space),,,,,---- -- comes -- ------ - ------- --- ----------<br>------------- ------ ------ ---- ---- ------- ----- -- ----<br>-------- ------- -- ---------- --- - --- ----- ----- ----<br>---- --- --- ----- --- ---- ---- ------- ----- ---- -------<br>--- --- -- ----- -- --- ---- -- --- ---- -- ------ ------<br>--- ----- -- ----,38609.29999999702,38608.40000000596,38161.607,38161.79999999702,38178.277,38611.762,,2,comes
screen,html.Screen,0_2_0_1_3,2021-12-03T10:00:39.068Z,,,,,,,,,,,,,,,,53,,,,,,,,,,,,,,436.638000005958,,response,,,99,,,,,,Space,keypress(Space),,,,,---- -- ----- to ------ - ------- --- ----------<br>------------- ------ ------ ---- ---- ------- ----- -- ----<br>-------- ------- -- ---------- --- - --- ----- ----- ----<br>---- --- --- ----- --- ---- ---- ------- ----- ---- -------<br>--- --- -- ----- -- --- ---- -- --- ---- -- ------ ------<br>--- ----- -- ----,39049.29999999702,39048.40000000596,38595.092,38609.59999999404,38611.762,39061.882,,3,to
screen,html.Screen,0_2_0_1_4,2021-12-03T10:00:39.524Z,,,,,,,,,,,,,,,,53,,,,,,,,,,,,,,442.5180000059627,,response,,,99,,,,,,Space,keypress(Space),,,,,---- -- ----- -- having - ------- --- ----------<br>------------- ------ ------ ---- ---- ------- ----- -- ----<br>-------- ------- -- ---------- --- - --- ----- ----- ----<br>---- --- --- ----- --- ---- ---- ------- ----- ---- -------<br>--- --- -- ----- -- --- ---- -- --- ---- -- ------ ------<br>--- ----- -- ----,39505.40000000596,39504.40000000596,39045.212,39049.70000000298,39061.882,39512.002,,4,having
screen,html.Screen,0_2_0_1_5,2021-12-03T10:00:39.932Z,,,,,,,,,,,,,,,,53,,,,,,,,,,,,,,400.39800000596006,,response,,,99,,,,,,Space,keypress(Space),,,,,---- -- ----- -- ------ a ------- --- ----------<br>------------- ------ ------ ---- ---- ------- ----- -- ----<br>-------- ------- -- ---------- --- - --- ----- ----- ----<br>---- --- --- ----- --- ---- ---- ------- ----- ---- -------<br>--- --- -- ----- -- --- ---- -- --- ---- -- ------ ------<br>--- ----- -- ----,39913.40000000596,39912.40000000596,39495.332,39505.79999999702,39512.002,39928.785,,5,a
screen,html.Screen,0_2_0_1_6,2021-12-03T10:00:40.340Z,,,,,,,,,,,,,,,,53,,,,,,,,,,,,,,391.5149999970163,,response,,,99,,,,,,Space,keypress(Space),,,,,---- -- ----- -- ------ - lasting --- ----------<br>------------- ------ ------ ---- ---- ------- ----- -- ----<br>-------- ------- -- ---------- --- - --- ----- ----- ----<br>---- --- --- ----- --- ---- ---- ------- ----- ---- -------<br>--- --- -- ----- -- --- ---- -- --- ---- -- ------ ------<br>--- ----- -- ----,40321.29999999702,40320.29999999702,39912.115,39913.90000000596,39928.785,40328.931,,6,lasting
screen,html.Screen,0_2_0_1_7,2021-12-03T10:00:40.732Z,,,,,,,,,,,,,,,,53,,,,,,,,,,,,,,383.56900000000314,,response,,,99,,,,,,Space,keypress(Space),,,,,---- -- ----- -- ------ - ------- and ----------<br>------------- ------ ------ ---- ---- ------- ----- -- ----<br>-------- ------- -- ---------- --- - --- ----- ----- ----<br>---- --- --- ----- --- ---- ---- ------- ----- ---- -------<br>--- --- -- ----- -- --- ---- -- --- ---- -- ------ ------<br>--- ----- -- ----,40713.29999999702,40712.5,40312.26,40321.59999999404,40328.931,40728.981,,7,and
screen,html.Screen,0_2_0_1_8,2021-12-03T10:00:41.228Z,,,,,,,,,,,,,,,,53,,,,,,,,,,,,,,479.4190000059607,,response,,,99,,,,,,Space,keypress(Space),,,,,---- -- ----- -- ------ - ------- --- fulfilling<br>------------- ------ ------ ---- ---- ------- ----- -- ----<br>-------- ------- -- ---------- --- - --- ----- ----- ----<br>---- --- --- ----- --- ---- ---- ------- ----- ---- -------<br>--- --- -- ----- -- --- ---- -- --- ---- -- ------ ------<br>--- ----- -- ----,41209.5,41208.40000000596,40712.311,40713.59999999404,40728.981,41212.45,,8,fulfilling
screen,html.Screen,0_2_0_1_9,2021-12-03T10:00:41.716Z,,,,,,,,,,,,,,,,53,,,,,,,,,,,,,,483.9500000059634,,response,,,99,,,,,,Space,keypress(Space),,,,,"---- -- ----- -- ------ - ------- --- ----------<br>relationship, ------ ------ ---- ---- ------- ----- -- ----<br>-------- ------- -- ---------- --- - --- ----- ----- ----<br>---- --- --- ----- --- ---- ---- ------- ----- ---- -------<br>--- --- -- ----- -- --- ---- -- --- ---- -- ------ ------<br>--- ----- -- ----",41697.29999999702,41696.40000000596,41195.78,41209.70000000298,41212.45,41712.586,,9,"relationship,"
screen,html.Screen,0_2_0_1_10,2021-12-03T10:00:42.132Z,,,,,,,,,,,,,,,,53,,,,,,,,,,,,,,399.7139999970168,,response,,,99,,,,,,Space,keypress(Space),,,,,---- -- ----- -- ------ - ------- --- ----------<br>------------- common ------ ---- ---- ------- ----- -- ----<br>-------- ------- -- ---------- --- - --- ----- ----- ----<br>---- --- --- ----- --- ---- ---- ------- ----- ---- -------<br>--- --- -- ----- -- --- ---- -- --- ---- -- ------ ------<br>--- ----- -- ----,42113.29999999702,42112.29999999702,41695.916,41697.59999999404,41712.586,42129.372,,10,common
screen,html.Screen,0_2_0_1_11,2021-12-03T10:00:42.492Z,,,,,,,,,,,,,,,,53,,,,,,,,,,,,,,343.02800000595744,,response,,,99,,,,,,Space,keypress(Space),,,,,---- -- ----- -- ------ - ------- --- ----------<br>------------- ------ wisdom ---- ---- ------- ----- -- ----<br>-------- ------- -- ---------- --- - --- ----- ----- ----<br>---- --- --- ----- --- ---- ---- ------- ----- ---- -------<br>--- --- -- ----- -- --- ---- -- --- ---- -- ------ ------<br>--- ----- -- ----,42473.20000000298,42472.40000000596,42112.702,42113.59999999404,42129.372,42479.456,,11,wisdom
screen,html.Screen,0_2_0_1_12,2021-12-03T10:00:42.836Z,,,,,,,,,,,,,,,,53,,,,,,,,,,,,,,336.84399999702146,,response,,,99,,,,,,Space,keypress(Space),,,,,---- -- ----- -- ------ - ------- --- ----------<br>------------- ------ ------ says ---- ------- ----- -- ----<br>-------- ------- -- ---------- --- - --- ----- ----- ----<br>---- --- --- ----- --- ---- ---- ------- ----- ---- -------<br>--- --- -- ----- -- --- ---- -- --- ---- -- ------ ------<br>--- ----- -- ----,42817.09999999404,42816.29999999702,42462.786,42473.5,42479.456,42829.557,,12,says
screen,html.Screen,0_2_0_1_13,2021-12-03T10:00:43.188Z,,,,,,,,,,,,,,,,53,,,,,,,,,,,,,,338.74299999701907,,response,,,99,,,,,,Space,keypress(Space),,,,,---- -- ----- -- ------ - ------- --- ----------<br>------------- ------ ------ ---- that ------- ----- -- ----<br>-------- ------- -- ---------- --- - --- ----- ----- ----<br>---- --- --- ----- --- ---- ---- ------- ----- ---- -------<br>--- --- -- ----- -- --- ---- -- --- ---- -- ------ ------<br>--- ----- -- ----,43169.09999999404,43168.29999999702,42812.887,42817.40000000596,42829.557,43179.683,,13,that
screen,html.Screen,0_2_0_1_14,2021-12-03T10:00:43.556Z,,,,,,,,,,,,,,,,53,,,,,,,,,,,,,,356.6169999970225,,response,,,99,,,,,,Space,keypress(Space),,,,,---- -- ----- -- ------ - ------- --- ----------<br>------------- ------ ------ ---- ---- feeling ----- -- ----<br>-------- ------- -- ---------- --- - --- ----- ----- ----<br>---- --- --- ----- --- ---- ---- ------- ----- ---- -------<br>--- --- -- ----- -- --- ---- -- --- ---- -- ------ ------<br>--- ----- -- ----,43537.09999999404,43536.29999999702,43163.012,43169.29999999702,43179.683,43546.411,,14,feeling
screen,html.Screen,0_2_0_1_15,2021-12-03T10:00:43.916Z,,,,,,,,,,,,,,,,53,,,,,,,,,,,,,,349.8889999970197,,response,,,99,,,,,,Space,keypress(Space),,,,,---- -- ----- -- ------ - ------- --- ----------<br>------------- ------ ------ ---- ---- ------- close -- ----<br>-------- ------- -- ---------- --- - --- ----- ----- ----<br>---- --- --- ----- --- ---- ---- ------- ----- ---- -------<br>--- --- -- ----- -- --- ---- -- --- ---- -- ------ ------<br>--- ----- -- ----,43897.09999999404,43896.29999999702,43529.741,43537.29999999702,43546.411,43913.213,,15,close
screen,html.Screen,0_2_0_1_16,2021-12-03T10:00:44.292Z,,,,,,,,,,,,,,,,53,,,,,,,,,,,,,,359.0869999970164,,response,,,99,,,,,,Space,keypress(Space),,,,,---- -- ----- -- ------ - ------- --- ----------<br>------------- ------ ------ ---- ---- ------- ----- to ----<br>-------- ------- -- ---------- --- - --- ----- ----- ----<br>---- --- --- ----- --- ---- ---- ------- ----- ---- -------<br>--- --- -- ----- -- --- ---- -- --- ---- -- ------ ------<br>--- ----- -- ----,44273.09999999404,44272.29999999702,43896.542,43897.29999999702,43913.213,44279.949,,16,to
screen,html.Screen,0_2_0_1_17,2021-12-03T10:00:44.676Z,,,,,,,,,,,,,,,,53,,,,,,,,,,,,,,376.2510000029797,,response,,,99,,,,,,Space,keypress(Space),,,,,---- -- ----- -- ------ - ------- --- ----------<br>------------- ------ ------ ---- ---- ------- ----- -- your<br>-------- ------- -- ---------- --- - --- ----- ----- ----<br>---- --- --- ----- --- ---- ---- ------- ----- ---- -------<br>--- --- -- ----- -- --- ---- -- --- ---- -- ------ ------<br>--- ----- -- ----,44657,44656.20000000298,44263.279,44273.40000000596,44279.949,44663.345,,17,your
screen,html.Screen,0_2_0_1_18,2021-12-03T10:00:45.020Z,,,,,,,,,,,,,,,,53,,,,,,,,,,,,,,336.85500000297907,,response,,,99,,,,,,Space,keypress(Space),,,,,---- -- ----- -- ------ - ------- --- ----------<br>------------- ------ ------ ---- ---- ------- ----- -- ----<br>romantic ------- -- ---------- --- - --- ----- ----- ----<br>---- --- --- ----- --- ---- ---- ------- ----- ---- -------<br>--- --- -- ----- -- --- ---- -- --- ---- -- ------ ------<br>--- ----- -- ----,45001,45000.20000000298,44646.675,44657.29999999702,44663.345,45013.507,,18,romantic
screen,html.Screen,0_2_0_1_19,2021-12-03T10:00:45.364Z,,,,,,,,,,,,,,,,53,,,,,,,,,,,,,,330.69300000298244,,response,,,99,,,,,,Space,keypress(Space),,,,,---- -- ----- -- ------ - ------- --- ----------<br>------------- ------ ------ ---- ---- ------- ----- -- ----<br>-------- partner -- ---------- --- - --- ----- ----- ----<br>---- --- --- ----- --- ---- ---- ------- ----- ---- -------<br>--- --- -- ----- -- --- ---- -- --- ---- -- ------ ------<br>--- ----- -- ----,45345,45344.20000000298,44996.836,45001.29999999702,45013.507,45346.898,,19,partner
screen,html.Screen,0_2_0_1_20,2021-12-03T10:00:45.708Z,,,,,,,,,,,,,,,,53,,,,,,,,,,,,,,341.3020000029792,,response,,,99,,,,,,Space,keypress(Space),,,,,---- -- ----- -- ------ - ------- --- ----------<br>------------- ------ ------ ---- ---- ------- ----- -- ----<br>-------- ------- is ---------- --- - --- ----- ----- ----<br>---- --- --- ----- --- ---- ---- ------- ----- ---- -------<br>--- --- -- ----- -- --- ---- -- --- ---- -- ------ ------<br>--- ----- -- ----,45688.90000000596,45688.20000000298,45330.228,45345.29999999702,45346.898,45697.021,,20,is
screen,html.Screen,0_2_0_1_21,2021-12-03T10:00:46.020Z,,,,,,,,,,,,,,,,53,,,,,,,,,,,,,,303.0789999940389,,response,,,99,,,,,,Space,keypress(Space),,,,,---- -- ----- -- ------ - ------- --- ----------<br>------------- ------ ------ ---- ---- ------- ----- -- ----<br>-------- ------- -- paramount. --- - --- ----- ----- ----<br>---- --- --- ----- --- ---- ---- ------- ----- ---- -------<br>--- --- -- ----- -- --- ---- -- --- ---- -- ------ ------<br>--- ----- -- ----,46000.90000000596,46000.09999999404,45680.35,45689.20000000298,45697.021,46013.727,,21,paramount.
screen,html.Screen,0_2_0_1_22,2021-12-03T10:00:46.372Z,,,,,,,,,,,,,,,,53,,,,,,,,,,,,,,338.4730000029813,,response,,,99,,,,,,Space,keypress(Space),,,,,---- -- ----- -- ------ - ------- --- ----------<br>------------- ------ ------ ---- ---- ------- ----- -- ----<br>-------- ------- -- ---------- But - --- ----- ----- ----<br>---- --- --- ----- --- ---- ---- ------- ----- ---- -------<br>--- --- -- ----- -- --- ---- -- --- ---- -- ------ ------<br>--- ----- -- ----,46352.90000000596,46352.20000000298,45997.057,46001.29999999702,46013.727,46363.862,,22,But
screen,html.Screen,0_2_0_1_23,2021-12-03T10:00:46.732Z,,,,,,,,,,,,,,,,53,,,,,,,,,,,,,,348.23799999403855,,response,,,99,,,,,,Space,keypress(Space),,,,,---- -- ----- -- ------ - ------- --- ----------<br>------------- ------ ------ ---- ---- ------- ----- -- ----<br>-------- ------- -- ---------- --- a --- ----- ----- ----<br>---- --- --- ----- --- ---- ---- ------- ----- ---- -------<br>--- --- -- ----- -- --- ---- -- --- ---- -- ------ ------<br>--- ----- -- ----,46713,46712.09999999404,46347.191,46353.09999999404,46363.862,46713.916,,23,a
screen,html.Screen,0_2_0_1_24,2021-12-03T10:00:47.036Z,,,,,,,,,,,,,,,,53,,,,,,,,,,,,,,302.1839999940421,,response,,,99,,,,,,Space,keypress(Space),,,,,---- -- ----- -- ------ - ------- --- ----------<br>------------- ------ ------ ---- ---- ------- ----- -- ----<br>-------- ------- -- ---------- --- - new ----- ----- ----<br>---- --- --- ----- --- ---- ---- ------- ----- ---- -------<br>--- --- -- ----- -- --- ---- -- --- ---- -- ------ ------<br>--- ----- -- ----,47017,47016.09999999404,46697.246,46713.09999999404,46713.916,47030.709,,24,new
screen,html.Screen,0_2_0_1_25,2021-12-03T10:00:47.292Z,,,,,,,,,,,,,,,,53,,,,,,,,,,,,,,241.49100000297767,,response,,,99,,,,,,Space,keypress(Space),,,,,---- -- ----- -- ------ - ------- --- ----------<br>------------- ------ ------ ---- ---- ------- ----- -- ----<br>-------- ------- -- ---------- --- - --- study ----- ----<br>---- --- --- ----- --- ---- ---- ------- ----- ---- -------<br>--- --- -- ----- -- --- ---- -- --- ---- -- ------ ------<br>--- ----- -- ----,47273,47272.20000000298,47014.038,47017.20000000298,47030.709,47280.741,,25,study
screen,html.Screen,0_2_0_1_26,2021-12-03T10:00:47.580Z,,,,,,,,,,,,,,,,53,,,,,,,,,,,,,,279.35899999403773,,response,,,99,,,,,,Space,keypress(Space),,,,,---- -- ----- -- ------ - ------- --- ----------<br>------------- ------ ------ ---- ---- ------- ----- -- ----<br>-------- ------- -- ---------- --- - --- ----- finds ----<br>---- --- --- ----- --- ---- ---- ------- ----- ---- -------<br>--- --- -- ----- -- --- ---- -- --- ---- -- ------ ------<br>--- ----- -- ----,47560.79999999702,47560.09999999404,47264.071,47273.20000000298,47280.741,47564.187,,26,finds
screen,html.Screen,0_2_0_1_27,2021-12-03T10:00:47.884Z,,,,,,,,,,,,,,,,53,,,,,,,,,,,,,,300.41299999404146,,response,,,99,,,,,,Space,keypress(Space),,,,,---- -- ----- -- ------ - ------- --- ----------<br>------------- ------ ------ ---- ---- ------- ----- -- ----<br>-------- ------- -- ---------- --- - --- ----- ----- that<br>---- --- --- ----- --- ---- ---- ------- ----- ---- -------<br>--- --- -- ----- -- --- ---- -- --- ---- -- ------ ------<br>--- ----- -- ----,47865.40000000596,47864.59999999404,47547.516,47561.09999999404,47564.187,47880.902,,27,that
screen,html.Screen,0_2_0_1_28,2021-12-03T10:00:48.220Z,,,,,,,,,,,,,,,,53,,,,,,,,,,,,,,319.09799999999814,,response,,,99,,,,,,Space,keypress(Space),,,,,---- -- ----- -- ------ - ------- --- ----------<br>------------- ------ ------ ---- ---- ------- ----- -- ----<br>-------- ------- -- ---------- --- - --- ----- ----- ----<br>it's --- --- ----- --- ---- ---- ------- ----- ---- -------<br>--- --- -- ----- -- --- ---- -- --- ---- -- ------ ------<br>--- ----- -- ----,48200.79999999702,48200,47864.232,47865.59999999404,47880.902,48214.327,,28,it's
screen,html.Screen,0_2_0_1_29,2021-12-03T10:00:48.500Z,,,,,,,,,,,,,,,,53,,,,,,,,,,,,,,265.87300000298274,,response,,,99,,,,,,Space,keypress(Space),,,,,---- -- ----- -- ------ - ------- --- ----------<br>------------- ------ ------ ---- ---- ------- ----- -- ----<br>-------- ------- -- ---------- --- - --- ----- ----- ----<br>---- not --- ----- --- ---- ---- ------- ----- ---- -------<br>--- --- -- ----- -- --- ---- -- --- ---- -- ------ ------<br>--- ----- -- ----,48481.09999999404,48480.20000000298,48197.657,48201.09999999404,48214.327,48497.73,,29,not
screen,html.Screen,0_2_0_1_30,2021-12-03T10:00:48.788Z,,,,,,,,,,,,,,,,53,,,,,,,,,,,,,,270.36999999403633,,response,,,99,,,,,,Space,keypress(Space),,,,,---- -- ----- -- ------ - ------- --- ----------<br>------------- ------ ------ ---- ---- ------- ----- -- ----<br>-------- ------- -- ---------- --- - --- ----- ----- ----<br>---- --- how ----- --- ---- ---- ------- ----- ---- -------<br>--- --- -- ----- -- --- ---- -- --- ---- -- ------ ------<br>--- ----- -- ----,48768.90000000596,48768.09999999404,48481.06,48481.40000000596,48497.73,48781.036,,30,how
screen,html.Screen,0_2_0_1_31,2021-12-03T10:00:49.011Z,,,,,,,,,,,,,,,,53,,,,,,,,,,,,,,210.96399999999994,,response,,,99,,,,,,Space,keypress(Space),,,,,---- -- ----- -- ------ - ------- --- ----------<br>------------- ------ ------ ---- ---- ------- ----- -- ----<br>-------- ------- -- ---------- --- - --- ----- ----- ----<br>---- --- --- close --- ---- ---- ------- ----- ---- -------<br>--- --- -- ----- -- --- ---- -- --- ---- -- ------ ------<br>--- ----- -- ----,48992.79999999702,48992,48764.368,48769.09999999404,48781.036,48997.948,,31,close
screen,html.Screen,0_2_0_1_32,2021-12-03T10:00:49.268Z,,,,,,,,,,,,,,,,53,,,,,,,,,,,,,,250.15199999404285,,response,,,99,,,,,,Space,keypress(Space),,,,,---- -- ----- -- ------ - ------- --- ----------<br>------------- ------ ------ ---- ---- ------- ----- -- ----<br>-------- ------- -- ---------- --- - --- ----- ----- ----<br>---- --- --- ----- you ---- ---- ------- ----- ---- -------<br>--- --- -- ----- -- --- ---- -- --- ---- -- ------ ------<br>--- ----- -- ----,49248.90000000596,49248.09999999404,48981.275,48993,48997.948,49264.643,,32,you
screen,html.Screen,0_2_0_1_33,2021-12-03T10:00:49.523Z,,,,,,,,,,,,,,,,53,,,,,,,,,,,,,,239.3570000000036,,response,,,99,,,,,,Space,keypress(Space),,,,,---- -- ----- -- ------ - ------- --- ----------<br>------------- ------ ------ ---- ---- ------- ----- -- ----<br>-------- ------- -- ---------- --- - --- ----- ----- ----<br>---- --- --- ----- --- feel ---- ------- ----- ---- -------<br>--- --- -- ----- -- --- ---- -- --- ---- -- ------ ------<br>--- ----- -- ----,49504.79999999702,49504,49247.972,49249.09999999404,49264.643,49514.661,,33,feel
screen,html.Screen,0_2_0_1_34,2021-12-03T10:00:49.763Z,,,,,,,,,,,,,,,,53,,,,,,,,,,,,,,229.33899999999994,,response,,,99,,,,,,Space,keypress(Space),,,,,---- -- ----- -- ------ - ------- --- ----------<br>------------- ------ ------ ---- ---- ------- ----- -- ----<br>-------- ------- -- ---------- --- - --- ----- ----- ----<br>---- --- --- ----- --- ---- that ------- ----- ---- -------<br>--- --- -- ----- -- --- ---- -- --- ---- -- ------ ------<br>--- ----- -- ----,49744.79999999702,49744,49497.991,49505.09999999404,49514.661,49748.1,,34,that
screen,html.Screen,0_2_0_1_35,2021-12-03T10:00:50.019Z,,,,,,,,,,,,,,,,53,,,,,,,,,,,,,,251.90000000000146,,response,,,99,,,,,,Space,keypress(Space),,,,,---- -- ----- -- ------ - ------- --- ----------<br>------------- ------ ------ ---- ---- ------- ----- -- ----<br>-------- ------- -- ---------- --- - --- ----- ----- ----<br>---- --- --- ----- --- ---- ---- matters ----- ---- -------<br>--- --- -- ----- -- --- ---- -- --- ---- -- ------ ------<br>--- ----- -- ----,50000.79999999702,50000,49731.429,49745,49748.1,50014.836,,35,matters
screen,html.Screen,0_2_0_1_36,2021-12-03T10:00:50.276Z,,,,,,,,,,,,,,,,53,,,,,,,,,,,,,,241.16399999999703,,response,,,99,,,,,,Space,keypress(Space),,,,,"---- -- ----- -- ------ - ------- --- ----------<br>------------- ------ ------ ---- ---- ------- ----- -- ----<br>-------- ------- -- ---------- --- - --- ----- ----- ----<br>---- --- --- ----- --- ---- ---- ------- most, ---- -------<br>--- --- -- ----- -- --- ---- -- --- ---- -- ------ ------<br>--- ----- -- ----",50256.90000000596,50256,49998.165,50001,50014.836,50264.868,,36,"most,"
screen,html.Screen,0_2_0_1_37,2021-12-03T10:00:50.524Z,,,,,,,,,,,,,,,,53,,,,,,,,,,,,,,239.1319999999978,,response,,,99,,,,,,Space,keypress(Space),,,,,---- -- ----- -- ------ - ------- --- ----------<br>------------- ------ ------ ---- ---- ------- ----- -- ----<br>-------- ------- -- ---------- --- - --- ----- ----- ----<br>---- --- --- ----- --- ---- ---- ------- ----- it's -------<br>--- --- -- ----- -- --- ---- -- --- ---- -- ------ ------<br>--- ----- -- ----,50504.79999999702,50504,50248.198,50257.20000000298,50264.868,50514.795,,37,it's
screen,html.Screen,0_2_0_1_38,2021-12-03T10:00:50.795Z,,,,,,,,,,,,,,,,53,,,,,,,,,,,,,,261.1050000059622,,response,,,99,,,,,,Space,keypress(Space),,,,,---- -- ----- -- ------ - ------- --- ----------<br>------------- ------ ------ ---- ---- ------- ----- -- ----<br>-------- ------- -- ---------- --- - --- ----- ----- ----<br>---- --- --- ----- --- ---- ---- ------- ----- ---- whether<br>--- --- -- ----- -- --- ---- -- --- ---- -- ------ ------<br>--- ----- -- ----,50776.70000000298,50775.90000000596,50498.128,50505.09999999404,50514.795,50781.747,,38,whether
screen,html.Screen,0_2_0_1_39,2021-12-03T10:00:51.075Z,,,,,,,,,,,,,,,,53,,,,,,,,,,,,,,274.15300000595744,,response,,,99,,,,,,Space,keypress(Space),,,,,---- -- ----- -- ------ - ------- --- ----------<br>------------- ------ ------ ---- ---- ------- ----- -- ----<br>-------- ------- -- ---------- --- - --- ----- ----- ----<br>---- --- --- ----- --- ---- ---- ------- ----- ---- -------<br>you --- -- ----- -- --- ---- -- --- ---- -- ------ ------<br>--- ----- -- ----,51056.70000000298,51055.90000000596,50765.074,50776.90000000596,50781.747,51065.109,,39,you
screen,html.Screen,0_2_0_1_40,2021-12-03T10:00:51.323Z,,,,,,,,,,,,,,,,53,,,,,,,,,,,,,,238.79100000596372,,response,,,99,,,,,,Space,keypress(Space),,,,,---- -- ----- -- ------ - ------- --- ----------<br>------------- ------ ------ ---- ---- ------- ----- -- ----<br>-------- ------- -- ---------- --- - --- ----- ----- ----<br>---- --- --- ----- --- ---- ---- ------- ----- ---- -------<br>--- are -- ----- -- --- ---- -- --- ---- -- ------ ------<br>--- ----- -- ----,51304.70000000298,51303.90000000596,51048.438,51056.90000000596,51065.109,51315.134,,40,are
screen,html.Screen,0_2_0_1_41,2021-12-03T10:00:51.571Z,,,,,,,,,,,,,,,,53,,,,,,,,,,,,,,236.76600000596227,,response,,,99,,,,,,Space,keypress(Space),,,,,---- -- ----- -- ------ - ------- --- ----------<br>------------- ------ ------ ---- ---- ------- ----- -- ----<br>-------- ------- -- ---------- --- - --- ----- ----- ----<br>---- --- --- ----- --- ---- ---- ------- ----- ---- -------<br>--- --- as ----- -- --- ---- -- --- ---- -- ------ ------<br>--- ----- -- ----,51552.70000000298,51551.90000000596,51298.464,51304.90000000596,51315.134,51565.244,,41,as
screen,html.Screen,0_2_0_1_42,2021-12-03T10:00:51.819Z,,,,,,,,,,,,,,,,53,,,,,,,,,,,,,,234.6560000059617,,response,,,99,,,,,,Space,keypress(Space),,,,,---- -- ----- -- ------ - ------- --- ----------<br>------------- ------ ------ ---- ---- ------- ----- -- ----<br>-------- ------- -- ---------- --- - --- ----- ----- ----<br>---- --- --- ----- --- ---- ---- ------- ----- ---- -------<br>--- --- -- close -- --- ---- -- --- ---- -- ------ ------<br>--- ----- -- ----,51800.59999999404,51799.90000000596,51548.573,51552.90000000596,51565.244,51815.313,,42,close
screen,html.Screen,0_2_0_1_43,2021-12-03T10:00:52.067Z,,,,,,,,,,,,,,,,53,,,,,,,,,,,,,,232.48699999701785,,response,,,99,,,,,,Space,keypress(Space),,,,,---- -- ----- -- ------ - ------- --- ----------<br>------------- ------ ------ ---- ---- ------- ----- -- ----<br>-------- ------- -- ---------- --- - --- ----- ----- ----<br>---- --- --- ----- --- ---- ---- ------- ----- ---- -------<br>--- --- -- ----- as --- ---- -- --- ---- -- ------ ------<br>--- ----- -- ----,52048.59999999404,52047.79999999702,51798.642,51800.79999999702,51815.313,52065.384,,43,as
screen,html.Screen,0_2_0_1_44,2021-12-03T10:00:52.299Z,,,,,,,,,,,,,,,,53,,,,,,,,,,,,,,214.51600000596227,,response,,,99,,,,,,Space,keypress(Space),,,,,---- -- ----- -- ------ - ------- --- ----------<br>------------- ------ ------ ---- ---- ------- ----- -- ----<br>-------- ------- -- ---------- --- - --- ----- ----- ----<br>---- --- --- ----- --- ---- ---- ------- ----- ---- -------<br>--- --- -- ----- -- you ---- -- --- ---- -- ------ ------<br>--- ----- -- ----,52280.59999999404,52279.90000000596,52048.713,52048.90000000596,52065.384,52281.998,,44,you
screen,html.Screen,0_2_0_1_45,2021-12-03T10:00:52.539Z,,,,,,,,,,,,,,,,53,,,,,,,,,,,,,,237.70200000298064,,response,,,99,,,,,,Space,keypress(Space),,,,,---- -- ----- -- ------ - ------- --- ----------<br>------------- ------ ------ ---- ---- ------- ----- -- ----<br>-------- ------- -- ---------- --- - --- ----- ----- ----<br>---- --- --- ----- --- ---- ---- ------- ----- ---- -------<br>--- --- -- ----- -- --- want -- --- ---- -- ------ ------<br>--- ----- -- ----,52520.59999999404,52519.70000000298,52265.33,52280.79999999702,52281.998,52532.155,,45,want
screen,html.Screen,0_2_0_1_46,2021-12-03T10:00:52.811Z,,,,,,,,,,,,,,,,53,,,,,,,,,,,,,,259.74500000596163,,response,,,99,,,,,,Space,keypress(Space),,,,,---- -- ----- -- ------ - ------- --- ----------<br>------------- ------ ------ ---- ---- ------- ----- -- ----<br>-------- ------- -- ---------- --- - --- ----- ----- ----<br>---- --- --- ----- --- ---- ---- ------- ----- ---- -------<br>--- --- -- ----- -- --- ---- to --- ---- -- ------ ------<br>--- ----- -- ----,52792.59999999404,52791.90000000596,52515.484,52520.79999999702,52532.155,52798.934,,46,to
screen,html.Screen,0_2_0_1_47,2021-12-03T10:00:53.067Z,,,,,,,,,,,,,,,,53,,,,,,,,,,,,,,248.96600000595936,,response,,,99,,,,,,Space,keypress(Space),,,,,"---- -- ----- -- ------ - ------- --- ----------<br>------------- ------ ------ ---- ---- ------- ----- -- ----<br>-------- ------- -- ---------- --- - --- ----- ----- ----<br>---- --- --- ----- --- ---- ---- ------- ----- ---- -------<br>--- --- -- ----- -- --- ---- -- be, ---- -- ------ ------<br>--- ----- -- ----",53048.59999999404,53047.90000000596,52782.262,52792.79999999702,52798.934,53065.623,,47,"be,"
screen,html.Screen,0_2_0_1_48,2021-12-03T10:00:53.323Z,,,,,,,,,,,,,,,,53,,,,,,,,,,,,,,238.27700000596087,,response,,,99,,,,,,Space,keypress(Space),,,,,---- -- ----- -- ------ - ------- --- ----------<br>------------- ------ ------ ---- ---- ------- ----- -- ----<br>-------- ------- -- ---------- --- - --- ----- ----- ----<br>---- --- --- ----- --- ---- ---- ------- ----- ---- -------<br>--- --- -- ----- -- --- ---- -- --- even -- ------ ------<br>--- ----- -- ----,53304.59999999404,53303.90000000596,53048.953,53048.79999999702,53065.623,53315.692,,48,even
screen,html.Screen,0_2_0_1_49,2021-12-03T10:00:53.595Z,,,,,,,,,,,,,,,,53,,,,,,,,,,,,,,260.10799999701703,,response,,,99,,,,,,Space,keypress(Space),,,,,---- -- ----- -- ------ - ------- --- ----------<br>------------- ------ ------ ---- ---- ------- ----- -- ----<br>-------- ------- -- ---------- --- - --- ----- ----- ----<br>---- --- --- ----- --- ---- ---- ------- ----- ---- -------<br>--- --- -- ----- -- --- ---- -- --- ---- if ------ ------<br>--- ----- -- ----,53576.5,53575.79999999702,53299.022,53304.79999999702,53315.692,53582.412,,49,if
screen,html.Screen,0_2_0_1_50,2021-12-03T10:00:53.827Z,,,,,,,,,,,,,,,,53,,,,,,,,,,,,,,225.38799999702314,,response,,,99,,,,,,Space,keypress(Space),,,,,---- -- ----- -- ------ - ------- --- ----------<br>------------- ------ ------ ---- ---- ------- ----- -- ----<br>-------- ------- -- ---------- --- - --- ----- ----- ----<br>---- --- --- ----- --- ---- ---- ------- ----- ---- -------<br>--- --- -- ----- -- --- ---- -- --- ---- -- that's ------<br>--- ----- -- ----,53808.5,53807.79999999702,53565.742,53576.79999999702,53582.412,53815.818,,50,that's
screen,html.Screen,0_2_0_1_51,2021-12-03T10:00:54.067Z,,,,,,,,,,,,,,,,53,,,,,,,,,,,,,,231.98199999702047,,response,,,99,,,,,,Space,keypress(Space),,,,,---- -- ----- -- ------ - ------- --- ----------<br>------------- ------ ------ ---- ---- ------- ----- -- ----<br>-------- ------- -- ---------- --- - --- ----- ----- ----<br>---- --- --- ----- --- ---- ---- ------- ----- ---- -------<br>--- --- -- ----- -- --- ---- -- --- ---- -- ------ really<br>--- ----- -- ----,54048.59999999404,54047.79999999702,53799.148,53808.70000000298,53815.818,54065.905,,51,really
screen,html.Screen,0_2_0_1_52,2021-12-03T10:00:54.403Z,,,,,,,,,,,,,,,,53,,,,,,,,,,,,,,317.7950000029814,,response,,,99,,,,,,Space,keypress(Space),,,,,---- -- ----- -- ------ - ------- --- ----------<br>------------- ------ ------ ---- ---- ------- ----- -- ----<br>-------- ------- -- ---------- --- - --- ----- ----- ----<br>---- --- --- ----- --- ---- ---- ------- ----- ---- -------<br>--- --- -- ----- -- --- ---- -- --- ---- -- ------ ------<br>not ----- -- ----,54384.5,54383.70000000298,54049.234,54048.79999999702,54065.905,54399.236,,52,not
screen,html.Screen,0_2_0_1_53,2021-12-03T10:00:54.651Z,,,,,,,,,,,,,,,,53,,,,,,,,,,,,,,232.56399999702262,,response,,,99,,,,,,Space,keypress(Space),,,,,---- -- ----- -- ------ - ------- --- ----------<br>------------- ------ ------ ---- ---- ------- ----- -- ----<br>-------- ------- -- ---------- --- - --- ----- ----- ----<br>---- --- --- ----- --- ---- ---- ------- ----- ---- -------<br>--- --- -- ----- -- --- ---- -- --- ---- -- ------ ------<br>--- close -- ----,54632.5,54631.79999999702,54382.567,54384.70000000298,54399.236,54649.473,,53,close
screen,html.Screen,0_2_0_1_54,2021-12-03T10:00:54.883Z,,,,,,,,,,,,,,,,53,,,,,,,,,,,,,,214.2270000029821,,response,,,99,,,,,,Space,keypress(Space),,,,,---- -- ----- -- ------ - ------- --- ----------<br>------------- ------ ------ ---- ---- ------- ----- -- ----<br>-------- ------- -- ---------- --- - --- ----- ----- ----<br>---- --- --- ----- --- ---- ---- ------- ----- ---- -------<br>--- --- -- ----- -- --- ---- -- --- ---- -- ------ ------<br>--- ----- at ----,54864.5,54863.70000000298,54632.8,54632.79999999702,54649.473,54866.007,,54,at
screen,html.Screen,0_2_0_1_55,2021-12-03T10:00:55.259Z,,,,,,,,,,,,,,,,53,,,,,,,,,,,,,,373.59299999404175,,response,,,99,,,,,,Space,keypress(Space),,,,,---- -- ----- -- ------ - ------- --- ----------<br>------------- ------ ------ ---- ---- ------- ----- -- ----<br>-------- ------- -- ---------- --- - --- ----- ----- ----<br>---- --- --- ----- --- ---- ---- ------- ----- ---- -------<br>--- --- -- ----- -- --- ---- -- --- ---- -- ------ ------<br>--- ----- -- all.,55240.40000000596,55239.59999999404,54849.339,54864.70000000298,54866.007,55249.574,,55,all.
Item 99,flow.Loop,0_2_0_1,2021-12-03T10:00:55.263Z,,,,,,,,,,,,,,,,,,,,,,,,,,,,,,18795.305999994038,,completion,,,,C,,,,,,,,,,silence,,55244.79999999702,55239.59999999404,36427.625,36434.79999999702,36444.294,55249.574,,,
Question 1,html.Screen,0_2_0_2,2021-12-03T10:01:00.486Z,,,,,,,,,,,,,,,,,,,,,,,,,,,true,FALSE,,5213.62600000298,,response,,,99,C,,,,,FALSE,click #choice-2,,,,silence,,60464.70000000298,60463.20000000298,55232.902,55245,55249.574,60467.631,,,
Question 2,html.Screen,0_2_0_3,2021-12-03T10:01:06.598Z,,,,,,,,,,,,,,,,,,,,,,,,,,,true,TRUE,,6107.368999999999,,response,,,99,C,,,,,TRUE,click #choice-1,,,,silence,,66576.20000000298,66575,60450.96,60464.90000000596,60467.631,66585.925,,,
Item 99,flow.Sequence,0_2_0,2021-12-03T10:01:06.598Z,,,,,,,,,,,,,,,,,,,,,,,,,,,,,,40133.345,,completion,,,,,,,,,,,,,,,,66576.70000000298,66575,26424.985,26427,26441.655,66585.925,,,
Holding screen,html.Screen,0_2_1_0,2021-12-03T10:01:16.595Z,,,,,,,,,,,,,,,,,,,,,,,,,,,,,,10002.478000000003,,timeout,,,,,,,,,,,,,,,,76572.90000000596,76571.733,66569.254,66577,66585.925,76588.403,,,
screen,html.Screen,0_2_1_1_0,2021-12-03T10:01:17.590Z,,,,,,,,,,,,,,,,54,,,,,,,,,,,,,,978.6969999940338,,response,,,100,,,,,,Space,keypress(Space),,,,,At --- ---- --- ------ ----- ------- ---- -- --- ------- --<br>------- ---------- ------ -- ----- -- ----- -- ---- ------<br>--- ----- --- --- ------ -------- ----- --- ------ ----- --<br>----- ----- ---------- --- --- ------ ------ ---- -- ------<br>------- --- ------ ----- --- ---- ------- -- ---- --- --<br>------- ------,77568,77567.09999999404,76571.733,76573.20000000298,76588.403,77572.206,,0,At
screen,html.Screen,0_2_1_1_1,2021-12-03T10:01:17.773Z,,,,,,,,,,,,,,,,54,,,,,,,,,,,,,,178.39399999403395,,response,,,100,,,,,,Space,keypress(Space),,,,,-- the ---- --- ------ ----- ------- ---- -- --- ------- --<br>------- ---------- ------ -- ----- -- ----- -- ---- ------<br>--- ----- --- --- ------ -------- ----- --- ------ ----- --<br>----- ----- ---------- --- --- ------ ------ ---- -- ------<br>------- --- ------ ----- --- ---- ------- -- ---- --- --<br>------- ------,77751.40000000596,77750.59999999404,77555.534,77568.29999999702,77572.206,77755.492,,1,the
screen,html.Screen,0_2_1_1_2,2021-12-03T10:01:17.973Z,,,,,,,,,,,,,,,,54,,,,,,,,,,,,,,195.10799999404117,,response,,,100,,,,,,Space,keypress(Space),,,,,-- --- time --- ------ ----- ------- ---- -- --- ------- --<br>------- ---------- ------ -- ----- -- ----- -- ---- ------<br>--- ----- --- --- ------ -------- ----- --- ------ ----- --<br>----- ----- ---------- --- --- ------ ------ ---- -- ------<br>------- --- ------ ----- --- ---- ------- -- ---- --- --<br>------- ------,77951.5,77950.59999999404,77738.822,77751.70000000298,77755.492,77955.577,,2,time
screen,html.Screen,0_2_1_1_3,2021-12-03T10:01:18.173Z,,,,,,,,,,,,,,,,54,,,,,,,,,,,,,,195.02299999403476,,response,,,100,,,,,,Space,keypress(Space),,,,,-- --- ---- the ------ ----- ------- ---- -- --- ------- --<br>------- ---------- ------ -- ----- -- ----- -- ---- ------<br>--- ----- --- --- ------ -------- ----- --- ------ ----- --<br>----- ----- ---------- --- --- ------ ------ ---- -- ------<br>------- --- ------ ----- --- ---- ------- -- ---- --- --<br>------- ------,78151.5,78150.59999999404,77938.907,77951.70000000298,77955.577,78155.654,,3,the
screen,html.Screen,0_2_1_1_4,2021-12-03T10:01:18.381Z,,,,,,,,,,,,,,,,54,,,,,,,,,,,,,,202.94599999404454,,response,,,100,,,,,,Space,keypress(Space),,,,,-- --- ---- --- French ----- ------- ---- -- --- ------- --<br>------- ---------- ------ -- ----- -- ----- -- ---- ------<br>--- ----- --- --- ------ -------- ----- --- ------ ----- --<br>----- ----- ---------- --- --- ------ ------ ---- -- ------<br>------- --- ------ ----- --- ---- ------- -- ---- --- --<br>------- ------,78359.40000000596,78358.59999999404,78138.983,78151.70000000298,78155.654,78372.361,,4,French
screen,html.Screen,0_2_1_1_5,2021-12-03T10:01:18.581Z,,,,,,,,,,,,,,,,54,,,,,,,,,,,,,,186.13899999999558,,response,,,100,,,,,,Space,keypress(Space),,,,,-- --- ---- --- ------ crown ------- ---- -- --- ------- --<br>------- ---------- ------ -- ----- -- ----- -- ---- ------<br>--- ----- --- --- ------ -------- ----- --- ------ ----- --<br>----- ----- ---------- --- --- ------ ------ ---- -- ------<br>------- --- ------ ----- --- ---- ------- -- ---- --- --<br>------- ------,78559.29999999702,78558.5,78355.691,78359.70000000298,78372.361,78572.376,,5,crown
screen,html.Screen,0_2_1_1_6,2021-12-03T10:01:18.773Z,,,,,,,,,,,,,,,,54,,,,,,,,,,,,,,178.3240000029764,,response,,,100,,,,,,Space,keypress(Space),,,,,-- --- ---- --- ------ ----- secured ---- -- --- ------- --<br>------- ---------- ------ -- ----- -- ----- -- ---- ------<br>--- ----- --- --- ------ -------- ----- --- ------ ----- --<br>----- ----- ---------- --- --- ------ ------ ---- -- ------<br>------- --- ------ ----- --- ---- ------- -- ---- --- --<br>------- ------,78751.40000000596,78750.70000000298,78555.707,78559.5,78572.376,78755.745,,6,secured
screen,html.Screen,0_2_1_1_7,2021-12-03T10:01:18.973Z,,,,,,,,,,,,,,,,54,,,,,,,,,,,,,,194.9550000029849,,response,,,100,,,,,,Space,keypress(Space),,,,,-- --- ---- --- ------ ----- ------- much -- --- ------- --<br>------- ---------- ------ -- ----- -- ----- -- ---- ------<br>--- ----- --- --- ------ -------- ----- --- ------ ----- --<br>----- ----- ---------- --- --- ------ ------ ---- -- ------<br>------- --- ------ ----- --- ---- ------- -- ---- --- --<br>------- ------,78951.29999999702,78950.70000000298,78739.076,78751.70000000298,78755.745,78955.886,,7,much
screen,html.Screen,0_2_1_1_8,2021-12-03T10:01:19.189Z,,,,,,,,,,,,,,,,54,,,,,,,,,,,,,,210.71399999404093,,response,,,100,,,,,,Space,keypress(Space),,,,,-- --- ---- --- ------ ----- ------- ---- of --- ------- --<br>------- ---------- ------ -- ----- -- ----- -- ---- ------<br>--- ----- --- --- ------ -------- ----- --- ------ ----- --<br>----- ----- ---------- --- --- ------ ------ ---- -- ------<br>------- --- ------ ----- --- ---- ------- -- ---- --- --<br>------- ------,79167.40000000596,79166.59999999404,78939.214,78951.59999999404,78955.886,79172.594,,8,of
screen,html.Screen,0_2_1_1_9,2021-12-03T10:01:19.405Z,,,,,,,,,,,,,,,,54,,,,,,,,,,,,,,210.0059999940422,,response,,,100,,,,,,Space,keypress(Space),,,,,-- --- ---- --- ------ ----- ------- ---- -- its ------- --<br>------- ---------- ------ -- ----- -- ----- -- ---- ------<br>--- ----- --- --- ------ -------- ----- --- ------ ----- --<br>----- ----- ---------- --- --- ------ ------ ---- -- ------<br>------- --- ------ ----- --- ---- ------- -- ---- --- --<br>------- ------,79383.40000000596,79382.59999999404,79155.923,79167.59999999404,79172.594,79389.281,,9,its
screen,html.Screen,0_2_1_1_10,2021-12-03T10:01:19.637Z,,,,,,,,,,,,,,,,54,,,,,,,,,,,,,,225.31899999403686,,response,,,100,,,,,,Space,keypress(Space),,,,,-- --- ---- --- ------ ----- ------- ---- -- --- revenue --<br>------- ---------- ------ -- ----- -- ----- -- ---- ------<br>--- ----- --- --- ------ -------- ----- --- ------ ----- --<br>----- ----- ---------- --- --- ------ ------ ---- -- ------<br>------- --- ------ ----- --- ---- ------- -- ---- --- --<br>------- ------,79615.29999999702,79614.59999999404,79372.611,79383.70000000298,79389.281,79622.706,,10,revenue
screen,html.Screen,0_2_1_1_11,2021-12-03T10:01:19.861Z,,,,,,,,,,,,,,,,54,,,,,,,,,,,,,,215.89399999403395,,response,,,100,,,,,,Space,keypress(Space),,,,,-- --- ---- --- ------ ----- ------- ---- -- --- ------- by<br>------- ---------- ------ -- ----- -- ----- -- ---- ------<br>--- ----- --- --- ------ -------- ----- --- ------ ----- --<br>----- ----- ---------- --- --- ------ ------ ---- -- ------<br>------- --- ------ ----- --- ---- ------- -- ---- --- --<br>------- ------,79839.40000000596,79838.59999999404,79606.035,79615.5,79622.706,79856.082,,11,by
screen,html.Screen,0_2_1_1_12,2021-12-03T10:01:20.093Z,,,,,,,,,,,,,,,,54,,,,,,,,,,,,,,214.51799999404466,,response,,,100,,,,,,Space,keypress(Space),,,,,-- --- ---- --- ------ ----- ------- ---- -- --- ------- --<br>issuing ---------- ------ -- ----- -- ----- -- ---- ------<br>--- ----- --- --- ------ -------- ----- --- ------ ----- --<br>----- ----- ---------- --- --- ------ ------ ---- -- ------<br>------- --- ------ ----- --- ---- ------- -- ---- --- --<br>------- ------,80071.29999999702,80070.59999999404,79839.412,79839.59999999404,79856.082,80072.808,,12,issuing
screen,html.Screen,0_2_1_1_13,2021-12-03T10:01:20.333Z,,,,,,,,,,,,,,,,54,,,,,,,,,,,,,,237.791999994035,,response,,,100,,,,,,Space,keypress(Space),,,,,-- --- ---- --- ------ ----- ------- ---- -- --- ------- --<br>------- government ------ -- ----- -- ----- -- ---- ------<br>--- ----- --- --- ------ -------- ----- --- ------ ----- --<br>----- ----- ---------- --- --- ------ ------ ---- -- ------<br>------- --- ------ ----- --- ---- ------- -- ---- --- --<br>------- ------,80311.29999999702,80310.59999999404,80056.138,80071.5,80072.808,80322.873,,13,government
screen,html.Screen,0_2_1_1_14,2021-12-03T10:01:20.581Z,,,,,,,,,,,,,,,,54,,,,,,,,,,,,,,235.5270000059536,,response,,,100,,,,,,Space,keypress(Space),,,,,-- --- ---- --- ------ ----- ------- ---- -- --- ------- --<br>------- ---------- bonds. -- ----- -- ----- -- ---- ------<br>--- ----- --- --- ------ -------- ----- --- ------ ----- --<br>----- ----- ---------- --- --- ------ ------ ---- -- ------<br>------- --- ------ ----- --- ---- ------- -- ---- --- --<br>------- ------,80559.20000000298,80558.40000000596,80306.203,80311.5,80322.873,80572.96,,14,bonds.
screen,html.Screen,0_2_1_1_15,2021-12-03T10:01:20.845Z,,,,,,,,,,,,,,,,54,,,,,,,,,,,,,,249.5399999999936,,response,,,100,,,,,,Space,keypress(Space),,,,,-- --- ---- --- ------ ----- ------- ---- -- --- ------- --<br>------- ---------- ------ In ----- -- ----- -- ---- ------<br>--- ----- --- --- ------ -------- ----- --- ------ ----- --<br>----- ----- ---------- --- --- ------ ------ ---- -- ------<br>------- --- ------ ----- --- ---- ------- -- ---- --- --<br>------- ------,80823.29999999702,80822.5,80556.289,80559.40000000596,80572.96,80839.652,,15,In
screen,html.Screen,0_2_1_1_16,2021-12-03T10:01:21.101Z,,,,,,,,,,,,,,,,54,,,,,,,,,,,,,,238.84799999999814,,response,,,100,,,,,,Space,keypress(Space),,,,,"-- --- ---- --- ------ ----- ------- ---- -- --- ------- --<br>------- ---------- ------ -- 1727, -- ----- -- ---- ------<br>--- ----- --- --- ------ -------- ----- --- ------ ----- --<br>----- ----- ---------- --- --- ------ ------ ---- -- ------<br>------- --- ------ ----- --- ---- ------- -- ---- --- --<br>------- ------",81079.29999999702,81078.5,80822.982,80823.59999999404,80839.652,81089.765,,16,"1727,"
screen,html.Screen,0_2_1_1_17,2021-12-03T10:01:21.341Z,,,,,,,,,,,,,,,,54,,,,,,,,,,,,,,228.73500000000058,,response,,,100,,,,,,Space,keypress(Space),,,,,-- --- ---- --- ------ ----- ------- ---- -- --- ------- --<br>------- ---------- ------ -- ----- in ----- -- ---- ------<br>--- ----- --- --- ------ -------- ----- --- ------ ----- --<br>----- ----- ---------- --- --- ------ ------ ---- -- ------<br>------- --- ------ ----- --- ---- ------- -- ---- --- --<br>------- ------,81319.29999999702,81318.5,81073.094,81079.59999999404,81089.765,81323.021,,17,in
screen,html.Screen,0_2_1_1_18,2021-12-03T10:01:21.621Z,,,,,,,,,,,,,,,,54,,,,,,,,,,,,,,275.47900000000664,,response,,,100,,,,,,Space,keypress(Space),,,,,-- --- ---- --- ------ ----- ------- ---- -- --- ------- --<br>------- ---------- ------ -- ----- -- order -- ---- ------<br>--- ----- --- --- ------ -------- ----- --- ------ ----- --<br>----- ----- ---------- --- --- ------ ------ ---- -- ------<br>------- --- ------ ----- --- ---- ------- -- ---- --- --<br>------- ------,81599.20000000298,81598.5,81306.353,81319.5,81323.021,81606.62,,18,order
screen,html.Screen,0_2_1_1_19,2021-12-03T10:01:21.909Z,,,,,,,,,,,,,,,,54,,,,,,,,,,,,,,279.88000000000466,,response,,,100,,,,,,Space,keypress(Space),,,,,-- --- ---- --- ------ ----- ------- ---- -- --- ------- --<br>------- ---------- ------ -- ----- -- ----- to ---- ------<br>--- ----- --- --- ------ -------- ----- --- ------ ----- --<br>----- ----- ---------- --- --- ------ ------ ---- -- ------<br>------- --- ------ ----- --- ---- ------- -- ---- --- --<br>------- ------,81887.29999999702,81886.5,81589.947,81599.5,81606.62,81889.967,,19,to
screen,html.Screen,0_2_1_1_20,2021-12-03T10:01:22.165Z,,,,,,,,,,,,,,,,54,,,,,,,,,,,,,,252.43300000595627,,response,,,100,,,,,,Space,keypress(Space),,,,,-- --- ---- --- ------ ----- ------- ---- -- --- ------- --<br>------- ---------- ------ -- ----- -- ----- -- save ------<br>--- ----- --- --- ------ -------- ----- --- ------ ----- --<br>----- ----- ---------- --- --- ------ ------ ---- -- ------<br>------- --- ------ ----- --- ---- ------- -- ---- --- --<br>------- ------,82143.29999999702,82142.40000000596,81873.296,81887.5,81889.967,82156.688,,20,save
screen,html.Screen,0_2_1_1_21,2021-12-03T10:01:22.413Z,,,,,,,,,,,,,,,,54,,,,,,,,,,,,,,233.81200000000536,,response,,,100,,,,,,Space,keypress(Space),,,,,"-- --- ---- --- ------ ----- ------- ---- -- --- ------- --<br>------- ---------- ------ -- ----- -- ----- -- ---- money,<br>--- ----- --- --- ------ -------- ----- --- ------ ----- --<br>----- ----- ---------- --- --- ------ ------ ---- -- ------<br>------- --- ------ ----- --- ---- ------- -- ---- --- --<br>------- ------",82391.20000000298,82390.5,82140.018,82143.5,82156.688,82406.644,,21,"money,"
screen,html.Screen,0_2_1_1_22,2021-12-03T10:01:22.669Z,,,,,,,,,,,,,,,,54,,,,,,,,,,,,,,239.75600000596023,,response,,,100,,,,,,Space,keypress(Space),,,,,-- --- ---- --- ------ ----- ------- ---- -- --- ------- --<br>------- ---------- ------ -- ----- -- ----- -- ---- ------<br>the ----- --- --- ------ -------- ----- --- ------ ----- --<br>----- ----- ---------- --- --- ------ ------ ---- -- ------<br>------- --- ------ ----- --- ---- ------- -- ---- --- --<br>------- ------,82647.20000000298,82646.40000000596,82389.976,82391.5,82406.644,82656.891,,22,the
screen,html.Screen,0_2_1_1_23,2021-12-03T10:01:22.925Z,,,,,,,,,,,,,,,,54,,,,,,,,,,,,,,245.60899999999674,,response,,,100,,,,,,Space,keypress(Space),,,,,-- --- ---- --- ------ ----- ------- ---- -- --- ------- --<br>------- ---------- ------ -- ----- -- ----- -- ---- ------<br>--- state --- --- ------ -------- ----- --- ------ ----- --<br>----- ----- ---------- --- --- ------ ------ ---- -- ------<br>------- --- ------ ----- --- ---- ------- -- ---- --- --<br>------- ------,82903.20000000298,82902.5,82640.218,82647.5,82656.891,82906.88,,23,state
screen,html.Screen,0_2_1_1_24,2021-12-03T10:01:23.141Z,,,,,,,,,,,,,,,,54,,,,,,,,,,,,,,211.61999999999534,,response,,,100,,,,,,Space,keypress(Space),,,,,-- --- ---- --- ------ ----- ------- ---- -- --- ------- --<br>------- ---------- ------ -- ----- -- ----- -- ---- ------<br>--- ----- cut --- ------ -------- ----- --- ------ ----- --<br>----- ----- ---------- --- --- ------ ------ ---- -- ------<br>------- --- ------ ----- --- ---- ------- -- ---- --- --<br>------- ------,83119.20000000298,83118.5,82890.21,82903.40000000596,82906.88,83123.628,,24,cut
screen,html.Screen,0_2_1_1_25,2021-12-03T10:01:23.349Z,,,,,,,,,,,,,,,,54,,,,,,,,,,,,,,202.7720000059635,,response,,,100,,,,,,Space,keypress(Space),,,,,-- --- ---- --- ------ ----- ------- ---- -- --- ------- --<br>------- ---------- ------ -- ----- -- ----- -- ---- ------<br>--- ----- --- the ------ -------- ----- --- ------ ----- --<br>----- ----- ---------- --- --- ------ ------ ---- -- ------<br>------- --- ------ ----- --- ---- ------- -- ---- --- --<br>------- ------,83327.20000000298,83326.40000000596,83106.957,83119.40000000596,83123.628,83340.32,,25,the
screen,html.Screen,0_2_1_1_26,2021-12-03T10:01:23.557Z,,,,,,,,,,,,,,,,54,,,,,,,,,,,,,,194.08000000595348,,response,,,100,,,,,,Space,keypress(Space),,,,,-- --- ---- --- ------ ----- ------- ---- -- --- ------- --<br>------- ---------- ------ -- ----- -- ----- -- ---- ------<br>--- ----- --- --- bonds' -------- ----- --- ------ ----- --<br>----- ----- ---------- --- --- ------ ------ ---- -- ------<br>------- --- ------ ----- --- ---- ------- -- ---- --- --<br>------- ------,83535.20000000298,83534.40000000596,83323.65,83327.40000000596,83340.32,83540.414,,26,bonds'
screen,html.Screen,0_2_1_1_27,2021-12-03T10:01:23.773Z,,,,,,,,,,,,,,,,54,,,,,,,,,,,,,,209.98600000595616,,response,,,100,,,,,,Space,keypress(Space),,,,,-- --- ---- --- ------ ----- ------- ---- -- --- ------- --<br>------- ---------- ------ -- ----- -- ----- -- ---- ------<br>--- ----- --- --- ------ interest ----- --- ------ ----- --<br>----- ----- ---------- --- --- ------ ------ ---- -- ------<br>------- --- ------ ----- --- ---- ------- -- ---- --- --<br>------- ------,83751.20000000298,83750.40000000596,83523.743,83535.40000000596,83540.414,83757.15,,27,interest
screen,html.Screen,0_2_1_1_28,2021-12-03T10:01:23.973Z,,,,,,,,,,,,,,,,54,,,,,,,,,,,,,,193.25000000596629,,response,,,100,,,,,,Space,keypress(Space),,,,,-- --- ---- --- ------ ----- ------- ---- -- --- ------- --<br>------- ---------- ------ -- ----- -- ----- -- ---- ------<br>--- ----- --- --- ------ -------- rate. --- ------ ----- --<br>----- ----- ---------- --- --- ------ ------ ---- -- ------<br>------- --- ------ ----- --- ---- ------- -- ---- --- --<br>------- ------,83951.20000000298,83950.40000000596,83740.479,83751.40000000596,83757.15,83957.159,,28,rate.
screen,html.Screen,0_2_1_1_29,2021-12-03T10:01:24.197Z,,,,,,,,,,,,,,,,54,,,,,,,,,,,,,,217.2410000059608,,response,,,100,,,,,,Space,keypress(Space),,,,,-- --- ---- --- ------ ----- ------- ---- -- --- ------- --<br>------- ---------- ------ -- ----- -- ----- -- ---- ------<br>--- ----- --- --- ------ -------- ----- The ------ ----- --<br>----- ----- ---------- --- --- ------ ------ ---- -- ------<br>------- --- ------ ----- --- ---- ------- -- ---- --- --<br>------- ------,84175.20000000298,84174.40000000596,83940.489,83951.40000000596,83957.159,84190.584,,29,The
screen,html.Screen,0_2_1_1_30,2021-12-03T10:01:24.437Z,,,,,,,,,,,,,,,,54,,,,,,,,,,,,,,223.7159999970172,,response,,,100,,,,,,Space,keypress(Space),,,,,-- --- ---- --- ------ ----- ------- ---- -- --- ------- --<br>------- ---------- ------ -- ----- -- ----- -- ---- ------<br>--- ----- --- --- ------ -------- ----- --- market ----- --<br>----- ----- ---------- --- --- ------ ------ ---- -- ------<br>------- --- ------ ----- --- ---- ------- -- ---- --- --<br>------- ------,84415.09999999404,84414.29999999702,84173.913,84175.5,84190.584,84423.955,,30,market
screen,html.Screen,0_2_1_1_31,2021-12-03T10:01:24.669Z,,,,,,,,,,,,,,,,54,,,,,,,,,,,,,,222.34499999701802,,response,,,100,,,,,,Space,keypress(Space),,,,,-- --- ---- --- ------ ----- ------- ---- -- --- ------- --<br>------- ---------- ------ -- ----- -- ----- -- ---- ------<br>--- ----- --- --- ------ -------- ----- --- ------ value --<br>----- ----- ---------- --- --- ------ ------ ---- -- ------<br>------- --- ------ ----- --- ---- ------- -- ---- --- --<br>------- ------,84647.09999999404,84646.29999999702,84407.285,84415.29999999702,84423.955,84657.356,,31,value
screen,html.Screen,0_2_1_1_32,2021-12-03T10:01:24.909Z,,,,,,,,,,,,,,,,54,,,,,,,,,,,,,,229.0440000059607,,response,,,100,,,,,,Space,keypress(Space),,,,,-- --- ---- --- ------ ----- ------- ---- -- --- ------- --<br>------- ---------- ------ -- ----- -- ----- -- ---- ------<br>--- ----- --- --- ------ -------- ----- --- ------ ----- of<br>----- ----- ---------- --- --- ------ ------ ---- -- ------<br>------- --- ------ ----- --- ---- ------- -- ---- --- --<br>------- ------,84887.20000000298,84886.40000000596,84640.686,84647.40000000596,84657.356,84890.752,,32,of
screen,html.Screen,0_2_1_1_33,2021-12-03T10:01:25.157Z,,,,,,,,,,,,,,,,54,,,,,,,,,,,,,,243.54799999702664,,response,,,100,,,,,,Space,keypress(Space),,,,,-- --- ---- --- ------ ----- ------- ---- -- --- ------- --<br>------- ---------- ------ -- ----- -- ----- -- ---- ------<br>--- ----- --- --- ------ -------- ----- --- ------ ----- --<br>these ----- ---------- --- --- ------ ------ ---- -- ------<br>------- --- ------ ----- --- ---- ------- -- ---- --- --<br>------- ------,85135.20000000298,85134.29999999702,84874.082,84887.40000000596,84890.752,85140.841,,33,these
screen,html.Screen,0_2_1_1_34,2021-12-03T10:01:25.381Z,,,,,,,,,,,,,,,,54,,,,,,,,,,,,,,217.35900000297988,,response,,,100,,,,,,Space,keypress(Space),,,,,-- --- ---- --- ------ ----- ------- ---- -- --- ------- --<br>------- ---------- ------ -- ----- -- ----- -- ---- ------<br>--- ----- --- --- ------ -------- ----- --- ------ ----- --<br>----- bonds ---------- --- --- ------ ------ ---- -- ------<br>------- --- ------ ----- --- ---- ------- -- ---- --- --<br>------- ------,85358.90000000596,85358.20000000298,85124.17,85135.29999999702,85140.841,85374.205,,34,bonds
screen,html.Screen,0_2_1_1_35,2021-12-03T10:01:25.613Z,,,,,,,,,,,,,,,,54,,,,,,,,,,,,,,216.09499999701802,,response,,,100,,,,,,Space,keypress(Space),,,,,"-- --- ---- --- ------ ----- ------- ---- -- --- ------- --<br>------- ---------- ------ -- ----- -- ----- -- ---- ------<br>--- ----- --- --- ------ -------- ----- --- ------ ----- --<br>----- ----- plummeted, --- --- ------ ------ ---- -- ------<br>------- --- ------ ----- --- ---- ------- -- ---- --- --<br>------- ------",85591.09999999404,85590.29999999702,85357.535,85359.20000000298,85374.205,85607.636,,35,"plummeted,"
screen,html.Screen,0_2_1_1_36,2021-12-03T10:01:25.869Z,,,,,,,,,,,,,,,,54,,,,,,,,,,,,,,238.66399999702116,,response,,,100,,,,,,Space,keypress(Space),,,,,-- --- ---- --- ------ ----- ------- ---- -- --- ------- --<br>------- ---------- ------ -- ----- -- ----- -- ---- ------<br>--- ----- --- --- ------ -------- ----- --- ------ ----- --<br>----- ----- ---------- and --- ------ ------ ---- -- ------<br>------- --- ------ ----- --- ---- ------- -- ---- --- --<br>------- ------,85847,85846.29999999702,85590.965,85591.29999999702,85607.636,85857.665,,36,and
screen,html.Screen,0_2_1_1_37,2021-12-03T10:01:26.149Z,,,,,,,,,,,,,,,,54,,,,,,,,,,,,,,268.63499999702617,,response,,,100,,,,,,Space,keypress(Space),,,,,-- --- ---- --- ------ ----- ------- ---- -- --- ------- --<br>------- ---------- ------ -- ----- -- ----- -- ---- ------<br>--- ----- --- --- ------ -------- ----- --- ------ ----- --<br>----- ----- ---------- --- the ------ ------ ---- -- ------<br>------- --- ------ ----- --- ---- ------- -- ---- --- --<br>------- ------,86127.09999999404,86126.29999999702,85840.995,85847.29999999702,85857.665,86140.978,,37,the
screen,html.Screen,0_2_1_1_38,2021-12-03T10:01:26.365Z,,,,,,,,,,,,,,,,54,,,,,,,,,,,,,,201.32199999701697,,response,,,100,,,,,,Space,keypress(Space),,,,,-- --- ---- --- ------ ----- ------- ---- -- --- ------- --<br>------- ---------- ------ -- ----- -- ----- -- ---- ------<br>--- ----- --- --- ------ -------- ----- --- ------ ----- --<br>----- ----- ---------- --- --- market ------ ---- -- ------<br>------- --- ------ ----- --- ---- ------- -- ---- --- --<br>------- ------,86343,86342.29999999702,86124.31,86127.29999999702,86140.978,86357.748,,38,market
screen,html.Screen,0_2_1_1_39,2021-12-03T10:01:26.589Z,,,,,,,,,,,,,,,,54,,,,,,,,,,,,,,208.5519999970129,,response,,,100,,,,,,Space,keypress(Space),,,,,-- --- ---- --- ------ ----- ------- ---- -- --- ------- --<br>------- ---------- ------ -- ----- -- ----- -- ---- ------<br>--- ----- --- --- ------ -------- ----- --- ------ ----- --<br>----- ----- ---------- --- --- ------ became ---- -- ------<br>------- --- ------ ----- --- ---- ------- -- ---- --- --<br>------- ------,86567.09999999404,86566.29999999702,86341.078,86343.29999999702,86357.748,86574.602,,39,became
screen,html.Screen,0_2_1_1_40,2021-12-03T10:01:26.813Z,,,,,,,,,,,,,,,,54,,,,,,,,,,,,,,215.59800000298128,,response,,,100,,,,,,Space,keypress(Space),,,,,-- --- ---- --- ------ ----- ------- ---- -- --- ------- --<br>------- ---------- ------ -- ----- -- ----- -- ---- ------<br>--- ----- --- --- ------ -------- ----- --- ------ ----- --<br>----- ----- ---------- --- --- ------ ------ wary -- ------<br>------- --- ------ ----- --- ---- ------- -- ---- --- --<br>------- ------,86791,86790.20000000298,86557.929,86567.29999999702,86574.602,86807.92,,40,wary
screen,html.Screen,0_2_1_1_41,2021-12-03T10:01:27.021Z,,,,,,,,,,,,,,,,54,,,,,,,,,,,,,,190.3799999970215,,response,,,100,,,,,,Space,keypress(Space),,,,,-- --- ---- --- ------ ----- ------- ---- -- --- ------- --<br>------- ---------- ------ -- ----- -- ----- -- ---- ------<br>--- ----- --- --- ------ -------- ----- --- ------ ----- --<br>----- ----- ---------- --- --- ------ ------ ---- of ------<br>------- --- ------ ----- --- ---- ------- -- ---- --- --<br>------- ------,86999,86998.29999999702,86791.25,86791.20000000298,86807.92,87008,,41,of
screen,html.Screen,0_2_1_1_42,2021-12-03T10:01:27.221Z,,,,,,,,,,,,,,,,54,,,,,,,,,,,,,,190.29999999701977,,response,,,100,,,,,,Space,keypress(Space),,,,,-- --- ---- --- ------ ----- ------- ---- -- --- ------- --<br>------- ---------- ------ -- ----- -- ----- -- ---- ------<br>--- ----- --- --- ------ -------- ----- --- ------ ----- --<br>----- ----- ---------- --- --- ------ ------ ---- -- French<br>------- --- ------ ----- --- ---- ------- -- ---- --- --<br>------- ------,87199,87198.29999999702,86991.329,86999.20000000298,87008,87208.038,,42,French
screen,html.Screen,0_2_1_1_43,2021-12-03T10:01:27.461Z,,,,,,,,,,,,,,,,54,,,,,,,,,,,,,,230.16200000297977,,response,,,100,,,,,,Space,keypress(Space),,,,,-- --- ---- --- ------ ----- ------- ---- -- --- ------- --<br>------- ---------- ------ -- ----- -- ----- -- ---- ------<br>--- ----- --- --- ------ -------- ----- --- ------ ----- --<br>----- ----- ---------- --- --- ------ ------ ---- -- ------<br>credit. --- ------ ----- --- ---- ------- -- ---- --- --<br>------- ------,87439,87438.20000000298,87191.368,87199.20000000298,87208.038,87441.412,,43,credit.
screen,html.Screen,0_2_1_1_44,2021-12-03T10:01:27.717Z,,,,,,,,,,,,,,,,54,,,,,,,,,,,,,,253.2880000029836,,response,,,100,,,,,,Space,keypress(Space),,,,,-- --- ---- --- ------ ----- ------- ---- -- --- ------- --<br>------- ---------- ------ -- ----- -- ----- -- ---- ------<br>--- ----- --- --- ------ -------- ----- --- ------ ----- --<br>----- ----- ---------- --- --- ------ ------ ---- -- ------<br>------- The ------ ----- --- ---- ------- -- ---- --- --<br>------- ------,87695.40000000596,87694.70000000298,87424.742,87439.20000000298,87441.412,87708.187,,44,The
screen,html.Screen,0_2_1_1_45,2021-12-03T10:01:27.901Z,,,,,,,,,,,,,,,,54,,,,,,,,,,,,,,169.91299999403418,,response,,,100,,,,,,Space,keypress(Space),,,,,-- --- ---- --- ------ ----- ------- ---- -- --- ------- --<br>------- ---------- ------ -- ----- -- ----- -- ---- ------<br>--- ----- --- --- ------ -------- ----- --- ------ ----- --<br>----- ----- ---------- --- --- ------ ------ ---- -- ------<br>------- --- French ----- --- ---- ------- -- ---- --- --<br>------- ------,87878.90000000596,87878.09999999404,87691.516,87695.59999999404,87708.187,87891.454,,45,French
screen,html.Screen,0_2_1_1_46,2021-12-03T10:01:28.157Z,,,,,,,,,,,,,,,,54,,,,,,,,,,,,,,242.74600000298233,,response,,,100,,,,,,Space,keypress(Space),,,,,-- --- ---- --- ------ ----- ------- ---- -- --- ------- --<br>------- ---------- ------ -- ----- -- ----- -- ---- ------<br>--- ----- --- --- ------ -------- ----- --- ------ ----- --<br>----- ----- ---------- --- --- ------ ------ ---- -- ------<br>------- --- ------ state --- ---- ------- -- ---- --- --<br>------- ------,88135,88134.20000000298,87874.786,87879.20000000298,87891.454,88141.694,,46,state
screen,html.Screen,0_2_1_1_47,2021-12-03T10:01:28.389Z,,,,,,,,,,,,,,,,54,,,,,,,,,,,,,,224.5060000029771,,response,,,100,,,,,,Space,keypress(Space),,,,,-- --- ---- --- ------ ----- ------- ---- -- --- ------- --<br>------- ---------- ------ -- ----- -- ----- -- ---- ------<br>--- ----- --- --- ------ -------- ----- --- ------ ----- --<br>----- ----- ---------- --- --- ------ ------ ---- -- ------<br>------- --- ------ ----- was ---- ------- -- ---- --- --<br>------- ------,88366.90000000596,88366.20000000298,88125.021,88135.20000000298,88141.694,88375.011,,47,was
screen,html.Screen,0_2_1_1_48,2021-12-03T10:01:28.597Z,,,,,,,,,,,,,,,,54,,,,,,,,,,,,,,199.18900000298163,,response,,,100,,,,,,Space,keypress(Space),,,,,-- --- ---- --- ------ ----- ------- ---- -- --- ------- --<br>------- ---------- ------ -- ----- -- ----- -- ---- ------<br>--- ----- --- --- ------ -------- ----- --- ------ ----- --<br>----- ----- ---------- --- --- ------ ------ ---- -- ------<br>------- --- ------ ----- --- left ------- -- ---- --- --<br>------- ------,88575,88574.20000000298,88358.341,88367.20000000298,88375.011,88591.734,,48,left
screen,html.Screen,0_2_1_1_49,2021-12-03T10:01:28.797Z,,,,,,,,,,,,,,,,54,,,,,,,,,,,,,,182.3659999940428,,response,,,100,,,,,,Space,keypress(Space),,,,,-- --- ---- --- ------ ----- ------- ---- -- --- ------- --<br>------- ---------- ------ -- ----- -- ----- -- ---- ------<br>--- ----- --- --- ------ -------- ----- --- ------ ----- --<br>----- ----- ---------- --- --- ------ ------ ---- -- ------<br>------- --- ------ ----- --- ---- without -- ---- --- --<br>------- ------,88775.09999999404,88774.09999999404,88575.064,88575.29999999702,88591.734,88791.697,,49,without
screen,html.Screen,0_2_1_1_50,2021-12-03T10:01:29.029Z,,,,,,,,,,,,,,,,54,,,,,,,,,,,,,,214.40299999403942,,response,,,100,,,,,,Space,keypress(Space),,,,,-- --- ---- --- ------ ----- ------- ---- -- --- ------- --<br>------- ---------- ------ -- ----- -- ----- -- ---- ------<br>--- ----- --- --- ------ -------- ----- --- ------ ----- --<br>----- ----- ---------- --- --- ------ ------ ---- -- ------<br>------- --- ------ ----- --- ---- ------- an ---- --- --<br>------- ------,89006.90000000596,89006.09999999404,88775.029,88775.29999999702,88791.697,89008.562,,50,an
screen,html.Screen,0_2_1_1_51,2021-12-03T10:01:29.269Z,,,,,,,,,,,,,,,,54,,,,,,,,,,,,,,237.53799999403418,,response,,,100,,,,,,Space,keypress(Space),,,,,-- --- ---- --- ------ ----- ------- ---- -- --- ------- --<br>------- ---------- ------ -- ----- -- ----- -- ---- ------<br>--- ----- --- --- ------ -------- ----- --- ------ ----- --<br>----- ----- ---------- --- --- ------ ------ ---- -- ------<br>------- --- ------ ----- --- ---- ------- -- easy --- --<br>------- ------,89246.90000000596,89246.09999999404,88991.889,89007.20000000298,89008.562,89258.587,,51,easy
screen,html.Screen,0_2_1_1_52,2021-12-03T10:01:29.477Z,,,,,,,,,,,,,,,,54,,,,,,,,,,,,,,195.51299999404,,response,,,100,,,,,,Space,keypress(Space),,,,,-- --- ---- --- ------ ----- ------- ---- -- --- ------- --<br>------- ---------- ------ -- ----- -- ----- -- ---- ------<br>--- ----- --- --- ------ -------- ----- --- ------ ----- --<br>----- ----- ---------- --- --- ------ ------ ---- -- ------<br>------- --- ------ ----- --- ---- ------- -- ---- way --<br>------- ------,89454.90000000596,89454.09999999404,89241.916,89247.20000000298,89258.587,89458.652,,52,way
screen,html.Screen,0_2_1_1_53,2021-12-03T10:01:29.725Z,,,,,,,,,,,,,,,,54,,,,,,,,,,,,,,243.44799999403767,,response,,,100,,,,,,Space,keypress(Space),,,,,-- --- ---- --- ------ ----- ------- ---- -- --- ------- --<br>------- ---------- ------ -- ----- -- ----- -- ---- ------<br>--- ----- --- --- ------ -------- ----- --- ------ ----- --<br>----- ----- ---------- --- --- ------ ------ ---- -- ------<br>------- --- ------ ----- --- ---- ------- -- ---- --- of<br>------- ------,89702.90000000596,89702.09999999404,89441.981,89455.20000000298,89458.652,89708.729,,53,of
screen,html.Screen,0_2_1_1_54,2021-12-03T10:01:29.972Z,,,,,,,,,,,,,,,,54,,,,,,,,,,,,,,241.17100000595383,,response,,,100,,,,,,Space,keypress(Space),,,,,-- --- ---- --- ------ ----- ------- ---- -- --- ------- --<br>------- ---------- ------ -- ----- -- ----- -- ---- ------<br>--- ----- --- --- ------ -------- ----- --- ------ ----- --<br>----- ----- ---------- --- --- ------ ------ ---- -- ------<br>------- --- ------ ----- --- ---- ------- -- ---- --- --<br>raising ------,89950.70000000298,89949.90000000596,89692.058,89703.09999999404,89708.729,89958.75,,54,raising
screen,html.Screen,0_2_1_1_55,2021-12-03T10:01:30.469Z,,,,,,,,,,,,,,,,54,,,,,,,,,,,,,,487.34999999403954,,response,,,100,,,,,,Space,keypress(Space),,,,,-- --- ---- --- ------ ----- ------- ---- -- --- ------- --<br>------- ---------- ------ -- ----- -- ----- -- ---- ------<br>--- ----- --- --- ------ -------- ----- --- ------ ----- --<br>----- ----- ---------- --- --- ------ ------ ---- -- ------<br>------- --- ------ ----- --- ---- ------- -- ---- --- --<br>------- money.,90446.90000000596,90446.09999999404,89942.08,89950.90000000596,89958.75,90458.87,,55,money.
Item 100,flow.Loop,0_2_1_1,2021-12-03T10:01:30.469Z,,,,,,,,,,,,,,,,,,,,,,,,,,,,,,13857.696999994034,,completion,,,,C,,,,,,,,,,silence,,90447.29999999702,90446.09999999404,76571.733,76573.09999999404,76588.403,90458.87,,,
Question 1,html.Screen,0_2_1_2,2021-12-03T10:01:33.109Z,,,,,,,,,,,,,,,,,,,,,,,,,,,true,TRUE,,2626.830000002985,,response,,,100,C,,,,,TRUE,click #choice-1,,,,silence,,93086.90000000596,93085.70000000298,90442.2,90447.5,90458.87,93092.917,,,
Question 2,html.Screen,0_2_1_3,2021-12-03T10:01:34.581Z,,,,,,,,,,,,,,,,,,,,,,,,,,,true,FALSE,,1464.783000002979,,response,,,100,C,,,,,FALSE,click #choice-2,,,,silence,,94558.90000000596,94557.70000000298,93076.247,93087.20000000298,93092.917,94560.434,,,
Item 100,flow.Sequence,0_2_1,2021-12-03T10:01:34.581Z,,,,,,,,,,,,,,,,,,,,,,,,,,,,,,27971.775000002977,,completion,,,,,,,,,,,,,,,,94559.20000000298,94557.70000000298,66569.254,66576.90000000596,66585.925,94560.434,,,
End of Practice,html.Page,0_2_2,2021-12-03T10:01:37.621Z,,,,,,,,,,,,,,,,,,,,,,,,,,,,,,3038.566000000006,,form submission,,,,,,,,,,,,,,,,97599.59999999404,97599,94543.746,94559.40000000596,94560.434,97610.792,,,
Practice,flow.Sequence,0_2,2021-12-03T10:01:37.622Z,,,,,,,,,,,,,,,,,,,,,,,,,,,,,,71157.345,,completion,,,,,,,,,,,,,,,,97600,97599,26424.985,26426.90000000596,26441.655,97610.792,,,
Trap_instruction,html.Page,0_3_0,2021-12-03T10:01:39.389Z,,,,,,,,,,,,,,,,,,,,,,,,,,,,,,1756.1080000059592,,form submission,,,,,,,,,,,,,,,,99367.29999999702,99366.90000000596,97594.121,97600.40000000596,97610.792,99394.445,,,
trap_trial,html.Screen,0_3_1,2021-12-03T10:01:42.925Z,,,,,,,,,,,,,,,,,,,,,,,,,,,true,1,,3507.4550000059535,,response,,,,,,,,,1,click #choice-1,,,,,,102903.09999999404,102901.90000000596,99361.105,99367.59999999404,99394.445,102911.096,,,
end of trap trial,html.Page,0_3_2,2021-12-03T10:01:44.909Z,,,,,,,,,,,,,,,,,,,,,,,,,,,,,,1975.7039999970148,,form submission,,,,,,,,,,,,,,,,104887.20000000298,104886.79999999702,102894.43,102903.40000000596,102911.096,104895.992,,,
Trap 1,flow.Sequence,0_3,2021-12-03T10:01:44.909Z,,,,,,,,,,,,,,,,,,,,,,,,,,,,,,7276.0079999970185,,completion,,,,,,,,,,,,,,,,104887.59999999404,104886.79999999702,97594.121,97600.29999999702,97610.792,104895.992,,,
Standby,html.Page,0_4_0,2021-12-03T10:01:52.905Z,,,,,,,,,,,,,,,,,,,,,,,,,,,,,,8002.154999999999,,timeout,,,,,,,,,,,,,,,,112882.90000000596,112881.476,104879.322,104887.79999999702,104895.992,112898.147,,,
Holding screen,html.Screen,0_4_1_0_0,2021-12-03T10:01:59.906Z,,,,,,,,,,,,,,,,,,,,,,,,,,,,,,7001.853000000003,,timeout,,,,,,,,,,,,,,,,119884.59999999404,119883.33,112881.476,112883.29999999702,112898.147,119900,,,
screen,html.Screen,0_4_1_0_1_0,2021-12-03T10:02:00.798Z,,,,,,,,,,,,,,,,2,,,,,,,,,,,,,,881.0999999940395,,response,,,1,C,,,,,Space,keypress(Space),,,,instrumental,Two ---- ------ --- ------- ---------- ------- ----------<br>--- --------- --- ----------- ------- ----- ------- ---<br>--------- ---- -- --- ---- -- --------- -- ---- -------<br>-- --------- ------ --- ----- ------ ---- --- --------- --<br>------ - ---- -- --- ----------- ------- ---- ----- -----<br>--- -------- - ------ ---- -- ----- ---- --- --- -----------<br>-- -------,120782.09999999404,120781.09999999404,119883.33,119885,119900,120783.397,,0,Two
screen,html.Screen,0_4_1_0_1_1,2021-12-03T10:02:01.149Z,,,,,,,,,,,,,,,,2,,,,,,,,,,,,,,349.303000002983,,response,,,1,C,,,,,Space,keypress(Space),,,,instrumental,--- days ------ --- ------- ---------- ------- ----------<br>--- --------- --- ----------- ------- ----- ------- ---<br>--------- ---- -- --- ---- -- --------- -- ---- -------<br>-- --------- ------ --- ----- ------ ---- --- --------- --<br>------ - ---- -- --- ----------- ------- ---- ----- -----<br>--- -------- - ------ ---- -- ----- ---- --- --- -----------<br>-- -------,121133.5,121132.70000000298,120766.728,120782.40000000596,120783.397,121150.408,,1,days
screen,html.Screen,0_4_1_0_1_2,2021-12-03T10:02:01.749Z,,,,,,,,,,,,,,,,2,,,,,,,,,,,,,,582.1919999940437,,response,,,1,C,,,,,Space,keypress(Space),,,,instrumental,"--- ---- later, --- ------- ---------- ------- ----------<br>--- --------- --- ----------- ------- ----- ------- ---<br>--------- ---- -- --- ---- -- --------- -- ---- -------<br>-- --------- ------ --- ----- ------ ---- --- --------- --<br>------ - ---- -- --- ----------- ------- ---- ----- -----<br>--- -------- - ------ ---- -- ----- ---- --- --- -----------<br>-- -------",121733.5,121732.59999999404,121133.737,121133.79999999702,121150.408,121750.462,,2,"later,"
screen,html.Screen,0_4_1_0_1_3,2021-12-03T10:02:01.989Z,,,,,,,,,,,,,,,,2,,,,,,,,,,,,,,222.13799999404,,response,,,1,C,,,,,Space,keypress(Space),,,,instrumental,--- ---- ------ the ------- ---------- ------- ----------<br>--- --------- --- ----------- ------- ----- ------- ---<br>--------- ---- -- --- ---- -- --------- -- ---- -------<br>-- --------- ------ --- ----- ------ ---- --- --------- --<br>------ - ---- -- --- ----------- ------- ---- ----- -----<br>--- -------- - ------ ---- -- ----- ---- --- --- -----------<br>-- -------,121973.5,121972.59999999404,121733.792,121733.70000000298,121750.462,121984.065,,3,the
screen,html.Screen,0_4_1_0_1_4,2021-12-03T10:02:02.229Z,,,,,,,,,,,,,,,,2,,,,,,,,,,,,,,228.33500000595814,,response,,,1,C,,,,,Space,keypress(Space),,,,instrumental,--- ---- ------ --- British ---------- ------- ----------<br>--- --------- --- ----------- ------- ----- ------- ---<br>--------- ---- -- --- ---- -- --------- -- ---- -------<br>-- --------- ------ --- ----- ------ ---- --- --------- --<br>------ - ---- -- --- ----------- ------- ---- ----- -----<br>--- -------- - ------ ---- -- ----- ---- --- --- -----------<br>-- -------,122213.09999999404,122212.40000000596,121967.392,121973.70000000298,121984.065,122217.332,,4,British
screen,html.Screen,0_4_1_0_1_5,2021-12-03T10:02:02.461Z,,,,,,,,,,,,,,,,2,,,,,,,,,,,,,,227.16800000000512,,response,,,1,C,,,,,Space,keypress(Space),,,,instrumental,--- ---- ------ --- ------- astronomer ------- ----------<br>--- --------- --- ----------- ------- ----- ------- ---<br>--------- ---- -- --- ---- -- --------- -- ---- -------<br>-- --------- ------ --- ----- ------ ---- --- --------- --<br>------ - ---- -- --- ----------- ------- ---- ----- -----<br>--- -------- - ------ ---- -- ----- ---- --- --- -----------<br>-- -------,122445.20000000298,122444.5,122200.662,122213.29999999702,122217.332,122450.595,,5,astronomer
screen,html.Screen,0_4_1_0_1_6,2021-12-03T10:02:02.741Z,,,,,,,,,,,,,,,,2,,,,,,,,,,,,,,274.00499999403837,,response,,,1,C,,,,,Space,keypress(Space),,,,instrumental,--- ---- ------ --- ------- ---------- Richard ----------<br>--- --------- --- ----------- ------- ----- ------- ---<br>--------- ---- -- --- ---- -- --------- -- ---- -------<br>-- --------- ------ --- ----- ------ ---- --- --------- --<br>------ - ---- -- --- ----------- ------- ---- ----- -----<br>--- -------- - ------ ---- -- ----- ---- --- --- -----------<br>-- -------,122725.40000000596,122724.59999999404,122433.928,122445.5,122450.595,122734.218,,6,Richard
screen,html.Screen,0_4_1_0_1_7,2021-12-03T10:02:02.997Z,,,,,,,,,,,,,,,,2,,,,,,,,,,,,,,246.28200000000652,,response,,,1,C,,,,,Space,keypress(Space),,,,instrumental,--- ---- ------ --- ------- ---------- ------- Carrington<br>--- --------- --- ----------- ------- ----- ------- ---<br>--------- ---- -- --- ---- -- --------- -- ---- -------<br>-- --------- ------ --- ----- ------ ---- --- --------- --<br>------ - ---- -- --- ----------- ------- ---- ----- -----<br>--- -------- - ------ ---- -- ----- ---- --- --- -----------<br>-- -------,122981.29999999702,122980.5,122717.545,122725.59999999404,122734.218,122984.093,,7,Carrington
screen,html.Screen,0_4_1_0_1_8,2021-12-03T10:02:03.285Z,,,,,,,,,,,,,,,,2,,,,,,,,,,,,,,284.50699999404605,,response,,,1,C,,,,,Space,keypress(Space),,,,instrumental,--- ---- ------ --- ------- ---------- ------- ----------<br>was --------- --- ----------- ------- ----- ------- ---<br>--------- ---- -- --- ---- -- --------- -- ---- -------<br>-- --------- ------ --- ----- ------ ---- --- --------- --<br>------ - ---- -- --- ----------- ------- ---- ----- -----<br>--- -------- - ------ ---- -- ----- ---- --- --- -----------<br>-- -------,123269.29999999702,123268.59999999404,122967.425,122981.5,122984.093,123284.369,,8,was
screen,html.Screen,0_4_1_0_1_9,2021-12-03T10:02:03.581Z,,,,,,,,,,,,,,,,2,,,,,,,,,,,,,,280.0310000059544,,response,,,1,C,,,,,Space,keypress(Space),,,,instrumental,--- ---- ------ --- ------- ---------- ------- ----------<br>--- observing --- ----------- ------- ----- ------- ---<br>--------- ---- -- --- ---- -- --------- -- ---- -------<br>-- --------- ------ --- ----- ------ ---- --- --------- --<br>------ - ---- -- --- ----------- ------- ---- ----- -----<br>--- -------- - ------ ---- -- ----- ---- --- --- -----------<br>-- -------,123565.20000000298,123564.40000000596,123267.696,123269.5,123284.369,123567.675,,9,observing
screen,html.Screen,0_4_1_0_1_10,2021-12-03T10:02:03.941Z,,,,,,,,,,,,,,,,2,,,,,,,,,,,,,,356.72500000595755,,response,,,1,C,,,,,Space,keypress(Space),,,,instrumental,--- ---- ------ --- ------- ---------- ------- ----------<br>--- --------- the ----------- ------- ----- ------- ---<br>--------- ---- -- --- ---- -- --------- -- ---- -------<br>-- --------- ------ --- ----- ------ ---- --- --------- --<br>------ - ---- -- --- ----------- ------- ---- ----- -----<br>--- -------- - ------ ---- -- ----- ---- --- --- -----------<br>-- -------,123925.20000000298,123924.40000000596,123551.005,123565.40000000596,123567.675,123934.482,,10,the
screen,html.Screen,0_4_1_0_1_11,2021-12-03T10:02:04.197Z,,,,,,,,,,,,,,,,2,,,,,,,,,,,,,,246.0179999999964,,response,,,1,C,,,,,Space,keypress(Space),,,,instrumental,--- ---- ------ --- ------- ---------- ------- ----------<br>--- --------- --- interesting ------- ----- ------- ---<br>--------- ---- -- --- ---- -- --------- -- ---- -------<br>-- --------- ------ --- ----- ------ ---- --- --------- --<br>------ - ---- -- --- ----------- ------- ---- ----- -----<br>--- -------- - ------ ---- -- ----- ---- --- --- -----------<br>-- -------,124181.29999999702,124180.5,123917.811,123925.40000000596,123934.482,124184.517,,11,interesting
screen,html.Screen,0_4_1_0_1_12,2021-12-03T10:02:04.509Z,,,,,,,,,,,,,,,,2,,,,,,,,,,,,,,307.9829999999929,,response,,,1,C,,,,,Space,keypress(Space),,,,instrumental,--- ---- ------ --- ------- ---------- ------- ----------<br>--- --------- --- ----------- sunspot ----- ------- ---<br>--------- ---- -- --- ---- -- --------- -- ---- -------<br>-- --------- ------ --- ----- ------ ---- --- --------- --<br>------ - ---- -- --- ----------- ------- ---- ----- -----<br>--- -------- - ------ ---- -- ----- ---- --- --- -----------<br>-- -------,124493.29999999702,124492.5,124167.847,124181.5,124184.517,124501.274,,12,sunspot
screen,html.Screen,0_4_1_0_1_13,2021-12-03T10:02:04.829Z,,,,,,,,,,,,,,,,2,,,,,,,,,,,,,,311.2259999999951,,response,,,1,C,,,,,Space,keypress(Space),,,,instrumental,--- ---- ------ --- ------- ---------- ------- ----------<br>--- --------- --- ----------- ------- group ------- ---<br>--------- ---- -- --- ---- -- --------- -- ---- -------<br>-- --------- ------ --- ----- ------ ---- --- --------- --<br>------ - ---- -- --- ----------- ------- ---- ----- -----<br>--- -------- - ------ ---- -- ----- ---- --- --- -----------<br>-- -------,124813.20000000298,124812.5,124484.604,124493.40000000596,124501.274,124818.007,,13,group
screen,html.Screen,0_4_1_0_1_14,2021-12-03T10:02:05.149Z,,,,,,,,,,,,,,,,2,,,,,,,,,,,,,,314.3930000059627,,response,,,1,C,,,,,Space,keypress(Space),,,,instrumental,--- ---- ------ --- ------- ---------- ------- ----------<br>--- --------- --- ----------- ------- ----- through ---<br>--------- ---- -- --- ---- -- --------- -- ---- -------<br>-- --------- ------ --- ----- ------ ---- --- --------- --<br>------ - ---- -- --- ----------- ------- ---- ----- -----<br>--- -------- - ------ ---- -- ----- ---- --- --- -----------<br>-- -------,125133.20000000298,125132.40000000596,124801.337,124813.5,124818.007,125134.656,,14,through
screen,html.Screen,0_4_1_0_1_15,2021-12-03T10:02:05.493Z,,,,,,,,,,,,,,,,2,,,,,,,,,,,,,,341.7440000059578,,response,,,1,C,,,,,Space,keypress(Space),,,,instrumental,--- ---- ------ --- ------- ---------- ------- ----------<br>--- --------- --- ----------- ------- ----- ------- his<br>--------- ---- -- --- ---- -- --------- -- ---- -------<br>-- --------- ------ --- ----- ------ ---- --- --------- --<br>------ - ---- -- --- ----------- ------- ---- ----- -----<br>--- -------- - ------ ---- -- ----- ---- --- --- -----------<br>-- -------,125477.09999999404,125476.40000000596,125117.988,125133.5,125134.656,125484.977,,15,his
screen,html.Screen,0_4_1_0_1_16,2021-12-03T10:02:05.797Z,,,,,,,,,,,,,,,,2,,,,,,,,,,,,,,295.52300000000105,,response,,,1,C,,,,,Space,keypress(Space),,,,instrumental,--- ---- ------ --- ------- ---------- ------- ----------<br>--- --------- --- ----------- ------- ----- ------- ---<br>telescope ---- -- --- ---- -- --------- -- ---- -------<br>-- --------- ------ --- ----- ------ ---- --- --------- --<br>------ - ---- -- --- ----------- ------- ---- ----- -----<br>--- -------- - ------ ---- -- ----- ---- --- --- -----------<br>-- -------,125781.20000000298,125780.5,125468.304,125477.40000000596,125484.977,125784.951,,16,telescope
screen,html.Screen,0_4_1_0_1_17,2021-12-03T10:02:06.101Z,,,,,,,,,,,,,,,,2,,,,,,,,,,,,,,299.34899999701884,,response,,,1,C,,,,,Space,keypress(Space),,,,instrumental,--- ---- ------ --- ------- ---------- ------- ----------<br>--- --------- --- ----------- ------- ----- ------- ---<br>--------- when -- --- ---- -- --------- -- ---- -------<br>-- --------- ------ --- ----- ------ ---- --- --------- --<br>------ - ---- -- --- ----------- ------- ---- ----- -----<br>--- -------- - ------ ---- -- ----- ---- --- --- -----------<br>-- -------,126085.09999999404,126084.29999999702,125768.281,125781.5,125784.951,126101.694,,17,when
screen,html.Screen,0_4_1_0_1_18,2021-12-03T10:02:06.421Z,,,,,,,,,,,,,,,,2,,,,,,,,,,,,,,302.5060000029771,,response,,,1,C,,,,,Space,keypress(Space),,,,instrumental,--- ---- ------ --- ------- ---------- ------- ----------<br>--- --------- --- ----------- ------- ----- ------- ---<br>--------- ---- he --- ---- -- --------- -- ---- -------<br>-- --------- ------ --- ----- ------ ---- --- --------- --<br>------ - ---- -- --- ----------- ------- ---- ----- -----<br>--- -------- - ------ ---- -- ----- ---- --- --- -----------<br>-- -------,126405.09999999404,126404.20000000298,126085.024,126085.29999999702,126101.694,126418.476,,18,he
screen,html.Screen,0_4_1_0_1_19,2021-12-03T10:02:06.741Z,,,,,,,,,,,,,,,,2,,,,,,,,,,,,,,305.82399999702466,,response,,,1,C,,,,,Space,keypress(Space),,,,instrumental,--- ---- ------ --- ------- ---------- ------- ----------<br>--- --------- --- ----------- ------- ----- ------- ---<br>--------- ---- -- saw ---- -- --------- -- ---- -------<br>-- --------- ------ --- ----- ------ ---- --- --------- --<br>------ - ---- -- --- ----------- ------- ---- ----- -----<br>--- -------- - ------ ---- -- ----- ---- --- --- -----------<br>-- -------,126725.09999999404,126724.29999999702,126401.805,126405.29999999702,126418.476,126735.194,,19,saw
screen,html.Screen,0_4_1_0_1_20,2021-12-03T10:02:07.045Z,,,,,,,,,,,,,,,,2,,,,,,,,,,,,,,293.1059999970166,,response,,,1,C,,,,,Space,keypress(Space),,,,instrumental,--- ---- ------ --- ------- ---------- ------- ----------<br>--- --------- --- ----------- ------- ----- ------- ---<br>--------- ---- -- --- what -- --------- -- ---- -------<br>-- --------- ------ --- ----- ------ ---- --- --------- --<br>------ - ---- -- --- ----------- ------- ---- ----- -----<br>--- -------- - ------ ---- -- ----- ---- --- --- -----------<br>-- -------,127029.09999999404,127028.29999999702,126718.524,126725.29999999702,126735.194,127035.209,,20,what
screen,html.Screen,0_4_1_0_1_21,2021-12-03T10:02:07.325Z,,,,,,,,,,,,,,,,2,,,,,,,,,,,,,,273.0909999970172,,response,,,1,C,,,,,Space,keypress(Space),,,,instrumental,--- ---- ------ --- ------- ---------- ------- ----------<br>--- --------- --- ----------- ------- ----- ------- ---<br>--------- ---- -- --- ---- he --------- -- ---- -------<br>-- --------- ------ --- ----- ------ ---- --- --------- --<br>------ - ---- -- --- ----------- ------- ---- ----- -----<br>--- -------- - ------ ---- -- ----- ---- --- --- -----------<br>-- -------,127309.09999999404,127308.29999999702,127018.54,127029.29999999702,127035.209,127318.739,,21,he
screen,html.Screen,0_4_1_0_1_22,2021-12-03T10:02:07.637Z,,,,,,,,,,,,,,,,2,,,,,,,,,,,,,,301.66100000595907,,response,,,1,C,,,,,Space,keypress(Space),,,,instrumental,--- ---- ------ --- ------- ---------- ------- ----------<br>--- --------- --- ----------- ------- ----- ------- ---<br>--------- ---- -- --- ---- -- described -- ---- -------<br>-- --------- ------ --- ----- ------ ---- --- --------- --<br>------ - ---- -- --- ----------- ------- ---- ----- -----<br>--- -------- - ------ ---- -- ----- ---- --- --- -----------<br>-- -------,127621.09999999404,127620.40000000596,127302.067,127309.29999999702,127318.739,127635.373,,22,described
screen,html.Screen,0_4_1_0_1_23,2021-12-03T10:02:07.941Z,,,,,,,,,,,,,,,,2,,,,,,,,,,,,,,288.82700000297336,,response,,,1,C,,,,,Space,keypress(Space),,,,instrumental,--- ---- ------ --- ------- ---------- ------- ----------<br>--- --------- --- ----------- ------- ----- ------- ---<br>--------- ---- -- --- ---- -- --------- as ---- -------<br>-- --------- ------ --- ----- ------ ---- --- --------- --<br>------ - ---- -- --- ----------- ------- ---- ----- -----<br>--- -------- - ------ ---- -- ----- ---- --- --- -----------<br>-- -------,127925,127924.20000000298,127618.704,127621.40000000596,127635.373,127935.576,,23,as
screen,html.Screen,0_4_1_0_1_24,2021-12-03T10:02:08.245Z,,,,,,,,,,,,,,,,2,,,,,,,,,,,,,,292.72399999701884,,response,,,1,C,,,,,Space,keypress(Space),,,,instrumental,"--- ---- ------ --- ------- ---------- ------- ----------<br>--- --------- --- ----------- ------- ----- ------- ---<br>--------- ---- -- --- ---- -- --------- -- ""two -------<br>-- --------- ------ --- ----- ------ ---- --- --------- --<br>------ - ---- -- --- ----------- ------- ---- ----- -----<br>--- -------- - ------ ---- -- ----- ---- --- --- -----------<br>-- -------",128229.09999999404,128228.29999999702,127918.904,127925.20000000298,127935.576,128235.596,,24,"""two"
screen,html.Screen,0_4_1_0_1_25,2021-12-03T10:02:08.581Z,,,,,,,,,,,,,,,,2,,,,,,,,,,,,,,328.6040000029752,,response,,,1,C,,,,,Space,keypress(Space),,,,instrumental,--- ---- ------ --- ------- ---------- ------- ----------<br>--- --------- --- ----------- ------- ----- ------- ---<br>--------- ---- -- --- ---- -- --------- -- ---- patches<br>-- --------- ------ --- ----- ------ ---- --- --------- --<br>------ - ---- -- --- ----------- ------- ---- ----- -----<br>--- -------- - ------ ---- -- ----- ---- --- --- -----------<br>-- -------,128565,128564.20000000298,128218.926,128229.29999999702,128235.596,128569.047,,25,patches
screen,html.Screen,0_4_1_0_1_26,2021-12-03T10:02:08.965Z,,,,,,,,,,,,,,,,2,,,,,,,,,,,,,,379.25299999701383,,response,,,1,C,,,,,Space,keypress(Space),,,,instrumental,--- ---- ------ --- ------- ---------- ------- ----------<br>--- --------- --- ----------- ------- ----- ------- ---<br>--------- ---- -- --- ---- -- --------- -- ---- -------<br>of --------- ------ --- ----- ------ ---- --- --------- --<br>------ - ---- -- --- ----------- ------- ---- ----- -----<br>--- -------- - ------ ---- -- ----- ---- --- --- -----------<br>-- -------,128949.09999999404,128948.29999999702,128552.376,128565.20000000298,128569.047,128952.443,,26,of
screen,html.Screen,0_4_1_0_1_27,2021-12-03T10:02:09.405Z,,,,,,,,,,,,,,,,2,,,,,,,,,,,,,,435.85699999702047,,response,,,1,C,,,,,Space,keypress(Space),,,,instrumental,--- ---- ------ --- ------- ---------- ------- ----------<br>--- --------- --- ----------- ------- ----- ------- ---<br>--------- ---- -- --- ---- -- --------- -- ---- -------<br>-- intensely ------ --- ----- ------ ---- --- --------- --<br>------ - ---- -- --- ----------- ------- ---- ----- -----<br>--- -------- - ------ ---- -- ----- ---- --- --- -----------<br>-- -------,129389.09999999404,129388.29999999702,128935.773,128949.29999999702,128952.443,129402.603,,27,intensely
screen,html.Screen,0_4_1_0_1_28,2021-12-03T10:02:09.781Z,,,,,,,,,,,,,,,,2,,,,,,,,,,,,,,361.59700000297744,,response,,,1,C,,,,,Space,keypress(Space),,,,instrumental,--- ---- ------ --- ------- ---------- ------- ----------<br>--- --------- --- ----------- ------- ----- ------- ---<br>--------- ---- -- --- ---- -- --------- -- ---- -------<br>-- --------- bright --- ----- ------ ---- --- --------- --<br>------ - ---- -- --- ----------- ------- ---- ----- -----<br>--- -------- - ------ ---- -- ----- ---- --- --- -----------<br>-- -------,129764.90000000596,129764.20000000298,129385.932,129389.29999999702,129402.603,129769.34,,28,bright
screen,html.Screen,0_4_1_0_1_29,2021-12-03T10:02:10.157Z,,,,,,,,,,,,,,,,2,,,,,,,,,,,,,,370.8600000029837,,response,,,1,C,,,,,Space,keypress(Space),,,,instrumental,--- ---- ------ --- ------- ---------- ------- ----------<br>--- --------- --- ----------- ------- ----- ------- ---<br>--------- ---- -- --- ---- -- --------- -- ---- -------<br>-- --------- ------ and ----- ------ ---- --- --------- --<br>------ - ---- -- --- ----------- ------- ---- ----- -----<br>--- -------- - ------ ---- -- ----- ---- --- --- -----------<br>-- -------,130141.09999999404,130140.20000000298,129752.67,129765.09999999404,129769.34,130152.766,,29,and
screen,html.Screen,0_4_1_0_1_30,2021-12-03T10:02:10.581Z,,,,,,,,,,,,,,,,2,,,,,,,,,,,,,,411.3339999940363,,response,,,1,C,,,,,Space,keypress(Space),,,,instrumental,--- ---- ------ --- ------- ---------- ------- ----------<br>--- --------- --- ----------- ------- ----- ------- ---<br>--------- ---- -- --- ---- -- --------- -- ---- -------<br>-- --------- ------ --- white ------ ---- --- --------- --<br>------ - ---- -- --- ----------- ------- ---- ----- -----<br>--- -------- - ------ ---- -- ----- ---- --- --- -----------<br>-- -------,130564.90000000596,130564.09999999404,130136.096,130141.20000000298,130152.766,130569.469,,30,white
screen,html.Screen,0_4_1_0_1_31,2021-12-03T10:02:10.941Z,,,,,,,,,,,,,,,,2,,,,,,,,,,,,,,355.0310000000027,,response,,,1,C,,,,,Space,keypress(Space),,,,instrumental,"--- ---- ------ --- ------- ---------- ------- ----------<br>--- --------- --- ----------- ------- ----- ------- ---<br>--------- ---- -- --- ---- -- --------- -- ---- -------<br>-- --------- ------ --- ----- light"" ---- --- --------- --<br>------ - ---- -- --- ----------- ------- ---- ----- -----<br>--- -------- - ------ ---- -- ----- ---- --- --- -----------<br>-- -------",130925.40000000596,130924.5,130552.8,130565.09999999404,130569.469,130936.387,,31,"light"""
screen,html.Screen,0_4_1_0_1_32,2021-12-03T10:02:11.237Z,,,,,,,,,,,,,,,,2,,,,,,,,,,,,,,283.9129999970173,,response,,,1,C,,,,,Space,keypress(Space),,,,instrumental,--- ---- ------ --- ------- ---------- ------- ----------<br>--- --------- --- ----------- ------- ----- ------- ---<br>--------- ---- -- --- ---- -- --------- -- ---- -------<br>-- --------- ------ --- ----- ------ over --- --------- --<br>------ - ---- -- --- ----------- ------- ---- ----- -----<br>--- -------- - ------ ---- -- ----- ---- --- --- -----------<br>-- -------,131221,131220.29999999702,130919.715,130925.59999999404,130936.387,131236.388,,32,over
screen,html.Screen,0_4_1_0_1_33,2021-12-03T10:02:11.533Z,,,,,,,,,,,,,,,,2,,,,,,,,,,,,,,279.71199999403325,,response,,,1,C,,,,,Space,keypress(Space),,,,instrumental,--- ---- ------ --- ------- ---------- ------- ----------<br>--- --------- --- ----------- ------- ----- ------- ---<br>--------- ---- -- --- ---- -- --------- -- ---- -------<br>-- --------- ------ --- ----- ------ ---- the --------- --<br>------ - ---- -- --- ----------- ------- ---- ----- -----<br>--- -------- - ------ ---- -- ----- ---- --- --- -----------<br>-- -------,131516.90000000596,131516.09999999404,131219.718,131221.20000000298,131236.388,131519.724,,33,the
screen,html.Screen,0_4_1_0_1_34,2021-12-03T10:02:11.813Z,,,,,,,,,,,,,,,,2,,,,,,,,,,,,,,276.4760000029928,,response,,,1,C,,,,,Space,keypress(Space),,,,instrumental,--- ---- ------ --- ------- ---------- ------- ----------<br>--- --------- --- ----------- ------- ----- ------- ---<br>--------- ---- -- --- ---- -- --------- -- ---- -------<br>-- --------- ------ --- ----- ------ ---- --- sunspots. --<br>------ - ---- -- --- ----------- ------- ---- ----- -----<br>--- -------- - ------ ---- -- ----- ---- --- --- -----------<br>-- -------,131797.09999999404,131796.20000000298,131503.055,131517.09999999404,131519.724,131803.116,,34,sunspots.
screen,html.Screen,0_4_1_0_1_35,2021-12-03T10:02:12.117Z,,,,,,,,,,,,,,,,2,,,,,,,,,,,,,,297.08400000297115,,response,,,1,C,,,,,Space,keypress(Space),,,,instrumental,--- ---- ------ --- ------- ---------- ------- ----------<br>--- --------- --- ----------- ------- ----- ------- ---<br>--------- ---- -- --- ---- -- --------- -- ---- -------<br>-- --------- ------ --- ----- ------ ---- --- --------- He<br>------ - ---- -- --- ----------- ------- ---- ----- -----<br>--- -------- - ------ ---- -- ----- ---- --- --- -----------<br>-- -------,132100.90000000596,132100.20000000298,131786.447,131797.29999999702,131803.116,132103.416,,35,He
screen,html.Screen,0_4_1_0_1_36,2021-12-03T10:02:12.429Z,,,,,,,,,,,,,,,,2,,,,,,,,,,,,,,308.7840000029828,,response,,,1,C,,,,,Space,keypress(Space),,,,instrumental,--- ---- ------ --- ------- ---------- ------- ----------<br>--- --------- --- ----------- ------- ----- ------- ---<br>--------- ---- -- --- ---- -- --------- -- ---- -------<br>-- --------- ------ --- ----- ------ ---- --- --------- --<br>jotted - ---- -- --- ----------- ------- ---- ----- -----<br>--- -------- - ------ ---- -- ----- ---- --- --- -----------<br>-- -------,132412.90000000596,132412.20000000298,132086.742,132101.09999999404,132103.416,132420.034,,36,jotted
screen,html.Screen,0_4_1_0_1_37,2021-12-03T10:02:12.757Z,,,,,,,,,,,,,,,,2,,,,,,,,,,,,,,320.06599999402533,,response,,,1,C,,,,,Space,keypress(Space),,,,instrumental,--- ---- ------ --- ------- ---------- ------- ----------<br>--- --------- --- ----------- ------- ----- ------- ---<br>--------- ---- -- --- ---- -- --------- -- ---- -------<br>-- --------- ------ --- ----- ------ ---- --- --------- --<br>------ a ---- -- --- ----------- ------- ---- ----- -----<br>--- -------- - ------ ---- -- ----- ---- --- --- -----------<br>-- -------,132740.79999999702,132740.09999999404,132403.364,132413.09999999404,132420.034,132753.462,,37,a
screen,html.Screen,0_4_1_0_1_38,2021-12-03T10:02:13.053Z,,,,,,,,,,,,,,,,2,,,,,,,,,,,,,,282.63799999404,,response,,,1,C,,,,,Space,keypress(Space),,,,instrumental,--- ---- ------ --- ------- ---------- ------- ----------<br>--- --------- --- ----------- ------- ----- ------- ---<br>--------- ---- -- --- ---- -- --------- -- ---- -------<br>-- --------- ------ --- ----- ------ ---- --- --------- --<br>------ - note -- --- ----------- ------- ---- ----- -----<br>--- -------- - ------ ---- -- ----- ---- --- --- -----------<br>-- -------,133037,133036.09999999404,132736.792,132741.09999999404,132753.462,133053.422,,38,note
screen,html.Screen,0_4_1_0_1_39,2021-12-03T10:02:13.349Z,,,,,,,,,,,,,,,,2,,,,,,,,,,,,,,278.67799999404815,,response,,,1,C,,,,,Space,keypress(Space),,,,instrumental,--- ---- ------ --- ------- ---------- ------- ----------<br>--- --------- --- ----------- ------- ----- ------- ---<br>--------- ---- -- --- ---- -- --------- -- ---- -------<br>-- --------- ------ --- ----- ------ ---- --- --------- --<br>------ - ---- in --- ----------- ------- ---- ----- -----<br>--- -------- - ------ ---- -- ----- ---- --- --- -----------<br>-- -------,133332.90000000596,133332.09999999404,133036.754,133037.20000000298,133053.422,133337.046,,39,in
screen,html.Screen,0_4_1_0_1_40,2021-12-03T10:02:13.613Z,,,,,,,,,,,,,,,,2,,,,,,,,,,,,,,259.05399999403744,,response,,,1,C,,,,,Space,keypress(Space),,,,instrumental,--- ---- ------ --- ------- ---------- ------- ----------<br>--- --------- --- ----------- ------- ----- ------- ---<br>--------- ---- -- --- ---- -- --------- -- ---- -------<br>-- --------- ------ --- ----- ------ ---- --- --------- --<br>------ - ---- -- his ----------- ------- ---- ----- -----<br>--- -------- - ------ ---- -- ----- ---- --- --- -----------<br>-- -------,133596.79999999702,133596.09999999404,133320.373,133333.09999999404,133337.046,133603.723,,40,his
screen,html.Screen,0_4_1_0_1_41,2021-12-03T10:02:13.869Z,,,,,,,,,,,,,,,,2,,,,,,,,,,,,,,248.27700000000186,,response,,,1,C,,,,,Space,keypress(Space),,,,instrumental,--- ---- ------ --- ------- ---------- ------- ----------<br>--- --------- --- ----------- ------- ----- ------- ---<br>--------- ---- -- --- ---- -- --------- -- ---- -------<br>-- --------- ------ --- ----- ------ ---- --- --------- --<br>------ - ---- -- --- painstaking ------- ---- ----- -----<br>--- -------- - ------ ---- -- ----- ---- --- --- -----------<br>-- -------,133853.09999999404,133852,133587.052,133597.09999999404,133603.723,133870.44,,41,painstaking
screen,html.Screen,0_4_1_0_1_42,2021-12-03T10:02:14.285Z,,,,,,,,,,,,,,,,2,,,,,,,,,,,,,,397.5599999999977,,response,,,1,C,,,,,Space,keypress(Space),,,,instrumental,--- ---- ------ --- ------- ---------- ------- ----------<br>--- --------- --- ----------- ------- ----- ------- ---<br>--------- ---- -- --- ---- -- --------- -- ---- -------<br>-- --------- ------ --- ----- ------ ---- --- --------- --<br>------ - ---- -- --- ----------- record. ---- ----- -----<br>--- -------- - ------ ---- -- ----- ---- --- --- -----------<br>-- -------,134268.79999999702,134268,133853.77,133853.20000000298,133870.44,134270.512,,42,record.
screen,html.Screen,0_4_1_0_1_43,2021-12-03T10:02:14.549Z,,,,,,,,,,,,,,,,2,,,,,,,,,,,,,,261.4880000000121,,response,,,1,C,,,,,Space,keypress(Space),,,,instrumental,--- ---- ------ --- ------- ---------- ------- ----------<br>--- --------- --- ----------- ------- ----- ------- ---<br>--------- ---- -- --- ---- -- --------- -- ---- -------<br>-- --------- ------ --- ----- ------ ---- --- --------- --<br>------ - ---- -- --- ----------- ------- That ----- -----<br>--- -------- - ------ ---- -- ----- ---- --- --- -----------<br>-- -------,134532.79999999702,134532,134253.842,134269.09999999404,134270.512,134537.319,,43,That
screen,html.Screen,0_4_1_0_1_44,2021-12-03T10:02:14.877Z,,,,,,,,,,,,,,,,2,,,,,,,,,,,,,,322.6810000000114,,response,,,1,C,,,,,Space,keypress(Space),,,,instrumental,--- ---- ------ --- ------- ---------- ------- ----------<br>--- --------- --- ----------- ------- ----- ------- ---<br>--------- ---- -- --- ---- -- --------- -- ---- -------<br>-- --------- ------ --- ----- ------ ---- --- --------- --<br>------ - ---- -- --- ----------- ------- ---- night -----<br>--- -------- - ------ ---- -- ----- ---- --- --- -----------<br>-- -------,134860.79999999702,134860,134520.648,134533,134537.319,134870.582,,44,night
screen,html.Screen,0_4_1_0_1_45,2021-12-03T10:02:15.237Z,,,,,,,,,,,,,,,,2,,,,,,,,,,,,,,349.4180000000051,,response,,,1,C,,,,,Space,keypress(Space),,,,instrumental,--- ---- ------ --- ------- ---------- ------- ----------<br>--- --------- --- ----------- ------- ----- ------- ---<br>--------- ---- -- --- ---- -- --------- -- ---- -------<br>-- --------- ------ --- ----- ------ ---- --- --------- --<br>------ - ---- -- --- ----------- ------- ---- ----- there<br>--- -------- - ------ ---- -- ----- ---- --- --- -----------<br>-- -------,135220.79999999702,135220,134853.914,134861.09999999404,134870.582,135237.57,,45,there
screen,html.Screen,0_4_1_0_1_46,2021-12-03T10:02:15.605Z,,,,,,,,,,,,,,,,2,,,,,,,,,,,,,,350.429999999993,,response,,,1,C,,,,,Space,keypress(Space),,,,instrumental,--- ---- ------ --- ------- ---------- ------- ----------<br>--- --------- --- ----------- ------- ----- ------- ---<br>--------- ---- -- --- ---- -- --------- -- ---- -------<br>-- --------- ------ --- ----- ------ ---- --- --------- --<br>------ - ---- -- --- ----------- ------- ---- ----- -----<br>was -------- - ------ ---- -- ----- ---- --- --- -----------<br>-- -------,135588.79999999702,135588,135220.897,135221.09999999404,135237.57,135604.082,,46,was
screen,html.Screen,0_4_1_0_1_47,2021-12-03T10:02:15.909Z,,,,,,,,,,,,,,,,2,,,,,,,,,,,,,,287.9180000000051,,response,,,1,C,,,,,Space,keypress(Space),,,,instrumental,--- ---- ------ --- ------- ---------- ------- ----------<br>--- --------- --- ----------- ------- ----- ------- ---<br>--------- ---- -- --- ---- -- --------- -- ---- -------<br>-- --------- ------ --- ----- ------ ---- --- --------- --<br>------ - ---- -- --- ----------- ------- ---- ----- -----<br>--- scarcely - ------ ---- -- ----- ---- --- --- -----------<br>-- -------,135892.90000000596,135892,135587.414,135589,135604.082,135904.259,,47,scarcely
screen,html.Screen,0_4_1_0_1_48,2021-12-03T10:02:16.244Z,,,,,,,,,,,,,,,,2,,,,,,,,,,,,,,323.54099999702885,,response,,,1,C,,,,,Space,keypress(Space),,,,instrumental,--- ---- ------ --- ------- ---------- ------- ----------<br>--- --------- --- ----------- ------- ----- ------- ---<br>--------- ---- -- --- ---- -- --------- -- ---- -------<br>-- --------- ------ --- ----- ------ ---- --- --------- --<br>------ - ---- -- --- ----------- ------- ---- ----- -----<br>--- -------- a ------ ---- -- ----- ---- --- --- -----------<br>-- -------,136228.5,136227.79999999702,135887.589,135893.09999999404,135904.259,136237.823,,48,a
screen,html.Screen,0_4_1_0_1_49,2021-12-03T10:02:16.549Z,,,,,,,,,,,,,,,,2,,,,,,,,,,,,,,294.17699999999604,,response,,,1,C,,,,,Space,keypress(Space),,,,instrumental,--- ---- ------ --- ------- ---------- ------- ----------<br>--- --------- --- ----------- ------- ----- ------- ---<br>--------- ---- -- --- ---- -- --------- -- ---- -------<br>-- --------- ------ --- ----- ------ ---- --- --------- --<br>------ - ---- -- --- ----------- ------- ---- ----- -----<br>--- -------- - square ---- -- ----- ---- --- --- -----------<br>-- -------,136532.70000000298,136532,136221.15,136228.79999999702,136237.823,136537.812,,49,square
