sender,sender_type,sender_id,timestamp,meta,,Blues,Classical,Country,Dance,Electronic,Folk,Gospel,Hip-Hop,Jazz,Latin,Musical/Film,New-age,Pop,Provo_ID,R&B,Rap,Reggae,Religious,Rock,Soul,Swing,Traditional,age,artist_name,correct,correctResponse,distraction,duration,education,ended_on,familiarity,gender,item,list,music_frequency,offensiveness,pleasantness,preference,response,response_action,snippet_file,song_name,song_rating,sound,text,time_commit,time_end,time_render,time_run,time_show,time_switch,url,word,word_ID
Instructions,html.Page,0_0,2021-11-19T11:56:30.126Z,"{""labjs_version"":""20.2.3"",""labjs_build"":{""flavor"":""production"",""commit"":""7ea907d66ca8aeef8054924ca5d82ffbe11e34e5""},""location"":""https://run.pavlovia.org/mvasilev/lab_music_c/"",""userAgent"":""Mozilla/5.0 (Windows NT 6.1; Win64; x64) AppleWebKit/537.36 (KHTML, like Gecko) Chrome/96.0.4664.45 Safari/537.36"",""platform"":""Win32"",""language"":""en-US"",""locale"":""en-US"",""timeZone"":""Europe/London"",""timezoneOffset"":0,""screen_width"":1920,""screen_height"":1080,""scroll_width"":1920,""scroll_height"":959,""window_innerWidth"":1920,""window_innerHeight"":1007,""devicePixelRatio"":1}",,,,,,,,,,,,,,,,,,,,,,,,,,,,,37561.218999928475,,form submission,,,,,,,,,,,,,,,,46898.89999997616,46897.699999928474,9319.811,9318.699999928474,9336.481,46895.602,{},,
Headphones,html.Page,0_1,2021-11-19T11:56:30.431Z,,,,,,,,,,,,,,,,,,,,,,,,,,,,,,308.2979999761592,,form submission,,,,,,,,,,,,,,,,47204.39999997616,47203.89999997616,46878.932,46899.60000002384,46895.602,47212.449,,,
Holding screen,html.Screen,0_2_0_0,2021-11-19T11:56:40.432Z,,,,,,,,,,,,,,,,,,,,,,,,,,,,,,10002.167999999998,,timeout,,,,,,,,,,,,,,,,57204.89999997616,57197.948,47195.777,47204.799999952316,47212.449,57214.617,,,
screen,html.Screen,0_2_0_1_0,2021-11-19T11:56:41.262Z,,,,,,,,,,,,,,,,53,,,,,,,,,,,,,,819.6829999523179,,response,,,99,,,,,,Space,keypress(Space),,,,,When -- ----- -- ------ - ------- --- ----------<br>------------- ------ ------ ---- ---- ------- ----- -- ----<br>-------- ------- -- ---------- --- - --- ----- ----- ----<br>---- --- --- ----- --- ---- ---- ------- ----- ---- -------<br>--- --- -- ----- -- --- ---- -- --- ---- -- ------ ------<br>--- ----- -- ----,58035.699999928474,58034.299999952316,57197.948,57205.299999952316,57214.617,58048.395,,0,When
screen,html.Screen,0_2_0_1_1,2021-11-19T11:56:41.582Z,,,,,,,,,,,,,,,,53,,,,,,,,,,,,,,305.50499997616134,,response,,,99,,,,,,Space,keypress(Space),,,,,---- it ----- -- ------ - ------- --- ----------<br>------------- ------ ------ ---- ---- ------- ----- -- ----<br>-------- ------- -- ---------- --- - --- ----- ----- ----<br>---- --- --- ----- --- ---- ---- ------- ----- ---- -------<br>--- --- -- ----- -- --- ---- -- --- ---- -- ------ ------<br>--- ----- -- ----,58354.799999952316,58353.89999997616,58031.724,58036,58048.395,58365.072,,1,it
screen,html.Screen,0_2_0_1_2,2021-11-19T11:56:41.877Z,,,,,,,,,,,,,,,,53,,,,,,,,,,,,,,284.827999976158,,response,,,99,,,,,,Space,keypress(Space),,,,,---- -- comes -- ------ - ------- --- ----------<br>------------- ------ ------ ---- ---- ------- ----- -- ----<br>-------- ------- -- ---------- --- - --- ----- ----- ----<br>---- --- --- ----- --- ---- ---- ------- ----- ---- -------<br>--- --- -- ----- -- --- ---- -- --- ---- -- ------ ------<br>--- ----- -- ----,58650.799999952316,58649.89999997616,58348.402,58355.10000002384,58365.072,58665.169,,2,comes
screen,html.Screen,0_2_0_1_3,2021-11-19T11:56:42.278Z,,,,,,,,,,,,,,,,53,,,,,,,,,,,,,,384.73099997615645,,response,,,99,,,,,,Space,keypress(Space),,,,,---- -- ----- to ------ - ------- --- ----------<br>------------- ------ ------ ---- ---- ------- ----- -- ----<br>-------- ------- -- ---------- --- - --- ----- ----- ----<br>---- --- --- ----- --- ---- ---- ------- ----- ---- -------<br>--- --- -- ----- -- --- ---- -- --- ---- -- ------ ------<br>--- ----- -- ----,59050.799999952316,59049.89999997616,58648.499,58651,58665.169,59065.309,,3,to
screen,html.Screen,0_2_0_1_4,2021-11-19T11:56:42.662Z,,,,,,,,,,,,,,,,53,,,,,,,,,,,,,,368.59099997615704,,response,,,99,,,,,,Space,keypress(Space),,,,,---- -- ----- -- having - ------- --- ----------<br>------------- ------ ------ ---- ---- ------- ----- -- ----<br>-------- ------- -- ---------- --- - --- ----- ----- ----<br>---- --- --- ----- --- ---- ---- ------- ----- ---- -------<br>--- --- -- ----- -- --- ---- -- --- ---- -- ------ ------<br>--- ----- -- ----,59434.89999997616,59433.89999997616,59048.638,59051.199999928474,59065.309,59448.643,,4,having
screen,html.Screen,0_2_0_1_5,2021-11-19T11:56:42.973Z,,,,,,,,,,,,,,,,53,,,,,,,,,,,,,,297.25699997616175,,response,,,99,,,,,,Space,keypress(Space),,,,,---- -- ----- -- ------ a ------- --- ----------<br>------------- ------ ------ ---- ---- ------- ----- -- ----<br>-------- ------- -- ---------- --- - --- ----- ----- ----<br>---- --- --- ----- --- ---- ---- ------- ----- ---- -------<br>--- --- -- ----- -- --- ---- -- --- ---- -- ------ ------<br>--- ----- -- ----,59746.699999928474,59745.89999997616,59431.974,59435.299999952316,59448.643,59748.765,,5,a
screen,html.Screen,0_2_0_1_6,2021-11-19T11:56:43.562Z,,,,,,,,,,,,,,,,53,,,,,,,,,,,,,,581.0349999523169,,response,,,99,,,,,,Space,keypress(Space),,,,,---- -- ----- -- ------ - lasting --- ----------<br>------------- ------ ------ ---- ---- ------- ----- -- ----<br>-------- ------- -- ---------- --- - --- ----- ----- ----<br>---- --- --- ----- --- ---- ---- ------- ----- ---- -------<br>--- --- -- ----- -- --- ---- -- --- ---- -- ------ ------<br>--- ----- -- ----,60330.799999952316,60329.799999952316,59732.095,59747.199999928474,59748.765,60332.23,,6,lasting
screen,html.Screen,0_2_0_1_7,2021-11-19T11:56:43.970Z,,,,,,,,,,,,,,,,53,,,,,,,,,,,,,,405.5699999523131,,response,,,99,,,,,,Space,keypress(Space),,,,,---- -- ----- -- ------ - ------- and ----------<br>------------- ------ ------ ---- ---- ------- ----- -- ----<br>-------- ------- -- ---------- --- - --- ----- ----- ----<br>---- --- --- ----- --- ---- ---- ------- ----- ---- -------<br>--- --- -- ----- -- --- ---- -- --- ---- -- ------ ------<br>--- ----- -- ----,60738.699999928474,60737.799999952316,60315.56,60331,60332.23,60749.018,,7,and
screen,html.Screen,0_2_0_1_8,2021-11-19T11:56:44.610Z,,,,,,,,,,,,,,,,53,,,,,,,,,,,,,,628.681999928478,,response,,,99,,,,,,Space,keypress(Space),,,,,---- -- ----- -- ------ - ------- --- fulfilling<br>------------- ------ ------ ---- ---- ------- ----- -- ----<br>-------- ------- -- ---------- --- - --- ----- ----- ----<br>---- --- --- ----- --- ---- ---- ------- ----- ---- -------<br>--- --- -- ----- -- --- ---- -- --- ---- -- ------ ------<br>--- ----- -- ----,61378.799999952316,61377.699999928474,60732.348,60739,60749.018,61382.502,,8,fulfilling
screen,html.Screen,0_2_0_1_9,2021-11-19T11:56:44.970Z,,,,,,,,,,,,,,,,53,,,,,,,,,,,,,,355.197999928474,,response,,,99,,,,,,Space,keypress(Space),,,,,"---- -- ----- -- ------ - ------- --- ----------<br>relationship, ------ ------ ---- ---- ------- ----- -- ----<br>-------- ------- -- ---------- --- - --- ----- ----- ----<br>---- --- --- ----- --- ---- ---- ------- ----- ---- -------<br>--- --- -- ----- -- --- ---- -- --- ---- -- ------ ------<br>--- ----- -- ----",61738.60000002384,61737.699999928474,61365.832,61379.199999928474,61382.502,61749.115,,9,"relationship,"
screen,html.Screen,0_2_0_1_10,2021-11-19T11:56:45.850Z,,,,,,,,,,,,,,,,53,,,,,,,,,,,,,,868.5849999284765,,response,,,99,,,,,,Space,keypress(Space),,,,,---- -- ----- -- ------ - ------- --- ----------<br>------------- common ------ ---- ---- ------- ----- -- ----<br>-------- ------- -- ---------- --- - --- ----- ----- ----<br>---- --- --- ----- --- ---- ---- ------- ----- ---- -------<br>--- --- -- ----- -- --- ---- -- --- ---- -- ------ ------<br>--- ----- -- ----,62618.5,62617.699999928474,61732.447,61738.89999997616,61749.115,62632.853,,10,common
screen,html.Screen,0_2_0_1_11,2021-11-19T11:56:46.226Z,,,,,,,,,,,,,,,,53,,,,,,,,,,,,,,360.74700002383906,,response,,,99,,,,,,Space,keypress(Space),,,,,---- -- ----- -- ------ - ------- --- ----------<br>------------- ------ wisdom ---- ---- ------- ----- -- ----<br>-------- ------- -- ---------- --- - --- ----- ----- ----<br>---- --- --- ----- --- ---- ---- ------- ----- ---- -------<br>--- --- -- ----- -- --- ---- -- --- ---- -- ------ ------<br>--- ----- -- ----,62994.5,62993.60000002384,62616.182,62618.799999952316,62632.853,62999.518,,11,wisdom
screen,html.Screen,0_2_0_1_12,2021-11-19T11:56:46.561Z,,,,,,,,,,,,,,,,53,,,,,,,,,,,,,,330.08200002384547,,response,,,99,,,,,,Space,keypress(Space),,,,,---- -- ----- -- ------ - ------- --- ----------<br>------------- ------ ------ says ---- ------- ----- -- ----<br>-------- ------- -- ---------- --- - --- ----- ----- ----<br>---- --- --- ----- --- ---- ---- ------- ----- ---- -------<br>--- --- -- ----- -- --- ---- -- --- ---- -- ------ ------<br>--- ----- -- ----,63330.299999952316,63329.60000002384,62982.848,62994.799999952316,62999.518,63332.972,,12,says
screen,html.Screen,0_2_0_1_13,2021-11-19T11:56:46.969Z,,,,,,,,,,,,,,,,53,,,,,,,,,,,,,,404.6280000238403,,response,,,99,,,,,,Space,keypress(Space),,,,,---- -- ----- -- ------ - ------- --- ----------<br>------------- ------ ------ ---- that ------- ----- -- ----<br>-------- ------- -- ---------- --- - --- ----- ----- ----<br>---- --- --- ----- --- ---- ---- ------- ----- ---- -------<br>--- --- -- ----- -- --- ---- -- --- ---- -- ------ ------<br>--- ----- -- ----,63738.299999952316,63737.60000002384,63316.302,63330.60000002384,63332.972,63749.738,,13,that
screen,html.Screen,0_2_0_1_14,2021-11-19T11:56:47.337Z,,,,,,,,,,,,,,,,53,,,,,,,,,,,,,,355.8620000238443,,response,,,99,,,,,,Space,keypress(Space),,,,,---- -- ----- -- ------ - ------- --- ----------<br>------------- ------ ------ ---- ---- feeling ----- -- ----<br>-------- ------- -- ---------- --- - --- ----- ----- ----<br>---- --- --- ----- --- ---- ---- ------- ----- ---- -------<br>--- --- -- ----- -- --- ---- -- --- ---- -- ------ ------<br>--- ----- -- ----,64106.39999997616,64105.60000002384,63733.068,63738.60000002384,63749.738,64116.508,,14,feeling
screen,html.Screen,0_2_0_1_15,2021-11-19T11:56:47.761Z,,,,,,,,,,,,,,,,53,,,,,,,,,,,,,,412.99199999999837,,response,,,99,,,,,,Space,keypress(Space),,,,,---- -- ----- -- ------ - ------- --- ----------<br>------------- ------ ------ ---- ---- ------- close -- ----<br>-------- ------- -- ---------- --- - --- ----- ----- ----<br>---- --- --- ----- --- ---- ---- ------- ----- ---- -------<br>--- --- -- ----- -- --- ---- -- --- ---- -- ------ ------<br>--- ----- -- ----,64530.39999997616,64529.5,64099.838,64106.699999928474,64116.508,64533.255,,15,close
screen,html.Screen,0_2_0_1_16,2021-11-19T11:56:48.193Z,,,,,,,,,,,,,,,,53,,,,,,,,,,,,,,428.2450000000026,,response,,,99,,,,,,Space,keypress(Space),,,,,---- -- ----- -- ------ - ------- --- ----------<br>------------- ------ ------ ---- ---- ------- ----- to ----<br>-------- ------- -- ---------- --- - --- ----- ----- ----<br>---- --- --- ----- --- ---- ---- ------- ----- ---- -------<br>--- --- -- ----- -- --- ---- -- --- ---- -- ------ ------<br>--- ----- -- ----,64962.299999952316,64961.5,64516.585,64530.60000002384,64533.255,64966.713,,16,to
screen,html.Screen,0_2_0_1_17,2021-11-19T11:56:48.641Z,,,,,,,,,,,,,,,,53,,,,,,,,,,,,,,442.7869999999966,,response,,,99,,,,,,Space,keypress(Space),,,,,---- -- ----- -- ------ - ------- --- ----------<br>------------- ------ ------ ---- ---- ------- ----- -- your<br>-------- ------- -- ---------- --- - --- ----- ----- ----<br>---- --- --- ----- --- ---- ---- ------- ----- ---- -------<br>--- --- -- ----- -- --- ---- -- --- ---- -- ------ ------<br>--- ----- -- ----,65410.199999928474,65409.5,64950.043,64962.5,64966.713,65416.732,,17,your
screen,html.Screen,0_2_0_1_18,2021-11-19T11:56:49.009Z,,,,,,,,,,,,,,,,53,,,,,,,,,,,,,,360.66799997615453,,response,,,99,,,,,,Space,keypress(Space),,,,,---- -- ----- -- ------ - ------- --- ----------<br>------------- ------ ------ ---- ---- ------- ----- -- ----<br>romantic ------- -- ---------- --- - --- ----- ----- ----<br>---- --- --- ----- --- ---- ---- ------- ----- ---- -------<br>--- --- -- ----- -- --- ---- -- --- ---- -- ------ ------<br>--- ----- -- ----,65778.19999992847,65777.39999997616,65400.063,65410.5,65416.732,65783.613,,18,romantic
screen,html.Screen,0_2_0_1_19,2021-11-19T11:56:49.353Z,,,,,,,,,,,,,,,,53,,,,,,,,,,,,,,337.7869999761606,,response,,,99,,,,,,Space,keypress(Space),,,,,---- -- ----- -- ------ - ------- --- ----------<br>------------- ------ ------ ---- ---- ------- ----- -- ----<br>-------- partner -- ---------- --- - --- ----- ----- ----<br>---- --- --- ----- --- ---- ---- ------- ----- ---- -------<br>--- --- -- ----- -- --- ---- -- --- ---- -- ------ ------<br>--- ----- -- ----,66122.19999992847,66121.39999997616,65766.942,65778.39999997616,65783.613,66133.644,,19,partner
screen,html.Screen,0_2_0_1_20,2021-11-19T11:56:49.681Z,,,,,,,,,,,,,,,,53,,,,,,,,,,,,,,315.7559999761579,,response,,,99,,,,,,Space,keypress(Space),,,,,---- -- ----- -- ------ - ------- --- ----------<br>------------- ------ ------ ---- ---- ------- ----- -- ----<br>-------- ------- is ---------- --- - --- ----- ----- ----<br>---- --- --- ----- --- ---- ---- ------- ----- ---- -------<br>--- --- -- ----- -- --- ---- -- --- ---- -- ------ ------<br>--- ----- -- ----,66450.19999992847,66449.39999997616,66116.974,66122.5,66133.644,66467.053,,20,is
screen,html.Screen,0_2_0_1_21,2021-11-19T11:56:50.169Z,,,,,,,,,,,,,,,,53,,,,,,,,,,,,,,470.14699992847454,,response,,,99,,,,,,Space,keypress(Space),,,,,---- -- ----- -- ------ - ------- --- ----------<br>------------- ------ ------ ---- ---- ------- ----- -- ----<br>-------- ------- -- paramount. --- - --- ----- ----- ----<br>---- --- --- ----- --- ---- ---- ------- ----- ---- -------<br>--- --- -- ----- -- --- ---- -- --- ---- -- ------ ------<br>--- ----- -- ----,66938.10000002384,66937.19999992847,66450.383,66450.5,66467.053,66950.567,,21,paramount.
screen,html.Screen,0_2_0_1_22,2021-11-19T11:56:50.489Z,,,,,,,,,,,,,,,,53,,,,,,,,,,,,,,306.7329999523208,,response,,,99,,,,,,Space,keypress(Space),,,,,---- -- ----- -- ------ - ------- --- ----------<br>------------- ------ ------ ---- ---- ------- ----- -- ----<br>-------- ------- -- ---------- But - --- ----- ----- ----<br>---- --- --- ----- --- ---- ---- ------- ----- ---- -------<br>--- --- -- ----- -- --- ---- -- --- ---- -- ------ ------<br>--- ----- -- ----,67258.10000002384,67257.29999995232,66933.896,66938.5,66950.567,67267.213,,22,But
screen,html.Screen,0_2_0_1_23,2021-11-19T11:56:50.913Z,,,,,,,,,,,,,,,,53,,,,,,,,,,,,,,414.0869999523129,,response,,,99,,,,,,Space,keypress(Space),,,,,---- -- ----- -- ------ - ------- --- ----------<br>------------- ------ ------ ---- ---- ------- ----- -- ----<br>-------- ------- -- ---------- --- a --- ----- ----- ----<br>---- --- --- ----- --- ---- ---- ------- ----- ---- -------<br>--- --- -- ----- -- --- ---- -- --- ---- -- ------ ------<br>--- ----- -- ----,67682.10000002384,67681.29999995232,67250.544,67258.29999995232,67267.213,67684.034,,23,a
screen,html.Screen,0_2_0_1_24,2021-11-19T11:56:51.369Z,,,,,,,,,,,,,,,,53,,,,,,,,,,,,,,453.5660000238422,,response,,,99,,,,,,Space,keypress(Space),,,,,---- -- ----- -- ------ - ------- --- ----------<br>------------- ------ ------ ---- ---- ------- ----- -- ----<br>-------- ------- -- ---------- --- - new ----- ----- ----<br>---- --- --- ----- --- ---- ---- ------- ----- ---- -------<br>--- --- -- ----- -- --- ---- -- --- ---- -- ------ ------<br>--- ----- -- ----,68138.39999997616,68137.60000002384,67667.364,67682.29999995232,67684.034,68150.82,,24,new
screen,html.Screen,0_2_0_1_25,2021-11-19T11:56:51.673Z,,,,,,,,,,,,,,,,53,,,,,,,,,,,,,,290.37999992846744,,response,,,99,,,,,,Space,keypress(Space),,,,,---- -- ----- -- ------ - ------- --- ----------<br>------------- ------ ------ ---- ---- ------- ----- -- ----<br>-------- ------- -- ---------- --- - --- study ----- ----<br>---- --- --- ----- --- ---- ---- ------- ----- ---- -------<br>--- --- -- ----- -- --- ---- -- --- ---- -- ------ ------<br>--- ----- -- ----,68442,68441.19999992847,68134.15,68138.60000002384,68150.82,68450.892,,25,study
screen,html.Screen,0_2_0_1_26,2021-11-19T11:56:52.145Z,,,,,,,,,,,,,,,,53,,,,,,,,,,,,,,462.20800002383476,,response,,,99,,,,,,Space,keypress(Space),,,,,---- -- ----- -- ------ - ------- --- ----------<br>------------- ------ ------ ---- ---- ------- ----- -- ----<br>-------- ------- -- ---------- --- - --- ----- finds ----<br>---- --- --- ----- --- ---- ---- ------- ----- ---- -------<br>--- --- -- ----- -- --- ---- -- --- ---- -- ------ ------<br>--- ----- -- ----,68913.89999997616,68913.10000002384,68434.222,68442.29999995232,68450.892,68917.657,,26,finds
screen,html.Screen,0_2_0_1_27,2021-11-19T11:56:52.545Z,,,,,,,,,,,,,,,,53,,,,,,,,,,,,,,395.44300002383534,,response,,,99,,,,,,Space,keypress(Space),,,,,---- -- ----- -- ------ - ------- --- ----------<br>------------- ------ ------ ---- ---- ------- ----- -- ----<br>-------- ------- -- ---------- --- - --- ----- ----- that<br>---- --- --- ----- --- ---- ---- ------- ----- ---- -------<br>--- --- -- ----- -- --- ---- -- --- ---- -- ------ ------<br>--- ----- -- ----,69313.89999997616,69313.10000002384,68900.987,68914.29999995232,68917.657,69317.672,,27,that
screen,html.Screen,0_2_0_1_28,2021-11-19T11:56:52.929Z,,,,,,,,,,,,,,,,53,,,,,,,,,,,,,,379.4280000238359,,response,,,99,,,,,,Space,keypress(Space),,,,,---- -- ----- -- ------ - ------- --- ----------<br>------------- ------ ------ ---- ---- ------- ----- -- ----<br>-------- ------- -- ---------- --- - --- ----- ----- ----<br>it's --- --- ----- --- ---- ---- ------- ----- ---- -------<br>--- --- -- ----- -- --- ---- -- --- ---- -- ------ ------<br>--- ----- -- ----,69697.89999997616,69697.10000002384,69301.003,69314.19999992847,69317.672,69701.233,,28,it's
screen,html.Screen,0_2_0_1_29,2021-11-19T11:56:53.273Z,,,,,,,,,,,,,,,,53,,,,,,,,,,,,,,339.7670000000071,,response,,,99,,,,,,Space,keypress(Space),,,,,---- -- ----- -- ------ - ------- --- ----------<br>------------- ------ ------ ---- ---- ------- ----- -- ----<br>-------- ------- -- ---------- --- - --- ----- ----- ----<br>---- not --- ----- --- ---- ---- ------- ----- ---- -------<br>--- --- -- ----- -- --- ---- -- --- ---- -- ------ ------<br>--- ----- -- ----,70042,70041,69684.562,69698.10000002384,69701.233,70051.267,,29,not
screen,html.Screen,0_2_0_1_30,2021-11-19T11:56:53.641Z,,,,,,,,,,,,,,,,53,,,,,,,,,,,,,,357.83300002383476,,response,,,99,,,,,,Space,keypress(Space),,,,,---- -- ----- -- ------ - ------- --- ----------<br>------------- ------ ------ ---- ---- ------- ----- -- ----<br>-------- ------- -- ---------- --- - --- ----- ----- ----<br>---- --- how ----- --- ---- ---- ------- ----- ---- -------<br>--- --- -- ----- -- --- ---- -- --- ---- -- ------ ------<br>--- ----- -- ----,70409.89999997616,70409.10000002384,70034.597,70042.19999992847,70051.267,70418.004,,30,how
screen,html.Screen,0_2_0_1_31,2021-11-19T11:56:53.969Z,,,,,,,,,,,,,,,,53,,,,,,,,,,,,,,319.09600002384104,,response,,,99,,,,,,Space,keypress(Space),,,,,---- -- ----- -- ------ - ------- --- ----------<br>------------- ------ ------ ---- ---- ------- ----- -- ----<br>-------- ------- -- ---------- --- - --- ----- ----- ----<br>---- --- --- close --- ---- ---- ------- ----- ---- -------<br>--- --- -- ----- -- --- ---- -- --- ---- -- ------ ------<br>--- ----- -- ----,70737.89999997616,70737.10000002384,70401.334,70410.10000002384,70418.004,70751.487,,31,close
screen,html.Screen,0_2_0_1_32,2021-11-19T11:56:54.337Z,,,,,,,,,,,,,,,,53,,,,,,,,,,,,,,353.61300002384814,,response,,,99,,,,,,Space,keypress(Space),,,,,---- -- ----- -- ------ - ------- --- ----------<br>------------- ------ ------ ---- ---- ------- ----- -- ----<br>-------- ------- -- ---------- --- - --- ----- ----- ----<br>---- --- --- ----- you ---- ---- ------- ----- ---- -------<br>--- --- -- ----- -- --- ---- -- --- ---- -- ------ ------<br>--- ----- -- ----,71105.89999997616,71105.10000002384,70734.816,70738.10000002384,70751.487,71118.192,,32,you
screen,html.Screen,0_2_0_1_33,2021-11-19T11:56:54.705Z,,,,,,,,,,,,,,,,53,,,,,,,,,,,,,,354.80800000000454,,response,,,99,,,,,,Space,keypress(Space),,,,,---- -- ----- -- ------ - ------- --- ----------<br>------------- ------ ------ ---- ---- ------- ----- -- ----<br>-------- ------- -- ---------- --- - --- ----- ----- ----<br>---- --- --- ----- --- feel ---- ------- ----- ---- -------<br>--- --- -- ----- -- --- ---- -- --- ---- -- ------ ------<br>--- ----- -- ----,71473.79999995232,71473,71101.522,71106.10000002384,71118.192,71484.951,,33,feel
screen,html.Screen,0_2_0_1_34,2021-11-19T11:56:55.073Z,,,,,,,,,,,,,,,,53,,,,,,,,,,,,,,356.04899999999907,,response,,,99,,,,,,Space,keypress(Space),,,,,---- -- ----- -- ------ - ------- --- ----------<br>------------- ------ ------ ---- ---- ------- ----- -- ----<br>-------- ------- -- ---------- --- - --- ----- ----- ----<br>---- --- --- ----- --- ---- that ------- ----- ---- -------<br>--- --- -- ----- -- --- ---- -- --- ---- -- ------ ------<br>--- ----- -- ----,71841.79999995232,71841,71468.281,71474.10000002384,71484.951,71851.708,,34,that
screen,html.Screen,0_2_0_1_35,2021-11-19T11:56:55.417Z,,,,,,,,,,,,,,,,53,,,,,,,,,,,,,,333.1919999761594,,response,,,99,,,,,,Space,keypress(Space),,,,,---- -- ----- -- ------ - ------- --- ----------<br>------------- ------ ------ ---- ---- ------- ----- -- ----<br>-------- ------- -- ---------- --- - --- ----- ----- ----<br>---- --- --- ----- --- ---- ---- matters ----- ---- -------<br>--- --- -- ----- -- --- ---- -- --- ---- -- ------ ------<br>--- ----- -- ----,72185.79999995232,72184.89999997616,71835.038,71842.10000002384,71851.708,72201.737,,35,matters
screen,html.Screen,0_2_0_1_36,2021-11-19T11:56:55.817Z,,,,,,,,,,,,,,,,53,,,,,,,,,,,,,,383.2630000000063,,response,,,99,,,,,,Space,keypress(Space),,,,,"---- -- ----- -- ------ - ------- --- ----------<br>------------- ------ ------ ---- ---- ------- ----- -- ----<br>-------- ------- -- ---------- --- - --- ----- ----- ----<br>---- --- --- ----- --- ---- ---- ------- most, ---- -------<br>--- --- -- ----- -- --- ---- -- --- ---- -- ------ ------<br>--- ----- -- ----",72585.89999997616,72585,72185.068,72186,72201.737,72601.92,,36,"most,"
screen,html.Screen,0_2_0_1_37,2021-11-19T11:56:56.273Z,,,,,,,,,,,,,,,,53,,,,,,,,,,,,,,439.08000000000175,,response,,,99,,,,,,Space,keypress(Space),,,,,---- -- ----- -- ------ - ------- --- ----------<br>------------- ------ ------ ---- ---- ------- ----- -- ----<br>-------- ------- -- ---------- --- - --- ----- ----- ----<br>---- --- --- ----- --- ---- ---- ------- ----- it's -------<br>--- --- -- ----- -- --- ---- -- --- ---- -- ------ ------<br>--- ----- -- ----,73041.69999992847,73041,72585.249,72586.10000002384,72601.92,73052.003,,37,it's
screen,html.Screen,0_2_0_1_38,2021-11-19T11:56:56.729Z,,,,,,,,,,,,,,,,53,,,,,,,,,,,,,,444.89699997616117,,response,,,99,,,,,,Space,keypress(Space),,,,,---- -- ----- -- ------ - ------- --- ----------<br>------------- ------ ------ ---- ---- ------- ----- -- ----<br>-------- ------- -- ---------- --- - --- ----- ----- ----<br>---- --- --- ----- --- ---- ---- ------- ----- ---- whether<br>--- --- -- ----- -- --- ---- -- --- ---- -- ------ ------<br>--- ----- -- ----,73497.69999992847,73496.89999997616,73035.333,73041.89999997616,73052.003,73501.953,,38,whether
screen,html.Screen,0_2_0_1_39,2021-11-19T11:56:57.049Z,,,,,,,,,,,,,,,,53,,,,,,,,,,,,,,314.9469999761641,,response,,,99,,,,,,Space,keypress(Space),,,,,---- -- ----- -- ------ - ------- --- ----------<br>------------- ------ ------ ---- ---- ------- ----- -- ----<br>-------- ------- -- ---------- --- - --- ----- ----- ----<br>---- --- --- ----- --- ---- ---- ------- ----- ---- -------<br>you --- -- ----- -- --- ---- -- --- ---- -- ------ ------<br>--- ----- -- ----,73817.60000002384,73816.89999997616,73485.285,73497.79999995232,73501.953,73818.944,,39,you
screen,html.Screen,0_2_0_1_40,2021-11-19T11:56:57.441Z,,,,,,,,,,,,,,,,53,,,,,,,,,,,,,,389.85599995231314,,response,,,99,,,,,,Space,keypress(Space),,,,,---- -- ----- -- ------ - ------- --- ----------<br>------------- ------ ------ ---- ---- ------- ----- -- ----<br>-------- ------- -- ---------- --- - --- ----- ----- ----<br>---- --- --- ----- --- ---- ---- ------- ----- ---- -------<br>--- are -- ----- -- --- ---- -- --- ---- -- ------ ------<br>--- ----- -- ----,74209.69999992847,74208.79999995232,73802.272,73817.79999995232,73818.944,74218.946,,40,are
screen,html.Screen,0_2_0_1_41,2021-11-19T11:56:57.737Z,,,,,,,,,,,,,,,,53,,,,,,,,,,,,,,285.85399995232,,response,,,99,,,,,,Space,keypress(Space),,,,,---- -- ----- -- ------ - ------- --- ----------<br>------------- ------ ------ ---- ---- ------- ----- -- ----<br>-------- ------- -- ---------- --- - --- ----- ----- ----<br>---- --- --- ----- --- ---- ---- ------- ----- ---- -------<br>--- --- as ----- -- --- ---- -- --- ---- -- ------ ------<br>--- ----- -- ----,74505.60000002384,74504.79999995232,74202.276,74209.79999995232,74218.946,74519.018,,41,as
screen,html.Screen,0_2_0_1_42,2021-11-19T11:56:58.041Z,,,,,,,,,,,,,,,,53,,,,,,,,,,,,,,289.7819999523199,,response,,,99,,,,,,Space,keypress(Space),,,,,---- -- ----- -- ------ - ------- --- ----------<br>------------- ------ ------ ---- ---- ------- ----- -- ----<br>-------- ------- -- ---------- --- - --- ----- ----- ----<br>---- --- --- ----- --- ---- ---- ------- ----- ---- -------<br>--- --- -- close -- --- ---- -- --- ---- -- ------ ------<br>--- ----- -- ----,74809.60000002384,74808.79999995232,74502.348,74505.79999995232,74519.018,74819.078,,42,close
screen,html.Screen,0_2_0_1_43,2021-11-19T11:56:58.441Z,,,,,,,,,,,,,,,,53,,,,,,,,,,,,,,389.7219999523222,,response,,,99,,,,,,Space,keypress(Space),,,,,---- -- ----- -- ------ - ------- --- ----------<br>------------- ------ ------ ---- ---- ------- ----- -- ----<br>-------- ------- -- ---------- --- - --- ----- ----- ----<br>---- --- --- ----- --- ---- ---- ------- ----- ---- -------<br>--- --- -- ----- as --- ---- -- --- ---- -- ------ ------<br>--- ----- -- ----,75209.60000002384,75208.79999995232,74802.408,74809.79999995232,74819.078,75219.228,,43,as
screen,html.Screen,0_2_0_1_44,2021-11-19T11:56:58.825Z,,,,,,,,,,,,,,,,53,,,,,,,,,,,,,,373.47199992847163,,response,,,99,,,,,,Space,keypress(Space),,,,,---- -- ----- -- ------ - ------- --- ----------<br>------------- ------ ------ ---- ---- ------- ----- -- ----<br>-------- ------- -- ---------- --- - --- ----- ----- ----<br>---- --- --- ----- --- ---- ---- ------- ----- ---- -------<br>--- --- -- ----- -- you ---- -- --- ---- -- ------ ------<br>--- ----- -- ----,75593.5,75592.69999992847,75202.557,75209.79999995232,75219.228,75602.6,,44,you
screen,html.Screen,0_2_0_1_45,2021-11-19T11:56:59.353Z,,,,,,,,,,,,,,,,53,,,,,,,,,,,,,,518.0999999284686,,response,,,99,,,,,,Space,keypress(Space),,,,,---- -- ----- -- ------ - ------- --- ----------<br>------------- ------ ------ ---- ---- ------- ----- -- ----<br>-------- ------- -- ---------- --- - --- ----- ----- ----<br>---- --- --- ----- --- ---- ---- ------- ----- ---- -------<br>--- --- -- ----- -- --- want -- --- ---- -- ------ ------<br>--- ----- -- ----,76121.5,76120.69999992847,75585.93,75593.69999992847,75602.6,76136.088,,45,want
screen,html.Screen,0_2_0_1_46,2021-11-19T11:56:59.712Z,,,,,,,,,,,,,,,,53,,,,,,,,,,,,,,344.61199992847105,,response,,,99,,,,,,Space,keypress(Space),,,,,---- -- ----- -- ------ - ------- --- ----------<br>------------- ------ ------ ---- ---- ------- ----- -- ----<br>-------- ------- -- ---------- --- - --- ----- ----- ----<br>---- --- --- ----- --- ---- ---- ------- ----- ---- -------<br>--- --- -- ----- -- --- ---- to --- ---- -- ------ ------<br>--- ----- -- ----,76481.39999997616,76480.69999992847,76119.418,76121.69999992847,76136.088,76486.143,,46,to
screen,html.Screen,0_2_0_1_47,2021-11-19T11:57:00.176Z,,,,,,,,,,,,,,,,53,,,,,,,,,,,,,,458.45700002384547,,response,,,99,,,,,,Space,keypress(Space),,,,,"---- -- ----- -- ------ - ------- --- ----------<br>------------- ------ ------ ---- ---- ------- ----- -- ----<br>-------- ------- -- ---------- --- - --- ----- ----- ----<br>---- --- --- ----- --- ---- ---- ------- ----- ---- -------<br>--- --- -- ----- -- --- ---- -- be, ---- -- ------ ------<br>--- ----- -- ----",76945.39999997616,76944.60000002384,76469.473,76481.69999992847,76486.143,76952.92,,47,"be,"
screen,html.Screen,0_2_0_1_48,2021-11-19T11:57:00.609Z,,,,,,,,,,,,,,,,53,,,,,,,,,,,,,,423.7799999284762,,response,,,99,,,,,,Space,keypress(Space),,,,,---- -- ----- -- ------ - ------- --- ----------<br>------------- ------ ------ ---- ---- ------- ----- -- ----<br>-------- ------- -- ---------- --- - --- ----- ----- ----<br>---- --- --- ----- --- ---- ---- ------- ----- ---- -------<br>--- --- -- ----- -- --- ---- -- --- even -- ------ ------<br>--- ----- -- ----,77377.60000002384,77376.69999992847,76936.25,76945.69999992847,76952.92,77386.433,,48,even
screen,html.Screen,0_2_0_1_49,2021-11-19T11:57:00.960Z,,,,,,,,,,,,,,,,53,,,,,,,,,,,,,,342.1670000238373,,response,,,99,,,,,,Space,keypress(Space),,,,,---- -- ----- -- ------ - ------- --- ----------<br>------------- ------ ------ ---- ---- ------- ----- -- ----<br>-------- ------- -- ---------- --- - --- ----- ----- ----<br>---- --- --- ----- --- ---- ---- ------- ----- ---- -------<br>--- --- -- ----- -- --- ---- -- --- ---- if ------ ------<br>--- ----- -- ----,77729.29999995232,77728.60000002384,77369.762,77377.69999992847,77386.433,77736.461,,49,if
screen,html.Screen,0_2_0_1_50,2021-11-19T11:57:01.296Z,,,,,,,,,,,,,,,,53,,,,,,,,,,,,,,328.13900002384617,,response,,,99,,,,,,Space,keypress(Space),,,,,---- -- ----- -- ------ - ------- --- ----------<br>------------- ------ ------ ---- ---- ------- ----- -- ----<br>-------- ------- -- ---------- --- - --- ----- ----- ----<br>---- --- --- ----- --- ---- ---- ------- ----- ---- -------<br>--- --- -- ----- -- --- ---- -- --- ---- -- that's ------<br>--- ----- -- ----,78065.29999995232,78064.60000002384,77719.791,77729.5,77736.461,78069.896,,50,that's
screen,html.Screen,0_2_0_1_51,2021-11-19T11:57:01.697Z,,,,,,,,,,,,,,,,53,,,,,,,,,,,,,,395.0039999761648,,response,,,99,,,,,,Space,keypress(Space),,,,,---- -- ----- -- ------ - ------- --- ----------<br>------------- ------ ------ ---- ---- ------- ----- -- ----<br>-------- ------- -- ---------- --- - --- ----- ----- ----<br>---- --- --- ----- --- ---- ---- ------- ----- ---- -------<br>--- --- -- ----- -- --- ---- -- --- ---- -- ------ really<br>--- ----- -- ----,78465.60000002384,78464.89999997616,78053.226,78065.5,78069.896,78469.852,,51,really
screen,html.Screen,0_2_0_1_52,2021-11-19T11:57:02.032Z,,,,,,,,,,,,,,,,53,,,,,,,,,,,,,,330.64800000000105,,response,,,99,,,,,,Space,keypress(Space),,,,,---- -- ----- -- ------ - ------- --- ----------<br>------------- ------ ------ ---- ---- ------- ----- -- ----<br>-------- ------- -- ---------- --- - --- ----- ----- ----<br>---- --- --- ----- --- ---- ---- ------- ----- ---- -------<br>--- --- -- ----- -- --- ---- -- --- ---- -- ------ ------<br>not ----- -- ----,78801.29999995232,78800.5,78453.184,78465.89999997616,78469.852,78803.482,,52,not
screen,html.Screen,0_2_0_1_53,2021-11-19T11:57:02.360Z,,,,,,,,,,,,,,,,53,,,,,,,,,,,,,,325.0179999999964,,response,,,99,,,,,,Space,keypress(Space),,,,,---- -- ----- -- ------ - ------- --- ----------<br>------------- ------ ------ ---- ---- ------- ----- -- ----<br>-------- ------- -- ---------- --- - --- ----- ----- ----<br>---- --- --- ----- --- ---- ---- ------- ----- ---- -------<br>--- --- -- ----- -- --- ---- -- --- ---- -- ------ ------<br>--- close -- ----,79129.29999995232,79128.5,78786.81,78801.60000002384,78803.482,79136.816,,53,close
screen,html.Screen,0_2_0_1_54,2021-11-19T11:57:02.680Z,,,,,,,,,,,,,,,,53,,,,,,,,,,,,,,311.583999976152,,response,,,99,,,,,,Space,keypress(Space),,,,,---- -- ----- -- ------ - ------- --- ----------<br>------------- ------ ------ ---- ---- ------- ----- -- ----<br>-------- ------- -- ---------- --- - --- ----- ----- ----<br>---- --- --- ----- --- ---- ---- ------- ----- ---- -------<br>--- --- -- ----- -- --- ---- -- --- ---- -- ------ ------<br>--- ----- at ----,79449.29999995232,79448.39999997616,79120.146,79129.5,79136.816,79453.431,,54,at
screen,html.Screen,0_2_0_1_55,2021-11-19T11:57:03.152Z,,,,,,,,,,,,,,,,53,,,,,,,,,,,,,,467.06900000000314,,response,,,99,,,,,,Space,keypress(Space),,,,,---- -- ----- -- ------ - ------- --- ----------<br>------------- ------ ------ ---- ---- ------- ----- -- ----<br>-------- ------- -- ---------- --- - --- ----- ----- ----<br>---- --- --- ----- --- ---- ---- ------- ----- ---- -------<br>--- --- -- ----- -- --- ---- -- --- ---- -- ------ ------<br>--- ----- -- all.,79921.19999992847,79920.5,79436.763,79449.5,79453.431,79937.101,,55,all.
Item 99,flow.Loop,0_2_0_1,2021-11-19T11:57:03.157Z,,,,,,,,,,,,,,,,,,,,,,,,,,,,,,22705.883,,completion,,,,C,,,,,,,,,,silence,,79925.60000002384,79920.5,57197.948,57205.199999928474,57214.617,79937.101,,,
Question 1,html.Screen,0_2_0_2,2021-11-19T11:57:08.960Z,,,,,,,,,,,,,,,,,,,,,,,,,,,true,FALSE,,5790.798999976163,,response,,,99,C,,,,,FALSE,click #choice-2,,,,silence,,85729.19999992847,85727.89999997616,79920.429,79925.89999997616,79937.101,85738.369,,,
Question 2,html.Screen,0_2_0_3,2021-11-19T11:57:15.928Z,,,,,,,,,,,,,,,,,,,,,,,,,,,true,TRUE,,6957.030999976152,,response,,,99,C,,,,,TRUE,click #choice-1,,,,silence,,92696.69999992847,92695.39999997616,85721.699,85729.5,85738.369,92706.588,,,
Item 99,flow.Sequence,0_2_0,2021-11-19T11:57:15.928Z,,,,,,,,,,,,,,,,,,,,,,,,,,,,,,45482.95099997616,,completion,,,,,,,,,,,,,,,,92697.19999992847,92695.39999997616,47195.777,47204.799999952316,47212.449,92706.588,,,
Holding screen,html.Screen,0_2_1_0,2021-11-19T11:57:25.925Z,,,,,,,,,,,,,,,,,,,,,,,,,,,,,,10002.502999999997,,timeout,,,,,,,,,,,,,,,,102694.10000002384,102692.421,92689.921,92697.60000002384,92706.588,102709.091,,,
screen,html.Screen,0_2_1_1_0,2021-11-19T11:57:26.783Z,,,,,,,,,,,,,,,,54,,,,,,,,,,,,,,842.1089999284741,,response,,,100,,,,,,Space,keypress(Space),,,,,At --- ---- --- ------ ----- ------- ---- -- --- ------- --<br>------- ---------- ------ -- ----- -- ----- -- ---- ------<br>--- ----- --- --- ------ -------- ----- --- ------ ----- --<br>----- ----- ---------- --- --- ------ ------ ---- -- ------<br>------- --- ------ ----- --- ---- ------- -- ---- --- --<br>------- ------,103552,103551.19999992847,102692.421,102694.69999992847,102709.091,103559.471,,0,At
screen,html.Screen,0_2_1_1_1,2021-11-19T11:57:27.247Z,,,,,,,,,,,,,,,,54,,,,,,,,,,,,,,455.3289999523113,,response,,,100,,,,,,Space,keypress(Space),,,,,-- the ---- --- ------ ----- ------- ---- -- --- ------- --<br>------- ---------- ------ -- ----- -- ----- -- ---- ------<br>--- ----- --- --- ------ -------- ----- --- ------ ----- --<br>----- ----- ---------- --- --- ------ ------ ---- -- ------<br>------- --- ------ ----- --- ---- ------- -- ---- --- --<br>------- ------,104015.60000002384,104014.79999995232,103542.8,103552.29999995232,103559.471,104026.176,,1,the
screen,html.Screen,0_2_1_1_2,2021-11-19T11:57:27.607Z,,,,,,,,,,,,,,,,54,,,,,,,,,,,,,,348.5239999284677,,response,,,100,,,,,,Space,keypress(Space),,,,,-- --- time --- ------ ----- ------- ---- -- --- ------- --<br>------- ---------- ------ -- ----- -- ----- -- ---- ------<br>--- ----- --- --- ------ -------- ----- --- ------ ----- --<br>----- ----- ---------- --- --- ------ ------ ---- -- ------<br>------- --- ------ ----- --- ---- ------- -- ---- --- --<br>------- ------,104375.60000002384,104374.69999992847,104009.506,104015.79999995232,104026.176,104392.94,,2,time
screen,html.Screen,0_2_1_1_3,2021-11-19T11:57:27.998Z,,,,,,,,,,,,,,,,54,,,,,,,,,,,,,,373.7599999284721,,response,,,100,,,,,,Space,keypress(Space),,,,,-- --- ---- the ------ ----- ------- ---- -- --- ------- --<br>------- ---------- ------ -- ----- -- ----- -- ---- ------<br>--- ----- --- --- ------ -------- ----- --- ------ ----- --<br>----- ----- ---------- --- --- ------ ------ ---- -- ------<br>------- --- ------ ----- --- ---- ------- -- ---- --- --<br>------- ------,104767.39999997616,104766.69999992847,104376.27,104375.79999995232,104392.94,104776.372,,3,the
screen,html.Screen,0_2_1_1_4,2021-11-19T11:57:28.367Z,,,,,,,,,,,,,,,,54,,,,,,,,,,,,,,358.3279999284714,,response,,,100,,,,,,Space,keypress(Space),,,,,-- --- ---- --- French ----- ------- ---- -- --- ------- --<br>------- ---------- ------ -- ----- -- ----- -- ---- ------<br>--- ----- --- --- ------ -------- ----- --- ------ ----- --<br>----- ----- ---------- --- --- ------ ------ ---- -- ------<br>------- --- ------ ----- --- ---- ------- -- ---- --- --<br>------- ------,105135.5,105134.69999992847,104759.702,104767.69999992847,104776.372,105143.131,,4,French
screen,html.Screen,0_2_1_1_5,2021-11-19T11:57:28.743Z,,,,,,,,,,,,,,,,54,,,,,,,,,,,,,,367.4690000238479,,response,,,100,,,,,,Space,keypress(Space),,,,,-- --- ---- --- ------ crown ------- ---- -- --- ------- --<br>------- ---------- ------ -- ----- -- ----- -- ---- ------<br>--- ----- --- --- ------ -------- ----- --- ------ ----- --<br>----- ----- ---------- --- --- ------ ------ ---- -- ------<br>------- --- ------ ----- --- ---- ------- -- ---- --- --<br>------- ------,105511.60000002384,105510.60000002384,105126.461,105135.69999992847,105143.131,105526.543,,5,crown
screen,html.Screen,0_2_1_1_6,2021-11-19T11:57:29.150Z,,,,,,,,,,,,,,,,54,,,,,,,,,,,,,,392.1569999284693,,response,,,100,,,,,,Space,keypress(Space),,,,,-- --- ---- --- ------ ----- secured ---- -- --- ------- --<br>------- ---------- ------ -- ----- -- ----- -- ---- ------<br>--- ----- --- --- ------ -------- ----- --- ------ ----- --<br>----- ----- ---------- --- --- ------ ------ ---- -- ------<br>------- --- ------ ----- --- ---- ------- -- ---- --- --<br>------- ------,105919.29999995232,105918.69999992847,105509.873,105511.69999992847,105526.543,105926.587,,6,secured
screen,html.Screen,0_2_1_1_7,2021-11-19T11:57:29.638Z,,,,,,,,,,,,,,,,54,,,,,,,,,,,,,,480.0130000238423,,response,,,100,,,,,,Space,keypress(Space),,,,,-- --- ---- --- ------ ----- ------- much -- --- ------- --<br>------- ---------- ------ -- ----- -- ----- -- ---- ------<br>--- ----- --- --- ------ -------- ----- --- ------ ----- --<br>----- ----- ---------- --- --- ------ ------ ---- -- ------<br>------- --- ------ ----- --- ---- ------- -- ---- --- --<br>------- ------,106407.29999995232,106406.60000002384,105909.918,105919.60000002384,105926.587,106410.157,,7,much
screen,html.Screen,0_2_1_1_8,2021-11-19T11:57:30.070Z,,,,,,,,,,,,,,,,54,,,,,,,,,,,,,,428.44300002383534,,response,,,100,,,,,,Space,keypress(Space),,,,,-- --- ---- --- ------ ----- ------- ---- of --- ------- --<br>------- ---------- ------ -- ----- -- ----- -- ---- ------<br>--- ----- --- --- ------ -------- ----- --- ------ ----- --<br>----- ----- ---------- --- --- ------ ------ ---- -- ------<br>------- --- ------ ----- --- ---- ------- -- ---- --- --<br>------- ------,106839.39999997616,106838.60000002384,106393.486,106407.60000002384,106410.157,106843.542,,8,of
screen,html.Screen,0_2_1_1_9,2021-11-19T11:57:30.447Z,,,,,,,,,,,,,,,,54,,,,,,,,,,,,,,371.0580000238406,,response,,,100,,,,,,Space,keypress(Space),,,,,-- --- ---- --- ------ ----- ------- ---- -- its ------- --<br>------- ---------- ------ -- ----- -- ----- -- ---- ------<br>--- ----- --- --- ------ -------- ----- --- ------ ----- --<br>----- ----- ---------- --- --- ------ ------ ---- -- ------<br>------- --- ------ ----- --- ---- ------- -- ---- --- --<br>------- ------,107215.5,107214.60000002384,106826.872,106839.60000002384,106843.542,107226.955,,9,its
screen,html.Screen,0_2_1_1_10,2021-11-19T11:57:30.910Z,,,,,,,,,,,,,,,,54,,,,,,,,,,,,,,451.54499999999825,,response,,,100,,,,,,Space,keypress(Space),,,,,-- --- ---- --- ------ ----- ------- ---- -- --- revenue --<br>------- ---------- ------ -- ----- -- ----- -- ---- ------<br>--- ----- --- --- ------ -------- ----- --- ------ ----- --<br>----- ----- ---------- --- --- ------ ------ ---- -- ------<br>------- --- ------ ----- --- ---- ------- -- ---- --- --<br>------- ------,107679.19999992847,107678.5,107210.285,107215.69999992847,107226.955,107693.749,,10,revenue
screen,html.Screen,0_2_1_1_11,2021-11-19T11:57:31.430Z,,,,,,,,,,,,,,,,54,,,,,,,,,,,,,,504.650999976162,,response,,,100,,,,,,Space,keypress(Space),,,,,-- --- ---- --- ------ ----- ------- ---- -- --- ------- by<br>------- ---------- ------ -- ----- -- ----- -- ---- ------<br>--- ----- --- --- ------ -------- ----- --- ------ ----- --<br>----- ----- ---------- --- --- ------ ------ ---- -- ------<br>------- --- ------ ----- --- ---- ------- -- ---- --- --<br>------- ------,108199.29999995232,108198.39999997616,107677.079,107679.5,107693.749,108210.548,,11,by
screen,html.Screen,0_2_1_1_12,2021-11-19T11:57:32.182Z,,,,,,,,,,,,,,,,54,,,,,,,,,,,,,,739.8519999761629,,response,,,100,,,,,,Space,keypress(Space),,,,,-- --- ---- --- ------ ----- ------- ---- -- --- ------- --<br>issuing ---------- ------ -- ----- -- ----- -- ---- ------<br>--- ----- --- --- ------ -------- ----- --- ------ ----- --<br>----- ----- ---------- --- --- ------ ------ ---- -- ------<br>------- --- ------ ----- --- ---- ------- -- ---- --- --<br>------- ------,108951.19999992847,108950.39999997616,108193.878,108199.5,108210.548,108960.683,,12,issuing
screen,html.Screen,0_2_1_1_13,2021-11-19T11:57:32.638Z,,,,,,,,,,,,,,,,54,,,,,,,,,,,,,,445.7169999761536,,response,,,100,,,,,,Space,keypress(Space),,,,,-- --- ---- --- ------ ----- ------- ---- -- --- ------- --<br>------- government ------ -- ----- -- ----- -- ---- ------<br>--- ----- --- --- ------ -------- ----- --- ------ ----- --<br>----- ----- ---------- --- --- ------ ------ ---- -- ------<br>------- --- ------ ----- --- ---- ------- -- ---- --- --<br>------- ------,109407.19999992847,109406.39999997616,108944.013,108951.5,108960.683,109410.841,,13,government
screen,html.Screen,0_2_1_1_14,2021-11-19T11:57:33.478Z,,,,,,,,,,,,,,,,54,,,,,,,,,,,,,,835.4589999523159,,response,,,100,,,,,,Space,keypress(Space),,,,,-- --- ---- --- ------ ----- ------- ---- -- --- ------- --<br>------- ---------- bonds. -- ----- -- ----- -- ---- ------<br>--- ----- --- --- ------ -------- ----- --- ------ ----- --<br>----- ----- ---------- --- --- ------ ------ ---- -- ------<br>------- --- ------ ----- --- ---- ------- -- ---- --- --<br>------- ------,110247.10000002384,110246.29999995232,109394.171,109407.29999995232,109410.841,110260.891,,14,bonds.
screen,html.Screen,0_2_1_1_15,2021-11-19T11:57:33.886Z,,,,,,,,,,,,,,,,54,,,,,,,,,,,,,,393.408999952313,,response,,,100,,,,,,Space,keypress(Space),,,,,-- --- ---- --- ------ ----- ------- ---- -- --- ------- --<br>------- ---------- ------ In ----- -- ----- -- ---- ------<br>--- ----- --- --- ------ -------- ----- --- ------ ----- --<br>----- ----- ---------- --- --- ------ ------ ---- -- ------<br>------- --- ------ ----- --- ---- ------- -- ---- --- --<br>------- ------,110655.10000002384,110654.29999995232,110244.222,110247.39999997616,110260.891,110661.238,,15,In
screen,html.Screen,0_2_1_1_16,2021-11-19T11:57:34.958Z,,,,,,,,,,,,,,,,54,,,,,,,,,,,,,,1065.2620000000024,,response,,,100,,,,,,Space,keypress(Space),,,,,"-- --- ---- --- ------ ----- ------- ---- -- --- ------- --<br>------- ---------- ------ -- 1727, -- ----- -- ---- ------<br>--- ----- --- --- ------ -------- ----- --- ------ ----- --<br>----- ----- ---------- --- --- ------ ------ ---- -- ------<br>------- --- ------ ----- --- ---- ------- -- ---- --- --<br>------- ------",111727.19999992847,111726.5,110644.566,110655.39999997616,110661.238,111744.691,,16,"1727,"
screen,html.Screen,0_2_1_1_17,2021-11-19T11:57:35.742Z,,,,,,,,,,,,,,,,54,,,,,,,,,,,,,,765.5089999284683,,response,,,100,,,,,,Space,keypress(Space),,,,,-- --- ---- --- ------ ----- ------- ---- -- --- ------- --<br>------- ---------- ------ -- ----- in ----- -- ---- ------<br>--- ----- --- --- ------ -------- ----- --- ------ ----- --<br>----- ----- ---------- --- --- ------ ------ ---- -- ------<br>------- --- ------ ----- --- ---- ------- -- ---- --- --<br>------- ------,112511,112510.19999992847,111728.021,111727.39999997616,111744.691,112528.255,,17,in
screen,html.Screen,0_2_1_1_18,2021-11-19T11:57:36.286Z,,,,,,,,,,,,,,,,54,,,,,,,,,,,,,,525.8450000238372,,response,,,100,,,,,,Space,keypress(Space),,,,,-- --- ---- --- ------ ----- ------- ---- -- --- ------- --<br>------- ---------- ------ -- ----- -- order -- ---- ------<br>--- ----- --- --- ------ -------- ----- --- ------ ----- --<br>----- ----- ---------- --- --- ------ ------ ---- -- ------<br>------- --- ------ ----- --- ---- ------- -- ---- --- --<br>------- ------,113054.89999997616,113054.10000002384,112511.585,112511.10000002384,112528.255,113061.69,,18,order
screen,html.Screen,0_2_1_1_19,2021-11-19T11:57:36.646Z,,,,,,,,,,,,,,,,54,,,,,,,,,,,,,,352.41000002383953,,response,,,100,,,,,,Space,keypress(Space),,,,,-- --- ---- --- ------ ----- ------- ---- -- --- ------- --<br>------- ---------- ------ -- ----- -- ----- to ---- ------<br>--- ----- --- --- ------ -------- ----- --- ------ ----- --<br>----- ----- ---------- --- --- ------ ------ ---- -- ------<br>------- --- ------ ----- --- ---- ------- -- ---- --- --<br>------- ------,113414.89999997616,113414.10000002384,113045.02,113055.19999992847,113061.69,113428.491,,19,to
screen,html.Screen,0_2_1_1_20,2021-11-19T11:57:37.422Z,,,,,,,,,,,,,,,,54,,,,,,,,,,,,,,761.9089999761636,,response,,,100,,,,,,Space,keypress(Space),,,,,-- --- ---- --- ------ ----- ------- ---- -- --- ------- --<br>------- ---------- ------ -- ----- -- ----- -- save ------<br>--- ----- --- --- ------ -------- ----- --- ------ ----- --<br>----- ----- ---------- --- --- ------ ------ ---- -- ------<br>------- --- ------ ----- --- ---- ------- -- ---- --- --<br>------- ------,114191.19999992847,114190.39999997616,113411.821,113415.19999992847,113428.491,114195.318,,20,save
screen,html.Screen,0_2_1_1_21,2021-11-19T11:57:38.094Z,,,,,,,,,,,,,,,,54,,,,,,,,,,,,,,666.6820000000007,,response,,,100,,,,,,Space,keypress(Space),,,,,"-- --- ---- --- ------ ----- ------- ---- -- --- ------- --<br>------- ---------- ------ -- ----- -- ----- -- ---- money,<br>--- ----- --- --- ------ -------- ----- --- ------ ----- --<br>----- ----- ---------- --- --- ------ ------ ---- -- ------<br>------- --- ------ ----- --- ---- ------- -- ---- --- --<br>------- ------",114862.79999995232,114862,114178.648,114191.39999997616,114195.318,114878.779,,21,"money,"
screen,html.Screen,0_2_1_1_22,2021-11-19T11:57:38.670Z,,,,,,,,,,,,,,,,54,,,,,,,,,,,,,,559.1209999761631,,response,,,100,,,,,,Space,keypress(Space),,,,,-- --- ---- --- ------ ----- ------- ---- -- --- ------- --<br>------- ---------- ------ -- ----- -- ----- -- ---- ------<br>the ----- --- --- ------ -------- ----- --- ------ ----- --<br>----- ----- ---------- --- --- ------ ------ ---- -- ------<br>------- --- ------ ----- --- ---- ------- -- ---- --- --<br>------- ------,115438.60000002384,115437.89999997616,114862.109,114863,114878.779,115445.616,,22,the
screen,html.Screen,0_2_1_1_23,2021-11-19T11:57:39.390Z,,,,,,,,,,,,,,,,54,,,,,,,,,,,,,,712.2839999761636,,response,,,100,,,,,,Space,keypress(Space),,,,,-- --- ---- --- ------ ----- ------- ---- -- --- ------- --<br>------- ---------- ------ -- ----- -- ----- -- ---- ------<br>--- state --- --- ------ -------- ----- --- ------ ----- --<br>----- ----- ---------- --- --- ------ ------ ---- -- ------<br>------- --- ------ ----- --- ---- ------- -- ---- --- --<br>------- ------,116158.60000002384,116157.89999997616,115428.946,115439,115445.616,116162.453,,23,state
screen,html.Screen,0_2_1_1_24,2021-11-19T11:57:40.086Z,,,,,,,,,,,,,,,,54,,,,,,,,,,,,,,691.4469999761641,,response,,,100,,,,,,Space,keypress(Space),,,,,-- --- ---- --- ------ ----- ------- ---- -- --- ------- --<br>------- ---------- ------ -- ----- -- ----- -- ---- ------<br>--- ----- cut --- ------ -------- ----- --- ------ ----- --<br>----- ----- ---------- --- --- ------ ------ ---- -- ------<br>------- --- ------ ----- --- ---- ------- -- ---- --- --<br>------- ------,116854.60000002384,116853.89999997616,116145.783,116158.79999995232,116162.453,116862.622,,24,cut
screen,html.Screen,0_2_1_1_25,2021-11-19T11:57:40.510Z,,,,,,,,,,,,,,,,54,,,,,,,,,,,,,,415.17799995231326,,response,,,100,,,,,,Space,keypress(Space),,,,,-- --- ---- --- ------ ----- ------- ---- -- --- ------- --<br>------- ---------- ------ -- ----- -- ----- -- ---- ------<br>--- ----- --- the ------ -------- ----- --- ------ ----- --<br>----- ----- ---------- --- --- ------ ------ ---- -- ------<br>------- --- ------ ----- --- ---- ------- -- ---- --- --<br>------- ------,117278.5,117277.79999995232,116845.952,116854.89999997616,116862.622,117296.078,,25,the
screen,html.Screen,0_2_1_1_26,2021-11-19T11:57:41.134Z,,,,,,,,,,,,,,,,54,,,,,,,,,,,,,,605.7219999523222,,response,,,100,,,,,,Space,keypress(Space),,,,,-- --- ---- --- ------ ----- ------- ---- -- --- ------- --<br>------- ---------- ------ -- ----- -- ----- -- ---- ------<br>--- ----- --- --- bonds' -------- ----- --- ------ ----- --<br>----- ----- ---------- --- --- ------ ------ ---- -- ------<br>------- --- ------ ----- --- ---- ------- -- ---- --- --<br>------- ------,117902.5,117901.79999995232,117279.408,117278.69999992847,117296.078,117912.886,,26,bonds'
screen,html.Screen,0_2_1_1_27,2021-11-19T11:57:41.670Z,,,,,,,,,,,,,,,,54,,,,,,,,,,,,,,524.8139999284758,,response,,,100,,,,,,Space,keypress(Space),,,,,-- --- ---- --- ------ ----- ------- ---- -- --- ------- --<br>------- ---------- ------ -- ----- -- ----- -- ---- ------<br>--- ----- --- --- ------ interest ----- --- ------ ----- --<br>----- ----- ---------- --- --- ------ ------ ---- -- ------<br>------- --- ------ ----- --- ---- ------- -- ---- --- --<br>------- ------,118438.5,118437.69999992847,117896.216,117902.69999992847,117912.886,118446.355,,27,interest
screen,html.Screen,0_2_1_1_28,2021-11-19T11:57:42.238Z,,,,,,,,,,,,,,,,54,,,,,,,,,,,,,,559.3449999284785,,response,,,100,,,,,,Space,keypress(Space),,,,,-- --- ---- --- ------ ----- ------- ---- -- --- ------- --<br>------- ---------- ------ -- ----- -- ----- -- ---- ------<br>--- ----- --- --- ------ -------- rate. --- ------ ----- --<br>----- ----- ---------- --- --- ------ ------ ---- -- ------<br>------- --- ------ ----- --- ---- ------- -- ---- --- --<br>------- ------,119006.5,119005.69999992847,118429.685,118438.69999992847,118446.355,119013.163,,28,rate.
screen,html.Screen,0_2_1_1_29,2021-11-19T11:57:42.726Z,,,,,,,,,,,,,,,,54,,,,,,,,,,,,,,480.4370000238414,,response,,,100,,,,,,Space,keypress(Space),,,,,-- --- ---- --- ------ ----- ------- ---- -- --- ------- --<br>------- ---------- ------ -- ----- -- ----- -- ---- ------<br>--- ----- --- --- ------ -------- ----- The ------ ----- --<br>----- ----- ---------- --- --- ------ ------ ---- -- ------<br>------- --- ------ ----- --- ---- ------- -- ---- --- --<br>------- ------,119494.5,119493.60000002384,118996.493,119006.69999992847,119013.163,119496.601,,29,The
screen,html.Screen,0_2_1_1_30,2021-11-19T11:57:43.270Z,,,,,,,,,,,,,,,,54,,,,,,,,,,,,,,541.0989999284793,,response,,,100,,,,,,Space,keypress(Space),,,,,-- --- ---- --- ------ ----- ------- ---- -- --- ------- --<br>------- ---------- ------ -- ----- -- ----- -- ---- ------<br>--- ----- --- --- ------ -------- ----- --- market ----- --<br>----- ----- ---------- --- --- ------ ------ ---- -- ------<br>------- --- ------ ----- --- ---- ------- -- ---- --- --<br>------- ------,120038.5,120037.69999992847,119479.931,119494.69999992847,119496.601,120046.729,,30,market
screen,html.Screen,0_2_1_1_31,2021-11-19T11:57:44.081Z,,,,,,,,,,,,,,,,54,,,,,,,,,,,,,,798.8710000238352,,response,,,100,,,,,,Space,keypress(Space),,,,,-- --- ---- --- ------ ----- ------- ---- -- --- ------- --<br>------- ---------- ------ -- ----- -- ----- -- ---- ------<br>--- ----- --- --- ------ -------- ----- --- ------ value --<br>----- ----- ---------- --- --- ------ ------ ---- -- ------<br>------- --- ------ ----- --- ---- ------- -- ---- --- --<br>------- ------,120846.39999997616,120845.60000002384,120030.059,120038.69999992847,120046.729,120863.607,,31,value
screen,html.Screen,0_2_1_1_32,2021-11-19T11:57:44.961Z,,,,,,,,,,,,,,,,54,,,,,,,,,,,,,,861.8929999999964,,response,,,100,,,,,,Space,keypress(Space),,,,,-- --- ---- --- ------ ----- ------- ---- -- --- ------- --<br>------- ---------- ------ -- ----- -- ----- -- ---- ------<br>--- ----- --- --- ------ -------- ----- --- ------ ----- of<br>----- ----- ---------- --- --- ------ ------ ---- -- ------<br>------- --- ------ ----- --- ---- ------- -- ---- --- --<br>------- ------,121726.39999997616,121725.5,120846.937,120846.69999992847,120863.607,121730.329,,32,of
screen,html.Screen,0_2_1_1_33,2021-11-19T11:57:45.530Z,,,,,,,,,,,,,,,,54,,,,,,,,,,,,,,563.271000023844,,response,,,100,,,,,,Space,keypress(Space),,,,,-- --- ---- --- ------ ----- ------- ---- -- --- ------- --<br>------- ---------- ------ -- ----- -- ----- -- ---- ------<br>--- ----- --- --- ------ -------- ----- --- ------ ----- --<br>these ----- ---------- --- --- ------ ------ ---- -- ------<br>------- --- ------ ----- --- ---- ------- -- ---- --- --<br>------- ------,122294.5,122293.60000002384,121713.66,121726.60000002384,121730.329,122297.347,,33,these
screen,html.Screen,0_2_1_1_34,2021-11-19T11:57:46.393Z,,,,,,,,,,,,,,,,54,,,,,,,,,,,,,,860.0529999761638,,response,,,100,,,,,,Space,keypress(Space),,,,,-- --- ---- --- ------ ----- ------- ---- -- --- ------- --<br>------- ---------- ------ -- ----- -- ----- -- ---- ------<br>--- ----- --- --- ------ -------- ----- --- ------ ----- --<br>----- bonds ---------- --- --- ------ ------ ---- -- ------<br>------- --- ------ ----- --- ---- ------- -- ---- --- --<br>------- ------,123158.29999995232,123157.39999997616,122280.676,122294.79999995232,122297.347,123164.17,,34,bonds
screen,html.Screen,0_2_1_1_35,2021-11-19T11:57:47.369Z,,,,,,,,,,,,,,,,54,,,,,,,,,,,,,,969.129999952318,,response,,,100,,,,,,Space,keypress(Space),,,,,"-- --- ---- --- ------ ----- ------- ---- -- --- ------- --<br>------- ---------- ------ -- ----- -- ----- -- ---- ------<br>--- ----- --- --- ------ -------- ----- --- ------ ----- --<br>----- ----- plummeted, --- --- ------ ------ ---- -- ------<br>------- --- ------ ----- --- ---- ------- -- ---- --- --<br>------- ------",124134.19999992847,124133.29999995232,123147.5,123158.5,123164.17,124147.707,,35,"plummeted,"
screen,html.Screen,0_2_1_1_36,2021-11-19T11:57:47.850Z,,,,,,,,,,,,,,,,54,,,,,,,,,,,,,,465.99299992847955,,response,,,100,,,,,,Space,keypress(Space),,,,,-- --- ---- --- ------ ----- ------- ---- -- --- ------- --<br>------- ---------- ------ -- ----- -- ----- -- ---- ------<br>--- ----- --- --- ------ -------- ----- --- ------ ----- --<br>----- ----- ---------- and --- ------ ------ ---- -- ------<br>------- --- ------ ----- --- ---- ------- -- ---- --- --<br>------- ------,124614.39999997616,124613.69999992847,124131.037,124134.39999997616,124147.707,124631.166,,36,and
screen,html.Screen,0_2_1_1_37,2021-11-19T11:57:48.329Z,,,,,,,,,,,,,,,,54,,,,,,,,,,,,,,462.13399995231885,,response,,,100,,,,,,Space,keypress(Space),,,,,-- --- ---- --- ------ ----- ------- ---- -- --- ------- --<br>------- ---------- ------ -- ----- -- ----- -- ---- ------<br>--- ----- --- --- ------ -------- ----- --- ------ ----- --<br>----- ----- ---------- --- the ------ ------ ---- -- ------<br>------- --- ------ ----- --- ---- ------- -- ---- --- --<br>------- ------,125094.10000002384,125093.29999995232,124614.496,124614.79999995232,124631.166,125097.974,,37,the
screen,html.Screen,0_2_1_1_38,2021-11-19T11:57:48.793Z,,,,,,,,,,,,,,,,54,,,,,,,,,,,,,,459.3259999523143,,response,,,100,,,,,,Space,keypress(Space),,,,,-- --- ---- --- ------ ----- ------- ---- -- --- ------- --<br>------- ---------- ------ -- ----- -- ----- -- ---- ------<br>--- ----- --- --- ------ -------- ----- --- ------ ----- --<br>----- ----- ---------- --- --- market ------ ---- -- ------<br>------- --- ------ ----- --- ---- ------- -- ---- --- --<br>------- ------,125558.10000002384,125557.29999995232,125081.304,125094.29999995232,125097.974,125564.742,,38,market
screen,html.Screen,0_2_1_1_39,2021-11-19T11:57:49.217Z,,,,,,,,,,,,,,,,54,,,,,,,,,,,,,,416.45799992847606,,response,,,100,,,,,,Space,keypress(Space),,,,,-- --- ---- --- ------ ----- ------- ---- -- --- ------- --<br>------- ---------- ------ -- ----- -- ----- -- ---- ------<br>--- ----- --- --- ------ -------- ----- --- ------ ----- --<br>----- ----- ---------- --- --- ------ became ---- -- ------<br>------- --- ------ ----- --- ---- ------- -- ---- --- --<br>------- ------,125982.10000002384,125981.19999992847,125548.072,125558.29999995232,125564.742,125998.194,,39,became
screen,html.Screen,0_2_1_1_40,2021-11-19T11:57:49.769Z,,,,,,,,,,,,,,,,54,,,,,,,,,,,,,,535.0059999284713,,response,,,100,,,,,,Space,keypress(Space),,,,,-- --- ---- --- ------ ----- ------- ---- -- --- ------- --<br>------- ---------- ------ -- ----- -- ----- -- ---- ------<br>--- ----- --- --- ------ -------- ----- --- ------ ----- --<br>----- ----- ---------- --- --- ------ ------ wary -- ------<br>------- --- ------ ----- --- ---- ------- -- ---- --- --<br>------- ------,126534.10000002384,126533.19999992847,125981.524,125982.29999995232,125998.194,126548.29,,40,wary
screen,html.Screen,0_2_1_1_41,2021-11-19T11:57:50.249Z,,,,,,,,,,,,,,,,54,,,,,,,,,,,,,,464.90999992848083,,response,,,100,,,,,,Space,keypress(Space),,,,,-- --- ---- --- ------ ----- ------- ---- -- --- ------- --<br>------- ---------- ------ -- ----- -- ----- -- ---- ------<br>--- ----- --- --- ------ -------- ----- --- ------ ----- --<br>----- ----- ---------- --- --- ------ ------ ---- of ------<br>------- --- ------ ----- --- ---- ------- -- ---- --- --<br>------- ------,127014,127013.19999992847,126531.62,126534.19999992847,126548.29,127031.84,,41,of
screen,html.Screen,0_2_1_1_42,2021-11-19T11:57:50.769Z,,,,,,,,,,,,,,,,54,,,,,,,,,,,,,,501.26000002384535,,response,,,100,,,,,,Space,keypress(Space),,,,,-- --- ---- --- ------ ----- ------- ---- -- --- ------- --<br>------- ---------- ------ -- ----- -- ----- -- ---- ------<br>--- ----- --- --- ------ -------- ----- --- ------ ----- --<br>----- ----- ---------- --- --- ------ ------ ---- -- French<br>------- --- ------ ----- --- ---- ------- -- ---- --- --<br>------- ------,127533.89999997616,127533.10000002384,127015.169,127015.29999995232,127031.84,127548.47,,42,French
screen,html.Screen,0_2_1_1_43,2021-11-19T11:57:51.201Z,,,,,,,,,,,,,,,,54,,,,,,,,,,,,,,416.6300000238407,,response,,,100,,,,,,Space,keypress(Space),,,,,-- --- ---- --- ------ ----- ------- ---- -- --- ------- --<br>------- ---------- ------ -- ----- -- ----- -- ---- ------<br>--- ----- --- --- ------ -------- ----- --- ------ ----- --<br>----- ----- ---------- --- --- ------ ------ ---- -- ------<br>credit. --- ------ ----- --- ---- ------- -- ---- --- --<br>------- ------,127965.89999997616,127965.10000002384,127531.801,127534.10000002384,127548.47,127982.056,,43,credit.
screen,html.Screen,0_2_1_1_44,2021-11-19T11:57:51.617Z,,,,,,,,,,,,,,,,54,,,,,,,,,,,,,,399.044000023845,,response,,,100,,,,,,Space,keypress(Space),,,,,-- --- ---- --- ------ ----- ------- ---- -- --- ------- --<br>------- ---------- ------ -- ----- -- ----- -- ---- ------<br>--- ----- --- --- ------ -------- ----- --- ------ ----- --<br>----- ----- ---------- --- --- ------ ------ ---- -- ------<br>------- The ------ ----- --- ---- ------- -- ---- --- --<br>------- ------,128381.89999997616,128381.10000002384,127965.385,127966.10000002384,127982.056,128398.787,,44,The
screen,html.Screen,0_2_1_1_45,2021-11-19T11:57:52.129Z,,,,,,,,,,,,,,,,54,,,,,,,,,,,,,,494.31300002384523,,response,,,100,,,,,,Space,keypress(Space),,,,,-- --- ---- --- ------ ----- ------- ---- -- --- ------- --<br>------- ---------- ------ -- ----- -- ----- -- ---- ------<br>--- ----- --- --- ------ -------- ----- --- ------ ----- --<br>----- ----- ---------- --- --- ------ ------ ---- -- ------<br>------- --- French ----- --- ---- ------- -- ---- --- --<br>------- ------,128893.79999995232,128893.10000002384,128382.117,128382.19999992847,128398.787,128898.885,,45,French
screen,html.Screen,0_2_1_1_46,2021-11-19T11:57:52.609Z,,,,,,,,,,,,,,,,54,,,,,,,,,,,,,,474.2150000238471,,response,,,100,,,,,,Space,keypress(Space),,,,,-- --- ---- --- ------ ----- ------- ---- -- --- ------- --<br>------- ---------- ------ -- ----- -- ----- -- ---- ------<br>--- ----- --- --- ------ -------- ----- --- ------ ----- --<br>----- ----- ---------- --- --- ------ ------ ---- -- ------<br>------- --- ------ state --- ---- ------- -- ---- --- --<br>------- ------,129373.89999997616,129373.10000002384,128882.215,128894,128898.885,129382.357,,46,state
screen,html.Screen,0_2_1_1_47,2021-11-19T11:57:53.425Z,,,,,,,,,,,,,,,,54,,,,,,,,,,,,,,806.5429999761545,,response,,,100,,,,,,Space,keypress(Space),,,,,-- --- ---- --- ------ ----- ------- ---- -- --- ------- --<br>------- ---------- ------ -- ----- -- ----- -- ---- ------<br>--- ----- --- --- ------ -------- ----- --- ------ ----- --<br>----- ----- ---------- --- --- ------ ------ ---- -- ------<br>------- --- ------ ----- was ---- ------- -- ---- --- --<br>------- ------,130189.69999992847,130188.89999997616,129365.687,129374.10000002384,129382.357,130199.196,,47,was
screen,html.Screen,0_2_1_1_48,2021-11-19T11:57:54.009Z,,,,,,,,,,,,,,,,54,,,,,,,,,,,,,,573.7039999761619,,response,,,100,,,,,,Space,keypress(Space),,,,,-- --- ---- --- ------ ----- ------- ---- -- --- ------- --<br>------- ---------- ------ -- ----- -- ----- -- ---- ------<br>--- ----- --- --- ------ -------- ----- --- ------ ----- --<br>----- ----- ---------- --- --- ------ ------ ---- -- ------<br>------- --- ------ ----- --- left ------- -- ---- --- --<br>------- ------,130773.69999992847,130772.89999997616,130182.526,130189.89999997616,130199.196,130782.683,,48,left
screen,html.Screen,0_2_1_1_49,2021-11-19T11:57:54.569Z,,,,,,,,,,,,,,,,54,,,,,,,,,,,,,,550.2169999761536,,response,,,100,,,,,,Space,keypress(Space),,,,,-- --- ---- --- ------ ----- ------- ---- -- --- ------- --<br>------- ---------- ------ -- ----- -- ----- -- ---- ------<br>--- ----- --- --- ------ -------- ----- --- ------ ----- --<br>----- ----- ---------- --- --- ------ ------ ---- -- ------<br>------- --- ------ ----- --- ---- without -- ---- --- --<br>------- ------,131333.89999997616,131332.89999997616,130766.013,130773.89999997616,130782.683,131349.49,,49,without
screen,html.Screen,0_2_1_1_50,2021-11-19T11:57:55.033Z,,,,,,,,,,,,,,,,54,,,,,,,,,,,,,,447.3099999523256,,response,,,100,,,,,,Space,keypress(Space),,,,,-- --- ---- --- ------ ----- ------- ---- -- --- ------- --<br>------- ---------- ------ -- ----- -- ----- -- ---- ------<br>--- ----- --- --- ------ -------- ----- --- ------ ----- --<br>----- ----- ---------- --- --- ------ ------ ---- -- ------<br>------- --- ------ ----- --- ---- ------- an ---- --- --<br>------- ------,131797.60000002384,131796.79999995232,131332.82,131334,131349.49,131799.589,,50,an
screen,html.Screen,0_2_1_1_51,2021-11-19T11:57:55.945Z,,,,,,,,,,,,,,,,54,,,,,,,,,,,,,,909.2109999523091,,response,,,100,,,,,,Space,keypress(Space),,,,,-- --- ---- --- ------ ----- ------- ---- -- --- ------- --<br>------- ---------- ------ -- ----- -- ----- -- ---- ------<br>--- ----- --- --- ------ -------- ----- --- ------ ----- --<br>----- ----- ---------- --- --- ------ ------ ---- -- ------<br>------- --- ------ ----- --- ---- ------- -- easy --- --<br>------- ------,132709.69999992847,132708.79999995232,131782.919,131797.89999997616,131799.589,132716.457,,51,easy
screen,html.Screen,0_2_1_1_52,2021-11-19T11:57:56.465Z,,,,,,,,,,,,,,,,54,,,,,,,,,,,,,,512.2429999284795,,response,,,100,,,,,,Space,keypress(Space),,,,,-- --- ---- --- ------ ----- ------- ---- -- --- ------- --<br>------- ---------- ------ -- ----- -- ----- -- ---- ------<br>--- ----- --- --- ------ -------- ----- --- ------ ----- --<br>----- ----- ---------- --- --- ------ ------ ---- -- ------<br>------- --- ------ ----- --- ---- ------- -- ---- way --<br>------- ------,133229.60000002384,133228.69999992847,132699.787,132710,132716.457,133233.147,,52,way
screen,html.Screen,0_2_1_1_53,2021-11-19T11:57:57.209Z,,,,,,,,,,,,,,,,54,,,,,,,,,,,,,,739.5529999284772,,response,,,100,,,,,,Space,keypress(Space),,,,,-- --- ---- --- ------ ----- ------- ---- -- --- ------- --<br>------- ---------- ------ -- ----- -- ----- -- ---- ------<br>--- ----- --- --- ------ -------- ----- --- ------ ----- --<br>----- ----- ---------- --- --- ------ ------ ---- -- ------<br>------- --- ------ ----- --- ---- ------- -- ---- --- of<br>------- ------,133973.60000002384,133972.69999992847,133216.478,133229.79999995232,133233.147,133983.538,,53,of
screen,html.Screen,0_2_1_1_54,2021-11-19T11:57:57.745Z,,,,,,,,,,,,,,,,54,,,,,,,,,,,,,,525.0620000238414,,response,,,100,,,,,,Space,keypress(Space),,,,,-- --- ---- --- ------ ----- ------- ---- -- --- ------- --<br>------- ---------- ------ -- ----- -- ----- -- ---- ------<br>--- ----- --- --- ------ -------- ----- --- ------ ----- --<br>----- ----- ---------- --- --- ------ ------ ---- -- ------<br>------- --- ------ ----- --- ---- ------- -- ---- --- --<br>raising ------,134509.5,134508.60000002384,133966.867,133973.69999992847,133983.538,134516.916,,54,raising
screen,html.Screen,0_2_1_1_55,2021-11-19T11:57:58.513Z,,,,,,,,,,,,,,,,54,,,,,,,,,,,,,,760.0840000000026,,response,,,100,,,,,,Space,keypress(Space),,,,,-- --- ---- --- ------ ----- ------- ---- -- --- ------- --<br>------- ---------- ------ -- ----- -- ----- -- ---- ------<br>--- ----- --- --- ------ -------- ----- --- ------ ----- --<br>----- ----- ---------- --- --- ------ ------ ---- -- ------<br>------- --- ------ ----- --- ---- ------- -- ---- --- --<br>------- money.,135277.60000002384,135277,134500.246,134509.69999992847,134516.916,135283.752,,55,money.
Item 100,flow.Loop,0_2_1_1,2021-11-19T11:57:58.513Z,,,,,,,,,,,,,,,,,,,,,,,,,,,,,,32567.909,,completion,,,,C,,,,,,,,,,silence,,135278,135277,102692.421,102694.5,102709.091,135283.752,,,
Question 1,html.Screen,0_2_1_2,2021-11-19T11:58:02.448Z,,,,,,,,,,,,,,,,,,,,,,,,,,,true,TRUE,,3928.348000023834,,response,,,100,C,,,,,TRUE,click #choice-1,,,,silence,,139213.39999997616,139212.10000002384,135267.082,135278.19999992847,135283.752,139218.021,,,
Question 2,html.Screen,0_2_1_3,2021-11-19T11:58:05.328Z,,,,,,,,,,,,,,,,,,,,,,,,,,,true,FALSE,,2873.87899997615,,response,,,100,C,,,,,FALSE,click #choice-2,,,,silence,,142093.10000002384,142091.89999997616,139201.351,139213.69999992847,139218.021,142102.129,,,
Item 100,flow.Sequence,0_2_1,2021-11-19T11:58:05.329Z,,,,,,,,,,,,,,,,,,,,,,,,,,,,,,49385.311999976155,,completion,,,,,,,,,,,,,,,,142093.5,142091.89999997616,92689.921,92697.5,92706.588,142102.129,,,
End of Practice,html.Page,0_2_2,2021-11-19T11:58:11.201Z,,,,,,,,,,,,,,,,,,,,,,,,,,,,,,5862.971000023856,,form submission,,,,,,,,,,,,,,,,147965.60000002384,147965.10000002384,142085.458,142093.60000002384,142102.129,147970.35,,,
Practice,flow.Sequence,0_2,2021-11-19T11:58:11.201Z,,,,,,,,,,,,,,,,,,,,,,,,,,,,,,100752.65100002385,,completion,,,,,,,,,,,,,,,,147966.10000002384,147965.10000002384,47195.777,47204.699999928474,47212.449,147970.35,,,
Trap_instruction,html.Page,0_3_0,2021-11-19T11:58:11.312Z,,,,,,,,,,,,,,,,,,,,,,,,,,,,,,106.44999995231046,,form submission,,,,,,,,,,,,,,,,148077.19999992847,148076.79999995232,147953.67,147966.5,147970.35,148086.832,,,
trap_trial,html.Screen,0_3_1,2021-11-19T11:58:16.367Z,,,,,,,,,,,,,,,,,,,,,,,,,,,true,1,,5044.268000023847,,response,,,,,,,,,1,click #choice-1,,,,,,153132.5,153131.10000002384,148070.162,148077.39999997616,148086.832,153134.559,,,
end of trap trial,html.Page,0_3_2,2021-11-19T11:58:19.504Z,,,,,,,,,,,,,,,,,,,,,,,,,,,,,,3133.740999952308,,form submission,,,,,,,,,,,,,,,,156268.79999995232,156268.29999995232,153117.9,153132.69999992847,153134.559,156272.131,,,
Trap 1,flow.Sequence,0_3,2021-11-19T11:58:19.504Z,,,,,,,,,,,,,,,,,,,,,,,,,,,,,,8297.94999995231,,completion,,,,,,,,,,,,,,,,156269.29999995232,156268.29999995232,147953.67,147966.39999997616,147970.35,156272.131,,,
Standby,html.Page,0_4_0,2021-11-19T11:58:27.494Z,,,,,,,,,,,,,,,,,,,,,,,,,,,,,,8001.713000000018,,timeout,,,,,,,,,,,,,,,,164258.89999997616,164257.174,156255.461,156269.60000002384,156272.131,164273.844,,,
Holding screen,html.Screen,0_4_1_0_0,2021-11-19T11:58:34.496Z,,,,,,,,,,,,,,,,,,,,,,,,,,,,,,7002.112999999983,,timeout,,,,,,,,,,,,,,,,171260.5,171259.286,164257.174,164259.29999995232,164273.844,171275.957,,,
screen,html.Screen,0_4_1_0_1_0,2021-11-19T11:58:35.198Z,,,,,,,,,,,,,,,,48,,,,,,,,,,,,,,686.5430000000051,,response,,,10,C,,,,,Space,keypress(Space),,,,instrumental,As -- --- ------ ------- --------- ----------- --------<br>--------- -------- --- ------- -- ------- ---- -- ------<br>-- --- -------- -------- ---------- ---- ---- ---- ------<br>-- --------- -- ---- -- --- -- --- ------- -- - -----<br>---------- -- -- -- ---- ----- -- ------ -- --- ------<br>-------,171963.39999997616,171962.5,171259.286,171261,171275.957,171975.962,,0,As
screen,html.Screen,0_4_1_0_1_1,2021-11-19T11:58:35.606Z,,,,,,,,,,,,,,,,48,,,,,,,,,,,,,,394.03800000000047,,response,,,10,C,,,,,Space,keypress(Space),,,,instrumental,-- in --- ------ ------- --------- ----------- --------<br>--------- -------- --- ------- -- ------- ---- -- ------<br>-- --- -------- -------- ---------- ---- ---- ---- ------<br>-- --------- -- ---- -- --- -- --- ------- -- - -----<br>---------- -- -- -- ---- ----- -- ------ -- --- ------<br>-------,172370.89999997616,172370,171959.292,171963.79999995232,171975.962,172376.114,,1,in
screen,html.Screen,0_4_1_0_1_2,2021-11-19T11:58:35.966Z,,,,,,,,,,,,,,,,48,,,,,,,,,,,,,,353.78599997615675,,response,,,10,C,,,,,Space,keypress(Space),,,,instrumental,-- -- the ------ ------- --------- ----------- --------<br>--------- -------- --- ------- -- ------- ---- -- ------<br>-- --- -------- -------- ---------- ---- ---- ---- ------<br>-- --------- -- ---- -- --- -- --- ------- -- - -----<br>---------- -- -- -- ---- ----- -- ------ -- --- ------<br>-------,172730.69999992847,172729.89999997616,172359.444,172371.29999995232,172376.114,172742.794,,2,the
screen,html.Screen,0_4_1_0_1_3,2021-11-19T11:58:36.302Z,,,,,,,,,,,,,,,,48,,,,,,,,,,,,,,323.2060000000056,,response,,,10,C,,,,,Space,keypress(Space),,,,instrumental,-- -- --- United ------- --------- ----------- --------<br>--------- -------- --- ------- -- ------- ---- -- ------<br>-- --- -------- -------- ---------- ---- ---- ---- ------<br>-- --------- -- ---- -- --- -- --- ------- -- - -----<br>---------- -- -- -- ---- ----- -- ------ -- --- ------<br>-------,173066.69999992847,173066,172726.125,172731,172742.794,173076.383,,3,United
screen,html.Screen,0_4_1_0_1_4,2021-11-19T11:58:36.662Z,,,,,,,,,,,,,,,,48,,,,,,,,,,,,,,349.5169999761565,,response,,,10,C,,,,,Space,keypress(Space),,,,instrumental,"-- -- --- ------ States, --------- ----------- --------<br>--------- -------- --- ------- -- ------- ---- -- ------<br>-- --- -------- -------- ---------- ---- ---- ---- ------<br>-- --------- -- ---- -- --- -- --- ------- -- - -----<br>---------- -- -- -- ---- ----- -- ------ -- --- ------<br>-------",173426.79999995232,173425.89999997616,173059.711,173067,173076.383,173443.042,,4,"States,"
screen,html.Screen,0_4_1_0_1_5,2021-11-19T11:58:37.110Z,,,,,,,,,,,,,,,,48,,,,,,,,,,,,,,430.8579999761714,,response,,,10,C,,,,,Space,keypress(Space),,,,instrumental,-- -- --- ------ ------- Colombian ----------- --------<br>--------- -------- --- ------- -- ------- ---- -- ------<br>-- --- -------- -------- ---------- ---- ---- ---- ------<br>-- --------- -- ---- -- --- -- --- ------- -- - -----<br>---------- -- -- -- ---- ----- -- ------ -- --- ------<br>-------,173874.60000002384,173873.89999997616,173426.372,173427,173443.042,173876.351,,5,Colombian
screen,html.Screen,0_4_1_0_1_6,2021-11-19T11:58:37.526Z,,,,,,,,,,,,,,,,48,,,,,,,,,,,,,,413.54899997616303,,response,,,10,C,,,,,Space,keypress(Space),,,,instrumental,-- -- --- ------ ------- --------- legislation --------<br>--------- -------- --- ------- -- ------- ---- -- ------<br>-- --- -------- -------- ---------- ---- ---- ---- ------<br>-- --------- -- ---- -- --- -- --- ------- -- - -----<br>---------- -- -- -- ---- ----- -- ------ -- --- ------<br>-------,174290.69999992847,174289.89999997616,173859.683,173875,173876.351,174293.344,,6,legislation
screen,html.Screen,0_4_1_0_1_7,2021-11-19T11:58:38.262Z,,,,,,,,,,,,,,,,48,,,,,,,,,,,,,,732.4559999523044,,response,,,10,C,,,,,Space,keypress(Space),,,,instrumental,-- -- --- ------ ------- --------- ----------- requires<br>--------- -------- --- ------- -- ------- ---- -- ------<br>-- --- -------- -------- ---------- ---- ---- ---- ------<br>-- --------- -- ---- -- --- -- --- ------- -- - -----<br>---------- -- -- -- ---- ----- -- ------ -- --- ------<br>-------,175026.69999992847,175025.79999995232,174276.672,174291,174293.344,175043.437,,7,requires
screen,html.Screen,0_4_1_0_1_8,2021-11-19T11:58:38.758Z,,,,,,,,,,,,,,,,48,,,,,,,,,,,,,,478.36299995231093,,response,,,10,C,,,,,Space,keypress(Space),,,,instrumental,-- -- --- ------ ------- --------- ----------- --------<br>travelers -------- --- ------- -- ------- ---- -- ------<br>-- --- -------- -------- ---------- ---- ---- ---- ------<br>-- --------- -- ---- -- --- -- --- ------- -- - -----<br>---------- -- -- -- ---- ----- -- ------ -- --- ------<br>-------,175522.60000002384,175521.79999995232,175026.767,175026.89999997616,175043.437,175526.868,,8,travelers
screen,html.Screen,0_4_1_0_1_9,2021-11-19T11:58:39.190Z,,,,,,,,,,,,,,,,48,,,,,,,,,,,,,,426.83199992848677,,response,,,10,C,,,,,Space,keypress(Space),,,,instrumental,-- -- --- ------ ------- --------- ----------- --------<br>--------- entering --- ------- -- ------- ---- -- ------<br>-- --- -------- -------- ---------- ---- ---- ---- ------<br>-- --------- -- ---- -- --- -- --- ------- -- - -----<br>---------- -- -- -- ---- ----- -- ------ -- --- ------<br>-------,175954.5,175953.69999992847,175510.198,175522.79999995232,175526.868,175960.332,,9,entering
screen,html.Screen,0_4_1_0_1_10,2021-11-19T11:58:39.598Z,,,,,,,,,,,,,,,,48,,,,,,,,,,,,,,401.4679999523214,,response,,,10,C,,,,,Space,keypress(Space),,,,instrumental,-- -- --- ------ ------- --------- ----------- --------<br>--------- -------- the ------- -- ------- ---- -- ------<br>-- --- -------- -------- ---------- ---- ---- ---- ------<br>-- --------- -- ---- -- --- -- --- ------- -- - -----<br>---------- -- -- -- ---- ----- -- ------ -- --- ------<br>-------,176362.60000002384,176361.79999995232,175943.662,175954.69999992847,175960.332,176377.099,,10,the
screen,html.Screen,0_4_1_0_1_11,2021-11-19T11:58:39.998Z,,,,,,,,,,,,,,,,48,,,,,,,,,,,,,,384.600999928487,,response,,,10,C,,,,,Space,keypress(Space),,,,instrumental,-- -- --- ------ ------- --------- ----------- --------<br>--------- -------- --- country -- ------- ---- -- ------<br>-- --- -------- -------- ---------- ---- ---- ---- ------<br>-- --------- -- ---- -- --- -- --- ------- -- - -----<br>---------- -- -- -- ---- ----- -- ------ -- --- ------<br>-------,176762.5,176761.69999992847,176360.429,176362.79999995232,176377.099,176777.063,,11,country
screen,html.Screen,0_4_1_0_1_12,2021-11-19T11:58:40.430Z,,,,,,,,,,,,,,,,48,,,,,,,,,,,,,,416.5370000238472,,response,,,10,C,,,,,Space,keypress(Space),,,,instrumental,-- -- --- ------ ------- --------- ----------- --------<br>--------- -------- --- ------- to ------- ---- -- ------<br>-- --- -------- -------- ---------- ---- ---- ---- ------<br>-- --------- -- ---- -- --- -- --- ------- -- - -----<br>---------- -- -- -- ---- ----- -- ------ -- --- ------<br>-------,177194.5,177193.60000002384,176760.395,176762.79999995232,176777.063,177210.59,,12,to
screen,html.Screen,0_4_1_0_1_13,2021-11-19T11:58:41.366Z,,,,,,,,,,,,,,,,48,,,,,,,,,,,,,,919.0100000238454,,response,,,10,C,,,,,Space,keypress(Space),,,,instrumental,-- -- --- ------ ------- --------- ----------- --------<br>--------- -------- --- ------- -- declare ---- -- ------<br>-- --- -------- -------- ---------- ---- ---- ---- ------<br>-- --------- -- ---- -- --- -- --- ------- -- - -----<br>---------- -- -- -- ---- ----- -- ------ -- --- ------<br>-------,178130.5,178129.60000002384,177193.92,177194.79999995232,177210.59,178144.311,,13,declare
screen,html.Screen,0_4_1_0_1_14,2021-11-19T11:58:42.093Z,,,,,,,,,,,,,,,,48,,,,,,,,,,,,,,713.2890000238549,,response,,,10,C,,,,,Space,keypress(Space),,,,instrumental,-- -- --- ------ ------- --------- ----------- --------<br>--------- -------- --- ------- -- ------- cash -- ------<br>-- --- -------- -------- ---------- ---- ---- ---- ------<br>-- --------- -- ---- -- --- -- --- ------- -- - -----<br>---------- -- -- -- ---- ----- -- ------ -- --- ------<br>-------,178858.39999997616,178857.60000002384,178127.639,178130.69999992847,178144.311,178860.898,,14,cash
screen,html.Screen,0_4_1_0_1_15,2021-11-19T11:58:42.549Z,,,,,,,,,,,,,,,,48,,,,,,,,,,,,,,452.6020000000135,,response,,,10,C,,,,,Space,keypress(Space),,,,instrumental,-- -- --- ------ ------- --------- ----------- --------<br>--------- -------- --- ------- -- ------- ---- in ------<br>-- --- -------- -------- ---------- ---- ---- ---- ------<br>-- --------- -- ---- -- --- -- --- ------- -- - -----<br>---------- -- -- -- ---- ----- -- ------ -- --- ------<br>-------,179314.29999995232,179313.5,178844.229,178858.60000002384,178860.898,179327.864,,15,in
screen,html.Screen,0_4_1_0_1_16,2021-11-19T11:58:43.125Z,,,,,,,,,,,,,,,,48,,,,,,,,,,,,,,561.6359999999986,,response,,,10,C,,,,,Space,keypress(Space),,,,instrumental,-- -- --- ------ ------- --------- ----------- --------<br>--------- -------- --- ------- -- ------- ---- -- excess<br>-- --- -------- -------- ---------- ---- ---- ---- ------<br>-- --------- -- ---- -- --- -- --- ------- -- - -----<br>---------- -- -- -- ---- ----- -- ------ -- --- ------<br>-------,179890.29999995232,179889.5,179311.193,179314.60000002384,179327.864,179894.612,,16,excess
screen,html.Screen,0_4_1_0_1_17,2021-11-19T11:58:43.534Z,,,,,,,,,,,,,,,,48,,,,,,,,,,,,,,402.8880000000063,,response,,,10,C,,,,,Space,keypress(Space),,,,instrumental,-- -- --- ------ ------- --------- ----------- --------<br>--------- -------- --- ------- -- ------- ---- -- ------<br>of --- -------- -------- ---------- ---- ---- ---- ------<br>-- --------- -- ---- -- --- -- --- ------- -- - -----<br>---------- -- -- -- ---- ----- -- ------ -- --- ------<br>-------,180298.5,180297.5,179877.942,179890.60000002384,179894.612,180311.373,,17,of
screen,html.Screen,0_4_1_0_1_18,2021-11-19T11:58:43.877Z,,,,,,,,,,,,,,,,48,,,,,,,,,,,,,,330.1270000000077,,response,,,10,C,,,,,Space,keypress(Space),,,,instrumental,-- -- --- ------ ------- --------- ----------- --------<br>--------- -------- --- ------- -- ------- ---- -- ------<br>-- ten -------- -------- ---------- ---- ---- ---- ------<br>-- --------- -- ---- -- --- -- --- ------- -- - -----<br>---------- -- -- -- ---- ----- -- ------ -- --- ------<br>-------,180642.19999992847,180641.5,180294.703,180298.79999995232,180311.373,180644.805,,18,ten
screen,html.Screen,0_4_1_0_1_19,2021-11-19T11:58:44.257Z,,,,,,,,,,,,,,,,48,,,,,,,,,,,,,,380.5949999761651,,response,,,10,C,,,,,Space,keypress(Space),,,,instrumental,-- -- --- ------ ------- --------- ----------- --------<br>--------- -------- --- ------- -- ------- ---- -- ------<br>-- --- thousand -------- ---------- ---- ---- ---- ------<br>-- --------- -- ---- -- --- -- --- ------- -- - -----<br>---------- -- -- -- ---- ----- -- ------ -- --- ------<br>-------,181026.19999992847,181025.39999997616,180628.135,180642.5,180644.805,181028.232,,19,thousand
screen,html.Screen,0_4_1_0_1_20,2021-11-19T11:58:44.761Z,,,,,,,,,,,,,,,,48,,,,,,,,,,,,,,501.1679999761691,,response,,,10,C,,,,,Space,keypress(Space),,,,instrumental,-- -- --- ------ ------- --------- ----------- --------<br>--------- -------- --- ------- -- ------- ---- -- ------<br>-- --- -------- dollars. ---------- ---- ---- ---- ------<br>-- --------- -- ---- -- --- -- --- ------- -- - -----<br>---------- -- -- -- ---- ----- -- ------ -- --- ------<br>-------,181530.10000002384,181529.39999997616,181011.562,181026.39999997616,181028.232,181544.952,,20,dollars.
screen,html.Screen,0_4_1_0_1_21,2021-11-19T11:58:45.697Z,,,,,,,,,,,,,,,,48,,,,,,,,,,,,,,920.6480000238516,,response,,,10,C,,,,,Space,keypress(Space),,,,instrumental,-- -- --- ------ ------- --------- ----------- --------<br>--------- -------- --- ------- -- ------- ---- -- ------<br>-- --- -------- -------- Concealing ---- ---- ---- ------<br>-- --------- -- ---- -- --- -- --- ------- -- - -----<br>---------- -- -- -- ---- ----- -- ------ -- --- ------<br>-------,182466.60000002384,182465.60000002384,181528.283,181530.39999997616,181544.952,182478.631,,21,Concealing
screen,html.Screen,0_4_1_0_1_22,2021-11-19T11:58:46.144Z,,,,,,,,,,,,,,,,48,,,,,,,,,,,,,,434.5689999284805,,response,,,10,C,,,,,Space,keypress(Space),,,,instrumental,-- -- --- ------ ------- --------- ----------- --------<br>--------- -------- --- ------- -- ------- ---- -- ------<br>-- --- -------- -------- ---------- more ---- ---- ------<br>-- --------- -- ---- -- --- -- --- ------- -- - -----<br>---------- -- -- -- ---- ----- -- ------ -- --- ------<br>-------,182914,182913.19999992847,182461.96,182466.89999997616,182478.631,182928.539,,22,more
screen,html.Screen,0_4_1_0_1_23,2021-11-19T11:58:46.529Z,,,,,,,,,,,,,,,,48,,,,,,,,,,,,,,368.76099995232653,,response,,,10,C,,,,,Space,keypress(Space),,,,instrumental,-- -- --- ------ ------- --------- ----------- --------<br>--------- -------- --- ------- -- ------- ---- -- ------<br>-- --- -------- -------- ---------- ---- than ---- ------<br>-- --------- -- ---- -- --- -- --- ------- -- - -----<br>---------- -- -- -- ---- ----- -- ------ -- --- ------<br>-------,183298,183297.29999995232,182911.87,182914.19999992847,182928.539,183312.151,,23,than
screen,html.Screen,0_4_1_0_1_24,2021-11-19T11:58:46.920Z,,,,,,,,,,,,,,,,48,,,,,,,,,,,,,,377.1489999523037,,response,,,10,C,,,,,Space,keypress(Space),,,,instrumental,-- -- --- ------ ------- --------- ----------- --------<br>--------- -------- --- ------- -- ------- ---- -- ------<br>-- --- -------- -------- ---------- ---- ---- that ------<br>-- --------- -- ---- -- --- -- --- ------- -- - -----<br>---------- -- -- -- ---- ----- -- ------ -- --- ------<br>-------,183690,183689.29999995232,183295.48,183298.29999995232,183312.151,183695.559,,24,that
screen,html.Screen,0_4_1_0_1_25,2021-11-19T11:58:47.448Z,,,,,,,,,,,,,,,,48,,,,,,,,,,,,,,521.640999928466,,response,,,10,C,,,,,Space,keypress(Space),,,,instrumental,-- -- --- ------ ------- --------- ----------- --------<br>--------- -------- --- ------- -- ------- ---- -- ------<br>-- --- -------- -------- ---------- ---- ---- ---- amount<br>-- --------- -- ---- -- --- -- --- ------- -- - -----<br>---------- -- -- -- ---- ----- -- ------ -- --- ------<br>-------,184217.89999997616,184217.19999992847,183678.889,183690.19999992847,183695.559,184228.998,,25,amount
screen,html.Screen,0_4_1_0_1_26,2021-11-19T11:58:47.960Z,,,,,,,,,,,,,,,,48,,,,,,,,,,,,,,500.30199995232397,,response,,,10,C,,,,,Space,keypress(Space),,,,instrumental,-- -- --- ------ ------- --------- ----------- --------<br>--------- -------- --- ------- -- ------- ---- -- ------<br>-- --- -------- -------- ---------- ---- ---- ---- ------<br>to --------- -- ---- -- --- -- --- ------- -- - -----<br>---------- -- -- -- ---- ----- -- ------ -- --- ------<br>-------,184730,184729.29999995232,184212.328,184218.29999995232,184228.998,184745.641,,26,to
screen,html.Screen,0_4_1_0_1_27,2021-11-19T11:58:48.368Z,,,,,,,,,,,,,,,,48,,,,,,,,,,,,,,391.4590000238386,,response,,,10,C,,,,,Space,keypress(Space),,,,instrumental,-- -- --- ------ ------- --------- ----------- --------<br>--------- -------- --- ------- -- ------- ---- -- ------<br>-- --- -------- -------- ---------- ---- ---- ---- ------<br>-- transport -- ---- -- --- -- --- ------- -- - -----<br>---------- -- -- -- ---- ----- -- ------ -- --- ------<br>-------,185137.89999997616,185137.10000002384,184728.973,184730.19999992847,184745.641,185145.952,,27,transport
screen,html.Screen,0_4_1_0_1_28,2021-11-19T11:58:48.896Z,,,,,,,,,,,,,,,,48,,,,,,,,,,,,,,519.1480000238516,,response,,,10,C,,,,,Space,keypress(Space),,,,instrumental,-- -- --- ------ ------- --------- ----------- --------<br>--------- -------- --- ------- -- ------- ---- -- ------<br>-- --- -------- -------- ---------- ---- ---- ---- ------<br>-- --------- it ---- -- --- -- --- ------- -- - -----<br>---------- -- -- -- ---- ----- -- ------ -- --- ------<br>-------,185665.89999997616,185665.10000002384,185129.281,185138.19999992847,185145.952,185679.244,,28,it
screen,html.Screen,0_4_1_0_1_29,2021-11-19T11:58:49.480Z,,,,,,,,,,,,,,,,48,,,,,,,,,,,,,,569.755999999994,,response,,,10,C,,,,,Space,keypress(Space),,,,instrumental,-- -- --- ------ ------- --------- ----------- --------<br>--------- -------- --- ------- -- ------- ---- -- ------<br>-- --- -------- -------- ---------- ---- ---- ---- ------<br>-- --------- -- into -- --- -- --- ------- -- - -----<br>---------- -- -- -- ---- ----- -- ------ -- --- ------<br>-------,186249.89999997616,186249,185662.575,185666.10000002384,185679.244,186262.948,,29,into
screen,html.Screen,0_4_1_0_1_30,2021-11-19T11:58:49.848Z,,,,,,,,,,,,,,,,48,,,,,,,,,,,,,,354.1520000238379,,response,,,10,C,,,,,Space,keypress(Space),,,,instrumental,-- -- --- ------ ------- --------- ----------- --------<br>--------- -------- --- ------- -- ------- ---- -- ------<br>-- --- -------- -------- ---------- ---- ---- ---- ------<br>-- --------- -- ---- or --- -- --- ------- -- - -----<br>---------- -- -- -- ---- ----- -- ------ -- --- ------<br>-------,186617.79999995232,186617.10000002384,186246.276,186250,186262.948,186629.594,,30,or
screen,html.Screen,0_4_1_0_1_31,2021-11-19T11:58:50.216Z,,,,,,,,,,,,,,,,48,,,,,,,,,,,,,,355.4059999999881,,response,,,10,C,,,,,Space,keypress(Space),,,,instrumental,-- -- --- ------ ------- --------- ----------- --------<br>--------- -------- --- ------- -- ------- ---- -- ------<br>-- --- -------- -------- ---------- ---- ---- ---- ------<br>-- --------- -- ---- -- out -- --- ------- -- - -----<br>---------- -- -- -- ---- ----- -- ------ -- --- ------<br>-------,186985.79999995232,186985,186612.924,186618,186629.594,186996.34,,31,out
screen,html.Screen,0_4_1_0_1_32,2021-11-19T11:58:50.560Z,,,,,,,,,,,,,,,,48,,,,,,,,,,,,,,332.6600000000035,,response,,,10,C,,,,,Space,keypress(Space),,,,instrumental,-- -- --- ------ ------- --------- ----------- --------<br>--------- -------- --- ------- -- ------- ---- -- ------<br>-- --- -------- -------- ---------- ---- ---- ---- ------<br>-- --------- -- ---- -- --- of --- ------- -- - -----<br>---------- -- -- -- ---- ----- -- ------ -- --- ------<br>-------,187329.79999995232,187329,186979.67,186986,186996.34,187346.446,,32,of
screen,html.Screen,0_4_1_0_1_33,2021-11-19T11:58:50.928Z,,,,,,,,,,,,,,,,48,,,,,,,,,,,,,,350.45399997616187,,response,,,10,C,,,,,Space,keypress(Space),,,,instrumental,-- -- --- ------ ------- --------- ----------- --------<br>--------- -------- --- ------- -- ------- ---- -- ------<br>-- --- -------- -------- ---------- ---- ---- ---- ------<br>-- --------- -- ---- -- --- -- the ------- -- - -----<br>---------- -- -- -- ---- ----- -- ------ -- --- ------<br>-------,187697.79999995232,187696.89999997616,187329.776,187330.10000002384,187346.446,187713.052,,33,the
screen,html.Screen,0_4_1_0_1_34,2021-11-19T11:58:51.384Z,,,,,,,,,,,,,,,,48,,,,,,,,,,,,,,439.8479999761621,,response,,,10,C,,,,,Space,keypress(Space),,,,instrumental,-- -- --- ------ ------- --------- ----------- --------<br>--------- -------- --- ------- -- ------- ---- -- ------<br>-- --- -------- -------- ---------- ---- ---- ---- ------<br>-- --------- -- ---- -- --- -- --- country -- - -----<br>---------- -- -- -- ---- ----- -- ------ -- --- ------<br>-------,188153.60000002384,188152.89999997616,187696.384,187698,187713.052,188163.249,,34,country
screen,html.Screen,0_4_1_0_1_35,2021-11-19T11:58:51.744Z,,,,,,,,,,,,,,,,48,,,,,,,,,,,,,,349.65099997614743,,response,,,10,C,,,,,Space,keypress(Space),,,,instrumental,-- -- --- ------ ------- --------- ----------- --------<br>--------- -------- --- ------- -- ------- ---- -- ------<br>-- --- -------- -------- ---------- ---- ---- ---- ------<br>-- --------- -- ---- -- --- -- --- ------- is - -----<br>---------- -- -- -- ---- ----- -- ------ -- --- ------<br>-------,188513.69999992847,188512.89999997616,188146.579,188153.89999997616,188163.249,188530.136,,35,is
screen,html.Screen,0_4_1_0_1_36,2021-11-19T11:58:52.192Z,,,,,,,,,,,,,,,,48,,,,,,,,,,,,,,430.76399997615954,,response,,,10,C,,,,,Space,keypress(Space),,,,instrumental,-- -- --- ------ ------- --------- ----------- --------<br>--------- -------- --- ------- -- ------- ---- -- ------<br>-- --- -------- -------- ---------- ---- ---- ---- ------<br>-- --------- -- ---- -- --- -- --- ------- -- a -----<br>---------- -- -- -- ---- ----- -- ------ -- --- ------<br>-------,188961.69999992847,188960.89999997616,188513.464,188513.89999997616,188530.136,188963.496,,36,a
screen,html.Screen,0_4_1_0_1_37,2021-11-19T11:58:52.808Z,,,,,,,,,,,,,,,,48,,,,,,,,,,,,,,613.4039999761444,,response,,,10,C,,,,,Space,keypress(Space),,,,instrumental,-- -- --- ------ ------- --------- ----------- --------<br>--------- -------- --- ------- -- ------- ---- -- ------<br>-- --- -------- -------- ---------- ---- ---- ---- ------<br>-- --------- -- ---- -- --- -- --- ------- -- - crime<br>---------- -- -- -- ---- ----- -- ------ -- --- ------<br>-------,189577.69999992847,189576.89999997616,188946.826,188961.89999997616,188963.496,189580.275,,37,crime
screen,html.Screen,0_4_1_0_1_38,2021-11-19T11:58:53.320Z,,,,,,,,,,,,,,,,48,,,,,,,,,,,,,,508.5249999523221,,response,,,10,C,,,,,Space,keypress(Space),,,,instrumental,-- -- --- ------ ------- --------- ----------- --------<br>--------- -------- --- ------- -- ------- ---- -- ------<br>-- --- -------- -------- ---------- ---- ---- ---- ------<br>-- --------- -- ---- -- --- -- --- ------- -- - -----<br>punishable -- -- -- ---- ----- -- ------ -- --- ------<br>-------,190089.60000002384,190088.79999995232,189563.605,189577.79999995232,189580.275,190097.151,,38,punishable
screen,html.Screen,0_4_1_0_1_39,2021-11-19T11:58:53.736Z,,,,,,,,,,,,,,,,48,,,,,,,,,,,,,,407.6489999523037,,response,,,10,C,,,,,Space,keypress(Space),,,,instrumental,-- -- --- ------ ------- --------- ----------- --------<br>--------- -------- --- ------- -- ------- ---- -- ------<br>-- --- -------- -------- ---------- ---- ---- ---- ------<br>-- --------- -- ---- -- --- -- --- ------- -- - -----<br>---------- by -- -- ---- ----- -- ------ -- --- ------<br>-------,190505.5,190504.79999995232,190080.48,190089.69999992847,190097.151,190513.851,,39,by
screen,html.Screen,0_4_1_0_1_40,2021-11-19T11:58:54.112Z,,,,,,,,,,,,,,,,48,,,,,,,,,,,,,,366.9489999523212,,response,,,10,C,,,,,Space,keypress(Space),,,,instrumental,-- -- --- ------ ------- --------- ----------- --------<br>--------- -------- --- ------- -- ------- ---- -- ------<br>-- --- -------- -------- ---------- ---- ---- ---- ------<br>-- --------- -- ---- -- --- -- --- ------- -- - -----<br>---------- -- up -- ---- ----- -- ------ -- --- ------<br>-------,190881.60000002384,190880.79999995232,190497.181,190505.79999995232,190513.851,190897.303,,40,up
screen,html.Screen,0_4_1_0_1_41,2021-11-19T11:58:54.448Z,,,,,,,,,,,,,,,,48,,,,,,,,,,,,,,319.39699992846,,response,,,10,C,,,,,Space,keypress(Space),,,,instrumental,-- -- --- ------ ------- --------- ----------- --------<br>--------- -------- --- ------- -- ------- ---- -- ------<br>-- --- -------- -------- ---------- ---- ---- ---- ------<br>-- --------- -- ---- -- --- -- --- ------- -- - -----<br>---------- -- -- to ---- ----- -- ------ -- --- ------<br>-------,191217.5,191216.69999992847,190880.633,190881.79999995232,190897.303,191230.654,,41,to
screen,html.Screen,0_4_1_0_1_42,2021-11-19T11:58:54.888Z,,,,,,,,,,,,,,,,48,,,,,,,,,,,,,,426.0459999284649,,response,,,10,C,,,,,Space,keypress(Space),,,,instrumental,-- -- --- ------ ------- --------- ----------- --------<br>--------- -------- --- ------- -- ------- ---- -- ------<br>-- --- -------- -------- ---------- ---- ---- ---- ------<br>-- --------- -- ---- -- --- -- --- ------- -- - -----<br>---------- -- -- -- five ----- -- ------ -- --- ------<br>-------,191657.5,191656.69999992847,191213.985,191217.69999992847,191230.654,191664.191,,42,five
screen,html.Screen,0_4_1_0_1_43,2021-11-19T11:58:55.424Z,,,,,,,,,,,,,,,,48,,,,,,,,,,,,,,528.3090000000084,,response,,,10,C,,,,,Space,keypress(Space),,,,instrumental,-- -- --- ------ ------- --------- ----------- --------<br>--------- -------- --- ------- -- ------- ---- -- ------<br>-- --- -------- -------- ---------- ---- ---- ---- ------<br>-- --------- -- ---- -- --- -- --- ------- -- - -----<br>---------- -- -- -- ---- years -- ------ -- --- ------<br>-------,192193.39999997616,192192.5,191647.52,191657.69999992847,191664.191,192197.605,,43,years
screen,html.Screen,0_4_1_0_1_44,2021-11-19T11:58:55.832Z,,,,,,,,,,,,,,,,48,,,,,,,,,,,,,,403.29499997614766,,response,,,10,C,,,,,Space,keypress(Space),,,,instrumental,-- -- --- ------ ------- --------- ----------- --------<br>--------- -------- --- ------- -- ------- ---- -- ------<br>-- --- -------- -------- ---------- ---- ---- ---- ------<br>-- --------- -- ---- -- --- -- --- ------- -- - -----<br>---------- -- -- -- ---- ----- in ------ -- --- ------<br>-------,192601.69999992847,192600.89999997616,192180.935,192193.60000002384,192197.605,192614.349,,44,in
screen,html.Screen,0_4_1_0_1_45,2021-11-19T11:58:56.216Z,,,,,,,,,,,,,,,,48,,,,,,,,,,,,,,370.25100002385443,,response,,,10,C,,,,,Space,keypress(Space),,,,instrumental,-- -- --- ------ ------- --------- ----------- --------<br>--------- -------- --- ------- -- ------- ---- -- ------<br>-- --- -------- -------- ---------- ---- ---- ---- ------<br>-- --------- -- ---- -- --- -- --- ------- -- - -----<br>---------- -- -- -- ---- ----- -- prison -- --- ------<br>-------,192985.39999997616,192984.60000002384,192597.679,192601.89999997616,192614.349,192997.71,,45,prison
screen,html.Screen,0_4_1_0_1_46,2021-11-19T11:58:56.632Z,,,,,,,,,,,,,,,,48,,,,,,,,,,,,,,402.89000002385,,response,,,10,C,,,,,Space,keypress(Space),,,,instrumental,-- -- --- ------ ------- --------- ----------- --------<br>--------- -------- --- ------- -- ------- ---- -- ------<br>-- --- -------- -------- ---------- ---- ---- ---- ------<br>-- --------- -- ---- -- --- -- --- ------- -- - -----<br>---------- -- -- -- ---- ----- -- ------ in --- ------<br>-------,193401.39999997616,193400.60000002384,192981.041,192985.60000002384,192997.71,193414.671,,46,in
screen,html.Screen,0_4_1_0_1_47,2021-11-19T11:58:57.072Z,,,,,,,,,,,,,,,,48,,,,,,,,,,,,,,425.92900002383976,,response,,,10,C,,,,,Space,keypress(Space),,,,instrumental,-- -- --- ------ ------- --------- ----------- --------<br>--------- -------- --- ------- -- ------- ---- -- ------<br>-- --- -------- -------- ---------- ---- ---- ---- ------<br>-- --------- -- ---- -- --- -- --- ------- -- - -----<br>---------- -- -- -- ---- ----- -- ------ -- the ------<br>-------,193841.29999995232,193840.60000002384,193397.999,193401.60000002384,193414.671,193847.99,,47,the
screen,html.Screen,0_4_1_0_1_48,2021-11-19T11:58:57.544Z,,,,,,,,,,,,,,,,48,,,,,,,,,,,,,,464.40999997616746,,response,,,10,C,,,,,Space,keypress(Space),,,,instrumental,-- -- --- ------ ------- --------- ----------- --------<br>--------- -------- --- ------- -- ------- ---- -- ------<br>-- --- -------- -------- ---------- ---- ---- ---- ------<br>-- --------- -- ---- -- --- -- --- ------- -- - -----<br>---------- -- -- -- ---- ----- -- ------ -- --- United<br>-------,194313.29999995232,194312.39999997616,193831.32,193841.60000002384,193847.99,194314.78,,48,United
screen,html.Screen,0_4_1_0_1_49,2021-11-19T11:58:59.544Z,,,,,,,,,,,,,,,,48,,,,,,,,,,,,,,1997.5199999523174,,response,,,10,C,,,,,Space,keypress(Space),,,,instrumental,-- -- --- ------ ------- --------- ----------- --------<br>--------- -------- --- ------- -- ------- ---- -- ------<br>-- --- -------- -------- ---------- ---- ---- ---- ------<br>-- --------- -- ---- -- --- -- --- ------- -- - -----<br>---------- -- -- -- ---- ----- -- ------ -- --- ------<br>States.,196313.10000002384,196312.29999995232,194298.11,194313.39999997616,194314.78,196315.019,,49,States.
Item 10,flow.Loop,0_4_1_0_1,2021-11-19T11:58:59.544Z,,,,,,,,,,,,,,,,,,,,,,,,,,,,,,25036.34299995232,,completion,,,,,,,,,,,,,,,,196313.5,196312.29999995232,171259.286,171260.89999997616,171275.957,196315.019,,,
Question 1,html.Screen,0_4_1_0_2,2021-11-19T11:59:04.575Z,,,,,,,,,,,,,,,,,,,,,,,,,,,true,TRUE,,5028.780999952316,,response,,,10,C,,,,,TRUE,click #choice-1,,,,instrumental,,201345.10000002384,201343.79999995232,196298.35,196313.69999992847,196315.019,201349.847,,,
Question 2,html.Screen,0_4_1_0_3,2021-11-19T11:59:09.231Z,,,,,,,,,,,,,,,,,,,,,,,,,,,false,TRUE,,4649.652999999991,,response,,,10,C,,,,,FALSE,click #choice-2,,,,instrumental,,206000.60000002384,205999.5,201333.156,201345.29999995232,201349.847,206000.943,,,
Item 10,flow.Sequence,0_4_1_0,2021-11-19T11:59:09.232Z,,,,,,,,,,,,,,,,,,,,,,,,,,,,,,41725.65599999999,,completion,,,,,,,,,,,,,,,,206001.10000002384,205999.5,164257.174,164259.29999995232,164273.844,206000.943,,,
Holding screen,html.Screen,0_4_1_1_0,2021-11-19T11:59:16.217Z,,,,,,,,,,,,,,,,,,,,,,,,,,,,,,7001.697000000015,,timeout,,,,,,,,,,,,,,,,212986.89999997616,212985.97,205984.273,206001.5,206000.943,213002.64,,,
screen,html.Screen,0_4_1_1_1_0,2021-11-19T11:59:17.391Z,,,,,,,,,,,,,,,,2,,,,,,,,,,,,,,1156.5599999284605,,response,,,1,C,,,,,Space,keypress(Space),,,,instrumental,Two ---- ------ --- ------- ---------- ------- ----------<br>--- --------- --- ----------- ------- ----- ------- ---<br>--------- ---- -- --- ---- -- --------- -- ---- -------<br>-- --------- ------ --- ----- ------ ---- --- --------- --<br>------ - ---- -- --- ----------- ------- ---- ----- -----<br>--- -------- - ------ ---- -- ----- ---- --- --- -----------<br>-- -------,214160.10000002384,214159.19999992847,212985.97,212987.5,213002.64,214169.374,,0,Two
screen,html.Screen,0_4_1_1_1_1,2021-11-19T11:59:17.750Z,,,,,,,,,,,,,,,,2,,,,,,,,,,,,,,349.72600002383115,,response,,,1,C,,,,,Space,keypress(Space),,,,instrumental,--- days ------ --- ------- ---------- ------- ----------<br>--- --------- --- ----------- ------- ----- ------- ---<br>--------- ---- -- --- ---- -- --------- -- ---- -------<br>-- --------- ------ --- ----- ------ ---- --- --------- --<br>------ - ---- -- --- ----------- ------- ---- ----- -----<br>--- -------- - ------ ---- -- ----- ---- --- --- -----------<br>-- -------,214520,214519.10000002384,214152.705,214160.39999997616,214169.374,214536.438,,1,days
screen,html.Screen,0_4_1_1_1_2,2021-11-19T11:59:18.086Z,,,,,,,,,,,,,,,,2,,,,,,,,,,,,,,318.56200000000536,,response,,,1,C,,,,,Space,keypress(Space),,,,instrumental,"--- ---- later, --- ------- ---------- ------- ----------<br>--- --------- --- ----------- ------- ----- ------- ---<br>--------- ---- -- --- ---- -- --------- -- ---- -------<br>-- --------- ------ --- ----- ------ ---- --- --------- --<br>------ - ---- -- --- ----------- ------- ---- ----- -----<br>--- -------- - ------ ---- -- ----- ---- --- --- -----------<br>-- -------",214855.89999997616,214855,214519.767,214520.29999995232,214536.438,214869.73,,2,"later,"
