sender,sender_type,sender_id,timestamp,meta,,Blues,Classical,Country,Dance,Electronic,Folk,Gospel,Hip-Hop,Jazz,Latin,Musical/Film,New-age,Pop,Provo_ID,R&B,Rap,Reggae,Religious,Rock,Soul,Swing,Traditional,age,artist_name,correct,correctResponse,distraction,duration,education,ended_on,familiarity,gender,item,list,music_frequency,offensiveness,pleasantness,preference,response,response_action,snippet_file,song_name,song_rating,sound,text,time_commit,time_end,time_render,time_run,time_show,time_switch,url,word,word_ID
Instructions,html.Page,0_0,2021-11-19T13:14:59.722Z,"{""labjs_version"":""20.2.3"",""labjs_build"":{""flavor"":""production"",""commit"":""7ea907d66ca8aeef8054924ca5d82ffbe11e34e5""},""location"":""https://run.pavlovia.org/mvasilev/lab_music_e/"",""userAgent"":""Mozilla/5.0 (Windows NT 6.1; Win64; x64) AppleWebKit/537.36 (KHTML, like Gecko) Chrome/96.0.4664.45 Safari/537.36"",""platform"":""Win32"",""language"":""en-US"",""locale"":""en-US"",""timeZone"":""Europe/London"",""timezoneOffset"":0,""screen_width"":1920,""screen_height"":1080,""scroll_width"":1920,""scroll_height"":959,""window_innerWidth"":1920,""window_innerHeight"":1007,""devicePixelRatio"":1}",,,,,,,,,,,,,,,,,,,,,,,,,,,,,19634.439,,form submission,,,,,,,,,,,,,,,,30456.799999952316,30456,10788.229,10799,10821.561,30458.69,{},,
Headphones,html.Page,0_1,2021-11-19T13:15:03.152Z,,,,,,,,,,,,,,,,,,,,,,,,,,,,,,3428.2100000953687,,form submission,,,,,,,,,,,,,,,,33887.200000047684,33886.90000009537,30441.997,30457.299999952316,30458.69,33903.136,,,
Holding screen,html.Screen,0_2_0_0,2021-11-19T13:15:13.155Z,,,,,,,,,,,,,,,,,,,,,,,,,,,,,,9999.506000000001,,timeout,,,,,,,,,,,,,,,,43889.60000014305,43885.977,33886.472,33887.60000014305,33903.136,43902.642,,,
screen,html.Screen,0_2_0_1_0,2021-11-19T13:15:14.025Z,,,,,,,,,,,,,,,,53,,,,,,,,,,,,,,856.7580000953676,,response,,,99,,,,,,Space,keypress(Space),,,,,When -- ----- -- ------ - ------- --- ----------<br>------------- ------ ------ ---- ---- ------- ----- -- ----<br>-------- ------- -- ---------- --- - --- ----- ----- ----<br>---- --- --- ----- --- ---- ---- ------- ----- ---- -------<br>--- --- -- ----- -- --- ---- -- --- ---- -- ------ ------<br>--- ----- -- ----,44760.5,44759.40000009537,43885.977,43889.90000009537,43902.642,44769.286,,0,When
screen,html.Screen,0_2_0_1_1,2021-11-19T13:15:14.553Z,,,,,,,,,,,,,,,,53,,,,,,,,,,,,,,517.8140001430511,,response,,,99,,,,,,Space,keypress(Space),,,,,---- it ----- -- ------ - ------- --- ----------<br>------------- ------ ------ ---- ---- ------- ----- -- ----<br>-------- ------- -- ---------- --- - --- ----- ----- ----<br>---- --- --- ----- --- ---- ---- ------- ----- ---- -------<br>--- --- -- ----- -- --- ---- -- --- ---- -- ------ ------<br>--- ----- -- ----,45287.799999952316,45287.10000014305,44752.621,44760.799999952316,44769.286,45302.574,,1,it
screen,html.Screen,0_2_0_1_2,2021-11-19T13:15:15.161Z,,,,,,,,,,,,,,,,53,,,,,,,,,,,,,,592.5260001430506,,response,,,99,,,,,,Space,keypress(Space),,,,,---- -- comes -- ------ - ------- --- ----------<br>------------- ------ ------ ---- ---- ------- ----- -- ----<br>-------- ------- -- ---------- --- - --- ----- ----- ----<br>---- --- --- ----- --- ---- ---- ------- ----- ---- -------<br>--- --- -- ----- -- --- ---- -- --- ---- -- ------ ------<br>--- ----- -- ----,45895.700000047684,45895.10000014305,45285.909,45287.90000009537,45302.574,45902.539,,2,comes
screen,html.Screen,0_2_0_1_3,2021-11-19T13:15:15.649Z,,,,,,,,,,,,,,,,53,,,,,,,,,,,,,,480.5610001430541,,response,,,99,,,,,,Space,keypress(Space),,,,,---- -- ----- to ------ - ------- --- ----------<br>------------- ------ ------ ---- ---- ------- ----- -- ----<br>-------- ------- -- ---------- --- - --- ----- ----- ----<br>---- --- --- ----- --- ---- ---- ------- ----- ---- -------<br>--- --- -- ----- -- --- ---- -- --- ---- -- ------ ------<br>--- ----- -- ----,46383.799999952316,46383.10000014305,45885.874,45895.90000009537,45902.539,46385.932,,3,to
screen,html.Screen,0_2_0_1_4,2021-11-19T13:15:16.129Z,,,,,,,,,,,,,,,,53,,,,,,,,,,,,,,477.0679999999993,,response,,,99,,,,,,Space,keypress(Space),,,,,---- -- ----- -- having - ------- --- ----------<br>------------- ------ ------ ---- ---- ------- ----- -- ----<br>-------- ------- -- ---------- --- - --- ----- ----- ----<br>---- --- --- ----- --- ---- ---- ------- ----- ---- -------<br>--- --- -- ----- -- --- ---- -- --- ---- -- ------ ------<br>--- ----- -- ----,46863.90000009537,46863,46369.266,46384.10000014305,46385.932,46869.176,,4,having
screen,html.Screen,0_2_0_1_5,2021-11-19T13:15:16.545Z,,,,,,,,,,,,,,,,53,,,,,,,,,,,,,,409.72400009536796,,response,,,99,,,,,,Space,keypress(Space),,,,,---- -- ----- -- ------ a ------- --- ----------<br>------------- ------ ------ ---- ---- ------- ----- -- ----<br>-------- ------- -- ---------- --- - --- ----- ----- ----<br>---- --- --- ----- --- ---- ---- ------- ----- ---- -------<br>--- --- -- ----- -- --- ---- -- --- ---- -- ------ ------<br>--- ----- -- ----,47279.60000014305,47278.90000009537,46852.511,46864,46869.176,47285.83,,5,a
screen,html.Screen,0_2_0_1_6,2021-11-19T13:15:17.025Z,,,,,,,,,,,,,,,,53,,,,,,,,,,,,,,473.0700000953657,,response,,,99,,,,,,Space,keypress(Space),,,,,---- -- ----- -- ------ - lasting --- ----------<br>------------- ------ ------ ---- ---- ------- ----- -- ----<br>-------- ------- -- ---------- --- - --- ----- ----- ----<br>---- --- --- ----- --- ---- ---- ------- ----- ---- -------<br>--- --- -- ----- -- --- ---- -- --- ---- -- ------ ------<br>--- ----- -- ----,47759.700000047684,47758.90000009537,47269.165,47279.90000009537,47285.83,47769.1,,6,lasting
screen,html.Screen,0_2_0_1_7,2021-11-19T13:15:17.617Z,,,,,,,,,,,,,,,,53,,,,,,,,,,,,,,581.8000000953689,,response,,,99,,,,,,Space,keypress(Space),,,,,---- -- ----- -- ------ - ------- and ----------<br>------------- ------ ------ ---- ---- ------- ----- -- ----<br>-------- ------- -- ---------- --- - --- ----- ----- ----<br>---- --- --- ----- --- ---- ---- ------- ----- ---- -------<br>--- --- -- ----- -- --- ---- -- --- ---- -- ------ ------<br>--- ----- -- ----,48351.60000014305,48350.90000009537,47752.435,47759.90000009537,47769.1,48352.478,,7,and
screen,html.Screen,0_2_0_1_8,2021-11-19T13:15:18.265Z,,,,,,,,,,,,,,,,53,,,,,,,,,,,,,,646.4220000953646,,response,,,99,,,,,,Space,keypress(Space),,,,,---- -- ----- -- ------ - ------- --- fulfilling<br>------------- ------ ------ ---- ---- ------- ----- -- ----<br>-------- ------- -- ---------- --- - --- ----- ----- ----<br>---- --- --- ----- --- ---- ---- ------- ----- ---- -------<br>--- --- -- ----- -- --- ---- -- --- ---- -- ------ ------<br>--- ----- -- ----,48999.700000047684,48998.90000009537,48335.812,48351.700000047684,48352.478,49002.254,,8,fulfilling
screen,html.Screen,0_2_0_1_9,2021-11-19T13:15:18.817Z,,,,,,,,,,,,,,,,53,,,,,,,,,,,,,,548.6460000953666,,response,,,99,,,,,,Space,keypress(Space),,,,,"---- -- ----- -- ------ - ------- --- ----------<br>relationship, ------ ------ ---- ---- ------- ----- -- ----<br>-------- ------- -- ---------- --- - --- ----- ----- ----<br>---- --- --- ----- --- ---- ---- ------- ----- ---- -------<br>--- --- -- ----- -- --- ---- -- --- ---- -- ------ ------<br>--- ----- -- ----",49551.60000014305,49550.90000009537,48985.59,48999.90000009537,49002.254,49552.405,,9,"relationship,"
screen,html.Screen,0_2_0_1_10,2021-11-19T13:15:19.304Z,,,,,,,,,,,,,,,,53,,,,,,,,,,,,,,486.39499995231745,,response,,,99,,,,,,Space,keypress(Space),,,,,---- -- ----- -- ------ - ------- --- ----------<br>------------- common ------ ---- ---- ------- ----- -- ----<br>-------- ------- -- ---------- --- - --- ----- ----- ----<br>---- --- --- ----- --- ---- ---- ------- ----- ---- -------<br>--- --- -- ----- -- --- ---- -- --- ---- -- ------ ------<br>--- ----- -- ----,50039.5,50038.799999952316,49535.739,49551.799999952316,49552.405,50052.31,,10,common
screen,html.Screen,0_2_0_1_11,2021-11-19T13:15:19.744Z,,,,,,,,,,,,,,,,53,,,,,,,,,,,,,,426.4899999523186,,response,,,99,,,,,,Space,keypress(Space),,,,,---- -- ----- -- ------ - ------- --- ----------<br>------------- ------ wisdom ---- ---- ------- ----- -- ----<br>-------- ------- -- ---------- --- - --- ----- ----- ----<br>---- --- --- ----- --- ---- ---- ------- ----- ---- -------<br>--- --- -- ----- -- --- ---- -- --- ---- -- ------ ------<br>--- ----- -- ----,50479.5,50478.799999952316,50035.645,50039.799999952316,50052.31,50485.634,,11,wisdom
screen,html.Screen,0_2_0_1_12,2021-11-19T13:15:20.152Z,,,,,,,,,,,,,,,,53,,,,,,,,,,,,,,401.0660000476855,,response,,,99,,,,,,Space,keypress(Space),,,,,---- -- ----- -- ------ - ------- --- ----------<br>------------- ------ ------ says ---- ------- ----- -- ----<br>-------- ------- -- ---------- --- - --- ----- ----- ----<br>---- --- --- ----- --- ---- ---- ------- ----- ---- -------<br>--- --- -- ----- -- --- ---- -- --- ---- -- ------ ------<br>--- ----- -- ----,50887.40000009537,50886.700000047684,50468.969,50479.700000047684,50485.634,50902.133,,12,says
screen,html.Screen,0_2_0_1_13,2021-11-19T13:15:20.536Z,,,,,,,,,,,,,,,,53,,,,,,,,,,,,,,368.5670000476821,,response,,,99,,,,,,Space,keypress(Space),,,,,---- -- ----- -- ------ - ------- --- ----------<br>------------- ------ ------ ---- that ------- ----- -- ----<br>-------- ------- -- ---------- --- - --- ----- ----- ----<br>---- --- --- ----- --- ---- ---- ------- ----- ---- -------<br>--- --- -- ----- -- --- ---- -- --- ---- -- ------ ------<br>--- ----- -- ----,51271.40000009537,51270.700000047684,50885.47,50887.5,50902.133,51285.667,,13,that
screen,html.Screen,0_2_0_1_14,2021-11-19T13:15:20.880Z,,,,,,,,,,,,,,,,53,,,,,,,,,,,,,,329.03300004768244,,response,,,99,,,,,,Space,keypress(Space),,,,,---- -- ----- -- ------ - ------- --- ----------<br>------------- ------ ------ ---- ---- feeling ----- -- ----<br>-------- ------- -- ---------- --- - --- ----- ----- ----<br>---- --- --- ----- --- ---- ---- ------- ----- ---- -------<br>--- --- -- ----- -- --- ---- -- --- ---- -- ------ ------<br>--- ----- -- ----,51615.40000009537,51614.700000047684,51269,51271.5,51285.667,51618.83,,14,feeling
screen,html.Screen,0_2_0_1_15,2021-11-19T13:15:21.312Z,,,,,,,,,,,,,,,,53,,,,,,,,,,,,,,427.7700001430494,,response,,,99,,,,,,Space,keypress(Space),,,,,---- -- ----- -- ------ - ------- --- ----------<br>------------- ------ ------ ---- ---- ------- close -- ----<br>-------- ------- -- ---------- --- - --- ----- ----- ----<br>---- --- --- ----- --- ---- ---- ------- ----- ---- -------<br>--- --- -- ----- -- --- ---- -- --- ---- -- ------ ------<br>--- ----- -- ----,52047.299999952316,52046.60000014305,51602.166,51615.5,51618.83,52052.236,,15,close
screen,html.Screen,0_2_0_1_16,2021-11-19T13:15:21.656Z,,,,,,,,,,,,,,,,53,,,,,,,,,,,,,,338.46400004768657,,response,,,99,,,,,,Space,keypress(Space),,,,,---- -- ----- -- ------ - ------- --- ----------<br>------------- ------ ------ ---- ---- ------- ----- to ----<br>-------- ------- -- ---------- --- - --- ----- ----- ----<br>---- --- --- ----- --- ---- ---- ------- ----- ---- -------<br>--- --- -- ----- -- --- ---- -- --- ---- -- ------ ------<br>--- ----- -- ----,52391.299999952316,52390.700000047684,52035.57,52047.40000009537,52052.236,52402.191,,16,to
screen,html.Screen,0_2_0_1_17,2021-11-19T13:15:22.064Z,,,,,,,,,,,,,,,,53,,,,,,,,,,,,,,396.40900014305225,,response,,,99,,,,,,Space,keypress(Space),,,,,---- -- ----- -- ------ - ------- --- ----------<br>------------- ------ ------ ---- ---- ------- ----- -- your<br>-------- ------- -- ---------- --- - --- ----- ----- ----<br>---- --- --- ----- --- ---- ---- ------- ----- ---- -------<br>--- --- -- ----- -- --- ---- -- --- ---- -- ------ ------<br>--- ----- -- ----,52799.200000047684,52798.60000014305,52385.526,52391.40000009537,52402.191,52802.086,,17,your
screen,html.Screen,0_2_0_1_18,2021-11-19T13:15:22.488Z,,,,,,,,,,,,,,,,53,,,,,,,,,,,,,,420.5140001430482,,response,,,99,,,,,,Space,keypress(Space),,,,,---- -- ----- -- ------ - ------- --- ----------<br>------------- ------ ------ ---- ---- ------- ----- -- ----<br>romantic ------- -- ---------- --- - --- ----- ----- ----<br>---- --- --- ----- --- ---- ---- ------- ----- ---- -------<br>--- --- -- ----- -- --- ---- -- --- ---- -- ------ ------<br>--- ----- -- ----,53223.200000047684,53222.60000014305,52785.422,52799.40000009537,52802.086,53235.361,,18,romantic
screen,html.Screen,0_2_0_1_19,2021-11-19T13:15:22.816Z,,,,,,,,,,,,,,,,53,,,,,,,,,,,,,,315.239000143054,,response,,,99,,,,,,Space,keypress(Space),,,,,---- -- ----- -- ------ - ------- --- ----------<br>------------- ------ ------ ---- ---- ------- ----- -- ----<br>-------- partner -- ---------- --- - --- ----- ----- ----<br>---- --- --- ----- --- ---- ---- ------- ----- ---- -------<br>--- --- -- ----- -- --- ---- -- --- ---- -- ------ ------<br>--- ----- -- ----,53551.10000014305,53550.60000014305,53218.697,53223.40000009537,53235.361,53552.102,,19,partner
screen,html.Screen,0_2_0_1_20,2021-11-19T13:15:23.136Z,,,,,,,,,,,,,,,,53,,,,,,,,,,,,,,318.4980001430522,,response,,,99,,,,,,Space,keypress(Space),,,,,---- -- ----- -- ------ - ------- --- ----------<br>------------- ------ ------ ---- ---- ------- ----- -- ----<br>-------- ------- is ---------- --- - --- ----- ----- ----<br>---- --- --- ----- --- ---- ---- ------- ----- ---- -------<br>--- --- -- ----- -- --- ---- -- --- ---- -- ------ ------<br>--- ----- -- ----,53871.10000014305,53870.60000014305,53535.436,53551.299999952316,53552.102,53885.468,,20,is
screen,html.Screen,0_2_0_1_21,2021-11-19T13:15:23.608Z,,,,,,,,,,,,,,,,53,,,,,,,,,,,,,,457.1320001430504,,response,,,99,,,,,,Space,keypress(Space),,,,,---- -- ----- -- ------ - ------- --- ----------<br>------------- ------ ------ ---- ---- ------- ----- -- ----<br>-------- ------- -- paramount. --- - --- ----- ----- ----<br>---- --- --- ----- --- ---- ---- ------- ----- ---- -------<br>--- --- -- ----- -- --- ---- -- --- ---- -- ------ ------<br>--- ----- -- ----,54343.10000014305,54342.60000014305,53868.802,53871.40000009537,53885.468,54352.1,,21,paramount.
screen,html.Screen,0_2_0_1_22,2021-11-19T13:15:24.256Z,,,,,,,,,,,,,,,,53,,,,,,,,,,,,,,638.6999999523177,,response,,,99,,,,,,Space,keypress(Space),,,,,---- -- ----- -- ------ - ------- --- ----------<br>------------- ------ ------ ---- ---- ------- ----- -- ----<br>-------- ------- -- ---------- But - --- ----- ----- ----<br>---- --- --- ----- --- ---- ---- ------- ----- ---- -------<br>--- --- -- ----- -- --- ---- -- --- ---- -- ------ ------<br>--- ----- -- ----,54991.299999952316,54990.799999952316,54335.434,54343.40000009537,54352.1,55001.998,,22,But
screen,html.Screen,0_2_0_1_23,2021-11-19T13:15:24.736Z,,,,,,,,,,,,,,,,53,,,,,,,,,,,,,,468.5020000000004,,response,,,99,,,,,,Space,keypress(Space),,,,,---- -- ----- -- ------ - ------- --- ----------<br>------------- ------ ------ ---- ---- ------- ----- -- ----<br>-------- ------- -- ---------- --- a --- ----- ----- ----<br>---- --- --- ----- --- ---- ---- ------- ----- ---- -------<br>--- --- -- ----- -- --- ---- -- --- ---- -- ------ ------<br>--- ----- -- ----,55471.10000014305,55470.5,54985.333,54991.5,55001.998,55485.379,,23,a
screen,html.Screen,0_2_0_1_24,2021-11-19T13:15:25.248Z,,,,,,,,,,,,,,,,53,,,,,,,,,,,,,,497.0210000953666,,response,,,99,,,,,,Space,keypress(Space),,,,,---- -- ----- -- ------ - ------- --- ----------<br>------------- ------ ------ ---- ---- ------- ----- -- ----<br>-------- ------- -- ---------- --- - new ----- ----- ----<br>---- --- --- ----- --- ---- ---- ------- ----- ---- -------<br>--- --- -- ----- -- --- ---- -- --- ---- -- ------ ------<br>--- ----- -- ----,55983,55982.40000009537,55468.713,55471.200000047684,55485.379,55985.295,,24,new
screen,html.Screen,0_2_0_1_25,2021-11-19T13:15:25.616Z,,,,,,,,,,,,,,,,53,,,,,,,,,,,,,,365.20500000000175,,response,,,99,,,,,,Space,keypress(Space),,,,,---- -- ----- -- ------ - ------- --- ----------<br>------------- ------ ------ ---- ---- ------- ----- -- ----<br>-------- ------- -- ---------- --- - --- study ----- ----<br>---- --- --- ----- --- ---- ---- ------- ----- ---- -------<br>--- --- -- ----- -- --- ---- -- --- ---- -- ------ ------<br>--- ----- -- ----,56351.10000014305,56350.5,55968.63,55983.200000047684,55985.295,56351.865,,25,study
screen,html.Screen,0_2_0_1_26,2021-11-19T13:15:25.976Z,,,,,,,,,,,,,,,,53,,,,,,,,,,,,,,358.53500009536947,,response,,,99,,,,,,Space,keypress(Space),,,,,---- -- ----- -- ------ - ------- --- ----------<br>------------- ------ ------ ---- ---- ------- ----- -- ----<br>-------- ------- -- ---------- --- - --- ----- finds ----<br>---- --- --- ----- --- ---- ---- ------- ----- ---- -------<br>--- --- -- ----- -- --- ---- -- --- ---- -- ------ ------<br>--- ----- -- ----,56710.90000009537,56710.40000009537,56335.201,56351.200000047684,56351.865,56718.613,,26,finds
screen,html.Screen,0_2_0_1_27,2021-11-19T13:15:26.320Z,,,,,,,,,,,,,,,,53,,,,,,,,,,,,,,335.68699995231873,,response,,,99,,,,,,Space,keypress(Space),,,,,---- -- ----- -- ------ - ------- --- ----------<br>------------- ------ ------ ---- ---- ------- ----- -- ----<br>-------- ------- -- ---------- --- - --- ----- ----- that<br>---- --- --- ----- --- ---- ---- ------- ----- ---- -------<br>--- --- -- ----- -- --- ---- -- --- ---- -- ------ ------<br>--- ----- -- ----,57054.90000009537,57054.299999952316,56701.947,56711.200000047684,56718.613,57068.556,,27,that
screen,html.Screen,0_2_0_1_28,2021-11-19T13:15:26.720Z,,,,,,,,,,,,,,,,53,,,,,,,,,,,,,,385.7439999523194,,response,,,99,,,,,,Space,keypress(Space),,,,,---- -- ----- -- ------ - ------- --- ----------<br>------------- ------ ------ ---- ---- ------- ----- -- ----<br>-------- ------- -- ---------- --- - --- ----- ----- ----<br>it's --- --- ----- --- ---- ---- ------- ----- ---- -------<br>--- --- -- ----- -- --- ---- -- --- ---- -- ------ ------<br>--- ----- -- ----,57455,57454.299999952316,57051.891,57055.10000014305,57068.556,57468.463,,28,it's
screen,html.Screen,0_2_0_1_29,2021-11-19T13:15:27.112Z,,,,,,,,,,,,,,,,53,,,,,,,,,,,,,,377.8369999523129,,response,,,99,,,,,,Space,keypress(Space),,,,,---- -- ----- -- ------ - ------- --- ----------<br>------------- ------ ------ ---- ---- ------- ----- -- ----<br>-------- ------- -- ---------- --- - --- ----- ----- ----<br>---- not --- ----- --- ---- ---- ------- ----- ---- -------<br>--- --- -- ----- -- --- ---- -- --- ---- -- ------ ------<br>--- ----- -- ----,57846.90000009537,57846.299999952316,57451.799,57455.10000014305,57468.463,57851.815,,29,not
screen,html.Screen,0_2_0_1_30,2021-11-19T13:15:27.408Z,,,,,,,,,,,,,,,,53,,,,,,,,,,,,,,290.48499995231396,,response,,,99,,,,,,Space,keypress(Space),,,,,---- -- ----- -- ------ - ------- --- ----------<br>------------- ------ ------ ---- ---- ------- ----- -- ----<br>-------- ------- -- ---------- --- - --- ----- ----- ----<br>---- --- how ----- --- ---- ---- ------- ----- ---- -------<br>--- --- -- ----- -- --- ---- -- --- ---- -- ------ ------<br>--- ----- -- ----,58142.90000009537,58142.299999952316,57835.15,57847.10000014305,57851.815,58151.798,,30,how
screen,html.Screen,0_2_0_1_31,2021-11-19T13:15:27.832Z,,,,,,,,,,,,,,,,53,,,,,,,,,,,,,,414.5019999523138,,response,,,99,,,,,,Space,keypress(Space),,,,,---- -- ----- -- ------ - ------- --- ----------<br>------------- ------ ------ ---- ---- ------- ----- -- ----<br>-------- ------- -- ---------- --- - --- ----- ----- ----<br>---- --- --- close --- ---- ---- ------- ----- ---- -------<br>--- --- -- ----- -- --- ---- -- --- ---- -- ------ ------<br>--- ----- -- ----,58566.90000009537,58566.299999952316,58135.133,58143.10000014305,58151.798,58568.502,,31,close
screen,html.Screen,0_2_0_1_32,2021-11-19T13:15:28.216Z,,,,,,,,,,,,,,,,53,,,,,,,,,,,,,,381.6980000476833,,response,,,99,,,,,,Space,keypress(Space),,,,,---- -- ----- -- ------ - ------- --- ----------<br>------------- ------ ------ ---- ---- ------- ----- -- ----<br>-------- ------- -- ---------- --- - --- ----- ----- ----<br>---- --- --- ----- you ---- ---- ------- ----- ---- -------<br>--- --- -- ----- -- --- ---- -- --- ---- -- ------ ------<br>--- ----- -- ----,58950.799999952316,58950.200000047684,58551.836,58567,58568.502,58951.773,,32,you
screen,html.Screen,0_2_0_1_33,2021-11-19T13:15:28.656Z,,,,,,,,,,,,,,,,53,,,,,,,,,,,,,,438.52699995231524,,response,,,99,,,,,,Space,keypress(Space),,,,,---- -- ----- -- ------ - ------- --- ----------<br>------------- ------ ------ ---- ---- ------- ----- -- ----<br>-------- ------- -- ---------- --- - --- ----- ----- ----<br>---- --- --- ----- --- feel ---- ------- ----- ---- -------<br>--- --- -- ----- -- --- ---- -- --- ---- -- ------ ------<br>--- ----- -- ----,59390.90000009537,59390.299999952316,58935.108,58951,58951.773,59401.671,,33,feel
screen,html.Screen,0_2_0_1_34,2021-11-19T13:15:29.000Z,,,,,,,,,,,,,,,,53,,,,,,,,,,,,,,332.5290000476816,,response,,,99,,,,,,Space,keypress(Space),,,,,---- -- ----- -- ------ - ------- --- ----------<br>------------- ------ ------ ---- ---- ------- ----- -- ----<br>-------- ------- -- ---------- --- - --- ----- ----- ----<br>---- --- --- ----- --- ---- that ------- ----- ---- -------<br>--- --- -- ----- -- --- ---- -- --- ---- -- ------ ------<br>--- ----- -- ----,59734.799999952316,59734.200000047684,59385.007,59391.10000014305,59401.671,59751.776,,34,that
screen,html.Screen,0_2_0_1_35,2021-11-19T13:15:29.388Z,,,,,,,,,,,,,,,,53,,,,,,,,,,,,,,366.4240000476857,,response,,,99,,,,,,Space,keypress(Space),,,,,---- -- ----- -- ------ - ------- --- ----------<br>------------- ------ ------ ---- ---- ------- ----- -- ----<br>-------- ------- -- ---------- --- - --- ----- ----- ----<br>---- --- --- ----- --- ---- ---- matters ----- ---- -------<br>--- --- -- ----- -- --- ---- -- --- ---- -- ------ ------<br>--- ----- -- ----,60118.799999952316,60118.200000047684,59735.11,59734.90000009537,59751.776,60135.041,,35,matters
screen,html.Screen,0_2_0_1_36,2021-11-19T13:15:29.924Z,,,,,,,,,,,,,,,,53,,,,,,,,,,,,,,519.1590000476863,,response,,,99,,,,,,Space,keypress(Space),,,,,"---- -- ----- -- ------ - ------- --- ----------<br>------------- ------ ------ ---- ---- ------- ----- -- ----<br>-------- ------- -- ---------- --- - --- ----- ----- ----<br>---- --- --- ----- --- ---- ---- ------- most, ---- -------<br>--- --- -- ----- -- --- ---- -- --- ---- -- ------ ------<br>--- ----- -- ----",60655,60654.200000047684,60118.376,60118.90000009537,60135.041,60668.337,,36,"most,"
screen,html.Screen,0_2_0_1_37,2021-11-19T13:15:30.403Z,,,,,,,,,,,,,,,,53,,,,,,,,,,,,,,465.7630001430516,,response,,,99,,,,,,Space,keypress(Space),,,,,---- -- ----- -- ------ - ------- --- ----------<br>------------- ------ ------ ---- ---- ------- ----- -- ----<br>-------- ------- -- ---------- --- - --- ----- ----- ----<br>---- --- --- ----- --- ---- ---- ------- ----- it's -------<br>--- --- -- ----- -- --- ---- -- --- ---- -- ------ ------<br>--- ----- -- ----,61134.700000047684,61134.10000014305,60651.672,60655.200000047684,60668.337,61151.647,,37,it's
screen,html.Screen,0_2_0_1_38,2021-11-19T13:15:30.755Z,,,,,,,,,,,,,,,,53,,,,,,,,,,,,,,334.45300014305394,,response,,,99,,,,,,Space,keypress(Space),,,,,---- -- ----- -- ------ - ------- --- ----------<br>------------- ------ ------ ---- ---- ------- ----- -- ----<br>-------- ------- -- ---------- --- - --- ----- ----- ----<br>---- --- --- ----- --- ---- ---- ------- ----- ---- whether<br>--- --- -- ----- -- --- ---- -- --- ---- -- ------ ------<br>--- ----- -- ----,61486.700000047684,61486.10000014305,61134.982,61134.90000009537,61151.647,61501.545,,38,whether
screen,html.Screen,0_2_0_1_39,2021-11-19T13:15:31.115Z,,,,,,,,,,,,,,,,53,,,,,,,,,,,,,,344.5550001430529,,response,,,99,,,,,,Space,keypress(Space),,,,,---- -- ----- -- ------ - ------- --- ----------<br>------------- ------ ------ ---- ---- ------- ----- -- ----<br>-------- ------- -- ---------- --- - --- ----- ----- ----<br>---- --- --- ----- --- ---- ---- ------- ----- ---- -------<br>you --- -- ----- -- --- ---- -- --- ---- -- ------ ------<br>--- ----- -- ----,61846.700000047684,61846.10000014305,61484.881,61486.90000009537,61501.545,61851.639,,39,you
screen,html.Screen,0_2_0_1_40,2021-11-19T13:15:31.475Z,,,,,,,,,,,,,,,,53,,,,,,,,,,,,,,354.36099999999715,,response,,,99,,,,,,Space,keypress(Space),,,,,---- -- ----- -- ------ - ------- --- ----------<br>------------- ------ ------ ---- ---- ------- ----- -- ----<br>-------- ------- -- ---------- --- - --- ----- ----- ----<br>---- --- --- ----- --- ---- ---- ------- ----- ---- -------<br>--- are -- ----- -- --- ---- -- --- ---- -- ------ ------<br>--- ----- -- ----,62206.700000047684,62206,61834.973,61846.90000009537,61851.639,62218.239,,40,are
screen,html.Screen,0_2_0_1_41,2021-11-19T13:15:31.795Z,,,,,,,,,,,,,,,,53,,,,,,,,,,,,,,307.86100014304975,,response,,,99,,,,,,Space,keypress(Space),,,,,---- -- ----- -- ------ - ------- --- ----------<br>------------- ------ ------ ---- ---- ------- ----- -- ----<br>-------- ------- -- ---------- --- - --- ----- ----- ----<br>---- --- --- ----- --- ---- ---- ------- ----- ---- -------<br>--- --- as ----- -- --- ---- -- --- ---- -- ------ ------<br>--- ----- -- ----,62526.700000047684,62526.10000014305,62201.574,62206.799999952316,62218.239,62534.9,,41,as
screen,html.Screen,0_2_0_1_42,2021-11-19T13:15:32.155Z,,,,,,,,,,,,,,,,53,,,,,,,,,,,,,,351.09999999999854,,response,,,99,,,,,,Space,keypress(Space),,,,,---- -- ----- -- ------ - ------- --- ----------<br>------------- ------ ------ ---- ---- ------- ----- -- ----<br>-------- ------- -- ---------- --- - --- ----- ----- ----<br>---- --- --- ----- --- ---- ---- ------- ----- ---- -------<br>--- --- -- close -- --- ---- -- --- ---- -- ------ ------<br>--- ----- -- ----,62886.60000014305,62886,62518.235,62526.799999952316,62534.9,62901.466,,42,close
screen,html.Screen,0_2_0_1_43,2021-11-19T13:15:32.659Z,,,,,,,,,,,,,,,,53,,,,,,,,,,,,,,488.53399999999965,,response,,,99,,,,,,Space,keypress(Space),,,,,---- -- ----- -- ------ - ------- --- ----------<br>------------- ------ ------ ---- ---- ------- ----- -- ----<br>-------- ------- -- ---------- --- - --- ----- ----- ----<br>---- --- --- ----- --- ---- ---- ------- ----- ---- -------<br>--- --- -- ----- as --- ---- -- --- ---- -- ------ ------<br>--- ----- -- ----,63390.60000014305,63390,62884.802,62886.700000047684,62901.466,63401.553,,43,as
screen,html.Screen,0_2_0_1_44,2021-11-19T13:15:33.043Z,,,,,,,,,,,,,,,,53,,,,,,,,,,,,,,372.4470000000001,,response,,,99,,,,,,Space,keypress(Space),,,,,---- -- ----- -- ------ - ------- --- ----------<br>------------- ------ ------ ---- ---- ------- ----- -- ----<br>-------- ------- -- ---------- --- - --- ----- ----- ----<br>---- --- --- ----- --- ---- ---- ------- ----- ---- -------<br>--- --- -- ----- -- you ---- -- --- ---- -- ------ ------<br>--- ----- -- ----,63774.5,63774,63384.887,63390.799999952316,63401.553,63784.808,,44,you
screen,html.Screen,0_2_0_1_45,2021-11-19T13:15:33.411Z,,,,,,,,,,,,,,,,53,,,,,,,,,,,,,,357.09200009537017,,response,,,99,,,,,,Space,keypress(Space),,,,,---- -- ----- -- ------ - ------- --- ----------<br>------------- ------ ------ ---- ---- ------- ----- -- ----<br>-------- ------- -- ---------- --- - --- ----- ----- ----<br>---- --- --- ----- --- ---- ---- ------- ----- ---- -------<br>--- --- -- ----- -- --- want -- --- ---- -- ------ ------<br>--- ----- -- ----,64142.5,64141.90000009537,63768.143,63774.60000014305,63784.808,64151.387,,45,want
screen,html.Screen,0_2_0_1_46,2021-11-19T13:15:33.739Z,,,,,,,,,,,,,,,,53,,,,,,,,,,,,,,318.61299999999756,,response,,,99,,,,,,Space,keypress(Space),,,,,---- -- ----- -- ------ - ------- --- ----------<br>------------- ------ ------ ---- ---- ------- ----- -- ----<br>-------- ------- -- ---------- --- - --- ----- ----- ----<br>---- --- --- ----- --- ---- ---- ------- ----- ---- -------<br>--- --- -- ----- -- --- ---- to --- ---- -- ------ ------<br>--- ----- -- ----,64470.5,64470,64134.723,64142.60000014305,64151.387,64484.815,,46,to
screen,html.Screen,0_2_0_1_47,2021-11-19T13:15:34.091Z,,,,,,,,,,,,,,,,53,,,,,,,,,,,,,,337.0850000953651,,response,,,99,,,,,,Space,keypress(Space),,,,,"---- -- ----- -- ------ - ------- --- ----------<br>------------- ------ ------ ---- ---- ------- ----- -- ----<br>-------- ------- -- ---------- --- - --- ----- ----- ----<br>---- --- --- ----- --- ---- ---- ------- ----- ---- -------<br>--- --- -- ----- -- --- ---- -- be, ---- -- ------ ------<br>--- ----- -- ----",64822.5,64821.90000009537,64468.149,64470.799999952316,64484.815,64834.746,,47,"be,"
screen,html.Screen,0_2_0_1_48,2021-11-19T13:15:34.443Z,,,,,,,,,,,,,,,,53,,,,,,,,,,,,,,339.35400014305196,,response,,,99,,,,,,Space,keypress(Space),,,,,---- -- ----- -- ------ - ------- --- ----------<br>------------- ------ ------ ---- ---- ------- ----- -- ----<br>-------- ------- -- ---------- --- - --- ----- ----- ----<br>---- --- --- ----- --- ---- ---- ------- ----- ---- -------<br>--- --- -- ----- -- --- ---- -- --- even -- ------ ------<br>--- ----- -- ----,65174.700000047684,65174.10000014305,64818.081,64822.60000014305,64834.746,65184.737,,48,even
screen,html.Screen,0_2_0_1_49,2021-11-19T13:15:34.843Z,,,,,,,,,,,,,,,,53,,,,,,,,,,,,,,389.16300009536644,,response,,,99,,,,,,Space,keypress(Space),,,,,---- -- ----- -- ------ - ------- --- ----------<br>------------- ------ ------ ---- ---- ------- ----- -- ----<br>-------- ------- -- ---------- --- - --- ----- ----- ----<br>---- --- --- ----- --- ---- ---- ------- ----- ---- -------<br>--- --- -- ----- -- --- ---- -- --- ---- if ------ ------<br>--- ----- -- ----,65574.40000009537,65573.90000009537,65168.072,65174.799999952316,65184.737,65584.701,,49,if
screen,html.Screen,0_2_0_1_50,2021-11-19T13:15:35.187Z,,,,,,,,,,,,,,,,53,,,,,,,,,,,,,,333.1990000953665,,response,,,99,,,,,,Space,keypress(Space),,,,,---- -- ----- -- ------ - ------- --- ----------<br>------------- ------ ------ ---- ---- ------- ----- -- ----<br>-------- ------- -- ---------- --- - --- ----- ----- ----<br>---- --- --- ----- --- ---- ---- ------- ----- ---- -------<br>--- --- -- ----- -- --- ---- -- --- ---- -- that's ------<br>--- ----- -- ----,65918.40000009537,65917.90000009537,65568.036,65574.60000014305,65584.701,65934.681,,50,that's
screen,html.Screen,0_2_0_1_51,2021-11-19T13:15:35.563Z,,,,,,,,,,,,,,,,53,,,,,,,,,,,,,,359.1189999523194,,response,,,99,,,,,,Space,keypress(Space),,,,,---- -- ----- -- ------ - ------- --- ----------<br>------------- ------ ------ ---- ---- ------- ----- -- ----<br>-------- ------- -- ---------- --- - --- ----- ----- ----<br>---- --- --- ----- --- ---- ---- ------- ----- ---- -------<br>--- --- -- ----- -- --- ---- -- --- ---- -- ------ really<br>--- ----- -- ----,66294.40000009537,66293.79999995232,65918.016,65918.60000014305,65934.681,66301.325,,51,really
screen,html.Screen,0_2_0_1_52,2021-11-19T13:15:35.899Z,,,,,,,,,,,,,,,,53,,,,,,,,,,,,,,328.3750000476866,,response,,,99,,,,,,Space,keypress(Space),,,,,---- -- ----- -- ------ - ------- --- ----------<br>------------- ------ ------ ---- ---- ------- ----- -- ----<br>-------- ------- -- ---------- --- - --- ----- ----- ----<br>---- --- --- ----- --- ---- ---- ------- ----- ---- -------<br>--- --- -- ----- -- --- ---- -- --- ---- -- ------ ------<br>not ----- -- ----,66630.40000009537,66629.70000004768,66284.66,66294.5,66301.325,66634.647,,52,not
screen,html.Screen,0_2_0_1_53,2021-11-19T13:15:36.283Z,,,,,,,,,,,,,,,,53,,,,,,,,,,,,,,379.0530000476865,,response,,,99,,,,,,Space,keypress(Space),,,,,---- -- ----- -- ------ - ------- --- ----------<br>------------- ------ ------ ---- ---- ------- ----- -- ----<br>-------- ------- -- ---------- --- - --- ----- ----- ----<br>---- --- --- ----- --- ---- ---- ------- ----- ---- -------<br>--- --- -- ----- -- --- ---- -- --- ---- -- ------ ------<br>--- close -- ----,67014.29999995232,67013.70000004768,66617.982,66630.5,66634.647,67017.946,,53,close
screen,html.Screen,0_2_0_1_54,2021-11-19T13:15:36.619Z,,,,,,,,,,,,,,,,53,,,,,,,,,,,,,,331.85399995232,,response,,,99,,,,,,Space,keypress(Space),,,,,---- -- ----- -- ------ - ------- --- ----------<br>------------- ------ ------ ---- ---- ------- ----- -- ----<br>-------- ------- -- ---------- --- - --- ----- ----- ----<br>---- --- --- ----- --- ---- ---- ------- ----- ---- -------<br>--- --- -- ----- -- --- ---- -- --- ---- -- ------ ------<br>--- ----- at ----,67350.29999995232,67349.79999995232,67001.281,67014.5,67017.946,67351.26,,54,at
screen,html.Screen,0_2_0_1_55,2021-11-19T13:15:37.067Z,,,,,,,,,,,,,,,,53,,,,,,,,,,,,,,446.44000004768895,,response,,,99,,,,,,Space,keypress(Space),,,,,---- -- ----- -- ------ - ------- --- ----------<br>------------- ------ ------ ---- ---- ------- ----- -- ----<br>-------- ------- -- ---------- --- - --- ----- ----- ----<br>---- --- --- ----- --- ---- ---- ------- ----- ---- -------<br>--- --- -- ----- -- --- ---- -- --- ---- -- ------ ------<br>--- ----- -- all.,67798.40000009537,67797.70000004768,67334.595,67350.5,67351.26,67817.907,,55,all.
Item 99,flow.Loop,0_2_0_1,2021-11-19T13:15:37.070Z,,,,,,,,,,,,,,,,,,,,,,,,,,,,,,23895.058000047684,,completion,,,,E,,,,,,,,,,silence,,67801.10000014305,67797.70000004768,43885.977,43889.799999952316,43902.642,67817.907,,,
Question 1,html.Screen,0_2_0_2,2021-11-19T13:15:46.366Z,,,,,,,,,,,,,,,,,,,,,,,,,,,true,FALSE,,9278.793000047677,,response,,,99,E,,,,,FALSE,click #choice-2,,,,silence,,77097.60000014305,77096.70000004768,67801.242,67801.29999995232,67817.907,77100.779,,,
Question 2,html.Screen,0_2_0_3,2021-11-19T13:15:53.154Z,,,,,,,,,,,,,,,,,,,,,,,,,,,true,TRUE,,6783.421000047689,,response,,,99,E,,,,,TRUE,click #choice-1,,,,silence,,83885,83884.20000004768,77084.11,77097.79999995232,77100.779,83899.893,,,
Item 99,flow.Sequence,0_2_0,2021-11-19T13:15:53.154Z,,,,,,,,,,,,,,,,,,,,,,,,,,,,,,49981.064000047685,,completion,,,,,,,,,,,,,,,,83885.29999995232,83884.20000004768,33886.472,33887.5,33903.136,83899.893,,,
Holding screen,html.Screen,0_2_1_0,2021-11-19T13:16:03.152Z,,,,,,,,,,,,,,,,,,,,,,,,,,,,,,9999.702000000005,,timeout,,,,,,,,,,,,,,,,93883.70000004768,93882.93,83883.231,83885.5,83899.893,93899.595,,,
screen,html.Screen,0_2_1_1_0,2021-11-19T13:16:03.794Z,,,,,,,,,,,,,,,,54,,,,,,,,,,,,,,624.7049999523151,,response,,,100,,,,,,Space,keypress(Space),,,,,At --- ---- --- ------ ----- ------- ---- -- --- ------- --<br>------- ---------- ------ -- ----- -- ----- -- ---- ------<br>--- ----- --- --- ------ -------- ----- --- ------ ----- --<br>----- ----- ---------- --- --- ------ ------ ---- -- ------<br>------- --- ------ ----- --- ---- ------- -- ---- --- --<br>------- ------,94525.10000014305,94524.29999995232,93882.93,93883.90000009537,93899.595,94532.933,,0,At
screen,html.Screen,0_2_1_1_1,2021-11-19T13:16:04.249Z,,,,,,,,,,,,,,,,54,,,,,,,,,,,,,,447.1670001430466,,response,,,100,,,,,,Space,keypress(Space),,,,,-- the ---- --- ------ ----- ------- ---- -- --- ------- --<br>------- ---------- ------ -- ----- -- ----- -- ---- ------<br>--- ----- --- --- ------ -------- ----- --- ------ ----- --<br>----- ----- ---------- --- --- ------ ------ ---- -- ------<br>------- --- ------ ----- --- ---- ------- -- ---- --- --<br>------- ------,94980.70000004768,94980.10000014305,94516.268,94525.20000004768,94532.933,94982.887,,1,the
screen,html.Screen,0_2_1_1_2,2021-11-19T13:16:04.721Z,,,,,,,,,,,,,,,,54,,,,,,,,,,,,,,469.11299999999756,,response,,,100,,,,,,Space,keypress(Space),,,,,-- --- time --- ------ ----- ------- ---- -- --- ------- --<br>------- ---------- ------ -- ----- -- ----- -- ---- ------<br>--- ----- --- --- ------ -------- ----- --- ------ ----- --<br>----- ----- ---------- --- --- ------ ------ ---- -- ------<br>------- --- ------ ----- --- ---- ------- -- ---- --- --<br>------- ------,95452.60000014305,95452,94966.222,94980.90000009537,94982.887,95466.187,,2,time
screen,html.Screen,0_2_1_1_3,2021-11-19T13:16:05.201Z,,,,,,,,,,,,,,,,54,,,,,,,,,,,,,,465.81299999999464,,response,,,100,,,,,,Space,keypress(Space),,,,,-- --- ---- the ------ ----- ------- ---- -- --- ------- --<br>------- ---------- ------ -- ----- -- ----- -- ---- ------<br>--- ----- --- --- ------ -------- ----- --- ------ ----- --<br>----- ----- ---------- --- --- ------ ------ ---- -- ------<br>------- --- ------ ----- --- ---- ------- -- ---- --- --<br>------- ------,95932.5,95932,95449.522,95452.79999995232,95466.187,95949.428,,3,the
screen,html.Screen,0_2_1_1_4,2021-11-19T13:16:05.729Z,,,,,,,,,,,,,,,,54,,,,,,,,,,,,,,510.5720000000001,,response,,,100,,,,,,Space,keypress(Space),,,,,-- --- ---- --- French ----- ------- ---- -- --- ------- --<br>------- ---------- ------ -- ----- -- ----- -- ---- ------<br>--- ----- --- --- ------ -------- ----- --- ------ ----- --<br>----- ----- ---------- --- --- ------ ------ ---- -- ------<br>------- --- ------ ----- --- ---- ------- -- ---- --- --<br>------- ------,96460.60000014305,96460,95932.764,95932.70000004768,95949.428,96466.103,,4,French
screen,html.Screen,0_2_1_1_5,2021-11-19T13:16:06.225Z,,,,,,,,,,,,,,,,54,,,,,,,,,,,,,,489.79700009536464,,response,,,100,,,,,,Space,keypress(Space),,,,,-- --- ---- --- ------ crown ------- ---- -- --- ------- --<br>------- ---------- ------ -- ----- -- ----- -- ---- ------<br>--- ----- --- --- ------ -------- ----- --- ------ ----- --<br>----- ----- ---------- --- --- ------ ------ ---- -- ------<br>------- --- ------ ----- --- ---- ------- -- ---- --- --<br>------- ------,96956.5,96955.90000009537,96449.438,96460.70000004768,96466.103,96966.169,,5,crown
screen,html.Screen,0_2_1_1_6,2021-11-19T13:16:06.729Z,,,,,,,,,,,,,,,,54,,,,,,,,,,,,,,493.731000095373,,response,,,100,,,,,,Space,keypress(Space),,,,,-- --- ---- --- ------ ----- secured ---- -- --- ------- --<br>------- ---------- ------ -- ----- -- ----- -- ---- ------<br>--- ----- --- --- ------ -------- ----- --- ------ ----- --<br>----- ----- ---------- --- --- ------ ------ ---- -- ------<br>------- --- ------ ----- --- ---- ------- -- ---- --- --<br>------- ------,97460.5,97459.90000009537,96949.503,96956.70000004768,96966.169,97465.988,,6,secured
screen,html.Screen,0_2_1_1_7,2021-11-19T13:16:07.153Z,,,,,,,,,,,,,,,,54,,,,,,,,,,,,,,417.9120000953699,,response,,,100,,,,,,Space,keypress(Space),,,,,-- --- ---- --- ------ ----- ------- much -- --- ------- --<br>------- ---------- ------ -- ----- -- ----- -- ---- ------<br>--- ----- --- --- ------ -------- ----- --- ------ ----- --<br>----- ----- ---------- --- --- ------ ------ ---- -- ------<br>------- --- ------ ----- --- ---- ------- -- ---- --- --<br>------- ------,97884.60000014305,97883.90000009537,97449.324,97460.79999995232,97465.988,97899.352,,7,much
screen,html.Screen,0_2_1_1_8,2021-11-19T13:16:07.561Z,,,,,,,,,,,,,,,,54,,,,,,,,,,,,,,392.5480000953685,,response,,,100,,,,,,Space,keypress(Space),,,,,-- --- ---- --- ------ ----- ------- ---- of --- ------- --<br>------- ---------- ------ -- ----- -- ----- -- ---- ------<br>--- ----- --- --- ------ -------- ----- --- ------ ----- --<br>----- ----- ---------- --- --- ------ ------ ---- -- ------<br>------- --- ------ ----- --- ---- ------- -- ---- --- --<br>------- ------,98292.40000009537,98291.90000009537,97882.687,97884.70000004768,97899.352,98299.345,,8,of
screen,html.Screen,0_2_1_1_9,2021-11-19T13:16:07.913Z,,,,,,,,,,,,,,,,54,,,,,,,,,,,,,,344.4549999523151,,response,,,100,,,,,,Space,keypress(Space),,,,,-- --- ---- --- ------ ----- ------- ---- -- its ------- --<br>------- ---------- ------ -- ----- -- ----- -- ---- ------<br>--- ----- --- --- ------ -------- ----- --- ------ ----- --<br>----- ----- ---------- --- --- ------ ------ ---- -- ------<br>------- --- ------ ----- --- ---- ------- -- ---- --- --<br>------- ------,98644.40000009537,98643.79999995232,98282.68,98292.60000014305,98299.345,98649.37,,9,its
screen,html.Screen,0_2_1_1_10,2021-11-19T13:16:08.345Z,,,,,,,,,,,,,,,,54,,,,,,,,,,,,,,426.42999995232094,,response,,,100,,,,,,Space,keypress(Space),,,,,-- --- ---- --- ------ ----- ------- ---- -- --- revenue --<br>------- ---------- ------ -- ----- -- ----- -- ---- ------<br>--- ----- --- --- ------ -------- ----- --- ------ ----- --<br>----- ----- ---------- --- --- ------ ------ ---- -- ------<br>------- --- ------ ----- --- ---- ------- -- ---- --- --<br>------- ------,99076.29999995232,99075.79999995232,98632.704,98644.5,98649.37,99082.651,,10,revenue
screen,html.Screen,0_2_1_1_11,2021-11-19T13:16:08.793Z,,,,,,,,,,,,,,,,54,,,,,,,,,,,,,,441.0490000476857,,response,,,100,,,,,,Space,keypress(Space),,,,,-- --- ---- --- ------ ----- ------- ---- -- --- ------- by<br>------- ---------- ------ -- ----- -- ----- -- ---- ------<br>--- ----- --- --- ------ -------- ----- --- ------ ----- --<br>----- ----- ---------- --- --- ------ ------ ---- -- ------<br>------- --- ------ ----- --- ---- ------- -- ---- --- --<br>------- ------,99524.29999995232,99523.70000004768,99065.986,99076.5,99082.651,99532.615,,11,by
screen,html.Screen,0_2_1_1_12,2021-11-19T13:16:09.249Z,,,,,,,,,,,,,,,,54,,,,,,,,,,,,,,447.0850000476785,,response,,,100,,,,,,Space,keypress(Space),,,,,-- --- ---- --- ------ ----- ------- ---- -- --- ------- --<br>issuing ---------- ------ -- ----- -- ----- -- ---- ------<br>--- ----- --- --- ------ -------- ----- --- ------ ----- --<br>----- ----- ---------- --- --- ------ ------ ---- -- ------<br>------- --- ------ ----- --- ---- ------- -- ---- --- --<br>------- ------,99980.29999995232,99979.70000004768,99515.95,99524.5,99532.615,99982.587,,12,issuing
screen,html.Screen,0_2_1_1_13,2021-11-19T13:16:09.897Z,,,,,,,,,,,,,,,,54,,,,,,,,,,,,,,645.2129999523167,,response,,,100,,,,,,Space,keypress(Space),,,,,-- --- ---- --- ------ ----- ------- ---- -- --- ------- --<br>------- government ------ -- ----- -- ----- -- ---- ------<br>--- ----- --- --- ------ -------- ----- --- ------ ----- --<br>----- ----- ---------- --- --- ------ ------ ---- -- ------<br>------- --- ------ ----- --- ---- ------- -- ---- --- --<br>------- ------,100628.29999995232,100627.79999995232,99965.922,99980.5,99982.587,100632.539,,13,government
screen,html.Screen,0_2_1_1_14,2021-11-19T13:16:10.321Z,,,,,,,,,,,,,,,,54,,,,,,,,,,,,,,419.06100014304684,,response,,,100,,,,,,Space,keypress(Space),,,,,-- --- ---- --- ------ ----- ------- ---- -- --- ------- --<br>------- ---------- bonds. -- ----- -- ----- -- ---- ------<br>--- ----- --- --- ------ -------- ----- --- ------ ----- --<br>----- ----- ---------- --- --- ------ ------ ---- -- ------<br>------- --- ------ ----- --- ---- ------- -- ---- --- --<br>------- ------,101052.10000014305,101051.60000014305,100615.874,100628.40000009537,100632.539,101065.851,,14,bonds.
screen,html.Screen,0_2_1_1_15,2021-11-19T13:16:10.761Z,,,,,,,,,,,,,,,,54,,,,,,,,,,,,,,425.8490000476886,,response,,,100,,,,,,Space,keypress(Space),,,,,-- --- ---- --- ------ ----- ------- ---- -- --- ------- --<br>------- ---------- ------ In ----- -- ----- -- ---- ------<br>--- ----- --- --- ------ -------- ----- --- ------ ----- --<br>----- ----- ---------- --- --- ------ ------ ---- -- ------<br>------- --- ------ ----- --- ---- ------- -- ---- --- --<br>------- ------,101492.20000004768,101491.70000004768,101049.186,101052.29999995232,101065.851,101499.161,,15,In
screen,html.Screen,0_2_1_1_16,2021-11-19T13:16:11.201Z,,,,,,,,,,,,,,,,54,,,,,,,,,,,,,,432.43900014305837,,response,,,100,,,,,,Space,keypress(Space),,,,,"-- --- ---- --- ------ ----- ------- ---- -- --- ------- --<br>------- ---------- ------ -- 1727, -- ----- -- ---- ------<br>--- ----- --- --- ------ -------- ----- --- ------ ----- --<br>----- ----- ---------- --- --- ------ ------ ---- -- ------<br>------- --- ------ ----- --- ---- ------- -- ---- --- --<br>------- ------",101932.20000004768,101931.60000014305,101482.496,101492.40000009537,101499.161,101949.042,,16,"1727,"
screen,html.Screen,0_2_1_1_17,2021-11-19T13:16:12.081Z,,,,,,,,,,,,,,,,54,,,,,,,,,,,,,,862.757999952315,,response,,,100,,,,,,Space,keypress(Space),,,,,-- --- ---- --- ------ ----- ------- ---- -- --- ------- --<br>------- ---------- ------ -- ----- in ----- -- ---- ------<br>--- ----- --- --- ------ -------- ----- --- ------ ----- --<br>----- ----- ---------- --- --- ------ ------ ---- -- ------<br>------- --- ------ ----- --- ---- ------- -- ---- --- --<br>------- ------,102812.29999995232,102811.79999995232,101932.378,101932.29999995232,101949.042,102815.796,,17,in
screen,html.Screen,0_2_1_1_18,2021-11-19T13:16:12.561Z,,,,,,,,,,,,,,,,54,,,,,,,,,,,,,,475.80400014304905,,response,,,100,,,,,,Space,keypress(Space),,,,,-- --- ---- --- ------ ----- ------- ---- -- --- ------- --<br>------- ---------- ------ -- ----- -- order -- ---- ------<br>--- ----- --- --- ------ -------- ----- --- ------ ----- --<br>----- ----- ---------- --- --- ------ ------ ---- -- ------<br>------- --- ------ ----- --- ---- ------- -- ---- --- --<br>------- ------,103292.10000014305,103291.60000014305,102799.13,102812.5,102815.796,103299.058,,18,order
screen,html.Screen,0_2_1_1_19,2021-11-19T13:16:12.945Z,,,,,,,,,,,,,,,,54,,,,,,,,,,,,,,376.44199999999546,,response,,,100,,,,,,Space,keypress(Space),,,,,-- --- ---- --- ------ ----- ------- ---- -- --- ------- --<br>------- ---------- ------ -- ----- -- ----- to ---- ------<br>--- ----- --- --- ------ -------- ----- --- ------ ----- --<br>----- ----- ---------- --- --- ------ ------ ---- -- ------<br>------- --- ------ ----- --- ---- ------- -- ---- --- --<br>------- ------,103676,103675.5,103282.393,103292.20000004768,103299.058,103682.376,,19,to
screen,html.Screen,0_2_1_1_20,2021-11-19T13:16:13.321Z,,,,,,,,,,,,,,,,54,,,,,,,,,,,,,,369.0240000953636,,response,,,100,,,,,,Space,keypress(Space),,,,,-- --- ---- --- ------ ----- ------- ---- -- --- ------- --<br>------- ---------- ------ -- ----- -- ----- -- save ------<br>--- ----- --- --- ------ -------- ----- --- ------ ----- --<br>----- ----- ---------- --- --- ------ ------ ---- -- ------<br>------- --- ------ ----- --- ---- ------- -- ---- --- --<br>------- ------,104052.10000014305,104051.40000009537,103665.711,103676.20000004768,103682.376,104065.662,,20,save
screen,html.Screen,0_2_1_1_21,2021-11-19T13:16:13.665Z,,,,,,,,,,,,,,,,54,,,,,,,,,,,,,,329.8380000000034,,response,,,100,,,,,,Space,keypress(Space),,,,,"-- --- ---- --- ------ ----- ------- ---- -- --- ------- --<br>------- ---------- ------ -- ----- -- ----- -- ---- money,<br>--- ----- --- --- ------ -------- ----- --- ------ ----- --<br>----- ----- ---------- --- --- ------ ------ ---- -- ------<br>------- --- ------ ----- --- ---- ------- -- ---- --- --<br>------- ------",104396.20000004768,104395.5,104048.997,104052.29999995232,104065.662,104398.995,,21,"money,"
screen,html.Screen,0_2_1_1_22,2021-11-19T13:16:14.049Z,,,,,,,,,,,,,,,,54,,,,,,,,,,,,,,380.7050000476884,,response,,,100,,,,,,Space,keypress(Space),,,,,-- --- ---- --- ------ ----- ------- ---- -- --- ------- --<br>------- ---------- ------ -- ----- -- ----- -- ---- ------<br>the ----- --- --- ------ -------- ----- --- ------ ----- --<br>----- ----- ---------- --- --- ------ ------ ---- -- ------<br>------- --- ------ ----- --- ---- ------- -- ---- --- --<br>------- ------,104780.29999995232,104779.70000004768,104382.33,104396.40000009537,104398.995,104782.223,,22,the
screen,html.Screen,0_2_1_1_23,2021-11-19T13:16:14.401Z,,,,,,,,,,,,,,,,54,,,,,,,,,,,,,,349.1770000953693,,response,,,100,,,,,,Space,keypress(Space),,,,,-- --- ---- --- ------ ----- ------- ---- -- --- ------- --<br>------- ---------- ------ -- ----- -- ----- -- ---- ------<br>--- state --- --- ------ -------- ----- --- ------ ----- --<br>----- ----- ---------- --- --- ------ ------ ---- -- ------<br>------- --- ------ ----- --- ---- ------- -- ---- --- --<br>------- ------,105132,105131.40000009537,104765.559,104780.5,104782.223,105148.969,,23,state
screen,html.Screen,0_2_1_1_24,2021-11-19T13:16:14.977Z,,,,,,,,,,,,,,,,54,,,,,,,,,,,,,,558.4310000953701,,response,,,100,,,,,,Space,keypress(Space),,,,,-- --- ---- --- ------ ----- ------- ---- -- --- ------- --<br>------- ---------- ------ -- ----- -- ----- -- ---- ------<br>--- ----- cut --- ------ -------- ----- --- ------ ----- --<br>----- ----- ---------- --- --- ------ ------ ---- -- ------<br>------- --- ------ ----- --- ---- ------- -- ---- --- --<br>------- ------,105708,105707.40000009537,105132.303,105132.10000014305,105148.969,105715.611,,24,cut
screen,html.Screen,0_2_1_1_25,2021-11-19T13:16:15.393Z,,,,,,,,,,,,,,,,54,,,,,,,,,,,,,,407.68899995231186,,response,,,100,,,,,,Space,keypress(Space),,,,,-- --- ---- --- ------ ----- ------- ---- -- --- ------- --<br>------- ---------- ------ -- ----- -- ----- -- ---- ------<br>--- ----- --- the ------ -------- ----- --- ------ ----- --<br>----- ----- ---------- --- --- ------ ------ ---- -- ------<br>------- --- ------ ----- --- ---- ------- -- ---- --- --<br>------- ------,106123.90000009537,106123.29999995232,105698.945,105708.20000004768,105715.611,106132.209,,25,the
screen,html.Screen,0_2_1_1_26,2021-11-19T13:16:15.761Z,,,,,,,,,,,,,,,,54,,,,,,,,,,,,,,359.0909999523137,,response,,,100,,,,,,Space,keypress(Space),,,,,-- --- ---- --- ------ ----- ------- ---- -- --- ------- --<br>------- ---------- ------ -- ----- -- ----- -- ---- ------<br>--- ----- --- --- bonds' -------- ----- --- ------ ----- --<br>----- ----- ---------- --- --- ------ ------ ---- -- ------<br>------- --- ------ ----- --- ---- ------- -- ---- --- --<br>------- ------,106491.90000009537,106491.29999995232,106115.544,106124.10000014305,106132.209,106498.872,,26,bonds'
screen,html.Screen,0_2_1_1_27,2021-11-19T13:16:16.129Z,,,,,,,,,,,,,,,,54,,,,,,,,,,,,,,360.42799995231326,,response,,,100,,,,,,Space,keypress(Space),,,,,-- --- ---- --- ------ ----- ------- ---- -- --- ------- --<br>------- ---------- ------ -- ----- -- ----- -- ---- ------<br>--- ----- --- --- ------ interest ----- --- ------ ----- --<br>----- ----- ---------- --- --- ------ ------ ---- -- ------<br>------- --- ------ ----- --- ---- ------- -- ---- --- --<br>------- ------,106859.90000009537,106859.29999995232,106482.207,106492.10000014305,106498.872,106865.495,,27,interest
screen,html.Screen,0_2_1_1_28,2021-11-19T13:16:16.513Z,,,,,,,,,,,,,,,,54,,,,,,,,,,,,,,377.80499995232094,,response,,,100,,,,,,Space,keypress(Space),,,,,-- --- ---- --- ------ ----- ------- ---- -- --- ------- --<br>------- ---------- ------ -- ----- -- ----- -- ---- ------<br>--- ----- --- --- ------ -------- rate. --- ------ ----- --<br>----- ----- ---------- --- --- ------ ------ ---- -- ------<br>------- --- ------ ----- --- ---- ------- -- ---- --- --<br>------- ------,107243.79999995232,107243.29999995232,106848.83,106860.10000014305,106865.495,107248.856,,28,rate.
screen,html.Screen,0_2_1_1_29,2021-11-19T13:16:17.017Z,,,,,,,,,,,,,,,,54,,,,,,,,,,,,,,498.34400004768395,,response,,,100,,,,,,Space,keypress(Space),,,,,-- --- ---- --- ------ ----- ------- ---- -- --- ------- --<br>------- ---------- ------ -- ----- -- ----- -- ---- ------<br>--- ----- --- --- ------ -------- ----- The ------ ----- --<br>----- ----- ---------- --- --- ------ ------ ---- -- ------<br>------- --- ------ ----- --- ---- ------- -- ---- --- --<br>------- ------,107748,107747.20000004768,107232.19,107244,107248.856,107765.32,,29,The
screen,html.Screen,0_2_1_1_30,2021-11-19T13:16:17.473Z,,,,,,,,,,,,,,,,54,,,,,,,,,,,,,,437.88000004767673,,response,,,100,,,,,,Space,keypress(Space),,,,,-- --- ---- --- ------ ----- ------- ---- -- --- ------- --<br>------- ---------- ------ -- ----- -- ----- -- ---- ------<br>--- ----- --- --- ------ -------- ----- --- market ----- --<br>----- ----- ---------- --- --- ------ ------ ---- -- ------<br>------- --- ------ ----- --- ---- ------- -- ---- --- --<br>------- ------,108203.79999995232,108203.20000004768,107748.657,107748.10000014305,107765.32,108215.503,,30,market
screen,html.Screen,0_2_1_1_31,2021-11-19T13:16:17.929Z,,,,,,,,,,,,,,,,54,,,,,,,,,,,,,,443.69700004768674,,response,,,100,,,,,,Space,keypress(Space),,,,,-- --- ---- --- ------ ----- ------- ---- -- --- ------- --<br>------- ---------- ------ -- ----- -- ----- -- ---- ------<br>--- ----- --- --- ------ -------- ----- --- ------ value --<br>----- ----- ---------- --- --- ------ ------ ---- -- ------<br>------- --- ------ ----- --- ---- ------- -- ---- --- --<br>------- ------,108659.79999995232,108659.20000004768,108198.836,108204,108215.503,108665.399,,31,value
screen,html.Screen,0_2_1_1_32,2021-11-19T13:16:18.449Z,,,,,,,,,,,,,,,,54,,,,,,,,,,,,,,513.8010000476788,,response,,,100,,,,,,Space,keypress(Space),,,,,-- --- ---- --- ------ ----- ------- ---- -- --- ------- --<br>------- ---------- ------ -- ----- -- ----- -- ---- ------<br>--- ----- --- --- ------ -------- ----- --- ------ ----- of<br>----- ----- ---------- --- --- ------ ------ ---- -- ------<br>------- --- ------ ----- --- ---- ------- -- ---- --- --<br>------- ------,109179.90000009537,109179.20000004768,108648.734,108659.90000009537,108665.399,109182.015,,32,of
screen,html.Screen,0_2_1_1_33,2021-11-19T13:16:18.921Z,,,,,,,,,,,,,,,,54,,,,,,,,,,,,,,469.1850000476843,,response,,,100,,,,,,Space,keypress(Space),,,,,-- --- ---- --- ------ ----- ------- ---- -- --- ------- --<br>------- ---------- ------ -- ----- -- ----- -- ---- ------<br>--- ----- --- --- ------ -------- ----- --- ------ ----- --<br>these ----- ---------- --- --- ------ ------ ---- -- ------<br>------- --- ------ ----- --- ---- ------- -- ---- --- --<br>------- ------,109651.70000004768,109651.20000004768,109165.35,109180,109182.015,109665.24,,33,these
screen,html.Screen,0_2_1_1_34,2021-11-19T13:16:19.560Z,,,,,,,,,,,,,,,,54,,,,,,,,,,,,,,625.8600001430459,,response,,,100,,,,,,Space,keypress(Space),,,,,-- --- ---- --- ------ ----- ------- ---- -- --- ------- --<br>------- ---------- ------ -- ----- -- ----- -- ---- ------<br>--- ----- --- --- ------ -------- ----- --- ------ ----- --<br>----- bonds ---------- --- --- ------ ------ ---- -- ------<br>------- --- ------ ----- --- ---- ------- -- ---- --- --<br>------- ------,110291.70000004768,110291.10000014305,109648.576,109651.90000009537,109665.24,110298.675,,34,bonds
screen,html.Screen,0_2_1_1_35,2021-11-19T13:16:20.064Z,,,,,,,,,,,,,,,,54,,,,,,,,,,,,,,496.3249999999971,,response,,,100,,,,,,Space,keypress(Space),,,,,"-- --- ---- --- ------ ----- ------- ---- -- --- ------- --<br>------- ---------- ------ -- ----- -- ----- -- ---- ------<br>--- ----- --- --- ------ -------- ----- --- ------ ----- --<br>----- ----- plummeted, --- --- ------ ------ ---- -- ------<br>------- --- ------ ----- --- ---- ------- -- ---- --- --<br>------- ------",110795.60000014305,110795,110282.009,110291.79999995232,110298.675,110798.494,,35,"plummeted,"
screen,html.Screen,0_2_1_1_36,2021-11-19T13:16:20.984Z,,,,,,,,,,,,,,,,54,,,,,,,,,,,,,,916.505999999994,,response,,,100,,,,,,Space,keypress(Space),,,,,-- --- ---- --- ------ ----- ------- ---- -- --- ------- --<br>------- ---------- ------ -- ----- -- ----- -- ---- ------<br>--- ----- --- --- ------ -------- ----- --- ------ ----- --<br>----- ----- ---------- and --- ------ ------ ---- -- ------<br>------- --- ------ ----- --- ---- ------- -- ---- --- --<br>------- ------,111715.70000004768,111715,110781.83,110795.79999995232,110798.494,111731.818,,36,and
screen,html.Screen,0_2_1_1_37,2021-11-19T13:16:21.632Z,,,,,,,,,,,,,,,,54,,,,,,,,,,,,,,631.1820000000007,,response,,,100,,,,,,Space,keypress(Space),,,,,-- --- ---- --- ------ ----- ------- ---- -- --- ------- --<br>------- ---------- ------ -- ----- -- ----- -- ---- ------<br>--- ----- --- --- ------ -------- ----- --- ------ ----- --<br>----- ----- ---------- --- the ------ ------ ---- -- ------<br>------- --- ------ ----- --- ---- ------- -- ---- --- --<br>------- ------,112363.60000014305,112363,111715.153,111715.90000009537,111731.818,112365.203,,37,the
screen,html.Screen,0_2_1_1_38,2021-11-19T13:16:22.168Z,,,,,,,,,,,,,,,,54,,,,,,,,,,,,,,533.6970000953734,,response,,,100,,,,,,Space,keypress(Space),,,,,-- --- ---- --- ------ ----- ------- ---- -- --- ------- --<br>------- ---------- ------ -- ----- -- ----- -- ---- ------<br>--- ----- --- --- ------ -------- ----- --- ------ ----- --<br>----- ----- ---------- --- --- market ------ ---- -- ------<br>------- --- ------ ----- --- ---- ------- -- ---- --- --<br>------- ------,112899.5,112898.90000009537,112348.537,112363.79999995232,112365.203,112915.134,,38,market
screen,html.Screen,0_2_1_1_39,2021-11-19T13:16:22.696Z,,,,,,,,,,,,,,,,54,,,,,,,,,,,,,,511.76600009536196,,response,,,100,,,,,,Space,keypress(Space),,,,,-- --- ---- --- ------ ----- ------- ---- -- --- ------- --<br>------- ---------- ------ -- ----- -- ----- -- ---- ------<br>--- ----- --- --- ------ -------- ----- --- ------ ----- --<br>----- ----- ---------- --- --- ------ became ---- -- ------<br>------- --- ------ ----- --- ---- ------- -- ---- --- --<br>------- ------,113427.5,113426.90000009537,112898.469,112899.60000014305,112915.134,113431.679,,39,became
screen,html.Screen,0_2_1_1_40,2021-11-19T13:16:23.184Z,,,,,,,,,,,,,,,,54,,,,,,,,,,,,,,483.2210000953637,,response,,,100,,,,,,Space,keypress(Space),,,,,-- --- ---- --- ------ ----- ------- ---- -- --- ------- --<br>------- ---------- ------ -- ----- -- ----- -- ---- ------<br>--- ----- --- --- ------ -------- ----- --- ------ ----- --<br>----- ----- ---------- --- --- ------ ------ wary -- ------<br>------- --- ------ ----- --- ---- ------- -- ---- --- --<br>------- ------,113915.5,113914.90000009537,113415.015,113427.70000004768,113431.679,113931.698,,40,wary
screen,html.Screen,0_2_1_1_41,2021-11-19T13:16:23.688Z,,,,,,,,,,,,,,,,54,,,,,,,,,,,,,,487.2020000953635,,response,,,100,,,,,,Space,keypress(Space),,,,,-- --- ---- --- ------ ----- ------- ---- -- --- ------- --<br>------- ---------- ------ -- ----- -- ----- -- ---- ------<br>--- ----- --- --- ------ -------- ----- --- ------ ----- --<br>----- ----- ---------- --- --- ------ ------ ---- of ------<br>------- --- ------ ----- --- ---- ------- -- ---- --- --<br>------- ------,114419.5,114418.90000009537,113915.033,113915.60000014305,113931.698,114431.752,,41,of
screen,html.Screen,0_2_1_1_42,2021-11-19T13:16:24.200Z,,,,,,,,,,,,,,,,54,,,,,,,,,,,,,,499.348000143058,,response,,,100,,,,,,Space,keypress(Space),,,,,-- --- ---- --- ------ ----- ------- ---- -- --- ------- --<br>------- ---------- ------ -- ----- -- ----- -- ---- ------<br>--- ----- --- --- ------ -------- ----- --- ------ ----- --<br>----- ----- ---------- --- --- ------ ------ ---- -- French<br>------- --- ------ ----- --- ---- ------- -- ---- --- --<br>------- ------,114931.70000004768,114931.10000014305,114415.086,114419.79999995232,114431.752,114948.33,,42,French
screen,html.Screen,0_2_1_1_43,2021-11-19T13:16:25.032Z,,,,,,,,,,,,,,,,54,,,,,,,,,,,,,,814.4699999523145,,response,,,100,,,,,,Space,keypress(Space),,,,,-- --- ---- --- ------ ----- ------- ---- -- --- ------- --<br>------- ---------- ------ -- ----- -- ----- -- ---- ------<br>--- ----- --- --- ------ -------- ----- --- ------ ----- --<br>----- ----- ---------- --- --- ------ ------ ---- -- ------<br>credit. --- ------ ----- --- ---- ------- -- ---- --- --<br>------- ------,115763.5,115762.79999995232,114931.665,114932,114948.33,115764.935,,43,credit.
screen,html.Screen,0_2_1_1_44,2021-11-19T13:16:25.520Z,,,,,,,,,,,,,,,,54,,,,,,,,,,,,,,485.8649999523186,,response,,,100,,,,,,Space,keypress(Space),,,,,-- --- ---- --- ------ ----- ------- ---- -- --- ------- --<br>------- ---------- ------ -- ----- -- ----- -- ---- ------<br>--- ----- --- --- ------ -------- ----- --- ------ ----- --<br>----- ----- ---------- --- --- ------ ------ ---- -- ------<br>------- The ------ ----- --- ---- ------- -- ---- --- --<br>------- ------,116251.29999995232,116250.79999995232,115748.27,115763.70000004768,115764.935,116264.931,,44,The
screen,html.Screen,0_2_1_1_45,2021-11-19T13:16:26.080Z,,,,,,,,,,,,,,,,54,,,,,,,,,,,,,,545.7690000476869,,response,,,100,,,,,,Space,keypress(Space),,,,,-- --- ---- --- ------ ----- ------- ---- -- --- ------- --<br>------- ---------- ------ -- ----- -- ----- -- ---- ------<br>--- ----- --- --- ------ -------- ----- --- ------ ----- --<br>----- ----- ---------- --- --- ------ ------ ---- -- ------<br>------- --- French ----- --- ---- ------- -- ---- --- --<br>------- ------,116811.29999995232,116810.70000004768,116248.266,116251.60000014305,116264.931,116814.853,,45,French
screen,html.Screen,0_2_1_1_46,2021-11-19T13:16:26.536Z,,,,,,,,,,,,,,,,54,,,,,,,,,,,,,,451.74700014304835,,response,,,100,,,,,,Space,keypress(Space),,,,,-- --- ---- --- ------ ----- ------- ---- -- --- ------- --<br>------- ---------- ------ -- ----- -- ----- -- ---- ------<br>--- ----- --- --- ------ -------- ----- --- ------ ----- --<br>----- ----- ---------- --- --- ------ ------ ---- -- ------<br>------- --- ------ state --- ---- ------- -- ---- --- --<br>------- ------,117267.20000004768,117266.60000014305,116798.188,116811.5,116814.853,117281.436,,46,state
screen,html.Screen,0_2_1_1_47,2021-11-19T13:16:27.112Z,,,,,,,,,,,,,,,,54,,,,,,,,,,,,,,561.1640001430496,,response,,,100,,,,,,Space,keypress(Space),,,,,-- --- ---- --- ------ ----- ------- ---- -- --- ------- --<br>------- ---------- ------ -- ----- -- ----- -- ---- ------<br>--- ----- --- --- ------ -------- ----- --- ------ ----- --<br>----- ----- ---------- --- --- ------ ------ ---- -- ------<br>------- --- ------ ----- was ---- ------- -- ---- --- --<br>------- ------,117843.20000004768,117842.60000014305,117264.772,117267.5,117281.436,117848.218,,47,was
screen,html.Screen,0_2_1_1_48,2021-11-19T13:16:27.632Z,,,,,,,,,,,,,,,,54,,,,,,,,,,,,,,514.4820000476902,,response,,,100,,,,,,Space,keypress(Space),,,,,-- --- ---- --- ------ ----- ------- ---- -- --- ------- --<br>------- ---------- ------ -- ----- -- ----- -- ---- ------<br>--- ----- --- --- ------ -------- ----- --- ------ ----- --<br>----- ----- ---------- --- --- ------ ------ ---- -- ------<br>------- --- ------ ----- --- left ------- -- ---- --- --<br>------- ------,118363.29999995232,118362.70000004768,117831.552,117843.40000009537,117848.218,118364.695,,48,left
screen,html.Screen,0_2_1_1_49,2021-11-19T13:16:28.032Z,,,,,,,,,,,,,,,,54,,,,,,,,,,,,,,397.804999999993,,response,,,100,,,,,,Space,keypress(Space),,,,,-- --- ---- --- ------ ----- ------- ---- -- --- ------- --<br>------- ---------- ------ -- ----- -- ----- -- ---- ------<br>--- ----- --- --- ------ -------- ----- --- ------ ----- --<br>----- ----- ---------- --- --- ------ ------ ---- -- ------<br>------- --- ------ ----- --- ---- without -- ---- --- --<br>------- ------,118763.20000004768,118762.5,118348.031,118363.40000009537,118364.695,118764.815,,49,without
screen,html.Screen,0_2_1_1_50,2021-11-19T13:16:28.440Z,,,,,,,,,,,,,,,,54,,,,,,,,,,,,,,405.6849999999977,,response,,,100,,,,,,Space,keypress(Space),,,,,-- --- ---- --- ------ ----- ------- ---- -- --- ------- --<br>------- ---------- ------ -- ----- -- ----- -- ---- ------<br>--- ----- --- --- ------ -------- ----- --- ------ ----- --<br>----- ----- ---------- --- --- ------ ------ ---- -- ------<br>------- --- ------ ----- --- ---- ------- an ---- --- --<br>------- ------,119171,119170.5,118748.149,118763.29999995232,118764.815,119181.42,,50,an
screen,html.Screen,0_2_1_1_51,2021-11-19T13:16:28.840Z,,,,,,,,,,,,,,,,54,,,,,,,,,,,,,,389.08000000000175,,response,,,100,,,,,,Space,keypress(Space),,,,,-- --- ---- --- ------ ----- ------- ---- -- --- ------- --<br>------- ---------- ------ -- ----- -- ----- -- ---- ------<br>--- ----- --- --- ------ -------- ----- --- ------ ----- --<br>----- ----- ---------- --- --- ------ ------ ---- -- ------<br>------- --- ------ ----- --- ---- ------- -- easy --- --<br>------- ------,119571.10000014305,119570.5,119164.755,119171.20000004768,119181.42,119581.389,,51,easy
screen,html.Screen,0_2_1_1_52,2021-11-19T13:16:29.224Z,,,,,,,,,,,,,,,,54,,,,,,,,,,,,,,373.1110000000044,,response,,,100,,,,,,Space,keypress(Space),,,,,-- --- ---- --- ------ ----- ------- ---- -- --- ------- --<br>------- ---------- ------ -- ----- -- ----- -- ---- ------<br>--- ----- --- --- ------ -------- ----- --- ------ ----- --<br>----- ----- ---------- --- --- ------ ------ ---- -- ------<br>------- --- ------ ----- --- ---- ------- -- ---- way --<br>------- ------,119955.10000014305,119954.5,119564.724,119571.20000004768,119581.389,119964.696,,52,way
screen,html.Screen,0_2_1_1_53,2021-11-19T13:16:29.668Z,,,,,,,,,,,,,,,,54,,,,,,,,,,,,,,429.8040000000037,,response,,,100,,,,,,Space,keypress(Space),,,,,-- --- ---- --- ------ ----- ------- ---- -- --- ------- --<br>------- ---------- ------ -- ----- -- ----- -- ---- ------<br>--- ----- --- --- ------ -------- ----- --- ------ ----- --<br>----- ----- ---------- --- --- ------ ------ ---- -- ------<br>------- --- ------ ----- --- ---- ------- -- ---- --- of<br>------- ------,120395.20000004768,120394.5,119948.031,119955.29999995232,119964.696,120398.001,,53,of
screen,html.Screen,0_2_1_1_54,2021-11-19T13:16:30.403Z,,,,,,,,,,,,,,,,54,,,,,,,,,,,,,,732.3990000953636,,response,,,100,,,,,,Space,keypress(Space),,,,,-- --- ---- --- ------ ----- ------- ---- -- --- ------- --<br>------- ---------- ------ -- ----- -- ----- -- ---- ------<br>--- ----- --- --- ------ -------- ----- --- ------ ----- --<br>----- ----- ---------- --- --- ------ ------ ---- -- ------<br>------- --- ------ ----- --- ---- ------- -- ---- --- --<br>raising ------,121131,121130.40000009537,120381.336,120395.40000009537,120398.001,121147.952,,54,raising
screen,html.Screen,0_2_1_1_55,2021-11-19T13:16:30.835Z,,,,,,,,,,,,,,,,54,,,,,,,,,,,,,,414.6480001430464,,response,,,100,,,,,,Space,keypress(Space),,,,,-- --- ---- --- ------ ----- ------- ---- -- --- ------- --<br>------- ---------- ------ -- ----- -- ----- -- ---- ------<br>--- ----- --- --- ------ -------- ----- --- ------ ----- --<br>----- ----- ---------- --- --- ------ ------ ---- -- ------<br>------- --- ------ ----- --- ---- ------- -- ---- --- --<br>------- money.,121563.10000014305,121562.60000014305,121131.287,121131.20000004768,121147.952,121564.499,,55,money.
Item 100,flow.Loop,0_2_1_1,2021-11-19T13:16:30.836Z,,,,,,,,,,,,,,,,,,,,,,,,,,,,,,27663.00500014305,,completion,,,,E,,,,,,,,,,silence,,121563.29999995232,121562.60000014305,93882.93,93883.79999995232,93899.595,121564.499,,,
Question 1,html.Screen,0_2_1_2,2021-11-19T13:16:35.356Z,,,,,,,,,,,,,,,,,,,,,,,,,,,false,TRUE,,4517.901000095371,,response,,,100,E,,,,,FALSE,click #choice-2,,,,silence,,126083.20000004768,126082.40000009537,121547.835,121563.5,121564.499,126097.628,,,
Question 2,html.Screen,0_2_1_3,2021-11-19T13:16:38.580Z,,,,,,,,,,,,,,,,,,,,,,,,,,,true,FALSE,,3208.972000143054,,response,,,100,E,,,,,FALSE,click #choice-2,,,,silence,,129307.40000009537,129306.60000014305,126080.963,126083.29999995232,126097.628,129314.37,,,
Item 100,flow.Sequence,0_2_1,2021-11-19T13:16:38.580Z,,,,,,,,,,,,,,,,,,,,,,,,,,,,,,45406.707000143055,,completion,,,,,,,,,,,,,,,,129307.79999995232,129306.60000014305,83883.231,83885.5,83899.893,129314.37,,,
End of Practice,html.Page,0_2_2,2021-11-19T13:16:41.812Z,,,,,,,,,,,,,,,,,,,,,,,,,,,,,,3224.530000095372,,form submission,,,,,,,,,,,,,,,,132539.29999995232,132538.90000009537,129297.69,129307.90000009537,129314.37,132547.157,,,
Practice,flow.Sequence,0_2,2021-11-19T13:16:41.812Z,,,,,,,,,,,,,,,,,,,,,,,,,,,,,,98635.76400009537,,completion,,,,,,,,,,,,,,,,132539.60000014305,132538.90000009537,33886.472,33887.40000009537,33903.136,132547.157,,,
Trap_instruction,html.Page,0_3_0,2021-11-19T13:16:45.866Z,,,,,,,,,,,,,,,,,,,,,,,,,,,,,,4046.3429999999935,,form submission,,,,,,,,,,,,,,,,136593.90000009537,136593.5,132530.492,132539.79999995232,132547.157,136613.614,,,
trap_trial,html.Screen,0_3_1,2021-11-19T13:16:49.192Z,,,,,,,,,,,,,,,,,,,,,,,,,,,true,1,,3304.786000095366,,response,,,,,,,,,1,click #choice-1,,,,,,139919.20000004768,139918.40000009537,136580.284,136594.10000014305,136613.614,139926.119,,,
end of trap trial,html.Page,0_3_2,2021-11-19T13:16:51.219Z,,,,,,,,,,,,,,,,,,,,,,,,,,,,,,2020.481000143045,,form submission,,,,,,,,,,,,,,,,141947,141946.60000014305,139909.474,139919.29999995232,139926.119,141946.705,,,
Trap 1,flow.Sequence,0_3,2021-11-19T13:16:51.220Z,,,,,,,,,,,,,,,,,,,,,,,,,,,,,,9399.443000143045,,completion,,,,,,,,,,,,,,,,141947.20000004768,141946.60000014305,132530.492,132539.70000004768,132547.157,141946.705,,,
Standby,html.Page,0_4_0,2021-11-19T13:16:59.202Z,,,,,,,,,,,,,,,,,,,,,,,,,,,,,,7999.149000000005,,timeout,,,,,,,,,,,,,,,,149930,149929.189,141930.039,141947.40000009537,141946.705,149945.854,,,
Holding screen,html.Screen,0_4_1_0_0,2021-11-19T13:17:06.202Z,,,,,,,,,,,,,,,,,,,,,,,,,,,,,,6999.845000000001,,timeout,,,,,,,,,,,,,,,,156929.79999995232,156929.034,149929.189,149930.40000009537,149945.854,156945.699,,,
screen,html.Screen,0_4_1_0_1_0,2021-11-19T13:17:06.834Z,,,,,,,,,,,,,,,,48,,,,,,,,,,,,,,614.8010000000068,,response,,,10,E,,,,,Space,keypress(Space),,,,lyrical,As -- --- ------ ------- --------- ----------- --------<br>--------- -------- --- ------- -- ------- ---- -- ------<br>-- --- -------- -------- ---------- ---- ---- ---- ------<br>-- --------- -- ---- -- --- -- --- ------- -- - -----<br>---------- -- -- -- ---- ----- -- ------ -- --- ------<br>-------,157561.20000004768,157560.5,156929.034,156930.10000014305,156945.699,157562.374,,0,As
screen,html.Screen,0_4_1_0_1_1,2021-11-19T13:17:07.193Z,,,,,,,,,,,,,,,,48,,,,,,,,,,,,,,357.826000047673,,response,,,10,E,,,,,Space,keypress(Space),,,,lyrical,-- in --- ------ ------- --------- ----------- --------<br>--------- -------- --- ------- -- ------- ---- -- ------<br>-- --- -------- -------- ---------- ---- ---- ---- ------<br>-- --------- -- ---- -- --- -- --- ------- -- - -----<br>---------- -- -- -- ---- ----- -- ------ -- --- ------<br>-------,157920.70000004768,157920.20000004768,157545.709,157561.40000009537,157562.374,157929.016,,1,in
screen,html.Screen,0_4_1_0_1_2,2021-11-19T13:17:07.577Z,,,,,,,,,,,,,,,,48,,,,,,,,,,,,,,375.0840001430479,,response,,,10,E,,,,,Space,keypress(Space),,,,lyrical,-- -- the ------ ------- --------- ----------- --------<br>--------- -------- --- ------- -- ------- ---- -- ------<br>-- --- -------- -------- ---------- ---- ---- ---- ------<br>-- --------- -- ---- -- --- -- --- ------- -- - -----<br>---------- -- -- -- ---- ----- -- ------ -- --- ------<br>-------,158304.70000004768,158304.10000014305,157912.351,157920.90000009537,157929.016,158312.31,,2,the
screen,html.Screen,0_4_1_0_1_3,2021-11-19T13:17:08.033Z,,,,,,,,,,,,,,,,48,,,,,,,,,,,,,,447.7900001430535,,response,,,10,E,,,,,Space,keypress(Space),,,,lyrical,-- -- --- United ------- --------- ----------- --------<br>--------- -------- --- ------- -- ------- ---- -- ------<br>-- --- -------- -------- ---------- ---- ---- ---- ------<br>-- --------- -- ---- -- --- -- --- ------- -- - -----<br>---------- -- -- -- ---- ----- -- ------ -- --- ------<br>-------,158760.79999995232,158760.10000014305,158295.645,158304.90000009537,158312.31,158762.229,,3,United
screen,html.Screen,0_4_1_0_1_4,2021-11-19T13:17:08.441Z,,,,,,,,,,,,,,,,48,,,,,,,,,,,,,,405.97100004769163,,response,,,10,E,,,,,Space,keypress(Space),,,,lyrical,"-- -- --- ------ States, --------- ----------- --------<br>--------- -------- --- ------- -- ------- ---- -- ------<br>-- --- -------- -------- ---------- ---- ---- ---- ------<br>-- --------- -- ---- -- --- -- --- ------- -- - -----<br>---------- -- -- -- ---- ----- -- ------ -- --- ------<br>-------",159168.70000004768,159168.20000004768,158745.565,158761,158762.229,159178.91,,4,"States,"
screen,html.Screen,0_4_1_0_1_5,2021-11-19T13:17:09.009Z,,,,,,,,,,,,,,,,48,,,,,,,,,,,,,,557.1900001430477,,response,,,10,E,,,,,Space,keypress(Space),,,,lyrical,-- -- --- ------ ------- Colombian ----------- --------<br>--------- -------- --- ------- -- ------- ---- -- ------<br>-- --- -------- -------- ---------- ---- ---- ---- ------<br>-- --------- -- ---- -- --- -- --- ------- -- - -----<br>---------- -- -- -- ---- ----- -- ------ -- --- ------<br>-------,159736.70000004768,159736.10000014305,159162.245,159168.90000009537,159178.91,159745.603,,5,Colombian
screen,html.Screen,0_4_1_0_1_6,2021-11-19T13:17:09.641Z,,,,,,,,,,,,,,,,48,,,,,,,,,,,,,,622.3969999999972,,response,,,10,E,,,,,Space,keypress(Space),,,,lyrical,-- -- --- ------ ------- --------- legislation --------<br>--------- -------- --- ------- -- ------- ---- -- ------<br>-- --- -------- -------- ---------- ---- ---- ---- ------<br>-- --------- -- ---- -- --- -- --- ------- -- - -----<br>---------- -- -- -- ---- ----- -- ------ -- --- ------<br>-------,160368.70000004768,160368,159728.937,159736.90000009537,159745.603,160378.951,,6,legislation
screen,html.Screen,0_4_1_0_1_7,2021-11-19T13:17:10.233Z,,,,,,,,,,,,,,,,48,,,,,,,,,,,,,,581.0489999999991,,response,,,10,E,,,,,Space,keypress(Space),,,,lyrical,-- -- --- ------ ------- --------- ----------- requires<br>--------- -------- --- ------- -- ------- ---- -- ------<br>-- --- -------- -------- ---------- ---- ---- ---- ------<br>-- --------- -- ---- -- --- -- --- ------- -- - -----<br>---------- -- -- -- ---- ----- -- ------ -- --- ------<br>-------,160960.60000014305,160960,160362.285,160368.79999995232,160378.951,160962.093,,7,requires
screen,html.Screen,0_4_1_0_1_8,2021-11-19T13:17:10.945Z,,,,,,,,,,,,,,,,48,,,,,,,,,,,,,,709.807000095374,,response,,,10,E,,,,,Space,keypress(Space),,,,lyrical,-- -- --- ------ ------- --------- ----------- --------<br>travelers -------- --- ------- -- ------- ---- -- ------<br>-- --- -------- -------- ---------- ---- ---- ---- ------<br>-- --------- -- ---- -- --- -- --- ------- -- - -----<br>---------- -- -- -- ---- ----- -- ------ -- --- ------<br>-------,161672.60000014305,161671.90000009537,160945.429,160960.70000004768,160962.093,161678.784,,8,travelers
screen,html.Screen,0_4_1_0_1_9,2021-11-19T13:17:11.769Z,,,,,,,,,,,,,,,,48,,,,,,,,,,,,,,817.1160000953532,,response,,,10,E,,,,,Space,keypress(Space),,,,lyrical,-- -- --- ------ ------- --------- ----------- --------<br>--------- entering --- ------- -- ------- ---- -- ------<br>-- --- -------- -------- ---------- ---- ---- ---- ------<br>-- --------- -- ---- -- --- -- --- ------- -- - -----<br>---------- -- -- -- ---- ----- -- ------ -- --- ------<br>-------,162496.60000014305,162495.90000009537,161662.119,161672.70000004768,161678.784,162512.045,,9,entering
screen,html.Screen,0_4_1_0_1_10,2021-11-19T13:17:12.233Z,,,,,,,,,,,,,,,,48,,,,,,,,,,,,,,447.8550000953546,,response,,,10,E,,,,,Space,keypress(Space),,,,lyrical,-- -- --- ------ ------- --------- ----------- --------<br>--------- -------- the ------- -- ------- ---- -- ------<br>-- --- -------- -------- ---------- ---- ---- ---- ------<br>-- --------- -- ---- -- --- -- --- ------- -- - -----<br>---------- -- -- -- ---- ----- -- ------ -- --- ------<br>-------,162960.40000009537,162959.90000009537,162495.38,162496.70000004768,162512.045,162962.032,,10,the
screen,html.Screen,0_4_1_0_1_11,2021-11-19T13:17:12.785Z,,,,,,,,,,,,,,,,48,,,,,,,,,,,,,,549.7679999523098,,response,,,10,E,,,,,Space,keypress(Space),,,,lyrical,-- -- --- ------ ------- --------- ----------- --------<br>--------- -------- --- country -- ------- ---- -- ------<br>-- --- -------- -------- ---------- ---- ---- ---- ------<br>-- --------- -- ---- -- --- -- --- ------- -- - -----<br>---------- -- -- -- ---- ----- -- ------ -- --- ------<br>-------,163512.40000009537,163511.79999995232,162945.367,162960.60000014305,162962.032,163528.583,,11,country
screen,html.Screen,0_4_1_0_1_12,2021-11-19T13:17:13.265Z,,,,,,,,,,,,,,,,48,,,,,,,,,,,,,,463.216999952303,,response,,,10,E,,,,,Space,keypress(Space),,,,lyrical,-- -- --- ------ ------- --------- ----------- --------<br>--------- -------- --- ------- to ------- ---- -- ------<br>-- --- -------- -------- ---------- ---- ---- ---- ------<br>-- --------- -- ---- -- --- -- --- ------- -- - -----<br>---------- -- -- -- ---- ----- -- ------ -- --- ------<br>-------,163992.40000009537,163991.79999995232,163511.919,163512.60000014305,163528.583,163995.332,,12,to
screen,html.Screen,0_4_1_0_1_13,2021-11-19T13:17:13.713Z,,,,,,,,,,,,,,,,48,,,,,,,,,,,,,,444.36800004768884,,response,,,10,E,,,,,Space,keypress(Space),,,,lyrical,-- -- --- ------ ------- --------- ----------- --------<br>--------- -------- --- ------- -- declare ---- -- ------<br>-- --- -------- -------- ---------- ---- ---- ---- ------<br>-- --------- -- ---- -- --- -- --- ------- -- - -----<br>---------- -- -- -- ---- ----- -- ------ -- --- ------<br>-------,164440.29999995232,164439.70000004768,163978.666,163992.5,163995.332,164445.324,,13,declare
screen,html.Screen,0_4_1_0_1_14,2021-11-19T13:17:14.169Z,,,,,,,,,,,,,,,,48,,,,,,,,,,,,,,450.37600004769047,,response,,,10,E,,,,,Space,keypress(Space),,,,lyrical,-- -- --- ------ ------- --------- ----------- --------<br>--------- -------- --- ------- -- ------- cash -- ------<br>-- --- -------- -------- ---------- ---- ---- ---- ------<br>-- --------- -- ---- -- --- -- --- ------- -- - -----<br>---------- -- -- -- ---- ----- -- ------ -- --- ------<br>-------,164896.29999995232,164895.70000004768,164428.658,164440.5,164445.324,164911.979,,14,cash
screen,html.Screen,0_4_1_0_1_15,2021-11-19T13:17:14.625Z,,,,,,,,,,,,,,,,48,,,,,,,,,,,,,,439.62100014305906,,response,,,10,E,,,,,Space,keypress(Space),,,,lyrical,-- -- --- ------ ------- --------- ----------- --------<br>--------- -------- --- ------- -- ------- ---- in ------<br>-- --- -------- -------- ---------- ---- ---- ---- ------<br>-- --------- -- ---- -- --- -- --- ------- -- - -----<br>---------- -- -- -- ---- ----- -- ------ -- --- ------<br>-------,165352.29999995232,165351.60000014305,164895.313,164896.5,164911.979,165361.809,,15,in
screen,html.Screen,0_4_1_0_1_16,2021-11-19T13:17:15.081Z,,,,,,,,,,,,,,,,48,,,,,,,,,,,,,,445.89100004767533,,response,,,10,E,,,,,Space,keypress(Space),,,,lyrical,-- -- --- ------ ------- --------- ----------- --------<br>--------- -------- --- ------- -- ------- ---- -- excess<br>-- --- -------- -------- ---------- ---- ---- ---- ------<br>-- --------- -- ---- -- --- -- --- ------- -- - -----<br>---------- -- -- -- ---- ----- -- ------ -- --- ------<br>-------,165808.20000004768,165807.70000004768,165345.145,165352.5,165361.809,165811.945,,16,excess
screen,html.Screen,0_4_1_0_1_17,2021-11-19T13:17:15.505Z,,,,,,,,,,,,,,,,48,,,,,,,,,,,,,,419.75500004767673,,response,,,10,E,,,,,Space,keypress(Space),,,,lyrical,-- -- --- ------ ------- --------- ----------- --------<br>--------- -------- --- ------- -- ------- ---- -- ------<br>of --- -------- -------- ---------- ---- ---- ---- ------<br>-- --------- -- ---- -- --- -- --- ------- -- - -----<br>---------- -- -- -- ---- ----- -- ------ -- --- ------<br>-------,166232.20000004768,166231.70000004768,165795.279,165808.5,165811.945,166245.197,,17,of
screen,html.Screen,0_4_1_0_1_18,2021-11-19T13:17:16.009Z,,,,,,,,,,,,,,,,48,,,,,,,,,,,,,,490.50300004769815,,response,,,10,E,,,,,Space,keypress(Space),,,,lyrical,-- -- --- ------ ------- --------- ----------- --------<br>--------- -------- --- ------- -- ------- ---- -- ------<br>-- ten -------- -------- ---------- ---- ---- ---- ------<br>-- --------- -- ---- -- --- -- --- ------- -- - -----<br>---------- -- -- -- ---- ----- -- ------ -- --- ------<br>-------,166736.29999995232,166735.70000004768,166228.532,166232.40000009537,166245.197,166745.093,,18,ten
screen,html.Screen,0_4_1_0_1_19,2021-11-19T13:17:16.457Z,,,,,,,,,,,,,,,,48,,,,,,,,,,,,,,438.50700014305767,,response,,,10,E,,,,,Space,keypress(Space),,,,lyrical,-- -- --- ------ ------- --------- ----------- --------<br>--------- -------- --- ------- -- ------- ---- -- ------<br>-- --- thousand -------- ---------- ---- ---- ---- ------<br>-- --------- -- ---- -- --- -- --- ------- -- - -----<br>---------- -- -- -- ---- ----- -- ------ -- --- ------<br>-------,167184.20000004768,167183.60000014305,166728.429,166736.5,166745.093,167195.168,,19,thousand
screen,html.Screen,0_4_1_0_1_20,2021-11-19T13:17:16.905Z,,,,,,,,,,,,,,,,48,,,,,,,,,,,,,,436.63199995231116,,response,,,10,E,,,,,Space,keypress(Space),,,,lyrical,-- -- --- ------ ------- --------- ----------- --------<br>--------- -------- --- ------- -- ------- ---- -- ------<br>-- --- -------- dollars. ---------- ---- ---- ---- ------<br>-- --------- -- ---- -- --- -- --- ------- -- - -----<br>---------- -- -- -- ---- ----- -- ------ -- --- ------<br>-------,167632.5,167631.79999995232,167178.502,167184.40000009537,167195.168,167644.956,,20,dollars.
screen,html.Screen,0_4_1_0_1_21,2021-11-19T13:17:18.001Z,,,,,,,,,,,,,,,,48,,,,,,,,,,,,,,1082.6440001430456,,response,,,10,E,,,,,Space,keypress(Space),,,,lyrical,-- -- --- ------ ------- --------- ----------- --------<br>--------- -------- --- ------- -- ------- ---- -- ------<br>-- --- -------- -------- Concealing ---- ---- ---- ------<br>-- --------- -- ---- -- --- -- --- ------- -- - -----<br>---------- -- -- -- ---- ----- -- ------ -- --- ------<br>-------,168728.20000004768,168727.60000014305,167628.293,167632.60000014305,167644.956,168745.068,,21,Concealing
screen,html.Screen,0_4_1_0_1_22,2021-11-19T13:17:18.408Z,,,,,,,,,,,,,,,,48,,,,,,,,,,,,,,390.33200009536813,,response,,,10,E,,,,,Space,keypress(Space),,,,lyrical,-- -- --- ------ ------- --------- ----------- --------<br>--------- -------- --- ------- -- ------- ---- -- ------<br>-- --- -------- -------- ---------- more ---- ---- ------<br>-- --------- -- ---- -- --- -- --- ------- -- - -----<br>---------- -- -- -- ---- ----- -- ------ -- --- ------<br>-------,169136,169135.40000009537,168728.402,168728.29999995232,168745.068,169144.939,,22,more
screen,html.Screen,0_4_1_0_1_23,2021-11-19T13:17:18.816Z,,,,,,,,,,,,,,,,48,,,,,,,,,,,,,,398.56099999998696,,response,,,10,E,,,,,Space,keypress(Space),,,,lyrical,-- -- --- ------ ------- --------- ----------- --------<br>--------- -------- --- ------- -- ------- ---- -- ------<br>-- --- -------- -------- ---------- ---- than ---- ------<br>-- --------- -- ---- -- --- -- --- ------- -- - -----<br>---------- -- -- -- ---- ----- -- ------ -- --- ------<br>-------,169544.10000014305,169543.5,169128.274,169136.10000014305,169144.939,169544.975,,23,than
screen,html.Screen,0_4_1_0_1_24,2021-11-19T13:17:19.232Z,,,,,,,,,,,,,,,,48,,,,,,,,,,,,,,414.4250000953616,,response,,,10,E,,,,,Space,keypress(Space),,,,lyrical,-- -- --- ------ ------- --------- ----------- --------<br>--------- -------- --- ------- -- ------- ---- -- ------<br>-- --- -------- -------- ---------- ---- ---- that ------<br>-- --------- -- ---- -- --- -- --- ------- -- - -----<br>---------- -- -- -- ---- ----- -- ------ -- --- ------<br>-------,169960,169959.40000009537,169528.31,169544.29999995232,169544.975,169961.619,,24,that
screen,html.Screen,0_4_1_0_1_25,2021-11-19T13:17:19.664Z,,,,,,,,,,,,,,,,48,,,,,,,,,,,,,,429.88099999999395,,response,,,10,E,,,,,Space,keypress(Space),,,,lyrical,-- -- --- ------ ------- --------- ----------- --------<br>--------- -------- --- ------- -- ------- ---- -- ------<br>-- --- -------- -------- ---------- ---- ---- ---- amount<br>-- --------- -- ---- -- --- -- --- ------- -- - -----<br>---------- -- -- -- ---- ----- -- ------ -- --- ------<br>-------,170392,170391.5,169944.954,169960.20000004768,169961.619,170394.9,,25,amount
screen,html.Screen,0_4_1_0_1_26,2021-11-19T13:17:20.064Z,,,,,,,,,,,,,,,,48,,,,,,,,,,,,,,396.50000009537325,,response,,,10,E,,,,,Space,keypress(Space),,,,lyrical,-- -- --- ------ ------- --------- ----------- --------<br>--------- -------- --- ------- -- ------- ---- -- ------<br>-- --- -------- -------- ---------- ---- ---- ---- ------<br>to --------- -- ---- -- --- -- --- ------- -- - -----<br>---------- -- -- -- ---- ----- -- ------ -- --- ------<br>-------,170792,170791.40000009537,170378.235,170392.20000004768,170394.9,170794.965,,26,to
screen,html.Screen,0_4_1_0_1_27,2021-11-19T13:17:20.488Z,,,,,,,,,,,,,,,,48,,,,,,,,,,,,,,420.3349999523198,,response,,,10,E,,,,,Space,keypress(Space),,,,lyrical,-- -- --- ------ ------- --------- ----------- --------<br>--------- -------- --- ------- -- ------- ---- -- ------<br>-- --- -------- -------- ---------- ---- ---- ---- ------<br>-- transport -- ---- -- --- -- --- ------- -- - -----<br>---------- -- -- -- ---- ----- -- ------ -- --- ------<br>-------,171216,171215.29999995232,170778.299,170792.10000014305,170794.965,171228.229,,27,transport
screen,html.Screen,0_4_1_0_1_28,2021-11-19T13:17:20.944Z,,,,,,,,,,,,,,,,48,,,,,,,,,,,,,,443.0709999523242,,response,,,10,E,,,,,Space,keypress(Space),,,,lyrical,-- -- --- ------ ------- --------- ----------- --------<br>--------- -------- --- ------- -- ------- ---- -- ------<br>-- --- -------- -------- ---------- ---- ---- ---- ------<br>-- --------- it ---- -- --- -- --- ------- -- - -----<br>---------- -- -- -- ---- ----- -- ------ -- --- ------<br>-------,171672,171671.29999995232,171211.564,171216.20000004768,171228.229,171678.121,,28,it
screen,html.Screen,0_4_1_0_1_29,2021-11-19T13:17:21.360Z,,,,,,,,,,,,,,,,48,,,,,,,,,,,,,,409.17899995230255,,response,,,10,E,,,,,Space,keypress(Space),,,,lyrical,-- -- --- ------ ------- --------- ----------- --------<br>--------- -------- --- ------- -- ------- ---- -- ------<br>-- --- -------- -------- ---------- ---- ---- ---- ------<br>-- --------- -- into -- --- -- --- ------- -- - -----<br>---------- -- -- -- ---- ----- -- ------ -- --- ------<br>-------,172087.90000009537,172087.29999995232,171661.457,171672.10000014305,171678.121,172094.813,,29,into
screen,html.Screen,0_4_1_0_1_30,2021-11-19T13:17:21.792Z,,,,,,,,,,,,,,,,48,,,,,,,,,,,,,,424.48699995232164,,response,,,10,E,,,,,Space,keypress(Space),,,,lyrical,-- -- --- ------ ------- --------- ----------- --------<br>--------- -------- --- ------- -- ------- ---- -- ------<br>-- --- -------- -------- ---------- ---- ---- ---- ------<br>-- --------- -- ---- or --- -- --- ------- -- - -----<br>---------- -- -- -- ---- ----- -- ------ -- --- ------<br>-------,172520,172519.29999995232,172078.148,172088,172094.813,172528.174,,30,or
screen,html.Screen,0_4_1_0_1_31,2021-11-19T13:17:22.248Z,,,,,,,,,,,,,,,,48,,,,,,,,,,,,,,447.02600004768465,,response,,,10,E,,,,,Space,keypress(Space),,,,lyrical,-- -- --- ------ ------- --------- ----------- --------<br>--------- -------- --- ------- -- ------- ---- -- ------<br>-- --- -------- -------- ---------- ---- ---- ---- ------<br>-- --------- -- ---- -- out -- --- ------- -- - -----<br>---------- -- -- -- ---- ----- -- ------ -- --- ------<br>-------,172975.79999995232,172975.20000004768,172511.508,172520.20000004768,172528.174,172978.048,,31,out
screen,html.Screen,0_4_1_0_1_32,2021-11-19T13:17:22.584Z,,,,,,,,,,,,,,,,48,,,,,,,,,,,,,,333.05200014304137,,response,,,10,E,,,,,Space,keypress(Space),,,,lyrical,-- -- --- ------ ------- --------- ----------- --------<br>--------- -------- --- ------- -- ------- ---- -- ------<br>-- --- -------- -------- ---------- ---- ---- ---- ------<br>-- --------- -- ---- -- --- of --- ------- -- - -----<br>---------- -- -- -- ---- ----- -- ------ -- --- ------<br>-------,173311.79999995232,173311.10000014305,172961.384,172976,172978.048,173328.068,,32,of
screen,html.Screen,0_4_1_0_1_33,2021-11-19T13:17:23.000Z,,,,,,,,,,,,,,,,48,,,,,,,,,,,,,,399.03200014305185,,response,,,10,E,,,,,Space,keypress(Space),,,,lyrical,-- -- --- ------ ------- --------- ----------- --------<br>--------- -------- --- ------- -- ------- ---- -- ------<br>-- --- -------- -------- ---------- ---- ---- ---- ------<br>-- --------- -- ---- -- --- -- the ------- -- - -----<br>---------- -- -- -- ---- ----- -- ------ -- --- ------<br>-------,173727.79999995232,173727.10000014305,173311.403,173312,173328.068,173744.651,,33,the
screen,html.Screen,0_4_1_0_1_34,2021-11-19T13:17:23.368Z,,,,,,,,,,,,,,,,48,,,,,,,,,,,,,,350.4490001430386,,response,,,10,E,,,,,Space,keypress(Space),,,,lyrical,-- -- --- ------ ------- --------- ----------- --------<br>--------- -------- --- ------- -- ------- ---- -- ------<br>-- --- -------- -------- ---------- ---- ---- ---- ------<br>-- --------- -- ---- -- --- -- --- country -- - -----<br>---------- -- -- -- ---- ----- -- ------ -- --- ------<br>-------,174095.70000004768,174095.10000014305,173727.987,173727.90000009537,173744.651,174111.333,,34,country
screen,html.Screen,0_4_1_0_1_35,2021-11-19T13:17:23.728Z,,,,,,,,,,,,,,,,48,,,,,,,,,,,,,,343.966999952303,,response,,,10,E,,,,,Space,keypress(Space),,,,lyrical,-- -- --- ------ ------- --------- ----------- --------<br>--------- -------- --- ------- -- ------- ---- -- ------<br>-- --- -------- -------- ---------- ---- ---- ---- ------<br>-- --------- -- ---- -- --- -- --- ------- is - -----<br>---------- -- -- -- ---- ----- -- ------ -- --- ------<br>-------,174455.90000009537,174455.29999995232,174094.668,174095.90000009537,174111.333,174461.359,,35,is
screen,html.Screen,0_4_1_0_1_36,2021-11-19T13:17:24.096Z,,,,,,,,,,,,,,,,48,,,,,,,,,,,,,,361.7410001430544,,response,,,10,E,,,,,Space,keypress(Space),,,,lyrical,-- -- --- ------ ------- --------- ----------- --------<br>--------- -------- --- ------- -- ------- ---- -- ------<br>-- --- -------- -------- ---------- ---- ---- ---- ------<br>-- --------- -- ---- -- --- -- --- ------- -- a -----<br>---------- -- -- -- ---- ----- -- ------ -- --- ------<br>-------,174823.70000004768,174823.10000014305,174444.693,174456,174461.359,174827.968,,36,a
screen,html.Screen,0_4_1_0_1_37,2021-11-19T13:17:24.520Z,,,,,,,,,,,,,,,,48,,,,,,,,,,,,,,419.13200014305767,,response,,,10,E,,,,,Space,keypress(Space),,,,lyrical,-- -- --- ------ ------- --------- ----------- --------<br>--------- -------- --- ------- -- ------- ---- -- ------<br>-- --- -------- -------- ---------- ---- ---- ---- ------<br>-- --------- -- ---- -- --- -- --- ------- -- - crime<br>---------- -- -- -- ---- ----- -- ------ -- --- ------<br>-------,175247.79999995232,175247.10000014305,174811.303,174823.79999995232,174827.968,175261.281,,37,crime
screen,html.Screen,0_4_1_0_1_38,2021-11-19T13:17:24.896Z,,,,,,,,,,,,,,,,48,,,,,,,,,,,,,,361.819000143063,,response,,,10,E,,,,,Space,keypress(Space),,,,lyrical,-- -- --- ------ ------- --------- ----------- --------<br>--------- -------- --- ------- -- ------- ---- -- ------<br>-- --- -------- -------- ---------- ---- ---- ---- ------<br>-- --------- -- ---- -- --- -- --- ------- -- - -----<br>punishable -- -- -- ---- ----- -- ------ -- --- ------<br>-------,175623.70000004768,175623.10000014305,175244.616,175247.90000009537,175261.281,175627.954,,38,punishable
screen,html.Screen,0_4_1_0_1_39,2021-11-19T13:17:25.288Z,,,,,,,,,,,,,,,,48,,,,,,,,,,,,,,387.14600014305324,,response,,,10,E,,,,,Space,keypress(Space),,,,lyrical,-- -- --- ------ ------- --------- ----------- --------<br>--------- -------- --- ------- -- ------- ---- -- ------<br>-- --- -------- -------- ---------- ---- ---- ---- ------<br>-- --------- -- ---- -- --- -- --- ------- -- - -----<br>---------- by -- -- ---- ----- -- ------ -- --- ------<br>-------,176015.70000004768,176015.10000014305,175611.288,175623.90000009537,175627.954,176027.889,,39,by
screen,html.Screen,0_4_1_0_1_40,2021-11-19T13:17:25.640Z,,,,,,,,,,,,,,,,48,,,,,,,,,,,,,,339.21100014305557,,response,,,10,E,,,,,Space,keypress(Space),,,,lyrical,-- -- --- ------ ------- --------- ----------- --------<br>--------- -------- --- ------- -- ------- ---- -- ------<br>-- --- -------- -------- ---------- ---- ---- ---- ------<br>-- --------- -- ---- -- --- -- --- ------- -- - -----<br>---------- -- up -- ---- ----- -- ------ -- --- ------<br>-------,176367.70000004768,176367.10000014305,176011.224,176015.90000009537,176027.889,176377.885,,40,up
screen,html.Screen,0_4_1_0_1_41,2021-11-19T13:17:26.248Z,,,,,,,,,,,,,,,,48,,,,,,,,,,,,,,597.1149999999907,,response,,,10,E,,,,,Space,keypress(Space),,,,lyrical,-- -- --- ------ ------- --------- ----------- --------<br>--------- -------- --- ------- -- ------- ---- -- ------<br>-- --- -------- -------- ---------- ---- ---- ---- ------<br>-- --------- -- ---- -- --- -- --- ------- -- - -----<br>---------- -- -- to ---- ----- -- ------ -- --- ------<br>-------,176975.70000004768,176975,176361.22,176368,176377.885,176977.846,,41,to
screen,html.Screen,0_4_1_0_1_42,2021-11-19T13:17:26.648Z,,,,,,,,,,,,,,,,48,,,,,,,,,,,,,,397.15400000000955,,response,,,10,E,,,,,Space,keypress(Space),,,,lyrical,-- -- --- ------ ------- --------- ----------- --------<br>--------- -------- --- ------- -- ------- ---- -- ------<br>-- --- -------- -------- ---------- ---- ---- ---- ------<br>-- --------- -- ---- -- --- -- --- ------- -- - -----<br>---------- -- -- -- five ----- -- ------ -- --- ------<br>-------,177375.90000009537,177375,176961.181,176976,176977.846,177377.891,,42,five
screen,html.Screen,0_4_1_0_1_43,2021-11-19T13:17:27.048Z,,,,,,,,,,,,,,,,48,,,,,,,,,,,,,,397.30900004768046,,response,,,10,E,,,,,Space,keypress(Space),,,,lyrical,-- -- --- ------ ------- --------- ----------- --------<br>--------- -------- --- ------- -- ------- ---- -- ------<br>-- --- -------- -------- ---------- ---- ---- ---- ------<br>-- --------- -- ---- -- --- -- --- ------- -- - -----<br>---------- -- -- -- ---- years -- ------ -- --- ------<br>-------,177775.79999995232,177775.20000004768,177361.225,177376,177377.891,177777.814,,43,years
screen,html.Screen,0_4_1_0_1_44,2021-11-19T13:17:27.424Z,,,,,,,,,,,,,,,,48,,,,,,,,,,,,,,373.18599999998696,,response,,,10,E,,,,,Space,keypress(Space),,,,lyrical,-- -- --- ------ ------- --------- ----------- --------<br>--------- -------- --- ------- -- ------- ---- -- ------<br>-- --- -------- -------- ---------- ---- ---- ---- ------<br>-- --------- -- ---- -- --- -- --- ------- -- - -----<br>---------- -- -- -- ---- ----- in ------ -- --- ------<br>-------,178151.5,178151,177761.149,177776,177777.814,178161.104,,44,in
screen,html.Screen,0_4_1_0_1_45,2021-11-19T13:17:27.760Z,,,,,,,,,,,,,,,,48,,,,,,,,,,,,,,325.79600009537535,,response,,,10,E,,,,,Space,keypress(Space),,,,lyrical,-- -- --- ------ ------- --------- ----------- --------<br>--------- -------- --- ------- -- ------- ---- -- ------<br>-- --- -------- -------- ---------- ---- ---- ---- ------<br>-- --------- -- ---- -- --- -- --- ------- -- - -----<br>---------- -- -- -- ---- ----- -- prison -- --- ------<br>-------,178487.5,178486.90000009537,178144.439,178151.70000004768,178161.104,178494.424,,45,prison
screen,html.Screen,0_4_1_0_1_46,2021-11-19T13:17:28.144Z,,,,,,,,,,,,,,,,48,,,,,,,,,,,,,,376.47600009536836,,response,,,10,E,,,,,Space,keypress(Space),,,,lyrical,-- -- --- ------ ------- --------- ----------- --------<br>--------- -------- --- ------- -- ------- ---- -- ------<br>-- --- -------- -------- ---------- ---- ---- ---- ------<br>-- --------- -- ---- -- --- -- --- ------- -- - -----<br>---------- -- -- -- ---- ----- -- ------ in --- ------<br>-------,178871.5,178870.90000009537,178477.759,178487.70000004768,178494.424,178877.679,,46,in
screen,html.Screen,0_4_1_0_1_47,2021-11-19T13:17:28.568Z,,,,,,,,,,,,,,,,48,,,,,,,,,,,,,,417.12099995231256,,response,,,10,E,,,,,Space,keypress(Space),,,,lyrical,-- -- --- ------ ------- --------- ----------- --------<br>--------- -------- --- ------- -- ------- ---- -- ------<br>-- --- -------- -------- ---------- ---- ---- ---- ------<br>-- --------- -- ---- -- --- -- --- ------- -- - -----<br>---------- -- -- -- ---- ----- -- ------ -- the ------<br>-------,179295.5,179294.79999995232,178861.015,178871.79999995232,178877.679,179311.12,,47,the
screen,html.Screen,0_4_1_0_1_48,2021-11-19T13:17:28.936Z,,,,,,,,,,,,,,,,48,,,,,,,,,,,,,,351.67999995232094,,response,,,10,E,,,,,Space,keypress(Space),,,,lyrical,-- -- --- ------ ------- --------- ----------- --------<br>--------- -------- --- ------- -- ------- ---- -- ------<br>-- --- -------- -------- ---------- ---- ---- ---- ------<br>-- --------- -- ---- -- --- -- --- ------- -- - -----<br>---------- -- -- -- ---- ----- -- ------ -- --- United<br>-------,179663.40000009537,179662.79999995232,179294.453,179295.70000004768,179311.12,179677.709,,48,United
screen,html.Screen,0_4_1_0_1_49,2021-11-19T13:17:29.320Z,,,,,,,,,,,,,,,,48,,,,,,,,,,,,,,369.0909999523137,,response,,,10,E,,,,,Space,keypress(Space),,,,lyrical,-- -- --- ------ ------- --------- ----------- --------<br>--------- -------- --- ------- -- ------- ---- -- ------<br>-- --- -------- -------- ---------- ---- ---- ---- ------<br>-- --------- -- ---- -- --- -- --- ------- -- - -----<br>---------- -- -- -- ---- ----- -- ------ -- --- ------<br>States.,180047.40000009537,180046.79999995232,179661.044,179663.5,179677.709,180061.012,,49,States.
Item 10,flow.Loop,0_4_1_0_1,2021-11-19T13:17:29.320Z,,,,,,,,,,,,,,,,,,,,,,,,,,,,,,23101.100999952323,,completion,,,,,,,,,,,,,,,,180047.70000004768,180046.79999995232,156929.034,156930,156945.699,180061.012,,,
Question 1,html.Screen,0_4_1_0_2,2021-11-19T13:17:33.444Z,,,,,,,,,,,,,,,,,,,,,,,,,,,false,TRUE,,4107.8880000953795,,response,,,10,E,,,,,FALSE,click #choice-2,,,,lyrical,,184169.70000004768,184168.90000009537,180044.347,180048,180061.012,184177.506,,,
Question 2,html.Screen,0_4_1_0_3,2021-11-19T13:17:37.424Z,,,,,,,,,,,,,,,,,,,,,,,,,,,true,TRUE,,3971.494000000006,,response,,,10,E,,,,,TRUE,click #choice-1,,,,lyrical,,188149.70000004768,188149,184160.839,184169.90000009537,184177.506,188176.69,,,
Item 10,flow.Sequence,0_4_1_0,2021-11-19T13:17:37.425Z,,,,,,,,,,,,,,,,,,,,,,,,,,,,,,38203.14600000001,,completion,,,,,,,,,,,,,,,,188150,188149,149929.189,149930.29999995232,149945.854,188176.69,,,
Holding screen,html.Screen,0_4_1_1_0,2021-11-19T13:17:44.436Z,,,,,,,,,,,,,,,,,,,,,,,,,,,,,,7000.010999999999,,timeout,,,,,,,,,,,,,,,,195161.60000014305,195160.036,188160.029,188150.20000004768,188176.69,195176.701,,,
screen,html.Screen,0_4_1_1_1_0,2021-11-19T13:17:45.353Z,,,,,,,,,,,,,,,,11,,,,,,,,,,,,,,901.1990000953665,,response,,,4,E,,,,,Space,keypress(Space),,,,lyrical,Known -- ---- --- -- --- -------- ------------ ---------- --<br>- ------- ------ --------- -- ------------ -- --- ---- -----<br>------ ---- ---- ------ ------ ------- --- ----- ---------<br>---- --- -------- -------- --- --- -- ------- --- --- -----<br>-- --- ------ ------- --- --- -------- ---- --------- --<br>---------- -- -------- ----------------,196078.60000014305,196077.90000009537,195160.036,195161.90000009537,195176.701,196093.314,,0,Known
screen,html.Screen,0_4_1_1_1_1,2021-11-19T13:17:45.745Z,,,,,,,,,,,,,,,,11,,,,,,,,,,,,,,376.5860000953544,,response,,,4,E,,,,,Space,keypress(Space),,,,lyrical,----- as ---- --- -- --- -------- ------------ ---------- --<br>- ------- ------ --------- -- ------------ -- --- ---- -----<br>------ ---- ---- ------ ------ ------- --- ----- ---------<br>---- --- -------- -------- --- --- -- ------- --- --- -----<br>-- --- ------ ------- --- --- -------- ---- --------- --<br>---------- -- -------- ----------------,196470.40000009537,196469.90000009537,196076.649,196078.79999995232,196093.314,196476.678,,1,as
screen,html.Screen,0_4_1_1_1_2,2021-11-19T13:17:46.393Z,,,,,,,,,,,,,,,,11,,,,,,,,,,,,,,641.1219999523018,,response,,,4,E,,,,,Space,keypress(Space),,,,lyrical,----- -- Rapa --- -- --- -------- ------------ ---------- --<br>- ------- ------ --------- -- ------------ -- --- ---- -----<br>------ ---- ---- ------ ------ ------- --- ----- ---------<br>---- --- -------- -------- --- --- -- ------- --- --- -----<br>-- --- ------ ------- --- --- -------- ---- --------- --<br>---------- -- -------- ----------------,197118.40000009537,197117.79999995232,196460.013,196470.60000014305,196476.678,197126.527,,2,Rapa
screen,html.Screen,0_4_1_1_1_3,2021-11-19T13:17:46.905Z,,,,,,,,,,,,,,,,11,,,,,,,,,,,,,,503.2729999523144,,response,,,4,E,,,,,Space,keypress(Space),,,,lyrical,----- -- ---- Nui -- --- -------- ------------ ---------- --<br>- ------- ------ --------- -- ------------ -- --- ---- -----<br>------ ---- ---- ------ ------ ------- --- ----- ---------<br>---- --- -------- -------- --- --- -- ------- --- --- -----<br>-- --- ------ ------- --- --- -------- ---- --------- --<br>---------- -- -------- ----------------,197630.40000009537,197629.79999995232,197109.863,197118.5,197126.527,197643.315,,3,Nui
