sender,sender_type,sender_id,timestamp,meta,,Blues,Classical,Country,Dance,Electronic,Folk,Gospel,Hip-Hop,Jazz,Latin,Musical/Film,New-age,Pop,Provo_ID,R&B,Rap,Reggae,Religious,Rock,Soul,Swing,Traditional,age,artist_name,correct,correctResponse,distraction,duration,education,ended_on,familiarity,gender,item,list,music_frequency,offensiveness,pleasantness,preference,response,response_action,snippet_file,song_name,song_rating,sound,text,time_commit,time_end,time_render,time_run,time_show,time_switch,url,word,word_ID
Instructions,html.Page,0_0,2021-12-10T10:01:37.111Z,"{""labjs_version"":""20.2.3"",""labjs_build"":{""flavor"":""production"",""commit"":""7ea907d66ca8aeef8054924ca5d82ffbe11e34e5""},""location"":""https://run.pavlovia.org/mvasilev/lab_music_a/"",""userAgent"":""Mozilla/5.0 (Windows NT 6.1; Win64; x64) AppleWebKit/537.36 (KHTML, like Gecko) Chrome/96.0.4664.93 Safari/537.36"",""platform"":""Win32"",""language"":""en-US"",""locale"":""en-US"",""timeZone"":""Europe/London"",""timezoneOffset"":0,""screen_width"":1920,""screen_height"":1080,""scroll_width"":1920,""scroll_height"":959,""window_innerWidth"":1920,""window_innerHeight"":1007,""devicePixelRatio"":1}",,,,,,,,,,,,,,,,,,,,,,,,,,,,,26757.60800003576,,form submission,,,,,,,,,,,,,,,,36410.10000002384,36408.90000003576,9617.952,9641.600000023842,9651.292,36422.768,{},,
Headphones,html.Page,0_1,2021-12-10T10:01:40.639Z,,,,,,,,,,,,,,,,,,,,,,,,,,,,,,3515.5320000119245,,form submission,,,,,,,,,,,,,,,,39938.80000001192,39938.30000001192,36406.115,36411,36422.768,39942.211,,,
Holding screen,html.Screen,0_2_0_0,2021-12-10T10:01:50.636Z,,,,,,,,,,,,,,,,,,,,,,,,,,,,,,10002.763999999996,,timeout,,,,,,,,,,,,,,,,49935.10000002384,49928.579,39925.541,39939.40000003576,39942.211,49944.975,,,
screen,html.Screen,0_2_0_1_0,2021-12-10T10:01:52.688Z,,,,,,,,,,,,,,,,53,,,,,,,,,,,,,,2041.0250000000015,,response,,,99,,,,,,Space,keypress(Space),,,,,When -- ----- -- ------ - ------- --- ----------<br>------------- ------ ------ ---- ---- ------- ----- -- ----<br>-------- ------- -- ---------- --- - --- ----- ----- ----<br>---- --- --- ----- --- ---- ---- ------- ----- ---- -------<br>--- --- -- ----- -- --- ---- -- --- ---- -- ------ ------<br>--- ----- -- ----,51987.60000002384,51986,49928.579,49935.5,49944.975,51994.998,,0,When
screen,html.Screen,0_2_0_1_1,2021-12-10T10:01:53.167Z,,,,,,,,,,,,,,,,53,,,,,,,,,,,,,,470.5020000000004,,response,,,99,,,,,,Space,keypress(Space),,,,,---- it ----- -- ------ - ------- --- ----------<br>------------- ------ ------ ---- ---- ------- ----- -- ----<br>-------- ------- -- ---------- --- - --- ----- ----- ----<br>---- --- --- ----- --- ---- ---- ------- ----- ---- -------<br>--- --- -- ----- -- --- ---- -- --- ---- -- ------ ------<br>--- ----- -- ----,52466.40000003576,52465.5,51978.6,51987.90000003576,51994.998,52471.26,,1,it
screen,html.Screen,0_2_0_1_2,2021-12-10T10:01:53.543Z,,,,,,,,,,,,,,,,53,,,,,,,,,,,,,,370.14000003576075,,response,,,99,,,,,,Space,keypress(Space),,,,,---- -- comes -- ------ - ------- --- ----------<br>------------- ------ ------ ---- ---- ------- ----- -- ----<br>-------- ------- -- ---------- --- - --- ----- ----- ----<br>---- --- --- ----- --- ---- ---- ------- ----- ---- -------<br>--- --- -- ----- -- --- ---- -- --- ---- -- ------ ------<br>--- ----- -- ----,52842.5,52841.40000003576,52454.855,52466.69999998808,52471.26,52848.457,,2,comes
screen,html.Screen,0_2_0_1_3,2021-12-10T10:01:53.871Z,,,,,,,,,,,,,,,,53,,,,,,,,,,,,,,320.94300003576063,,response,,,99,,,,,,Space,keypress(Space),,,,,---- -- ----- to ------ - ------- --- ----------<br>------------- ------ ------ ---- ---- ------- ----- -- ----<br>-------- ------- -- ---------- --- - --- ----- ----- ----<br>---- --- --- ----- --- ---- ---- ------- ----- ---- -------<br>--- --- -- ----- -- --- ---- -- --- ---- -- ------ ------<br>--- ----- -- ----,53170.40000003576,53169.40000003576,52832.058,52842.69999998808,52848.457,53178.716,,3,to
screen,html.Screen,0_2_0_1_4,2021-12-10T10:01:54.191Z,,,,,,,,,,,,,,,,53,,,,,,,,,,,,,,310.68400003576244,,response,,,99,,,,,,Space,keypress(Space),,,,,---- -- ----- -- having - ------- --- ----------<br>------------- ------ ------ ---- ---- ------- ----- -- ----<br>-------- ------- -- ---------- --- - --- ----- ----- ----<br>---- --- --- ----- --- ---- ---- ------- ----- ---- -------<br>--- --- -- ----- -- --- ---- -- --- ---- -- ------ ------<br>--- ----- -- ----,53490.69999998808,53489.40000003576,53162.046,53170.90000003576,53178.716,53495.574,,4,having
screen,html.Screen,0_2_0_1_5,2021-12-10T10:01:54.511Z,,,,,,,,,,,,,,,,53,,,,,,,,,,,,,,313.82600003576226,,response,,,99,,,,,,Space,keypress(Space),,,,,---- -- ----- -- ------ a ------- --- ----------<br>------------- ------ ------ ---- ---- ------- ----- -- ----<br>-------- ------- -- ---------- --- - --- ----- ----- ----<br>---- --- --- ----- --- ---- ---- ------- ----- ---- -------<br>--- --- -- ----- -- --- ---- -- --- ---- -- ------ ------<br>--- ----- -- ----,53810.40000003576,53809.40000003576,53478.902,53491,53495.574,53812.246,,5,a
screen,html.Screen,0_2_0_1_6,2021-12-10T10:01:54.879Z,,,,,,,,,,,,,,,,53,,,,,,,,,,,,,,365.05400001192174,,response,,,99,,,,,,Space,keypress(Space),,,,,---- -- ----- -- ------ - lasting --- ----------<br>------------- ------ ------ ---- ---- ------- ----- -- ----<br>-------- ------- -- ---------- --- - --- ----- ----- ----<br>---- --- --- ----- --- ---- ---- ------- ----- ---- -------<br>--- --- -- ----- -- --- ---- -- --- ---- -- ------ ------<br>--- ----- -- ----,54178.40000003576,54177.30000001192,53795.576,53810.90000003576,53812.246,54195.684,,6,lasting
screen,html.Screen,0_2_0_1_7,2021-12-10T10:01:55.175Z,,,,,,,,,,,,,,,,53,,,,,,,,,,,,,,277.6160000119198,,response,,,99,,,,,,Space,keypress(Space),,,,,---- -- ----- -- ------ - ------- and ----------<br>------------- ------ ------ ---- ---- ------- ----- -- ----<br>-------- ------- -- ---------- --- - --- ----- ----- ----<br>---- --- --- ----- --- ---- ---- ------- ----- ---- -------<br>--- --- -- ----- -- --- ---- -- --- ---- -- ------ ------<br>--- ----- -- ----,54474.30000001192,54473.30000001192,54179.014,54178.69999998808,54195.684,54479.084,,7,and
screen,html.Screen,0_2_0_1_8,2021-12-10T10:01:55.503Z,,,,,,,,,,,,,,,,53,,,,,,,,,,,,,,322.21600001191837,,response,,,99,,,,,,Space,keypress(Space),,,,,---- -- ----- -- ------ - ------- --- fulfilling<br>------------- ------ ------ ---- ---- ------- ----- -- ----<br>-------- ------- -- ---------- --- - --- ----- ----- ----<br>---- --- --- ----- --- ---- ---- ------- ----- ---- -------<br>--- --- -- ----- -- --- ---- -- --- ---- -- ------ ------<br>--- ----- -- ----,54802.5,54801.30000001192,54462.414,54474.60000002384,54479.084,54812.445,,8,fulfilling
screen,html.Screen,0_2_0_1_9,2021-12-10T10:01:55.815Z,,,,,,,,,,,,,,,,53,,,,,,,,,,,,,,300.75499998807936,,response,,,99,,,,,,Space,keypress(Space),,,,,"---- -- ----- -- ------ - ------- --- ----------<br>relationship, ------ ------ ---- ---- ------- ----- -- ----<br>-------- ------- -- ---------- --- - --- ----- ----- ----<br>---- --- --- ----- --- ---- ---- ------- ----- ---- -------<br>--- --- -- ----- -- --- ---- -- --- ---- -- ------ ------<br>--- ----- -- ----",55114.30000001192,55113.19999998808,54795.776,54802.80000001192,54812.445,55129.258,,9,"relationship,"
screen,html.Screen,0_2_0_1_10,2021-12-10T10:01:56.103Z,,,,,,,,,,,,,,,,53,,,,,,,,,,,,,,271.94199998807744,,response,,,99,,,,,,Space,keypress(Space),,,,,---- -- ----- -- ------ - ------- --- ----------<br>------------- common ------ ---- ---- ------- ----- -- ----<br>-------- ------- -- ---------- --- - --- ----- ----- ----<br>---- --- --- ----- --- ---- ---- ------- ----- ---- -------<br>--- --- -- ----- -- --- ---- -- --- ---- -- ------ ------<br>--- ----- -- ----,55402.30000001192,55401.19999998808,55112.587,55114.5,55129.258,55412.638,,10,common
screen,html.Screen,0_2_0_1_11,2021-12-10T10:01:56.407Z,,,,,,,,,,,,,,,,53,,,,,,,,,,,,,,292.56199998808006,,response,,,99,,,,,,Space,keypress(Space),,,,,---- -- ----- -- ------ - ------- --- ----------<br>------------- ------ wisdom ---- ---- ------- ----- -- ----<br>-------- ------- -- ---------- --- - --- ----- ----- ----<br>---- --- --- ----- --- ---- ---- ------- ----- ---- -------<br>--- --- -- ----- -- --- ---- -- --- ---- -- ------ ------<br>--- ----- -- ----,55706.19999998808,55705.19999998808,55395.968,55402.5,55412.638,55712.744,,11,wisdom
screen,html.Screen,0_2_0_1_12,2021-12-10T10:01:56.703Z,,,,,,,,,,,,,,,,53,,,,,,,,,,,,,,288.3560000238431,,response,,,99,,,,,,Space,keypress(Space),,,,,---- -- ----- -- ------ - ------- --- ----------<br>------------- ------ ------ says ---- ------- ----- -- ----<br>-------- ------- -- ---------- --- - --- ----- ----- ----<br>---- --- --- ----- --- ---- ---- ------- ----- ---- -------<br>--- --- -- ----- -- --- ---- -- --- ---- -- ------ ------<br>--- ----- -- ----,56001.80000001192,56001.10000002384,55696.073,55706.5,55712.744,56012.64,,12,says
screen,html.Screen,0_2_0_1_13,2021-12-10T10:01:57.015Z,,,,,,,,,,,,,,,,53,,,,,,,,,,,,,,300.55999998807965,,response,,,99,,,,,,Space,keypress(Space),,,,,---- -- ----- -- ------ - ------- --- ----------<br>------------- ------ ------ ---- that ------- ----- -- ----<br>-------- ------- -- ---------- --- - --- ----- ----- ----<br>---- --- --- ----- --- ---- ---- ------- ----- ---- -------<br>--- --- -- ----- -- --- ---- -- --- ---- -- ------ ------<br>--- ----- -- ----,56314.10000002384,56313.19999998808,55995.973,56002.10000002384,56012.64,56329.6,,13,that
screen,html.Screen,0_2_0_1_14,2021-12-10T10:01:57.327Z,,,,,,,,,,,,,,,,53,,,,,,,,,,,,,,295.5999999880805,,response,,,99,,,,,,Space,keypress(Space),,,,,---- -- ----- -- ------ - ------- --- ----------<br>------------- ------ ------ ---- ---- feeling ----- -- ----<br>-------- ------- -- ---------- --- - --- ----- ----- ----<br>---- --- --- ----- --- ---- ---- ------- ----- ---- -------<br>--- --- -- ----- -- --- ---- -- --- ---- -- ------ ------<br>--- ----- -- ----,56626,56625.19999998808,56312.928,56314.30000001192,56329.6,56629.611,,14,feeling
screen,html.Screen,0_2_0_1_15,2021-12-10T10:01:57.655Z,,,,,,,,,,,,,,,,53,,,,,,,,,,,,,,323.5889999880819,,response,,,99,,,,,,Space,keypress(Space),,,,,---- -- ----- -- ------ - ------- --- ----------<br>------------- ------ ------ ---- ---- ------- close -- ----<br>-------- ------- -- ---------- --- - --- ----- ----- ----<br>---- --- --- ----- --- ---- ---- ------- ----- ---- -------<br>--- --- -- ----- -- --- ---- -- --- ---- -- ------ ------<br>--- ----- -- ----,56954,56953.19999998808,56612.941,56626.30000001192,56629.611,56962.944,,15,close
screen,html.Screen,0_2_0_1_16,2021-12-10T10:01:57.951Z,,,,,,,,,,,,,,,,53,,,,,,,,,,,,,,286.1560000238387,,response,,,99,,,,,,Space,keypress(Space),,,,,---- -- ----- -- ------ - ------- --- ----------<br>------------- ------ ------ ---- ---- ------- ----- to ----<br>-------- ------- -- ---------- --- - --- ----- ----- ----<br>---- --- --- ----- --- ---- ---- ------- ----- ---- -------<br>--- --- -- ----- -- --- ---- -- --- ---- -- ------ ------<br>--- ----- -- ----,57250,57249.10000002384,56946.275,56954.30000001192,56962.944,57263.154,,16,to
screen,html.Screen,0_2_0_1_17,2021-12-10T10:01:58.239Z,,,,,,,,,,,,,,,,53,,,,,,,,,,,,,,273.9460000238396,,response,,,99,,,,,,Space,keypress(Space),,,,,---- -- ----- -- ------ - ------- --- ----------<br>------------- ------ ------ ---- ---- ------- ----- -- your<br>-------- ------- -- ---------- --- - --- ----- ----- ----<br>---- --- --- ----- --- ---- ---- ------- ----- ---- -------<br>--- --- -- ----- -- --- ---- -- --- ---- -- ------ ------<br>--- ----- -- ----,57537.90000003576,57537.10000002384,57246.482,57250.30000001192,57263.154,57546.438,,17,your
screen,html.Screen,0_2_0_1_18,2021-12-10T10:01:58.542Z,,,,,,,,,,,,,,,,53,,,,,,,,,,,,,,294.5619999999981,,response,,,99,,,,,,Space,keypress(Space),,,,,---- -- ----- -- ------ - ------- --- ----------<br>------------- ------ ------ ---- ---- ------- ----- -- ----<br>romantic ------- -- ---------- --- - --- ----- ----- ----<br>---- --- --- ----- --- ---- ---- ------- ----- ---- -------<br>--- --- -- ----- -- --- ---- -- --- ---- -- ------ ------<br>--- ----- -- ----,57841.80000001192,57841,57529.769,57538.19999998808,57546.438,57846.586,,18,romantic
screen,html.Screen,0_2_0_1_19,2021-12-10T10:01:58.838Z,,,,,,,,,,,,,,,,53,,,,,,,,,,,,,,290.41399999999703,,response,,,99,,,,,,Space,keypress(Space),,,,,---- -- ----- -- ------ - ------- --- ----------<br>------------- ------ ------ ---- ---- ------- ----- -- ----<br>-------- partner -- ---------- --- - --- ----- ----- ----<br>---- --- --- ----- --- ---- ---- ------- ----- ---- -------<br>--- --- -- ----- -- --- ---- -- --- ---- -- ------ ------<br>--- ----- -- ----,58137.80000001192,58137,57829.915,57842.10000002384,57846.586,58146.628,,19,partner
screen,html.Screen,0_2_0_1_20,2021-12-10T10:01:59.143Z,,,,,,,,,,,,,,,,53,,,,,,,,,,,,,,294.2720000357658,,response,,,99,,,,,,Space,keypress(Space),,,,,---- -- ----- -- ------ - ------- --- ----------<br>------------- ------ ------ ---- ---- ------- ----- -- ----<br>-------- ------- is ---------- --- - --- ----- ----- ----<br>---- --- --- ----- --- ---- ---- ------- ----- ---- -------<br>--- --- -- ----- -- --- ---- -- --- ---- -- ------ ------<br>--- ----- -- ----,58441.80000001192,58440.90000003576,58129.958,58138.10000002384,58146.628,58446.739,,20,is
screen,html.Screen,0_2_0_1_21,2021-12-10T10:01:59.447Z,,,,,,,,,,,,,,,,53,,,,,,,,,,,,,,298.2609999999986,,response,,,99,,,,,,Space,keypress(Space),,,,,---- -- ----- -- ------ - ------- --- ----------<br>------------- ------ ------ ---- ---- ------- ----- -- ----<br>-------- ------- -- paramount. --- - --- ----- ----- ----<br>---- --- --- ----- --- ---- ---- ------- ----- ---- -------<br>--- --- -- ----- -- --- ---- -- --- ---- -- ------ ------<br>--- ----- -- ----,58745.90000003576,58745,58430.068,58442.19999998808,58446.739,58763.439,,21,paramount.
screen,html.Screen,0_2_0_1_22,2021-12-10T10:01:59.774Z,,,,,,,,,,,,,,,,53,,,,,,,,,,,,,,309.5610000000015,,response,,,99,,,,,,Space,keypress(Space),,,,,---- -- ----- -- ------ - ------- --- ----------<br>------------- ------ ------ ---- ---- ------- ----- -- ----<br>-------- ------- -- ---------- But - --- ----- ----- ----<br>---- --- --- ----- --- ---- ---- ------- ----- ---- -------<br>--- --- -- ----- -- --- ---- -- --- ---- -- ------ ------<br>--- ----- -- ----,59073.80000001192,59073,58746.769,58746.40000003576,58763.439,59080.192,,22,But
screen,html.Screen,0_2_0_1_23,2021-12-10T10:02:00.062Z,,,,,,,,,,,,,,,,53,,,,,,,,,,,,,,280.70800003576005,,response,,,99,,,,,,Space,keypress(Space),,,,,---- -- ----- -- ------ - ------- --- ----------<br>------------- ------ ------ ---- ---- ------- ----- -- ----<br>-------- ------- -- ---------- --- a --- ----- ----- ----<br>---- --- --- ----- --- ---- ---- ------- ----- ---- -------<br>--- --- -- ----- -- --- ---- -- --- ---- -- ------ ------<br>--- ----- -- ----,59361.90000003576,59360.90000003576,59063.522,59074.10000002384,59080.192,59363.596,,23,a
screen,html.Screen,0_2_0_1_24,2021-12-10T10:02:00.357Z,,,,,,,,,,,,,,,,53,,,,,,,,,,,,,,292.90400000000227,,response,,,99,,,,,,Space,keypress(Space),,,,,---- -- ----- -- ------ - ------- --- ----------<br>------------- ------ ------ ---- ---- ------- ----- -- ----<br>-------- ------- -- ---------- --- - new ----- ----- ----<br>---- --- --- ----- --- ---- ---- ------- ----- ---- -------<br>--- --- -- ----- -- --- ---- -- --- ---- -- ------ ------<br>--- ----- -- ----,59656.80000001192,59656.5,59346.926,59362.10000002384,59363.596,59663.667,,24,new
screen,html.Screen,0_2_0_1_25,2021-12-10T10:02:00.646Z,,,,,,,,,,,,,,,,53,,,,,,,,,,,,,,281.2330000357615,,response,,,99,,,,,,Space,keypress(Space),,,,,---- -- ----- -- ------ - ------- --- ----------<br>------------- ------ ------ ---- ---- ------- ----- -- ----<br>-------- ------- -- ---------- --- - --- study ----- ----<br>---- --- --- ----- --- ---- ---- ------- ----- ---- -------<br>--- --- -- ----- -- --- ---- -- --- ---- -- ------ ------<br>--- ----- -- ----,59945.69999998808,59944.90000003576,59646.997,59656.90000003576,59663.667,59946.925,,25,study
screen,html.Screen,0_2_0_1_26,2021-12-10T10:02:00.946Z,,,,,,,,,,,,,,,,53,,,,,,,,,,,,,,293.9750000357599,,response,,,99,,,,,,Space,keypress(Space),,,,,---- -- ----- -- ------ - ------- --- ----------<br>------------- ------ ------ ---- ---- ------- ----- -- ----<br>-------- ------- -- ---------- --- - --- ----- finds ----<br>---- --- --- ----- --- ---- ---- ------- ----- ---- -------<br>--- --- -- ----- -- --- ---- -- --- ---- -- ------ ------<br>--- ----- -- ----,60241.80000001192,60240.90000003576,59930.258,59946.10000002384,59946.925,60247.105,,26,finds
screen,html.Screen,0_2_0_1_27,2021-12-10T10:02:01.226Z,,,,,,,,,,,,,,,,53,,,,,,,,,,,,,,273.7950000357596,,response,,,99,,,,,,Space,keypress(Space),,,,,---- -- ----- -- ------ - ------- --- ----------<br>------------- ------ ------ ---- ---- ------- ----- -- ----<br>-------- ------- -- ---------- --- - --- ----- ----- that<br>---- --- --- ----- --- ---- ---- ------- ----- ---- -------<br>--- --- -- ----- -- --- ---- -- --- ---- -- ------ ------<br>--- ----- -- ----,60521.80000001192,60520.90000003576,60230.435,60242,60247.105,60530.512,,27,that
screen,html.Screen,0_2_0_1_28,2021-12-10T10:02:01.522Z,,,,,,,,,,,,,,,,53,,,,,,,,,,,,,,286.2880000119185,,response,,,99,,,,,,Space,keypress(Space),,,,,---- -- ----- -- ------ - ------- --- ----------<br>------------- ------ ------ ---- ---- ------- ----- -- ----<br>-------- ------- -- ---------- --- - --- ----- ----- ----<br>it's --- --- ----- --- ---- ---- ------- ----- ---- -------<br>--- --- -- ----- -- --- ---- -- --- ---- -- ------ ------<br>--- ----- -- ----,60817.80000001192,60816.80000001192,60513.842,60522,60530.512,60830.674,,28,it's
screen,html.Screen,0_2_0_1_29,2021-12-10T10:02:01.842Z,,,,,,,,,,,,,,,,53,,,,,,,,,,,,,,306.12600001192186,,response,,,99,,,,,,Space,keypress(Space),,,,,---- -- ----- -- ------ - ------- --- ----------<br>------------- ------ ------ ---- ---- ------- ----- -- ----<br>-------- ------- -- ---------- --- - --- ----- ----- ----<br>---- not --- ----- --- ---- ---- ------- ----- ---- -------<br>--- --- -- ----- -- --- ---- -- --- ---- -- ------ ------<br>--- ----- -- ----,61137.80000001192,61136.80000001192,60814.002,60818,60830.674,61147.362,,29,not
screen,html.Screen,0_2_0_1_30,2021-12-10T10:02:02.122Z,,,,,,,,,,,,,,,,53,,,,,,,,,,,,,,269.5380000357618,,response,,,99,,,,,,Space,keypress(Space),,,,,---- -- ----- -- ------ - ------- --- ----------<br>------------- ------ ------ ---- ---- ------- ----- -- ----<br>-------- ------- -- ---------- --- - --- ----- ----- ----<br>---- --- how ----- --- ---- ---- ------- ----- ---- -------<br>--- --- -- ----- -- --- ---- -- --- ---- -- ------ ------<br>--- ----- -- ----,61417.80000001192,61416.90000003576,61130.692,61138,61147.362,61430.788,,30,how
screen,html.Screen,0_2_0_1_31,2021-12-10T10:02:02.419Z,,,,,,,,,,,,,,,,53,,,,,,,,,,,,,,282.51200001192046,,response,,,99,,,,,,Space,keypress(Space),,,,,---- -- ----- -- ------ - ------- --- ----------<br>------------- ------ ------ ---- ---- ------- ----- -- ----<br>-------- ------- -- ---------- --- - --- ----- ----- ----<br>---- --- --- close --- ---- ---- ------- ----- ---- -------<br>--- --- -- ----- -- --- ---- -- --- ---- -- ------ ------<br>--- ----- -- ----,61714.19999998808,61713.30000001192,61414.117,61418.10000002384,61430.788,61730.68,,31,close
screen,html.Screen,0_2_0_1_32,2021-12-10T10:02:02.714Z,,,,,,,,,,,,,,,,53,,,,,,,,,,,,,,278.5199999880788,,response,,,99,,,,,,Space,keypress(Space),,,,,---- -- ----- -- ------ - ------- --- ----------<br>------------- ------ ------ ---- ---- ------- ----- -- ----<br>-------- ------- -- ---------- --- - --- ----- ----- ----<br>---- --- --- ----- you ---- ---- ------- ----- ---- -------<br>--- --- -- ----- -- --- ---- -- --- ---- -- ------ ------<br>--- ----- -- ----,62010.10000002384,62009.19999998808,61714.013,61714.40000003576,61730.68,62014.226,,32,you
screen,html.Screen,0_2_0_1_33,2021-12-10T10:02:03.002Z,,,,,,,,,,,,,,,,53,,,,,,,,,,,,,,282.37400002383947,,response,,,99,,,,,,Space,keypress(Space),,,,,---- -- ----- -- ------ - ------- --- ----------<br>------------- ------ ------ ---- ---- ------- ----- -- ----<br>-------- ------- -- ---------- --- - --- ----- ----- ----<br>---- --- --- ----- --- feel ---- ------- ----- ---- -------<br>--- --- -- ----- -- --- ---- -- --- ---- -- ------ ------<br>--- ----- -- ----,62297.40000003576,62296.60000002384,61997.555,62010.30000001192,62014.226,62314.31,,33,feel
screen,html.Screen,0_2_0_1_34,2021-12-10T10:02:03.298Z,,,,,,,,,,,,,,,,53,,,,,,,,,,,,,,278.3899999880814,,response,,,99,,,,,,Space,keypress(Space),,,,,---- -- ----- -- ------ - ------- --- ----------<br>------------- ------ ------ ---- ---- ------- ----- -- ----<br>-------- ------- -- ---------- --- - --- ----- ----- ----<br>---- --- --- ----- --- ---- that ------- ----- ---- -------<br>--- --- -- ----- -- --- ---- -- --- ---- -- ------ ------<br>--- ----- -- ----,62593.60000002384,62592.69999998808,62297.639,62297.69999998808,62314.31,62597.688,,34,that
screen,html.Screen,0_2_0_1_35,2021-12-10T10:02:03.594Z,,,,,,,,,,,,,,,,53,,,,,,,,,,,,,,291.01199998807715,,response,,,99,,,,,,Space,keypress(Space),,,,,---- -- ----- -- ------ - ------- --- ----------<br>------------- ------ ------ ---- ---- ------- ----- -- ----<br>-------- ------- -- ---------- --- - --- ----- ----- ----<br>---- --- --- ----- --- ---- ---- matters ----- ---- -------<br>--- --- -- ----- -- --- ---- -- --- ---- -- ------ ------<br>--- ----- -- ----,62889.60000002384,62888.69999998808,62581.018,62593.80000001192,62597.688,62897.855,,35,matters
screen,html.Screen,0_2_0_1_36,2021-12-10T10:02:03.882Z,,,,,,,,,,,,,,,,53,,,,,,,,,,,,,,278.9450000119177,,response,,,99,,,,,,Space,keypress(Space),,,,,"---- -- ----- -- ------ - ------- --- ----------<br>------------- ------ ------ ---- ---- ------- ----- -- ----<br>-------- ------- -- ---------- --- - --- ----- ----- ----<br>---- --- --- ----- --- ---- ---- ------- most, ---- -------<br>--- --- -- ----- -- --- ---- -- --- ---- -- ------ ------<br>--- ----- -- ----",63177.80000001192,63176.80000001192,62881.183,62889.80000001192,62897.855,63181.19,,36,"most,"
screen,html.Screen,0_2_0_1_37,2021-12-10T10:02:04.226Z,,,,,,,,,,,,,,,,53,,,,,,,,,,,,,,339.50999998807674,,response,,,99,,,,,,Space,keypress(Space),,,,,---- -- ----- -- ------ - ------- --- ----------<br>------------- ------ ------ ---- ---- ------- ----- -- ----<br>-------- ------- -- ---------- --- - --- ----- ----- ----<br>---- --- --- ----- --- ---- ---- ------- ----- it's -------<br>--- --- -- ----- -- --- ---- -- --- ---- -- ------ ------<br>--- ----- -- ----,63521.60000002384,63520.69999998808,63164.52,63178,63181.19,63531.263,,37,it's
screen,html.Screen,0_2_0_1_38,2021-12-10T10:02:04.522Z,,,,,,,,,,,,,,,,53,,,,,,,,,,,,,,285.33700002384285,,response,,,99,,,,,,Space,keypress(Space),,,,,---- -- ----- -- ------ - ------- --- ----------<br>------------- ------ ------ ---- ---- ------- ----- -- ----<br>-------- ------- -- ---------- --- - --- ----- ----- ----<br>---- --- --- ----- --- ---- ---- ------- ----- ---- whether<br>--- --- -- ----- -- --- ---- -- --- ---- -- ------ ------<br>--- ----- -- ----,63817.60000002384,63816.60000002384,63514.593,63521.69999998808,63531.263,63831.339,,38,whether
screen,html.Screen,0_2_0_1_39,2021-12-10T10:02:04.834Z,,,,,,,,,,,,,,,,53,,,,,,,,,,,,,,297.2610000238419,,response,,,99,,,,,,Space,keypress(Space),,,,,---- -- ----- -- ------ - ------- --- ----------<br>------------- ------ ------ ---- ---- ------- ----- -- ----<br>-------- ------- -- ---------- --- - --- ----- ----- ----<br>---- --- --- ----- --- ---- ---- ------- ----- ---- -------<br>you --- -- ----- -- --- ---- -- --- ---- -- ------ ------<br>--- ----- -- ----,64129.69999998808,64128.60000002384,63814.669,63817.80000001192,63831.339,64131.42,,39,you
screen,html.Screen,0_2_0_1_40,2021-12-10T10:02:05.146Z,,,,,,,,,,,,,,,,53,,,,,,,,,,,,,,309.1800000238436,,response,,,99,,,,,,Space,keypress(Space),,,,,---- -- ----- -- ------ - ------- --- ----------<br>------------- ------ ------ ---- ---- ------- ----- -- ----<br>-------- ------- -- ---------- --- - --- ----- ----- ----<br>---- --- --- ----- --- ---- ---- ------- ----- ---- -------<br>--- are -- ----- -- --- ---- -- --- ---- -- ------ ------<br>--- ----- -- ----,64441.40000003576,64440.60000002384,64114.75,64129.90000003576,64131.42,64448.201,,40,are
screen,html.Screen,0_2_0_1_41,2021-12-10T10:02:05.474Z,,,,,,,,,,,,,,,,53,,,,,,,,,,,,,,320.79899999999907,,response,,,99,,,,,,Space,keypress(Space),,,,,---- -- ----- -- ------ - ------- --- ----------<br>------------- ------ ------ ---- ---- ------- ----- -- ----<br>-------- ------- -- ---------- --- - --- ----- ----- ----<br>---- --- --- ----- --- ---- ---- ------- ----- ---- -------<br>--- --- as ----- -- --- ---- -- --- ---- -- ------ ------<br>--- ----- -- ----,64769.90000003576,64769,64431.53,64441.69999998808,64448.201,64781.575,,41,as
screen,html.Screen,0_2_0_1_42,2021-12-10T10:02:05.786Z,,,,,,,,,,,,,,,,53,,,,,,,,,,,,,,299.02500002384477,,response,,,99,,,,,,Space,keypress(Space),,,,,---- -- ----- -- ------ - ------- --- ----------<br>------------- ------ ------ ---- ---- ------- ----- -- ----<br>-------- ------- -- ---------- --- - --- ----- ----- ----<br>---- --- --- ----- --- ---- ---- ------- ----- ---- -------<br>--- --- -- close -- --- ---- -- --- ---- -- ------ ------<br>--- ----- -- ----,65081.5,65080.60000002384,64764.905,64770.10000002384,64781.575,65098.316,,42,close
screen,html.Screen,0_2_0_1_43,2021-12-10T10:02:06.098Z,,,,,,,,,,,,,,,,53,,,,,,,,,,,,,,294.28400002384296,,response,,,99,,,,,,Space,keypress(Space),,,,,---- -- ----- -- ------ - ------- --- ----------<br>------------- ------ ------ ---- ---- ------- ----- -- ----<br>-------- ------- -- ---------- --- - --- ----- ----- ----<br>---- --- --- ----- --- ---- ---- ------- ----- ---- -------<br>--- --- -- ----- as --- ---- -- --- ---- -- ------ ------<br>--- ----- -- ----,65393.40000003576,65392.60000002384,65081.646,65081.69999998808,65098.316,65398.405,,43,as
screen,html.Screen,0_2_0_1_44,2021-12-10T10:02:06.394Z,,,,,,,,,,,,,,,,53,,,,,,,,,,,,,,290.09500000000116,,response,,,99,,,,,,Space,keypress(Space),,,,,---- -- ----- -- ------ - ------- --- ----------<br>------------- ------ ------ ---- ---- ------- ----- -- ----<br>-------- ------- -- ---------- --- - --- ----- ----- ----<br>---- --- --- ----- --- ---- ---- ------- ----- ---- -------<br>--- --- -- ----- -- you ---- -- --- ---- -- ------ ------<br>--- ----- -- ----,65689.40000003576,65688.5,65381.735,65393.60000002384,65398.405,65698.466,,44,you
screen,html.Screen,0_2_0_1_45,2021-12-10T10:02:06.690Z,,,,,,,,,,,,,,,,53,,,,,,,,,,,,,,285.93400003576244,,response,,,99,,,,,,Space,keypress(Space),,,,,---- -- ----- -- ------ - ------- --- ----------<br>------------- ------ ------ ---- ---- ------- ----- -- ----<br>-------- ------- -- ---------- --- - --- ----- ----- ----<br>---- --- --- ----- --- ---- ---- ------- ----- ---- -------<br>--- --- -- ----- -- --- want -- --- ---- -- ------ ------<br>--- ----- -- ----,65985.19999998808,65984.40000003576,65681.796,65689.60000002384,65698.466,65998.534,,45,want
screen,html.Screen,0_2_0_1_46,2021-12-10T10:02:06.986Z,,,,,,,,,,,,,,,,53,,,,,,,,,,,,,,281.86600003576314,,response,,,99,,,,,,Space,keypress(Space),,,,,---- -- ----- -- ------ - ------- --- ----------<br>------------- ------ ------ ---- ---- ------- ----- -- ----<br>-------- ------- -- ---------- --- - --- ----- ----- ----<br>---- --- --- ----- --- ---- ---- ------- ----- ---- -------<br>--- --- -- ----- -- --- ---- to --- ---- -- ------ ------<br>--- ----- -- ----,66281.40000003576,66280.40000003576,65981.864,65985.40000003576,65998.534,66298.629,,46,to
screen,html.Screen,0_2_0_1_47,2021-12-10T10:02:07.298Z,,,,,,,,,,,,,,,,53,,,,,,,,,,,,,,293.8709999999992,,response,,,99,,,,,,Space,keypress(Space),,,,,"---- -- ----- -- ------ - ------- --- ----------<br>------------- ------ ------ ---- ---- ------- ----- -- ----<br>-------- ------- -- ---------- --- - --- ----- ----- ----<br>---- --- --- ----- --- ---- ---- ------- ----- ---- -------<br>--- --- -- ----- -- --- ---- -- be, ---- -- ------ ------<br>--- ----- -- ----",66593.30000001192,66592.5,66281.959,66281.60000002384,66298.629,66598.688,,47,"be,"
screen,html.Screen,0_2_0_1_48,2021-12-10T10:02:07.626Z,,,,,,,,,,,,,,,,53,,,,,,,,,,,,,,321.71200003576814,,response,,,99,,,,,,Space,keypress(Space),,,,,---- -- ----- -- ------ - ------- --- ----------<br>------------- ------ ------ ---- ---- ------- ----- -- ----<br>-------- ------- -- ---------- --- - --- ----- ----- ----<br>---- --- --- ----- --- ---- ---- ------- ----- ---- -------<br>--- --- -- ----- -- --- ---- -- --- even -- ------ ------<br>--- ----- -- ----,66921.30000001192,66920.40000003576,66582.018,66593.60000002384,66598.688,66931.997,,48,even
screen,html.Screen,0_2_0_1_49,2021-12-10T10:02:07.914Z,,,,,,,,,,,,,,,,53,,,,,,,,,,,,,,276.40300003575976,,response,,,99,,,,,,Space,keypress(Space),,,,,---- -- ----- -- ------ - ------- --- ----------<br>------------- ------ ------ ---- ---- ------- ----- -- ----<br>-------- ------- -- ---------- --- - --- ----- ----- ----<br>---- --- --- ----- --- ---- ---- ------- ----- ---- -------<br>--- --- -- ----- -- --- ---- -- --- ---- if ------ ------<br>--- ----- -- ----,67209.30000001192,67208.40000003576,66915.329,66921.60000002384,66931.997,67215.574,,49,if
screen,html.Screen,0_2_0_1_50,2021-12-10T10:02:08.202Z,,,,,,,,,,,,,,,,53,,,,,,,,,,,,,,280.82600003576954,,response,,,99,,,,,,Space,keypress(Space),,,,,---- -- ----- -- ------ - ------- --- ----------<br>------------- ------ ------ ---- ---- ------- ----- -- ----<br>-------- ------- -- ---------- --- - --- ----- ----- ----<br>---- --- --- ----- --- ---- ---- ------- ----- ---- -------<br>--- --- -- ----- -- --- ---- -- --- ---- -- that's ------<br>--- ----- -- ----,67497.30000001192,67496.40000003576,67198.902,67209.40000003576,67215.574,67498.911,,50,that's
screen,html.Screen,0_2_0_1_51,2021-12-10T10:02:08.506Z,,,,,,,,,,,,,,,,53,,,,,,,,,,,,,,301.48900003577,,response,,,99,,,,,,Space,keypress(Space),,,,,---- -- ----- -- ------ - ------- --- ----------<br>------------- ------ ------ ---- ---- ------- ----- -- ----<br>-------- ------- -- ---------- --- - --- ----- ----- ----<br>---- --- --- ----- --- ---- ---- ------- ----- ---- -------<br>--- --- -- ----- -- --- ---- -- --- ---- -- ------ really<br>--- ----- -- ----,67801.30000001192,67800.40000003576,67482.241,67497.60000002384,67498.911,67815.654,,51,really
screen,html.Screen,0_2_0_1_52,2021-12-10T10:02:08.826Z,,,,,,,,,,,,,,,,53,,,,,,,,,,,,,,304.7460000357678,,response,,,99,,,,,,Space,keypress(Space),,,,,---- -- ----- -- ------ - ------- --- ----------<br>------------- ------ ------ ---- ---- ------- ----- -- ----<br>-------- ------- -- ---------- --- - --- ----- ----- ----<br>---- --- --- ----- --- ---- ---- ------- ----- ---- -------<br>--- --- -- ----- -- --- ---- -- --- ---- -- ------ ------<br>not ----- -- ----,68121.30000001192,68120.40000003576,67798.984,67801.5,67815.654,68132.326,,52,not
screen,html.Screen,0_2_0_1_53,2021-12-10T10:02:09.138Z,,,,,,,,,,,,,,,,53,,,,,,,,,,,,,,300.07400003576186,,response,,,99,,,,,,Space,keypress(Space),,,,,---- -- ----- -- ------ - ------- --- ----------<br>------------- ------ ------ ---- ---- ------- ----- -- ----<br>-------- ------- -- ---------- --- - --- ----- ----- ----<br>---- --- --- ----- --- ---- ---- ------- ----- ---- -------<br>--- --- -- ----- -- --- ---- -- --- ---- -- ------ ------<br>--- close -- ----,68433.30000001192,68432.40000003576,68115.657,68121.5,68132.326,68449.055,,53,close
screen,html.Screen,0_2_0_1_54,2021-12-10T10:02:09.442Z,,,,,,,,,,,,,,,,53,,,,,,,,,,,,,,287.2450000119279,,response,,,99,,,,,,Space,keypress(Space),,,,,---- -- ----- -- ------ - ------- --- ----------<br>------------- ------ ------ ---- ---- ------- ----- -- ----<br>-------- ------- -- ---------- --- - --- ----- ----- ----<br>---- --- --- ----- --- ---- ---- ------- ----- ---- -------<br>--- --- -- ----- -- --- ---- -- --- ---- -- ------ ------<br>--- ----- at ----,68737.40000003576,68736.30000001192,68432.386,68433.5,68449.055,68749.331,,54,at
screen,html.Screen,0_2_0_1_55,2021-12-10T10:02:09.746Z,,,,,,,,,,,,,,,,53,,,,,,,,,,,,,,290.96900001191534,,response,,,99,,,,,,Space,keypress(Space),,,,,---- -- ----- -- ------ - ------- --- ----------<br>------------- ------ ------ ---- ---- ------- ----- -- ----<br>-------- ------- -- ---------- --- - --- ----- ----- ----<br>---- --- --- ----- --- ---- ---- ------- ----- ---- -------<br>--- --- -- ----- -- --- ---- -- --- ---- -- ------ ------<br>--- ----- -- all.,69041.19999998808,69040.30000001192,68732.658,68737.60000002384,68749.331,69049.282,,55,all.
Item 99,flow.Loop,0_2_0_1,2021-12-10T10:02:09.750Z,,,,,,,,,,,,,,,,,,,,,,,,,,,,,,19095.325000011922,,completion,,,,A,,,,,,,,,,silence,,69045.80000001192,69040.30000001192,49928.579,49935.5,49944.975,69049.282,,,
Question 1,html.Screen,0_2_0_2,2021-12-10T10:02:13.896Z,,,,,,,,,,,,,,,,,,,,,,,,,,,true,FALSE,,4141.318000023835,,response,,,99,A,,,,,FALSE,click #choice-2,,,,silence,,73192,73190.60000002384,69032.612,69046.10000002384,69049.282,73200.254,,,
Question 2,html.Screen,0_2_0_3,2021-12-10T10:02:17.300Z,,,,,,,,,,,,,,,,,,,,,,,,,,,true,TRUE,,3394.4459999880783,,response,,,99,A,,,,,TRUE,click #choice-1,,,,silence,,76596,76594.69999998808,73183.584,73192.30000001192,73200.254,76601.159,,,
Item 99,flow.Sequence,0_2_0,2021-12-10T10:02:17.301Z,,,,,,,,,,,,,,,,,,,,,,,,,,,,,,36652.488999988076,,completion,,,,,,,,,,,,,,,,76596.5,76594.69999998808,39925.541,39939.30000001192,39942.211,76601.159,,,
Holding screen,html.Screen,0_2_1_0,2021-12-10T10:02:27.292Z,,,,,,,,,,,,,,,,,,,,,,,,,,,,,,10002.262000000002,,timeout,,,,,,,,,,,,,,,,86587.80000001192,86586.751,76584.488,76596.80000001192,76601.159,86603.421,,,
screen,html.Screen,0_2_1_1_0,2021-12-10T10:02:29.049Z,,,,,,,,,,,,,,,,54,,,,,,,,,,,,,,1740.078999999998,,response,,,100,,,,,,Space,keypress(Space),,,,,At --- ---- --- ------ ----- ------- ---- -- --- ------- --<br>------- ---------- ------ -- ----- -- ----- -- ---- ------<br>--- ----- --- --- ------ -------- ----- --- ------ ----- --<br>----- ----- ---------- --- --- ------ ------ ---- -- ------<br>------- --- ------ ----- --- ---- ------- -- ---- --- --<br>------- ------,88344.5,88343.5,86586.751,86588.19999998808,86603.421,88354.07,,0,At
screen,html.Screen,0_2_1_1_1,2021-12-10T10:02:29.576Z,,,,,,,,,,,,,,,,54,,,,,,,,,,,,,,516.8300000357558,,response,,,100,,,,,,Space,keypress(Space),,,,,-- the ---- --- ------ ----- ------- ---- -- --- ------- --<br>------- ---------- ------ -- ----- -- ----- -- ---- ------<br>--- ----- --- --- ------ -------- ----- --- ------ ----- --<br>----- ----- ---------- --- --- ------ ------ ---- -- ------<br>------- --- ------ ----- --- ---- ------- -- ---- --- --<br>------- ------,88871.90000003576,88870.90000003576,88337.399,88344.80000001192,88354.07,88887.382,,1,the
screen,html.Screen,0_2_1_1_2,2021-12-10T10:02:29.904Z,,,,,,,,,,,,,,,,54,,,,,,,,,,,,,,311.518000035765,,response,,,100,,,,,,Space,keypress(Space),,,,,-- --- time --- ------ ----- ------- ---- -- --- ------- --<br>------- ---------- ------ -- ----- -- ----- -- ---- ------<br>--- ----- --- --- ------ -------- ----- --- ------ ----- --<br>----- ----- ---------- --- --- ------ ------ ---- -- ------<br>------- --- ------ ----- --- ---- ------- -- ---- --- --<br>------- ------,89199.80000001192,89198.90000003576,88870.712,88872.10000002384,88887.382,89204.095,,2,time
screen,html.Screen,0_2_1_1_3,2021-12-10T10:02:30.168Z,,,,,,,,,,,,,,,,54,,,,,,,,,,,,,,258.70500001191976,,response,,,100,,,,,,Space,keypress(Space),,,,,-- --- ---- the ------ ----- ------- ---- -- --- ------- --<br>------- ---------- ------ -- ----- -- ----- -- ---- ------<br>--- ----- --- --- ------ -------- ----- --- ------ ----- --<br>----- ----- ---------- --- --- ------ ------ ---- -- ------<br>------- --- ------ ----- --- ---- ------- -- ---- --- --<br>------- ------,89463.69999998808,89462.80000001192,89187.425,89200.10000002384,89204.095,89470.966,,3,the
screen,html.Screen,0_2_1_1_4,2021-12-10T10:02:30.402Z,,,,,,,,,,,,,,,,54,,,,,,,,,,,,,,223.93400003576244,,response,,,100,,,,,,Space,keypress(Space),,,,,-- --- ---- --- French ----- ------- ---- -- --- ------- --<br>------- ---------- ------ -- ----- -- ----- -- ---- ------<br>--- ----- --- --- ------ -------- ----- --- ------ ----- --<br>----- ----- ---------- --- --- ------ ------ ---- -- ------<br>------- --- ------ ----- --- ---- ------- -- ---- --- --<br>------- ------,89697.5,89694.90000003576,89454.294,89464,89470.966,89704.31,,4,French
screen,html.Screen,0_2_1_1_5,2021-12-10T10:02:30.672Z,,,,,,,,,,,,,,,,54,,,,,,,,,,,,,,262.49000001192326,,response,,,100,,,,,,Space,keypress(Space),,,,,-- --- ---- --- ------ crown ------- ---- -- --- ------- --<br>------- ---------- ------ -- ----- -- ----- -- ---- ------<br>--- ----- --- --- ------ -------- ----- --- ------ ----- --<br>----- ----- ---------- --- --- ------ ------ ---- -- ------<br>------- --- ------ ----- --- ---- ------- -- ---- --- --<br>------- ------,89967.80000001192,89966.80000001192,89687.64,89697.80000001192,89704.31,89971.043,,5,crown
screen,html.Screen,0_2_1_1_6,2021-12-10T10:02:30.936Z,,,,,,,,,,,,,,,,54,,,,,,,,,,,,,,259.85700003575766,,response,,,100,,,,,,Space,keypress(Space),,,,,-- --- ---- --- ------ ----- secured ---- -- --- ------- --<br>------- ---------- ------ -- ----- -- ----- -- ---- ------<br>--- ----- --- --- ------ -------- ----- --- ------ ----- --<br>----- ----- ---------- --- --- ------ ------ ---- -- ------<br>------- --- ------ ----- --- ---- ------- -- ---- --- --<br>------- ------,90231.60000002384,90230.90000003576,89954.373,89968,89971.043,90237.756,,6,secured
screen,html.Screen,0_2_1_1_7,2021-12-10T10:02:31.232Z,,,,,,,,,,,,,,,,54,,,,,,,,,,,,,,288.9439999880851,,response,,,100,,,,,,Space,keypress(Space),,,,,-- --- ---- --- ------ ----- ------- much -- --- ------- --<br>------- ---------- ------ -- ----- -- ----- -- ---- ------<br>--- ----- --- --- ------ -------- ----- --- ------ ----- --<br>----- ----- ---------- --- --- ------ ------ ---- -- ------<br>------- --- ------ ----- --- ---- ------- -- ---- --- --<br>------- ------,90527.69999998808,90526.69999998808,90221.086,90231.90000003576,90237.756,90537.847,,7,much
screen,html.Screen,0_2_1_1_8,2021-12-10T10:02:31.584Z,,,,,,,,,,,,,,,,54,,,,,,,,,,,,,,340.95300001192663,,response,,,100,,,,,,Space,keypress(Space),,,,,-- --- ---- --- ------ ----- ------- ---- of --- ------- --<br>------- ---------- ------ -- ----- -- ----- -- ---- ------<br>--- ----- --- --- ------ -------- ----- --- ------ ----- --<br>----- ----- ---------- --- --- ------ ------ ---- -- ------<br>------- --- ------ ----- --- ---- ------- -- ---- --- --<br>------- ------,90879.60000002384,90878.80000001192,90521.177,90528,90537.847,90887.878,,8,of
screen,html.Screen,0_2_1_1_9,2021-12-10T10:02:31.904Z,,,,,,,,,,,,,,,,54,,,,,,,,,,,,,,310.7220000238449,,response,,,100,,,,,,Space,keypress(Space),,,,,-- --- ---- --- ------ ----- ------- ---- -- its ------- --<br>------- ---------- ------ -- ----- -- ----- -- ---- ------<br>--- ----- --- --- ------ -------- ----- --- ------ ----- --<br>----- ----- ---------- --- --- ------ ------ ---- -- ------<br>------- --- ------ ----- --- ---- ------- -- ---- --- --<br>------- ------,91199.5,91198.60000002384,90871.209,90879.90000003576,90887.878,91204.701,,9,its
screen,html.Screen,0_2_1_1_10,2021-12-10T10:02:32.248Z,,,,,,,,,,,,,,,,54,,,,,,,,,,,,,,337.99899998807814,,response,,,100,,,,,,Space,keypress(Space),,,,,-- --- ---- --- ------ ----- ------- ---- -- --- revenue --<br>------- ---------- ------ -- ----- -- ----- -- ---- ------<br>--- ----- --- --- ------ -------- ----- --- ------ ----- --<br>----- ----- ---------- --- --- ------ ------ ---- -- ------<br>------- --- ------ ----- --- ---- ------- -- ---- --- --<br>------- ------,91543.5,91542.69999998808,91188.03,91199.69999998808,91204.701,91554.757,,10,revenue
screen,html.Screen,0_2_1_1_11,2021-12-10T10:02:32.704Z,,,,,,,,,,,,,,,,54,,,,,,,,,,,,,,443.9429999880813,,response,,,100,,,,,,Space,keypress(Space),,,,,-- --- ---- --- ------ ----- ------- ---- -- --- ------- by<br>------- ---------- ------ -- ----- -- ----- -- ---- ------<br>--- ----- --- --- ------ -------- ----- --- ------ ----- --<br>----- ----- ---------- --- --- ------ ------ ---- -- ------<br>------- --- ------ ----- --- ---- ------- -- ---- --- --<br>------- ------,91999.5,91998.69999998808,91538.087,91543.80000001192,91554.757,92004.68,,11,by
screen,html.Screen,0_2_1_1_12,2021-12-10T10:02:33.136Z,,,,,,,,,,,,,,,,54,,,,,,,,,,,,,,425.92000002384884,,response,,,100,,,,,,Space,keypress(Space),,,,,-- --- ---- --- ------ ----- ------- ---- -- --- ------- --<br>issuing ---------- ------ -- ----- -- ----- -- ---- ------<br>--- ----- --- --- ------ -------- ----- --- ------ ----- --<br>----- ----- ---------- --- --- ------ ------ ---- -- ------<br>------- --- ------ ----- --- ---- ------- -- ---- --- --<br>------- ------,92431.5,92430.60000002384,91988.013,91999.69999998808,92004.68,92438.398,,12,issuing
screen,html.Screen,0_2_1_1_13,2021-12-10T10:02:33.576Z,,,,,,,,,,,,,,,,54,,,,,,,,,,,,,,432.2020000238408,,response,,,100,,,,,,Space,keypress(Space),,,,,-- --- ---- --- ------ ----- ------- ---- -- --- ------- --<br>------- government ------ -- ----- -- ----- -- ---- ------<br>--- ----- --- --- ------ -------- ----- --- ------ ----- --<br>----- ----- ---------- --- --- ------ ------ ---- -- ------<br>------- --- ------ ----- --- ---- ------- -- ---- --- --<br>------- ------,92871.5,92870.60000002384,92421.726,92431.69999998808,92438.398,92888.399,,13,government
screen,html.Screen,0_2_1_1_14,2021-12-10T10:02:33.928Z,,,,,,,,,,,,,,,,54,,,,,,,,,,,,,,334.1009999999951,,response,,,100,,,,,,Space,keypress(Space),,,,,-- --- ---- --- ------ ----- ------- ---- -- --- ------- --<br>------- ---------- bonds. -- ----- -- ----- -- ---- ------<br>--- ----- --- --- ------ -------- ----- --- ------ ----- --<br>----- ----- ---------- --- --- ------ ------ ---- -- ------<br>------- --- ------ ----- --- ---- ------- -- ---- --- --<br>------- ------,93223.40000003576,93222.5,92871.729,92871.69999998808,92888.399,93238.488,,14,bonds.
screen,html.Screen,0_2_1_1_15,2021-12-10T10:02:34.264Z,,,,,,,,,,,,,,,,54,,,,,,,,,,,,,,320.01200000000244,,response,,,100,,,,,,Space,keypress(Space),,,,,-- --- ---- --- ------ ----- ------- ---- -- --- ------- --<br>------- ---------- ------ In ----- -- ----- -- ---- ------<br>--- ----- --- --- ------ -------- ----- --- ------ ----- --<br>----- ----- ---------- --- --- ------ ------ ---- -- ------<br>------- --- ------ ----- --- ---- ------- -- ---- --- --<br>------- ------,93559.30000001192,93558.5,93221.818,93223.60000002384,93238.488,93571.902,,15,In
screen,html.Screen,0_2_1_1_16,2021-12-10T10:02:34.576Z,,,,,,,,,,,,,,,,54,,,,,,,,,,,,,,298.69800002384,,response,,,100,,,,,,Space,keypress(Space),,,,,"-- --- ---- --- ------ ----- ------- ---- -- --- ------- --<br>------- ---------- ------ -- 1727, -- ----- -- ---- ------<br>--- ----- --- --- ------ -------- ----- --- ------ ----- --<br>----- ----- ---------- --- --- ------ ------ ---- -- ------<br>------- --- ------ ----- --- ---- ------- -- ---- --- --<br>------- ------",93871.40000003576,93870.60000002384,93555.232,93559.69999998808,93571.902,93888.657,,16,"1727,"
screen,html.Screen,0_2_1_1_17,2021-12-10T10:02:34.848Z,,,,,,,,,,,,,,,,54,,,,,,,,,,,,,,254.34299999999348,,response,,,100,,,,,,Space,keypress(Space),,,,,-- --- ---- --- ------ ----- ------- ---- -- --- ------- --<br>------- ---------- ------ -- ----- in ----- -- ---- ------<br>--- ----- --- --- ------ -------- ----- --- ------ ----- --<br>----- ----- ---------- --- --- ------ ------ ---- -- ------<br>------- --- ------ ----- --- ---- ------- -- ---- --- --<br>------- ------,94143.80000001192,94143,93871.987,93871.60000002384,93888.657,94155.384,,17,in
screen,html.Screen,0_2_1_1_18,2021-12-10T10:02:35.808Z,,,,,,,,,,,,,,,,54,,,,,,,,,,,,,,947.1159999999945,,response,,,100,,,,,,Space,keypress(Space),,,,,-- --- ---- --- ------ ----- ------- ---- -- --- ------- --<br>------- ---------- ------ -- ----- -- order -- ---- ------<br>--- ----- --- --- ------ -------- ----- --- ------ ----- --<br>----- ----- ---------- --- --- ------ ------ ---- -- ------<br>------- --- ------ ----- --- ---- ------- -- ---- --- --<br>------- ------,95103.60000002384,95102.5,94138.714,94144.10000002384,94155.384,95105.594,,18,order
screen,html.Screen,0_2_1_1_19,2021-12-10T10:02:36.904Z,,,,,,,,,,,,,,,,54,,,,,,,,,,,,,,1092.8060000357655,,response,,,100,,,,,,Space,keypress(Space),,,,,-- --- ---- --- ------ ----- ------- ---- -- --- ------- --<br>------- ---------- ------ -- ----- -- ----- to ---- ------<br>--- ----- --- --- ------ -------- ----- --- ------ ----- --<br>----- ----- ---------- --- --- ------ ------ ---- -- ------<br>------- --- ------ ----- --- ---- ------- -- ---- --- --<br>------- ------,96199.19999998808,96198.40000003576,95088.924,95103.80000001192,95105.594,96205.806,,19,to
screen,html.Screen,0_2_1_1_20,2021-12-10T10:02:37.272Z,,,,,,,,,,,,,,,,54,,,,,,,,,,,,,,360.4940000119241,,response,,,100,,,,,,Space,keypress(Space),,,,,-- --- ---- --- ------ ----- ------- ---- -- --- ------- --<br>------- ---------- ------ -- ----- -- ----- -- save ------<br>--- ----- --- --- ------ -------- ----- --- ------ ----- --<br>----- ----- ---------- --- --- ------ ------ ---- -- ------<br>------- --- ------ ----- --- ---- ------- -- ---- --- --<br>------- ------,96567.30000001192,96566.30000001192,96189.136,96199.5,96205.806,96572.548,,20,save
screen,html.Screen,0_2_1_1_21,2021-12-10T10:02:37.592Z,,,,,,,,,,,,,,,,54,,,,,,,,,,,,,,313.85200003576756,,response,,,100,,,,,,Space,keypress(Space),,,,,"-- --- ---- --- ------ ----- ------- ---- -- --- ------- --<br>------- ---------- ------ -- ----- -- ----- -- ---- money,<br>--- ----- --- --- ------ -------- ----- --- ------ ----- --<br>----- ----- ---------- --- --- ------ ------ ---- -- ------<br>------- --- ------ ----- --- ---- ------- -- ---- --- --<br>------- ------",96887.19999998808,96886.40000003576,96555.878,96567.5,96572.548,96889.408,,21,"money,"
screen,html.Screen,0_2_1_1_22,2021-12-10T10:02:37.928Z,,,,,,,,,,,,,,,,54,,,,,,,,,,,,,,332.992000035767,,response,,,100,,,,,,Space,keypress(Space),,,,,-- --- ---- --- ------ ----- ------- ---- -- --- ------- --<br>------- ---------- ------ -- ----- -- ----- -- ---- ------<br>the ----- --- --- ------ -------- ----- --- ------ ----- --<br>----- ----- ---------- --- --- ------ ------ ---- -- ------<br>------- --- ------ ----- --- ---- ------- -- ---- --- --<br>------- ------,97223.19999998808,97222.40000003576,96872.737,96887.5,96889.408,97239.45,,22,the
screen,html.Screen,0_2_1_1_23,2021-12-10T10:02:38.223Z,,,,,,,,,,,,,,,,54,,,,,,,,,,,,,,278.85000001192384,,response,,,100,,,,,,Space,keypress(Space),,,,,-- --- ---- --- ------ ----- ------- ---- -- --- ------- --<br>------- ---------- ------ -- ----- -- ----- -- ---- ------<br>--- state --- --- ------ -------- ----- --- ------ ----- --<br>----- ----- ---------- --- --- ------ ------ ---- -- ------<br>------- --- ------ ----- --- ---- ------- -- ---- --- --<br>------- ------,97519.10000002384,97518.30000001192,97222.78,97223.5,97239.45,97522.908,,23,state
screen,html.Screen,0_2_1_1_24,2021-12-10T10:02:38.536Z,,,,,,,,,,,,,,,,54,,,,,,,,,,,,,,307.3920000119251,,response,,,100,,,,,,Space,keypress(Space),,,,,-- --- ---- --- ------ ----- ------- ---- -- --- ------- --<br>------- ---------- ------ -- ----- -- ----- -- ---- ------<br>--- ----- cut --- ------ -------- ----- --- ------ ----- --<br>----- ----- ---------- --- --- ------ ------ ---- -- ------<br>------- --- ------ ----- --- ---- ------- -- ---- --- --<br>------- ------,97831.19999998808,97830.30000001192,97506.237,97519.40000003576,97522.908,97839.619,,24,cut
screen,html.Screen,0_2_1_1_25,2021-12-10T10:02:38.848Z,,,,,,,,,,,,,,,,54,,,,,,,,,,,,,,302.580999988073,,response,,,100,,,,,,Space,keypress(Space),,,,,-- --- ---- --- ------ ----- ------- ---- -- --- ------- --<br>------- ---------- ------ -- ----- -- ----- -- ---- ------<br>--- ----- --- the ------ -------- ----- --- ------ ----- --<br>----- ----- ---------- --- --- ------ ------ ---- -- ------<br>------- --- ------ ----- --- ---- ------- -- ---- --- --<br>------- ------,98143.19999998808,98142.19999998808,97822.949,97831.60000002384,97839.619,98156.346,,25,the
screen,html.Screen,0_2_1_1_26,2021-12-10T10:02:39.160Z,,,,,,,,,,,,,,,,54,,,,,,,,,,,,,,298.35399998807407,,response,,,100,,,,,,Space,keypress(Space),,,,,-- --- ---- --- ------ ----- ------- ---- -- --- ------- --<br>------- ---------- ------ -- ----- -- ----- -- ---- ------<br>--- ----- --- --- bonds' -------- ----- --- ------ ----- --<br>----- ----- ---------- --- --- ------ ------ ---- -- ------<br>------- --- ------ ----- --- ---- ------- -- ---- --- --<br>------- ------,98455.5,98454.69999998808,98139.676,98143.5,98156.346,98473.049,,26,bonds'
screen,html.Screen,0_2_1_1_27,2021-12-10T10:02:39.479Z,,,,,,,,,,,,,,,,54,,,,,,,,,,,,,,301.15099998808,,response,,,100,,,,,,Space,keypress(Space),,,,,-- --- ---- --- ------ ----- ------- ---- -- --- ------- --<br>------- ---------- ------ -- ----- -- ----- -- ---- ------<br>--- ----- --- --- ------ interest ----- --- ------ ----- --<br>----- ----- ---------- --- --- ------ ------ ---- -- ------<br>------- --- ------ ----- --- ---- ------- -- ---- --- --<br>------- ------,98775.10000002384,98774.19999998808,98456.38,98455.80000001192,98473.049,98789.867,,27,interest
screen,html.Screen,0_2_1_1_28,2021-12-10T10:02:39.800Z,,,,,,,,,,,,,,,,54,,,,,,,,,,,,,,304.5330000357644,,response,,,100,,,,,,Space,keypress(Space),,,,,-- --- ---- --- ------ ----- ------- ---- -- --- ------- --<br>------- ---------- ------ -- ----- -- ----- -- ---- ------<br>--- ----- --- --- ------ -------- rate. --- ------ ----- --<br>----- ----- ---------- --- --- ------ ------ ---- -- ------<br>------- --- ------ ----- --- ---- ------- -- ---- --- --<br>------- ------,99095.30000001192,99094.40000003576,98773.196,98775.40000003576,98789.867,99106.625,,28,rate.
screen,html.Screen,0_2_1_1_29,2021-12-10T10:02:40.095Z,,,,,,,,,,,,,,,,54,,,,,,,,,,,,,,283.57499998807907,,response,,,100,,,,,,Space,keypress(Space),,,,,-- --- ---- --- ------ ----- ------- ---- -- --- ------- --<br>------- ---------- ------ -- ----- -- ----- -- ---- ------<br>--- ----- --- --- ------ -------- ----- The ------ ----- --<br>----- ----- ---------- --- --- ------ ------ ---- -- ------<br>------- --- ------ ----- --- ---- ------- -- ---- --- --<br>------- ------,99391,99390.19999998808,99089.954,99095.60000002384,99106.625,99406.623,,29,The
screen,html.Screen,0_2_1_1_30,2021-12-10T10:02:40.399Z,,,,,,,,,,,,,,,,54,,,,,,,,,,,,,,287.477000023835,,response,,,100,,,,,,Space,keypress(Space),,,,,-- --- ---- --- ------ ----- ------- ---- -- --- ------- --<br>------- ---------- ------ -- ----- -- ----- -- ---- ------<br>--- ----- --- --- ------ -------- ----- --- market ----- --<br>----- ----- ---------- --- --- ------ ------ ---- -- ------<br>------- --- ------ ----- --- ---- ------- -- ---- --- --<br>------- ------,99695.10000002384,99694.10000002384,99389.954,99391.30000001192,99406.623,99706.734,,30,market
screen,html.Screen,0_2_1_1_31,2021-12-10T10:02:40.679Z,,,,,,,,,,,,,,,,54,,,,,,,,,,,,,,267.3660000238451,,response,,,100,,,,,,Space,keypress(Space),,,,,-- --- ---- --- ------ ----- ------- ---- -- --- ------- --<br>------- ---------- ------ -- ----- -- ----- -- ---- ------<br>--- ----- --- --- ------ -------- ----- --- ------ value --<br>----- ----- ---------- --- --- ------ ------ ---- -- ------<br>------- --- ------ ----- --- ---- ------- -- ---- --- --<br>------- ------,99975,99974.10000002384,99690.064,99695.30000001192,99706.734,99990.122,,31,value
screen,html.Screen,0_2_1_1_32,2021-12-10T10:02:40.959Z,,,,,,,,,,,,,,,,54,,,,,,,,,,,,,,263.97800002383883,,response,,,100,,,,,,Space,keypress(Space),,,,,-- --- ---- --- ------ ----- ------- ---- -- --- ------- --<br>------- ---------- ------ -- ----- -- ----- -- ---- ------<br>--- ----- --- --- ------ -------- ----- --- ------ ----- of<br>----- ----- ---------- --- --- ------ ------ ---- -- ------<br>------- --- ------ ----- --- ---- ------- -- ---- --- --<br>------- ------,100255,100254.10000002384,99973.452,99975.30000001192,99990.122,100256.897,,32,of
screen,html.Screen,0_2_1_1_33,2021-12-10T10:02:41.223Z,,,,,,,,,,,,,,,,54,,,,,,,,,,,,,,261.20300002384465,,response,,,100,,,,,,Space,keypress(Space),,,,,-- --- ---- --- ------ ----- ------- ---- -- --- ------- --<br>------- ---------- ------ -- ----- -- ----- -- ---- ------<br>--- ----- --- --- ------ -------- ----- --- ------ ----- --<br>these ----- ---------- --- --- ------ ------ ---- -- ------<br>------- --- ------ ----- --- ---- ------- -- ---- --- --<br>------- ------,100518.90000003576,100518.10000002384,100240.226,100255.19999998808,100256.897,100523.598,,33,these
screen,html.Screen,0_2_1_1_34,2021-12-10T10:02:41.479Z,,,,,,,,,,,,,,,,54,,,,,,,,,,,,,,250.50200002384372,,response,,,100,,,,,,Space,keypress(Space),,,,,-- --- ---- --- ------ ----- ------- ---- -- --- ------- --<br>------- ---------- ------ -- ----- -- ----- -- ---- ------<br>--- ----- --- --- ------ -------- ----- --- ------ ----- --<br>----- bonds ---------- --- --- ------ ------ ---- -- ------<br>------- --- ------ ----- --- ---- ------- -- ---- --- --<br>------- ------,100775,100774.10000002384,100506.928,100519.19999998808,100523.598,100790.324,,34,bonds
screen,html.Screen,0_2_1_1_35,2021-12-10T10:02:41.759Z,,,,,,,,,,,,,,,,54,,,,,,,,,,,,,,263.7760000238486,,response,,,100,,,,,,Space,keypress(Space),,,,,"-- --- ---- --- ------ ----- ------- ---- -- --- ------- --<br>------- ---------- ------ -- ----- -- ----- -- ---- ------<br>--- ----- --- --- ------ -------- ----- --- ------ ----- --<br>----- ----- plummeted, --- --- ------ ------ ---- -- ------<br>------- --- ------ ----- --- ---- ------- -- ---- --- --<br>------- ------",101055,101054.10000002384,100773.654,100775.19999998808,100790.324,101056.934,,35,"plummeted,"
screen,html.Screen,0_2_1_1_36,2021-12-10T10:02:42.063Z,,,,,,,,,,,,,,,,54,,,,,,,,,,,,,,301.06600000000617,,response,,,100,,,,,,Space,keypress(Space),,,,,-- --- ---- --- ------ ----- ------- ---- -- --- ------- --<br>------- ---------- ------ -- ----- -- ----- -- ---- ------<br>--- ----- --- --- ------ -------- ----- --- ------ ----- --<br>----- ----- ---------- and --- ------ ------ ---- -- ------<br>------- --- ------ ----- --- ---- ------- -- ---- --- --<br>------- ------,101359,101358,101040.267,101055.19999998808,101056.934,101373.843,,36,and
screen,html.Screen,0_2_1_1_37,2021-12-10T10:02:42.326Z,,,,,,,,,,,,,,,,54,,,,,,,,,,,,,,247.75700002384838,,response,,,100,,,,,,Space,keypress(Space),,,,,-- --- ---- --- ------ ----- ------- ---- -- --- ------- --<br>------- ---------- ------ -- ----- -- ----- -- ---- ------<br>--- ----- --- --- ------ -------- ----- --- ------ ----- --<br>----- ----- ---------- --- the ------ ------ ---- -- ------<br>------- --- ------ ----- --- ---- ------- -- ---- --- --<br>------- ------,101621.90000003576,101621.60000002384,101357.171,101359.19999998808,101373.843,101623.893,,37,the
screen,html.Screen,0_2_1_1_38,2021-12-10T10:02:42.606Z,,,,,,,,,,,,,,,,54,,,,,,,,,,,,,,277.6070000000036,,response,,,100,,,,,,Space,keypress(Space),,,,,-- --- ---- --- ------ ----- ------- ---- -- --- ------- --<br>------- ---------- ------ -- ----- -- ----- -- ---- ------<br>--- ----- --- --- ------ -------- ----- --- ------ ----- --<br>----- ----- ---------- --- --- market ------ ---- -- ------<br>------- --- ------ ----- --- ---- ------- -- ---- --- --<br>------- ------,101901.80000001192,101901.5,101607.222,101622,101623.893,101907.238,,38,market
screen,html.Screen,0_2_1_1_39,2021-12-10T10:02:42.886Z,,,,,,,,,,,,,,,,54,,,,,,,,,,,,,,274.16200003576523,,response,,,100,,,,,,Space,keypress(Space),,,,,-- --- ---- --- ------ ----- ------- ---- -- --- ------- --<br>------- ---------- ------ -- ----- -- ----- -- ---- ------<br>--- ----- --- --- ------ -------- ----- --- ------ ----- --<br>----- ----- ---------- --- --- ------ became ---- -- ------<br>------- --- ------ ----- --- ---- ------- -- ---- --- --<br>------- ------,102181.69999998808,102181.40000003576,101890.568,101901.90000003576,101907.238,102190.467,,39,became
screen,html.Screen,0_2_1_1_40,2021-12-10T10:02:43.159Z,,,,,,,,,,,,,,,,54,,,,,,,,,,,,,,263.33300001191674,,response,,,100,,,,,,Space,keypress(Space),,,,,-- --- ---- --- ------ ----- ------- ---- -- --- ------- --<br>------- ---------- ------ -- ----- -- ----- -- ---- ------<br>--- ----- --- --- ------ -------- ----- --- ------ ----- --<br>----- ----- ---------- --- --- ------ ------ wary -- ------<br>------- --- ------ ----- --- ---- ------- -- ---- --- --<br>------- ------,102454.69999998808,102453.80000001192,102173.801,102181.80000001192,102190.467,102457.335,,40,wary
screen,html.Screen,0_2_1_1_41,2021-12-10T10:02:43.423Z,,,,,,,,,,,,,,,,54,,,,,,,,,,,,,,260.5650000357564,,response,,,100,,,,,,Space,keypress(Space),,,,,-- --- ---- --- ------ ----- ------- ---- -- --- ------- --<br>------- ---------- ------ -- ----- -- ----- -- ---- ------<br>--- ----- --- --- ------ -------- ----- --- ------ ----- --<br>----- ----- ---------- --- --- ------ ------ ---- of ------<br>------- --- ------ ----- --- ---- ------- -- ---- --- --<br>------- ------,102718.80000001192,102717.90000003576,102440.665,102454.90000003576,102457.335,102724.065,,41,of
screen,html.Screen,0_2_1_1_42,2021-12-10T10:02:43.687Z,,,,,,,,,,,,,,,,54,,,,,,,,,,,,,,257.83500003576046,,response,,,100,,,,,,Space,keypress(Space),,,,,-- --- ---- --- ------ ----- ------- ---- -- --- ------- --<br>------- ---------- ------ -- ----- -- ----- -- ---- ------<br>--- ----- --- --- ------ -------- ----- --- ------ ----- --<br>----- ----- ---------- --- --- ------ ------ ---- -- French<br>------- --- ------ ----- --- ---- ------- -- ---- --- --<br>------- ------,102982.69999998808,102981.90000003576,102707.395,102719.10000002384,102724.065,102990.792,,42,French
screen,html.Screen,0_2_1_1_43,2021-12-10T10:02:43.983Z,,,,,,,,,,,,,,,,54,,,,,,,,,,,,,,287.1080000357615,,response,,,100,,,,,,Space,keypress(Space),,,,,-- --- ---- --- ------ ----- ------- ---- -- --- ------- --<br>------- ---------- ------ -- ----- -- ----- -- ---- ------<br>--- ----- --- --- ------ -------- ----- --- ------ ----- --<br>----- ----- ---------- --- --- ------ ------ ---- -- ------<br>credit. --- ------ ----- --- ---- ------- -- ---- --- --<br>------- ------,103278.69999998808,103277.90000003576,102974.122,102983,102990.792,103291.094,,43,credit.
screen,html.Screen,0_2_1_1_44,2021-12-10T10:02:44.279Z,,,,,,,,,,,,,,,,54,,,,,,,,,,,,,,282.80600003576546,,response,,,100,,,,,,Space,keypress(Space),,,,,-- --- ---- --- ------ ----- ------- ---- -- --- ------- --<br>------- ---------- ------ -- ----- -- ----- -- ---- ------<br>--- ----- --- --- ------ -------- ----- --- ------ ----- --<br>----- ----- ---------- --- --- ------ ------ ---- -- ------<br>------- The ------ ----- --- ---- ------- -- ---- --- --<br>------- ------,103574.80000001192,103573.90000003576,103274.419,103279,103291.094,103591.017,,44,The
screen,html.Screen,0_2_1_1_45,2021-12-10T10:02:44.567Z,,,,,,,,,,,,,,,,54,,,,,,,,,,,,,,270.7830000119138,,response,,,100,,,,,,Space,keypress(Space),,,,,-- --- ---- --- ------ ----- ------- ---- -- --- ------- --<br>------- ---------- ------ -- ----- -- ----- -- ---- ------<br>--- ----- --- --- ------ -------- ----- --- ------ ----- --<br>----- ----- ---------- --- --- ------ ------ ---- -- ------<br>------- --- French ----- --- ---- ------- -- ---- --- --<br>------- ------,103862.69999998808,103861.80000001192,103574.347,103575,103591.017,103874.399,,45,French
screen,html.Screen,0_2_1_1_46,2021-12-10T10:02:44.863Z,,,,,,,,,,,,,,,,54,,,,,,,,,,,,,,283.5010000357579,,response,,,100,,,,,,Space,keypress(Space),,,,,-- --- ---- --- ------ ----- ------- ---- -- --- ------- --<br>------- ---------- ------ -- ----- -- ----- -- ---- ------<br>--- ----- --- --- ------ -------- ----- --- ------ ----- --<br>----- ----- ---------- --- --- ------ ------ ---- -- ------<br>------- --- ------ state --- ---- ------- -- ---- --- --<br>------- ------,104158.69999998808,104157.90000003576,103857.729,103862.90000003576,103874.399,104174.518,,46,state
screen,html.Screen,0_2_1_1_47,2021-12-10T10:02:45.159Z,,,,,,,,,,,,,,,,54,,,,,,,,,,,,,,279.28200001192454,,response,,,100,,,,,,Space,keypress(Space),,,,,-- --- ---- --- ------ ----- ------- ---- -- --- ------- --<br>------- ---------- ------ -- ----- -- ----- -- ---- ------<br>--- ----- --- --- ------ -------- ----- --- ------ ----- --<br>----- ----- ---------- --- --- ------ ------ ---- -- ------<br>------- --- ------ ----- was ---- ------- -- ---- --- --<br>------- ------,104454.69999998808,104453.80000001192,104157.847,104158.90000003576,104174.518,104457.893,,47,was
screen,html.Screen,0_2_1_1_48,2021-12-10T10:02:45.431Z,,,,,,,,,,,,,,,,54,,,,,,,,,,,,,,267.90700001192454,,response,,,100,,,,,,Space,keypress(Space),,,,,-- --- ---- --- ------ ----- ------- ---- -- --- ------- --<br>------- ---------- ------ -- ----- -- ----- -- ---- ------<br>--- ----- --- --- ------ -------- ----- --- ------ ----- --<br>----- ----- ---------- --- --- ------ ------ ---- -- ------<br>------- --- ------ ----- --- left ------- -- ---- --- --<br>------- ------,104726.69999998808,104725.80000001192,104441.223,104454.90000003576,104457.893,104741.288,,48,left
screen,html.Screen,0_2_1_1_49,2021-12-10T10:02:45.719Z,,,,,,,,,,,,,,,,54,,,,,,,,,,,,,,272.4119999880786,,response,,,100,,,,,,Space,keypress(Space),,,,,-- --- ---- --- ------ ----- ------- ---- -- --- ------- --<br>------- ---------- ------ -- ----- -- ----- -- ---- ------<br>--- ----- --- --- ------ -------- ----- --- ------ ----- --<br>----- ----- ---------- --- --- ------ ------ ---- -- ------<br>------- --- ------ ----- --- ---- without -- ---- --- --<br>------- ------,105014.69999998808,105013.69999998808,104724.618,104726.90000003576,104741.288,105024.703,,49,without
screen,html.Screen,0_2_1_1_50,2021-12-10T10:02:46.007Z,,,,,,,,,,,,,,,,54,,,,,,,,,,,,,,277.09700001192687,,response,,,100,,,,,,Space,keypress(Space),,,,,-- --- ---- --- ------ ----- ------- ---- -- --- ------- --<br>------- ---------- ------ -- ----- -- ----- -- ---- ------<br>--- ----- --- --- ------ -------- ----- --- ------ ----- --<br>----- ----- ---------- --- --- ------ ------ ---- -- ------<br>------- --- ------ ----- --- ---- ------- an ---- --- --<br>------- ------,105302.60000002384,105301.80000001192,105008.033,105014.90000003576,105024.703,105308.091,,50,an
screen,html.Screen,0_2_1_1_51,2021-12-10T10:02:46.327Z,,,,,,,,,,,,,,,,54,,,,,,,,,,,,,,313.7090000119206,,response,,,100,,,,,,Space,keypress(Space),,,,,-- --- ---- --- ------ ----- ------- ---- -- --- ------- --<br>------- ---------- ------ -- ----- -- ----- -- ---- ------<br>--- ----- --- --- ------ -------- ----- --- ------ ----- --<br>----- ----- ---------- --- --- ------ ------ ---- -- ------<br>------- --- ------ ----- --- ---- ------- -- easy --- --<br>------- ------,105622.60000002384,105621.80000001192,105291.421,105302.90000003576,105308.091,105624.847,,51,easy
screen,html.Screen,0_2_1_1_52,2021-12-10T10:02:46.599Z,,,,,,,,,,,,,,,,54,,,,,,,,,,,,,,268.8529999880848,,response,,,100,,,,,,Space,keypress(Space),,,,,-- --- ---- --- ------ ----- ------- ---- -- --- ------- --<br>------- ---------- ------ -- ----- -- ----- -- ---- ------<br>--- ----- --- --- ------ -------- ----- --- ------ ----- --<br>----- ----- ---------- --- --- ------ ------ ---- -- ------<br>------- --- ------ ----- --- ---- ------- -- ---- way --<br>------- ------,105894.60000002384,105893.69999998808,105608.177,105622.80000001192,105624.847,105908.24,,52,way
screen,html.Screen,0_2_1_1_53,2021-12-10T10:02:46.879Z,,,,,,,,,,,,,,,,54,,,,,,,,,,,,,,265.45999998807383,,response,,,100,,,,,,Space,keypress(Space),,,,,-- --- ---- --- ------ ----- ------- ---- -- --- ------- --<br>------- ---------- ------ -- ----- -- ----- -- ---- ------<br>--- ----- --- --- ------ -------- ----- --- ------ ----- --<br>----- ----- ---------- --- --- ------ ------ ---- -- ------<br>------- --- ------ ----- --- ---- ------- -- ---- --- of<br>------- ------,106174.60000002384,106173.69999998808,105891.57,105894.90000003576,105908.24,106191.635,,53,of
screen,html.Screen,0_2_1_1_54,2021-12-10T10:02:47.183Z,,,,,,,,,,,,,,,,54,,,,,,,,,,,,,,286.0649999880843,,response,,,100,,,,,,Space,keypress(Space),,,,,-- --- ---- --- ------ ----- ------- ---- -- --- ------- --<br>------- ---------- ------ -- ----- -- ----- -- ---- ------<br>--- ----- --- --- ------ -------- ----- --- ------ ----- --<br>----- ----- ---------- --- --- ------ ------ ---- -- ------<br>------- --- ------ ----- --- ---- ------- -- ---- --- --<br>raising ------,106478.5,106477.69999998808,106174.965,106174.80000001192,106191.635,106491.71,,54,raising
screen,html.Screen,0_2_1_1_55,2021-12-10T10:02:47.519Z,,,,,,,,,,,,,,,,54,,,,,,,,,,,,,,321.89000002383546,,response,,,100,,,,,,Space,keypress(Space),,,,,-- --- ---- --- ------ ----- ------- ---- -- --- ------- --<br>------- ---------- ------ -- ----- -- ----- -- ---- ------<br>--- ----- --- --- ------ -------- ----- --- ------ ----- --<br>----- ----- ---------- --- --- ------ ------ ---- -- ------<br>------- --- ------ ----- --- ---- ------- -- ---- --- --<br>------- money.,106814.5,106813.60000002384,106475.04,106478.69999998808,106491.71,106825.125,,55,money.
Item 100,flow.Loop,0_2_1_1,2021-12-10T10:02:47.519Z,,,,,,,,,,,,,,,,,,,,,,,,,,,,,,20210.17900002384,,completion,,,,A,,,,,,,,,,silence,,106815,106813.60000002384,86586.751,86588.10000002384,86603.421,106825.125,,,
Question 1,html.Screen,0_2_1_2,2021-12-10T10:02:49.820Z,,,,,,,,,,,,,,,,,,,,,,,,,,,true,TRUE,,2288.775000035763,,response,,,100,A,,,,,TRUE,click #choice-1,,,,silence,,109115.19999998808,109113.90000003576,106808.455,106815.19999998808,106825.125,109125.7,,,
Question 2,html.Screen,0_2_1_3,2021-12-10T10:02:52.471Z,,,,,,,,,,,,,,,,,,,,,,,,,,,true,FALSE,,2639.4000000238448,,response,,,100,A,,,,,FALSE,click #choice-2,,,,silence,,111766.40000003576,111765.10000002384,109109.03,109115.5,109125.7,111776.318,,,
Item 100,flow.Sequence,0_2_1,2021-12-10T10:02:52.471Z,,,,,,,,,,,,,,,,,,,,,,,,,,,,,,35163.94100002384,,completion,,,,,,,,,,,,,,,,111766.80000001192,111765.10000002384,76584.488,76596.69999998808,76601.159,111776.318,,,
End of Practice,html.Page,0_2_2,2021-12-10T10:02:56.685Z,,,,,,,,,,,,,,,,,,,,,,,,,,,,,,4203.88199998808,,form submission,,,,,,,,,,,,,,,,115980.90000003576,115980.19999998808,111759.648,111767,111776.318,115993.912,,,
Practice,flow.Sequence,0_2,2021-12-10T10:02:56.686Z,,,,,,,,,,,,,,,,,,,,,,,,,,,,,,76037.98899998807,,completion,,,,,,,,,,,,,,,,115981.40000003576,115980.19999998808,39925.541,39939.10000002384,39942.211,115993.912,,,
Trap_instruction,html.Page,0_3_0,2021-12-10T10:03:00.687Z,,,,,,,,,,,,,,,,,,,,,,,,,,,,,,3987.988000035766,,form submission,,,,,,,,,,,,,,,,119982.5,119981.90000003576,115977.242,115981.69999998808,115993.912,120061.693,,,
trap_trial,html.Screen,0_3_1,2021-12-10T10:03:03.738Z,,,,,,,,,,,,,,,,,,,,,,,,,,,true,1,,2966.1070000119216,,response,,,,,,,,,1,click #choice-1,,,,,,123029.10000002384,123027.80000001192,119978.338,119982.80000001192,120061.693,123029.93,,,
end of trap trial,html.Page,0_3_2,2021-12-10T10:03:05.809Z,,,,,,,,,,,,,,,,,,,,,,,,,,,,,,2069.570000000007,,form submission,,,,,,,,,,,,,,,,125100,125099.5,123013.254,123029.30000001192,123029.93,125112.823,,,
Trap 1,flow.Sequence,0_3,2021-12-10T10:03:05.809Z,,,,,,,,,,,,,,,,,,,,,,,,,,,,,,9105.588000000003,,completion,,,,,,,,,,,,,,,,125100.40000003576,125099.5,115977.242,115981.60000002384,115993.912,125112.823,,,
Standby,html.Page,0_4_0,2021-12-10T10:03:13.808Z,,,,,,,,,,,,,,,,,,,,,,,,,,,,,,8002.18299999999,,timeout,,,,,,,,,,,,,,,,133099.30000001192,133098.335,125096.153,125100.60000002384,125112.823,133115.006,,,
Holding screen,html.Screen,0_4_1_0_0,2021-12-10T10:03:20.810Z,,,,,,,,,,,,,,,,,,,,,,,,,,,,,,7001.47100000002,,timeout,,,,,,,,,,,,,,,,140101.30000001192,140099.807,133098.335,133099.69999998808,133115.006,140116.477,,,
screen,html.Screen,0_4_1_0_1_0,2021-12-10T10:03:22.818Z,,,,,,,,,,,,,,,,2,,,,,,,,,,,,,,1991.3230000119074,,response,,,1,A,,,,,Space,keypress(Space),,,,silence,Two ---- ------ --- ------- ---------- ------- ----------<br>--- --------- --- ----------- ------- ----- ------- ---<br>--------- ---- -- --- ---- -- --------- -- ---- -------<br>-- --------- ------ --- ----- ------ ---- --- --------- --<br>------ - ---- -- --- ----------- ------- ---- ----- -----<br>--- -------- - ------ ---- -- ----- ---- --- --- -----------<br>-- -------,142109,142107.80000001192,140099.807,140101.69999998808,140116.477,142116.945,,0,Two
screen,html.Screen,0_4_1_0_1_1,2021-12-10T10:03:23.265Z,,,,,,,,,,,,,,,,2,,,,,,,,,,,,,,438.2549999880721,,response,,,1,A,,,,,Space,keypress(Space),,,,silence,--- days ------ --- ------- ---------- ------- ----------<br>--- --------- --- ----------- ------- ----- ------- ---<br>--------- ---- -- --- ---- -- --------- -- ---- -------<br>-- --------- ------ --- ----- ------ ---- --- --------- --<br>------ - ---- -- --- ----------- ------- ---- ----- -----<br>--- -------- - ------ ---- -- ----- ---- --- --- -----------<br>-- -------,142556.10000002384,142555.19999998808,142100.275,142109.30000001192,142116.945,142567.087,,1,days
screen,html.Screen,0_4_1_0_1_2,2021-12-10T10:03:23.633Z,,,,,,,,,,,,,,,,2,,,,,,,,,,,,,,356.0130000238423,,response,,,1,A,,,,,Space,keypress(Space),,,,silence,"--- ---- later, --- ------- ---------- ------- ----------<br>--- --------- --- ----------- ------- ----- ------- ---<br>--------- ---- -- --- ---- -- --------- -- ---- -------<br>-- --------- ------ --- ----- ------ ---- --- --------- --<br>------ - ---- -- --- ----------- ------- ---- ----- -----<br>--- -------- - ------ ---- -- ----- ---- --- --- -----------<br>-- -------",142924.10000002384,142923.10000002384,142550.417,142556.40000003576,142567.087,142933.846,,2,"later,"
screen,html.Screen,0_4_1_0_1_3,2021-12-10T10:03:23.969Z,,,,,,,,,,,,,,,,2,,,,,,,,,,,,,,325.2540000238514,,response,,,1,A,,,,,Space,keypress(Space),,,,silence,--- ---- ------ the ------- ---------- ------- ----------<br>--- --------- --- ----------- ------- ----- ------- ---<br>--------- ---- -- --- ---- -- --------- -- ---- -------<br>-- --------- ------ --- ----- ------ ---- --- --------- --<br>------ - ---- -- --- ----------- ------- ---- ----- -----<br>--- -------- - ------ ---- -- ----- ---- --- --- -----------<br>-- -------,143260,143259.10000002384,142917.176,142924.40000003576,142933.846,143267.393,,3,the
screen,html.Screen,0_4_1_0_1_4,2021-12-10T10:03:24.313Z,,,,,,,,,,,,,,,,2,,,,,,,,,,,,,,335.7070000238309,,response,,,1,A,,,,,Space,keypress(Space),,,,silence,--- ---- ------ --- British ---------- ------- ----------<br>--- --------- --- ----------- ------- ----- ------- ---<br>--------- ---- -- --- ---- -- --------- -- ---- -------<br>-- --------- ------ --- ----- ------ ---- --- --------- --<br>------ - ---- -- --- ----------- ------- ---- ----- -----<br>--- -------- - ------ ---- -- ----- ---- --- --- -----------<br>-- -------,143603.90000003576,143603.10000002384,143250.721,143260.30000001192,143267.393,143617.383,,4,British
screen,html.Screen,0_4_1_0_1_5,2021-12-10T10:03:24.641Z,,,,,,,,,,,,,,,,2,,,,,,,,,,,,,,313.7170000238402,,response,,,1,A,,,,,Space,keypress(Space),,,,silence,--- ---- ------ --- ------- astronomer ------- ----------<br>--- --------- --- ----------- ------- ----- ------- ---<br>--------- ---- -- --- ---- -- --------- -- ---- -------<br>-- --------- ------ --- ----- ------ ---- --- --------- --<br>------ - ---- -- --- ----------- ------- ---- ----- -----<br>--- -------- - ------ ---- -- ----- ---- --- --- -----------<br>-- -------,143932,143931.10000002384,143600.713,143604.19999998808,143617.383,143934.149,,5,astronomer
screen,html.Screen,0_4_1_0_1_6,2021-12-10T10:03:24.953Z,,,,,,,,,,,,,,,,2,,,,,,,,,,,,,,308.8509999999951,,response,,,1,A,,,,,Space,keypress(Space),,,,silence,--- ---- ------ --- ------- ---------- Richard ----------<br>--- --------- --- ----------- ------- ----- ------- ---<br>--------- ---- -- --- ---- -- --------- -- ---- -------<br>-- --------- ------ --- ----- ------ ---- --- --------- --<br>------ - ---- -- --- ----------- ------- ---- ----- -----<br>--- -------- - ------ ---- -- ----- ---- --- --- -----------<br>-- -------,144243.90000003576,144243,143917.479,143932.19999998808,143934.149,144250.888,,6,Richard
screen,html.Screen,0_4_1_0_1_7,2021-12-10T10:03:25.265Z,,,,,,,,,,,,,,,,2,,,,,,,,,,,,,,304.1119999999937,,response,,,1,A,,,,,Space,keypress(Space),,,,silence,--- ---- ------ --- ------- ---------- ------- Carrington<br>--- --------- --- ----------- ------- ----- ------- ---<br>--------- ---- -- --- ---- -- --------- -- ---- -------<br>-- --------- ------ --- ----- ------ ---- --- --------- --<br>------ - ---- -- --- ----------- ------- ---- ----- -----<br>--- -------- - ------ ---- -- ----- ---- --- --- -----------<br>-- -------,144555.90000003576,144555,144234.218,144244.19999998808,144250.888,144567.51,,7,Carrington
screen,html.Screen,0_4_1_0_1_8,2021-12-10T10:03:25.609Z,,,,,,,,,,,,,,,,2,,,,,,,,,,,,,,331.3900000357535,,response,,,1,A,,,,,Space,keypress(Space),,,,silence,--- ---- ------ --- ------- ---------- ------- ----------<br>was --------- --- ----------- ------- ----- ------- ---<br>--------- ---- -- --- ---- -- --------- -- ---- -------<br>-- --------- ------ --- ----- ------ ---- --- --------- --<br>------ - ---- -- --- ----------- ------- ---- ----- -----<br>--- -------- - ------ ---- -- ----- ---- --- --- -----------<br>-- -------,144899.80000001192,144898.90000003576,144550.842,144556.10000002384,144567.51,144901.097,,8,was
screen,html.Screen,0_4_1_0_1_9,2021-12-10T10:03:25.913Z,,,,,,,,,,,,,,,,2,,,,,,,,,,,,,,301.80300003575394,,response,,,1,A,,,,,Space,keypress(Space),,,,silence,--- ---- ------ --- ------- ---------- ------- ----------<br>--- observing --- ----------- ------- ----- ------- ---<br>--------- ---- -- --- ---- -- --------- -- ---- -------<br>-- --------- ------ --- ----- ------ ---- --- --------- --<br>------ - ---- -- --- ----------- ------- ---- ----- -----<br>--- -------- - ------ ---- -- ----- ---- --- --- -----------<br>-- -------,145203.69999998808,145202.90000003576,144884.425,144900.10000002384,144901.097,145217.672,,9,observing
screen,html.Screen,0_4_1_0_1_10,2021-12-10T10:03:26.234Z,,,,,,,,,,,,,,,,2,,,,,,,,,,,,,,305.2280000357714,,response,,,1,A,,,,,Space,keypress(Space),,,,silence,--- ---- ------ --- ------- ---------- ------- ----------<br>--- --------- the ----------- ------- ----- ------- ---<br>--------- ---- -- --- ---- -- --------- -- ---- -------<br>-- --------- ------ --- ----- ------ ---- --- --------- --<br>------ - ---- -- --- ----------- ------- ---- ----- -----<br>--- -------- - ------ ---- -- ----- ---- --- --- -----------<br>-- -------,145525.19999998808,145522.90000003576,145201.004,145204.10000002384,145217.672,145534.595,,10,the
screen,html.Screen,0_4_1_0_1_11,2021-12-10T10:03:26.513Z,,,,,,,,,,,,,,,,2,,,,,,,,,,,,,,268.3050000357616,,response,,,1,A,,,,,Space,keypress(Space),,,,silence,--- ---- ------ --- ------- ---------- ------- ----------<br>--- --------- --- interesting ------- ----- ------- ---<br>--------- ---- -- --- ---- -- --------- -- ---- -------<br>-- --------- ------ --- ----- ------ ---- --- --------- --<br>------ - ---- -- --- ----------- ------- ---- ----- -----<br>--- -------- - ------ ---- -- ----- ---- --- --- -----------<br>-- -------,145803.80000001192,145802.90000003576,145517.923,145525.60000002384,145534.595,145817.921,,11,interesting
screen,html.Screen,0_4_1_0_1_12,2021-12-10T10:03:26.825Z,,,,,,,,,,,,,,,,2,,,,,,,,,,,,,,297.0789999999979,,response,,,1,A,,,,,Space,keypress(Space),,,,silence,--- ---- ------ --- ------- ---------- ------- ----------<br>--- --------- --- ----------- sunspot ----- ------- ---<br>--------- ---- -- --- ---- -- --------- -- ---- -------<br>-- --------- ------ --- ----- ------ ---- --- --------- --<br>------ - ---- -- --- ----------- ------- ---- ----- -----<br>--- -------- - ------ ---- -- ----- ---- --- --- -----------<br>-- -------,146115.69999998808,146115,145801.251,145804,145817.921,146118.016,,12,sunspot
screen,html.Screen,0_4_1_0_1_13,2021-12-10T10:03:27.129Z,,,,,,,,,,,,,,,,2,,,,,,,,,,,,,,300.8840000357595,,response,,,1,A,,,,,Space,keypress(Space),,,,silence,--- ---- ------ --- ------- ---------- ------- ----------<br>--- --------- --- ----------- ------- group ------- ---<br>--------- ---- -- --- ---- -- --------- -- ---- -------<br>-- --------- ------ --- ----- ------ ---- --- --------- --<br>------ - ---- -- --- ----------- ------- ---- ----- -----<br>--- -------- - ------ ---- -- ----- ---- --- --- -----------<br>-- -------,146419.80000001192,146418.90000003576,146101.346,146116.10000002384,146118.016,146434.737,,13,group
screen,html.Screen,0_4_1_0_1_14,2021-12-10T10:03:27.433Z,,,,,,,,,,,,,,,,2,,,,,,,,,,,,,,288.1630000357691,,response,,,1,A,,,,,Space,keypress(Space),,,,silence,--- ---- ------ --- ------- ---------- ------- ----------<br>--- --------- --- ----------- ------- ----- through ---<br>--------- ---- -- --- ---- -- --------- -- ---- -------<br>-- --------- ------ --- ----- ------ ---- --- --------- --<br>------ - ---- -- --- ----------- ------- ---- ----- -----<br>--- -------- - ------ ---- -- ----- ---- --- --- -----------<br>-- -------,146723.80000001192,146722.90000003576,146418.067,146420,146434.737,146734.854,,14,through
screen,html.Screen,0_4_1_0_1_15,2021-12-10T10:03:27.761Z,,,,,,,,,,,,,,,,2,,,,,,,,,,,,,,316.0460000357707,,response,,,1,A,,,,,Space,keypress(Space),,,,silence,--- ---- ------ --- ------- ---------- ------- ----------<br>--- --------- --- ----------- ------- ----- ------- his<br>--------- ---- -- --- ---- -- --------- -- ---- -------<br>-- --------- ------ --- ----- ------ ---- --- --------- --<br>------ - ---- -- --- ----------- ------- ---- ----- -----<br>--- -------- - ------ ---- -- ----- ---- --- --- -----------<br>-- -------,147051.80000001192,147050.90000003576,146718.183,146724.10000002384,146734.854,147068.038,,15,his
screen,html.Screen,0_4_1_0_1_16,2021-12-10T10:03:28.089Z,,,,,,,,,,,,,,,,2,,,,,,,,,,,,,,310.76200001192046,,response,,,1,A,,,,,Space,keypress(Space),,,,silence,--- ---- ------ --- ------- ---------- ------- ----------<br>--- --------- --- ----------- ------- ----- ------- ---<br>telescope ---- -- --- ---- -- --------- -- ---- -------<br>-- --------- ------ --- ----- ------ ---- --- --------- --<br>------ - ---- -- --- ----------- ------- ---- ----- -----<br>--- -------- - ------ ---- -- ----- ---- --- --- -----------<br>-- -------,147379.69999998808,147378.80000001192,147051.372,147052,147068.038,147385.042,,16,telescope
screen,html.Screen,0_4_1_0_1_17,2021-12-10T10:03:28.416Z,,,,,,,,,,,,,,,,2,,,,,,,,,,,,,,321.7580000119342,,response,,,1,A,,,,,Space,keypress(Space),,,,silence,--- ---- ------ --- ------- ---------- ------- ----------<br>--- --------- --- ----------- ------- ----- ------- ---<br>--------- when -- --- ---- -- --------- -- ---- -------<br>-- --------- ------ --- ----- ------ ---- --- --------- --<br>------ - ---- -- --- ----------- ------- ---- ----- -----<br>--- -------- - ------ ---- -- ----- ---- --- --- -----------<br>-- -------,147707.60000002384,147706.80000001192,147368.37,147380,147385.042,147718.443,,17,when
screen,html.Screen,0_4_1_0_1_18,2021-12-10T10:03:28.753Z,,,,,,,,,,,,,,,,2,,,,,,,,,,,,,,324.3570000119216,,response,,,1,A,,,,,Space,keypress(Space),,,,silence,--- ---- ------ --- ------- ---------- ------- ----------<br>--- --------- --- ----------- ------- ----- ------- ---<br>--------- ---- he --- ---- -- --------- -- ---- -------<br>-- --------- ------ --- ----- ------ ---- --- --------- --<br>------ - ---- -- --- ----------- ------- ---- ----- -----<br>--- -------- - ------ ---- -- ----- ---- --- --- -----------<br>-- -------,148043.69999998808,148042.80000001192,147701.772,147707.80000001192,147718.443,148051.797,,18,he
screen,html.Screen,0_4_1_0_1_19,2021-12-10T10:03:29.056Z,,,,,,,,,,,,,,,,2,,,,,,,,,,,,,,294.9029999880877,,response,,,1,A,,,,,Space,keypress(Space),,,,silence,--- ---- ------ --- ------- ---------- ------- ----------<br>--- --------- --- ----------- ------- ----- ------- ---<br>--------- ---- -- saw ---- -- --------- -- ---- -------<br>-- --------- ------ --- ----- ------ ---- --- --------- --<br>------ - ---- -- --- ----------- ------- ---- ----- -----<br>--- -------- - ------ ---- -- ----- ---- --- --- -----------<br>-- -------,148347.60000002384,148346.69999998808,148035.127,148044,148051.797,148351.92,,19,saw
screen,html.Screen,0_4_1_0_1_20,2021-12-10T10:03:29.368Z,,,,,,,,,,,,,,,,2,,,,,,,,,,,,,,306.77999998806627,,response,,,1,A,,,,,Space,keypress(Space),,,,silence,--- ---- ------ --- ------- ---------- ------- ----------<br>--- --------- --- ----------- ------- ----- ------- ---<br>--------- ---- -- --- what -- --------- -- ---- -------<br>-- --------- ------ --- ----- ------ ---- --- --------- --<br>------ - ---- -- --- ----------- ------- ---- ----- -----<br>--- -------- - ------ ---- -- ----- ---- --- --- -----------<br>-- -------,148659.60000002384,148658.69999998808,148335.249,148347.90000003576,148351.92,148668.624,,20,what
screen,html.Screen,0_4_1_0_1_21,2021-12-10T10:03:29.664Z,,,,,,,,,,,,,,,,2,,,,,,,,,,,,,,286.07599998806836,,response,,,1,A,,,,,Space,keypress(Space),,,,silence,--- ---- ------ --- ------- ---------- ------- ----------<br>--- --------- --- ----------- ------- ----- ------- ---<br>--------- ---- -- --- ---- he --------- -- ---- -------<br>-- --------- ------ --- ----- ------ ---- --- --------- --<br>------ - ---- -- --- ----------- ------- ---- ----- -----<br>--- -------- - ------ ---- -- ----- ---- --- --- -----------<br>-- -------,148955.60000002384,148954.69999998808,148651.954,148659.90000003576,148668.624,148968.691,,21,he
screen,html.Screen,0_4_1_0_1_22,2021-12-10T10:03:29.969Z,,,,,,,,,,,,,,,,2,,,,,,,,,,,,,,290.00899998808745,,response,,,1,A,,,,,Space,keypress(Space),,,,silence,--- ---- ------ --- ------- ---------- ------- ----------<br>--- --------- --- ----------- ------- ----- ------- ---<br>--------- ---- -- --- ---- -- described -- ---- -------<br>-- --------- ------ --- ----- ------ ---- --- --------- --<br>------ - ---- -- --- ----------- ------- ---- ----- -----<br>--- -------- - ------ ---- -- ----- ---- --- --- -----------<br>-- -------,149259.69999998808,149258.69999998808,148952.021,148955.80000001192,148968.691,149268.766,,22,described
screen,html.Screen,0_4_1_0_1_23,2021-12-10T10:03:30.272Z,,,,,,,,,,,,,,,,2,,,,,,,,,,,,,,293.9339999880758,,response,,,1,A,,,,,Space,keypress(Space),,,,silence,--- ---- ------ --- ------- ---------- ------- ----------<br>--- --------- --- ----------- ------- ----- ------- ---<br>--------- ---- -- --- ---- -- --------- as ---- -------<br>-- --------- ------ --- ----- ------ ---- --- --------- --<br>------ - ---- -- --- ----------- ------- ---- ----- -----<br>--- -------- - ------ ---- -- ----- ---- --- --- -----------<br>-- -------,149563.69999998808,149562.69999998808,149252.096,149260,149268.766,149568.876,,23,as
screen,html.Screen,0_4_1_0_1_24,2021-12-10T10:03:30.608Z,,,,,,,,,,,,,,,,2,,,,,,,,,,,,,,329.8239999880898,,response,,,1,A,,,,,Space,keypress(Space),,,,silence,"--- ---- ------ --- ------- ---------- ------- ----------<br>--- --------- --- ----------- ------- ----- ------- ---<br>--------- ---- -- --- ---- -- --------- -- ""two -------<br>-- --------- ------ --- ----- ------ ---- --- --------- --<br>------ - ---- -- --- ----------- ------- ---- ----- -----<br>--- -------- - ------ ---- -- ----- ---- --- --- -----------<br>-- -------",149899.69999998808,149898.69999998808,149552.205,149563.90000003576,149568.876,149902.246,,24,"""two"
screen,html.Screen,0_4_1_0_1_25,2021-12-10T10:03:30.912Z,,,,,,,,,,,,,,,,2,,,,,,,,,,,,,,300.45399998806533,,response,,,1,A,,,,,Space,keypress(Space),,,,silence,--- ---- ------ --- ------- ---------- ------- ----------<br>--- --------- --- ----------- ------- ----- ------- ---<br>--------- ---- -- --- ---- -- --------- -- ---- patches<br>-- --------- ------ --- ----- ------ ---- --- --------- --<br>------ - ---- -- --- ----------- ------- ---- ----- -----<br>--- -------- - ------ ---- -- ----- ---- --- --- -----------<br>-- -------,150203.60000002384,150202.69999998808,149885.576,149900,149902.246,150219.01,,25,patches
screen,html.Screen,0_4_1_0_1_26,2021-12-10T10:03:31.208Z,,,,,,,,,,,,,,,,2,,,,,,,,,,,,,,279.59000002383254,,response,,,1,A,,,,,Space,keypress(Space),,,,silence,--- ---- ------ --- ------- ---------- ------- ----------<br>--- --------- --- ----------- ------- ----- ------- ---<br>--------- ---- -- --- ---- -- --------- -- ---- -------<br>of --------- ------ --- ----- ------ ---- --- --------- --<br>------ - ---- -- --- ----------- ------- ---- ----- -----<br>--- -------- - ------ ---- -- ----- ---- --- --- -----------<br>-- -------,150499.5,150498.60000002384,150202.34,150203.80000001192,150219.01,150502.312,,26,of
screen,html.Screen,0_4_1_0_1_27,2021-12-10T10:03:31.544Z,,,,,,,,,,,,,,,,2,,,,,,,,,,,,,,332.2880000238365,,response,,,1,A,,,,,Space,keypress(Space),,,,silence,--- ---- ------ --- ------- ---------- ------- ----------<br>--- --------- --- ----------- ------- ----- ------- ---<br>--------- ---- -- --- ---- -- --------- -- ---- -------<br>-- intensely ------ --- ----- ------ ---- --- --------- --<br>------ - ---- -- --- ----------- ------- ---- ----- -----<br>--- -------- - ------ ---- -- ----- ---- --- --- -----------<br>-- -------,150835.40000003576,150834.60000002384,150485.644,150499.69999998808,150502.312,150852.522,,27,intensely
screen,html.Screen,0_4_1_0_1_28,2021-12-10T10:03:31.864Z,,,,,,,,,,,,,,,,2,,,,,,,,,,,,,,302.07800002384465,,response,,,1,A,,,,,Space,keypress(Space),,,,silence,--- ---- ------ --- ------- ---------- ------- ----------<br>--- --------- --- ----------- ------- ----- ------- ---<br>--------- ---- -- --- ---- -- --------- -- ---- -------<br>-- --------- bright --- ----- ------ ---- --- --------- --<br>------ - ---- -- --- ----------- ------- ---- ----- -----<br>--- -------- - ------ ---- -- ----- ---- --- --- -----------<br>-- -------,151155.5,151154.60000002384,150835.851,150835.69999998808,150852.522,151169.229,,28,bright
screen,html.Screen,0_4_1_0_1_29,2021-12-10T10:03:32.176Z,,,,,,,,,,,,,,,,2,,,,,,,,,,,,,,297.2710000000079,,response,,,1,A,,,,,Space,keypress(Space),,,,silence,--- ---- ------ --- ------- ---------- ------- ----------<br>--- --------- --- ----------- ------- ----- ------- ---<br>--------- ---- -- --- ---- -- --------- -- ---- -------<br>-- --------- ------ and ----- ------ ---- --- --------- --<br>------ - ---- -- --- ----------- ------- ---- ----- -----<br>--- -------- - ------ ---- -- ----- ---- --- --- -----------<br>-- -------,151467.60000002384,151466.5,151152.559,151155.60000002384,151169.229,151469.233,,29,and
screen,html.Screen,0_4_1_0_1_30,2021-12-10T10:03:32.488Z,,,,,,,,,,,,,,,,2,,,,,,,,,,,,,,309.26699999999255,,response,,,1,A,,,,,Space,keypress(Space),,,,silence,--- ---- ------ --- ------- ---------- ------- ----------<br>--- --------- --- ----------- ------- ----- ------- ---<br>--------- ---- -- --- ---- -- --------- -- ---- -------<br>-- --------- ------ --- white ------ ---- --- --------- --<br>------ - ---- -- --- ----------- ------- ---- ----- -----<br>--- -------- - ------ ---- -- ----- ---- --- --- -----------<br>-- -------,151779.5,151778.5,151452.564,151467.90000003576,151469.233,151785.973,,30,white
screen,html.Screen,0_4_1_0_1_31,2021-12-10T10:03:32.800Z,,,,,,,,,,,,,,,,2,,,,,,,,,,,,,,304.52700000000186,,response,,,1,A,,,,,Space,keypress(Space),,,,silence,"--- ---- ------ --- ------- ---------- ------- ----------<br>--- --------- --- ----------- ------- ----- ------- ---<br>--------- ---- -- --- ---- -- --------- -- ---- -------<br>-- --------- ------ --- ----- light"" ---- --- --------- --<br>------ - ---- -- --- ----------- ------- ---- ----- -----<br>--- -------- - ------ ---- -- ----- ---- --- --- -----------<br>-- -------",152091.40000003576,152090.5,151769.304,151779.69999998808,151785.973,152102.903,,31,"light"""
screen,html.Screen,0_4_1_0_1_32,2021-12-10T10:03:33.089Z,,,,,,,,,,,,,,,,2,,,,,,,,,,,,,,276.09700000000885,,response,,,1,A,,,,,Space,keypress(Space),,,,silence,--- ---- ------ --- ------- ---------- ------- ----------<br>--- --------- --- ----------- ------- ----- ------- ---<br>--------- ---- -- --- ---- -- --------- -- ---- -------<br>-- --------- ------ --- ----- ------ over --- --------- --<br>------ - ---- -- --- ----------- ------- ---- ----- -----<br>--- -------- - ------ ---- -- ----- ---- --- --- -----------<br>-- -------,152379.90000003576,152379,152086.23,152091.69999998808,152102.903,152386.185,,32,over
screen,html.Screen,0_4_1_0_1_33,2021-12-10T10:03:33.400Z,,,,,,,,,,,,,,,,2,,,,,,,,,,,,,,304.3150000000023,,response,,,1,A,,,,,Space,keypress(Space),,,,silence,--- ---- ------ --- ------- ---------- ------- ----------<br>--- --------- --- ----------- ------- ----- ------- ---<br>--------- ---- -- --- ---- -- --------- -- ---- -------<br>-- --------- ------ --- ----- ------ ---- the --------- --<br>------ - ---- -- --- ----------- ------- ---- ----- -----<br>--- -------- - ------ ---- -- ----- ---- --- --- -----------<br>-- -------,152691.30000001192,152690.5,152369.515,152380.30000001192,152386.185,152702.938,,33,the
screen,html.Screen,0_4_1_0_1_34,2021-12-10T10:03:33.688Z,,,,,,,,,,,,,,,,2,,,,,,,,,,,,,,275.46200003576814,,response,,,1,A,,,,,Space,keypress(Space),,,,silence,--- ---- ------ --- ------- ---------- ------- ----------<br>--- --------- --- ----------- ------- ----- ------- ---<br>--------- ---- -- --- ---- -- --------- -- ---- -------<br>-- --------- ------ --- ----- ------ ---- --- sunspots. --<br>------ - ---- -- --- ----------- ------- ---- ----- -----<br>--- -------- - ------ ---- -- ----- ---- --- --- -----------<br>-- -------,152979.30000001192,152978.40000003576,152686.268,152691.5,152702.938,152986.353,,34,sunspots.
screen,html.Screen,0_4_1_0_1_35,2021-12-10T10:03:34.016Z,,,,,,,,,,,,,,,,2,,,,,,,,,,,,,,320.04700003576,,response,,,1,A,,,,,Space,keypress(Space),,,,silence,--- ---- ------ --- ------- ---------- ------- ----------<br>--- --------- --- ----------- ------- ----- ------- ---<br>--------- ---- -- --- ---- -- --------- -- ---- -------<br>-- --------- ------ --- ----- ------ ---- --- --------- He<br>------ - ---- -- --- ----------- ------- ---- ----- -----<br>--- -------- - ------ ---- -- ----- ---- --- --- -----------<br>-- -------,153307.30000001192,153306.40000003576,152969.683,152979.5,152986.353,153319.76,,35,He
screen,html.Screen,0_4_1_0_1_36,2021-12-10T10:03:34.488Z,,,,,,,,,,,,,,,,2,,,,,,,,,,,,,,458.6400000357535,,response,,,1,A,,,,,Space,keypress(Space),,,,silence,--- ---- ------ --- ------- ---------- ------- ----------<br>--- --------- --- ----------- ------- ----- ------- ---<br>--------- ---- -- --- ---- -- --------- -- ---- -------<br>-- --------- ------ --- ----- ------ ---- --- --------- --<br>jotted - ---- -- --- ----------- ------- ---- ----- -----<br>--- -------- - ------ ---- -- ----- ---- --- --- -----------<br>-- -------,153779.19999998808,153778.40000003576,153303.09,153307.5,153319.76,153786.522,,36,jotted
screen,html.Screen,0_4_1_0_1_37,2021-12-10T10:03:34.808Z,,,,,,,,,,,,,,,,2,,,,,,,,,,,,,,311.8780000357656,,response,,,1,A,,,,,Space,keypress(Space),,,,silence,--- ---- ------ --- ------- ---------- ------- ----------<br>--- --------- --- ----------- ------- ----- ------- ---<br>--------- ---- -- --- ---- -- --------- -- ---- -------<br>-- --------- ------ --- ----- ------ ---- --- --------- --<br>------ a ---- -- --- ----------- ------- ---- ----- -----<br>--- -------- - ------ ---- -- ----- ---- --- --- -----------<br>-- -------,154099.19999998808,154098.40000003576,153769.852,153779.5,153786.522,154103.276,,37,a
screen,html.Screen,0_4_1_0_1_38,2021-12-10T10:03:35.144Z,,,,,,,,,,,,,,,,2,,,,,,,,,,,,,,331.02400001190836,,response,,,1,A,,,,,Space,keypress(Space),,,,silence,--- ---- ------ --- ------- ---------- ------- ----------<br>--- --------- --- ----------- ------- ----- ------- ---<br>--------- ---- -- --- ---- -- --------- -- ---- -------<br>-- --------- ------ --- ----- ------ ---- --- --------- --<br>------ - note -- --- ----------- ------- ---- ----- -----<br>--- -------- - ------ ---- -- ----- ---- --- --- -----------<br>-- -------,154435.10000002384,154434.30000001192,154086.606,154099.5,154103.276,154436.736,,38,note
screen,html.Screen,0_4_1_0_1_39,2021-12-10T10:03:35.464Z,,,,,,,,,,,,,,,,2,,,,,,,,,,,,,,317.5640000119165,,response,,,1,A,,,,,Space,keypress(Space),,,,silence,--- ---- ------ --- ------- ---------- ------- ----------<br>--- --------- --- ----------- ------- ----- ------- ---<br>--------- ---- -- --- ---- -- --------- -- ---- -------<br>-- --------- ------ --- ----- ------ ---- --- --------- --<br>------ - ---- in --- ----------- ------- ---- ----- -----<br>--- -------- - ------ ---- -- ----- ---- --- --- -----------<br>-- -------,154755.19999998808,154754.30000001192,154420.065,154435.40000003576,154436.736,154770.099,,39,in
screen,html.Screen,0_4_1_0_1_40,2021-12-10T10:03:35.792Z,,,,,,,,,,,,,,,,2,,,,,,,,,,,,,,312.2010000119335,,response,,,1,A,,,,,Space,keypress(Space),,,,silence,--- ---- ------ --- ------- ---------- ------- ----------<br>--- --------- --- ----------- ------- ----- ------- ---<br>--------- ---- -- --- ---- -- --------- -- ---- -------<br>-- --------- ------ --- ----- ------ ---- --- --------- --<br>------ - ---- -- his ----------- ------- ---- ----- -----<br>--- -------- - ------ ---- -- ----- ---- --- --- -----------<br>-- -------,155083.19999998808,155082.30000001192,154753.429,154755.40000003576,154770.099,155086.867,,40,his
screen,html.Screen,0_4_1_0_1_41,2021-12-10T10:03:36.120Z,,,,,,,,,,,,,,,,2,,,,,,,,,,,,,,323.3329999880807,,response,,,1,A,,,,,Space,keypress(Space),,,,silence,--- ---- ------ --- ------- ---------- ------- ----------<br>--- --------- --- ----------- ------- ----- ------- ---<br>--------- ---- -- --- ---- -- --------- -- ---- -------<br>-- --------- ------ --- ----- ------ ---- --- --------- --<br>------ - ---- -- --- painstaking ------- ---- ----- -----<br>--- -------- - ------ ---- -- ----- ---- --- --- -----------<br>-- -------,155411.10000002384,155410.19999998808,155070.197,155083.40000003576,155086.867,155420.256,,41,painstaking
screen,html.Screen,0_4_1_0_1_42,2021-12-10T10:03:36.488Z,,,,,,,,,,,,,,,,2,,,,,,,,,,,,,,358.044000011927,,response,,,1,A,,,,,Space,keypress(Space),,,,silence,--- ---- ------ --- ------- ---------- ------- ----------<br>--- --------- --- ----------- ------- ----- ------- ---<br>--------- ---- -- --- ---- -- --------- -- ---- -------<br>-- --------- ------ --- ----- ------ ---- --- --------- --<br>------ - ---- -- --- ----------- record. ---- ----- -----<br>--- -------- - ------ ---- -- ----- ---- --- --- -----------<br>-- -------,155779.10000002384,155778.30000001192,155403.586,155411.40000003576,155420.256,155786.941,,42,record.
screen,html.Screen,0_4_1_0_1_43,2021-12-10T10:03:36.887Z,,,,,,,,,,,,,,,,2,,,,,,,,,,,,,,390.8590000119293,,response,,,1,A,,,,,Space,keypress(Space),,,,silence,--- ---- ------ --- ------- ---------- ------- ----------<br>--- --------- --- ----------- ------- ----- ------- ---<br>--------- ---- -- --- ---- -- --------- -- ---- -------<br>-- --------- ------ --- ----- ------ ---- --- --------- --<br>------ - ---- -- --- ----------- ------- That ----- -----<br>--- -------- - ------ ---- -- ----- ---- --- --- -----------<br>-- -------,156178.19999998808,156177.80000001192,155770.272,155779.40000003576,155786.941,156187.199,,43,That
screen,html.Screen,0_4_1_0_1_44,2021-12-10T10:03:37.272Z,,,,,,,,,,,,,,,,2,,,,,,,,,,,,,,375.0009999880858,,response,,,1,A,,,,,Space,keypress(Space),,,,silence,--- ---- ------ --- ------- ---------- ------- ----------<br>--- --------- --- ----------- ------- ----- ------- ---<br>--------- ---- -- --- ---- -- --------- -- ---- -------<br>-- --------- ------ --- ----- ------ ---- --- --------- --<br>------ - ---- -- --- ----------- ------- ---- night -----<br>--- -------- - ------ ---- -- ----- ---- --- --- -----------<br>-- -------,156563,156562.19999998808,156170.527,156178.40000003576,156187.199,156570.401,,44,night
screen,html.Screen,0_4_1_0_1_45,2021-12-10T10:03:37.704Z,,,,,,,,,,,,,,,,2,,,,,,,,,,,,,,423.7989999880665,,response,,,1,A,,,,,Space,keypress(Space),,,,silence,--- ---- ------ --- ------- ---------- ------- ----------<br>--- --------- --- ----------- ------- ----- ------- ---<br>--------- ---- -- --- ---- -- --------- -- ---- -------<br>-- --------- ------ --- ----- ------ ---- --- --------- --<br>------ - ---- -- --- ----------- ------- ---- ----- there<br>--- -------- - ------ ---- -- ----- ---- --- --- -----------<br>-- -------,156995,156994.19999998808,156553.733,156563.30000001192,156570.401,157003.914,,45,there
screen,html.Screen,0_4_1_0_1_46,2021-12-10T10:03:38.072Z,,,,,,,,,,,,,,,,2,,,,,,,,,,,,,,358.1860000238521,,response,,,1,A,,,,,Space,keypress(Space),,,,silence,--- ---- ------ --- ------- ---------- ------- ----------<br>--- --------- --- ----------- ------- ----- ------- ---<br>--------- ---- -- --- ---- -- --------- -- ---- -------<br>-- --------- ------ --- ----- ------ ---- --- --------- --<br>------ - ---- -- --- ----------- ------- ---- ----- -----<br>was -------- - ------ ---- -- ----- ---- --- --- -----------<br>-- -------,157363,157362.10000002384,156987.244,156995.30000001192,157003.914,157370.82,,46,was
screen,html.Screen,0_4_1_0_1_47,2021-12-10T10:03:38.448Z,,,,,,,,,,,,,,,,2,,,,,,,,,,,,,,367.2800000238349,,response,,,1,A,,,,,Space,keypress(Space),,,,silence,--- ---- ------ --- ------- ---------- ------- ----------<br>--- --------- --- ----------- ------- ----- ------- ---<br>--------- ---- -- --- ---- -- --------- -- ---- -------<br>-- --------- ------ --- ----- ------ ---- --- --------- --<br>------ - ---- -- --- ----------- ------- ---- ----- -----<br>--- scarcely - ------ ---- -- ----- ---- --- --- -----------<br>-- -------,157739,157738.10000002384,157354.148,157363.40000003576,157370.82,157754.023,,47,scarcely
screen,html.Screen,0_4_1_0_1_48,2021-12-10T10:03:38.792Z,,,,,,,,,,,,,,,,2,,,,,,,,,,,,,,328.07700002385536,,response,,,1,A,,,,,Space,keypress(Space),,,,silence,--- ---- ------ --- ------- ---------- ------- ----------<br>--- --------- --- ----------- ------- ----- ------- ---<br>--------- ---- -- --- ---- -- --------- -- ---- -------<br>-- --------- ------ --- ----- ------ ---- --- --------- --<br>------ - ---- -- --- ----------- ------- ---- ----- -----<br>--- -------- a ------ ---- -- ----- ---- --- --- -----------<br>-- -------,158083,158082.10000002384,157737.355,157739.19999998808,157754.023,158087.584,,48,a
screen,html.Screen,0_4_1_0_1_49,2021-12-10T10:03:39.136Z,,,,,,,,,,,,,,,,2,,,,,,,,,,,,,,338.41599999999744,,response,,,1,A,,,,,Space,keypress(Space),,,,silence,--- ---- ------ --- ------- ---------- ------- ----------<br>--- --------- --- ----------- ------- ----- ------- ---<br>--------- ---- -- --- ---- -- --------- -- ---- -------<br>-- --------- ------ --- ----- ------ ---- --- --------- --<br>------ - ---- -- --- ----------- ------- ---- ----- -----<br>--- -------- - square ---- -- ----- ---- --- --- -----------<br>-- -------,158426.90000003576,158426,158070.913,158083.19999998808,158087.584,158437.708,,49,square
