sender,sender_type,sender_id,timestamp,meta,,Blues,Classical,Country,Dance,Electronic,Folk,Gospel,Hip-Hop,Jazz,Latin,Musical/Film,New-age,Pop,Provo_ID,R&B,Rap,Reggae,Religious,Rock,Soul,Swing,Traditional,age,artist_name,correct,correctResponse,distraction,duration,education,ended_on,familiarity,gender,item,list,music_frequency,offensiveness,pleasantness,preference,response,response_action,snippet_file,song_name,song_rating,sound,text,time_commit,time_end,time_render,time_run,time_show,time_switch,url,word,word_ID
Instructions,html.Page,0_0,2021-12-02T12:05:42.796Z,"{""labjs_version"":""20.2.3"",""labjs_build"":{""flavor"":""production"",""commit"":""7ea907d66ca8aeef8054924ca5d82ffbe11e34e5""},""location"":""https://run.pavlovia.org/mvasilev/lab_music_e/"",""userAgent"":""Mozilla/5.0 (Windows NT 6.1; Win64; x64) AppleWebKit/537.36 (KHTML, like Gecko) Chrome/96.0.4664.45 Safari/537.36"",""platform"":""Win32"",""language"":""en-US"",""locale"":""en-US"",""timeZone"":""Europe/London"",""timezoneOffset"":0,""screen_width"":1920,""screen_height"":1080,""scroll_width"":1920,""scroll_height"":959,""window_innerWidth"":1920,""window_innerHeight"":1007,""devicePixelRatio"":1}",,,,,,,,,,,,,,,,,,,,,,,,,,,,,34658.80899997616,,form submission,,,,,,,,,,,,,,,,44214.80000001192,44213.89999997616,9521.761,9536.399999976158,9555.091,44221.077,{},,
Headphones,html.Page,0_1,2021-12-02T12:05:46.324Z,,,,,,,,,,,,,,,,,,,,,,,,,,,,,,3521.7230000119234,,form submission,,,,,,,,,,,,,,,,47743.19999998808,47742.80000001192,44204.4,44215.30000001192,44221.077,47753.588,,,
Holding screen,html.Screen,0_2_0_0,2021-12-02T12:05:56.322Z,,,,,,,,,,,,,,,,,,,,,,,,,,,,,,10000.068999999996,,timeout,,,,,,,,,,,,,,,,57740.69999998808,57736.991,47736.925,47743.59999996424,47753.588,57753.657,,,
screen,html.Screen,0_2_0_1_0,2021-12-02T12:05:57.612Z,,,,,,,,,,,,,,,,53,,,,,,,,,,,,,,1276.742999976159,,response,,,99,,,,,,Space,keypress(Space),,,,,When -- ----- -- ------ - ------- --- ----------<br>------------- ------ ------ ---- ---- ------- ----- -- ----<br>-------- ------- -- ---------- --- - --- ----- ----- ----<br>---- --- --- ----- --- ---- ---- ------- ----- ---- -------<br>--- --- -- ----- -- --- ---- -- --- ---- -- ------ ------<br>--- ----- -- ----,59031.39999997616,59030.39999997616,57736.991,57741,57753.657,59036.983,,0,When
screen,html.Screen,0_2_0_1_1,2021-12-02T12:05:58.637Z,,,,,,,,,,,,,,,,53,,,,,,,,,,,,,,1017.0169999999998,,response,,,99,,,,,,Space,keypress(Space),,,,,---- it ----- -- ------ - ------- --- ----------<br>------------- ------ ------ ---- ---- ------- ----- -- ----<br>-------- ------- -- ---------- --- - --- ----- ----- ----<br>---- --- --- ----- --- ---- ---- ------- ----- ---- -------<br>--- --- -- ----- -- --- ---- -- --- ---- -- ------ ------<br>--- ----- -- ----,60054.80000001192,60054,59020.317,59031.69999998808,59036.983,60070.176,,1,it
screen,html.Screen,0_2_0_1_2,2021-12-02T12:05:59.485Z,,,,,,,,,,,,,,,,53,,,,,,,,,,,,,,831.9239999642377,,response,,,99,,,,,,Space,keypress(Space),,,,,---- -- comes -- ------ - ------- --- ----------<br>------------- ------ ------ ---- ---- ------- ----- -- ----<br>-------- ------- -- ---------- --- - --- ----- ----- ----<br>---- --- --- ----- --- ---- ---- ------- ----- ---- -------<br>--- --- -- ----- -- --- ---- -- --- ---- -- ------ ------<br>--- ----- -- ----,60902.80000001192,60902.09999996424,60053.511,60055,60070.176,60920.157,,2,comes
screen,html.Screen,0_2_0_1_3,2021-12-02T12:06:00.037Z,,,,,,,,,,,,,,,,53,,,,,,,,,,,,,,533.8430000000008,,response,,,99,,,,,,Space,keypress(Space),,,,,---- -- ----- to ------ - ------- --- ----------<br>------------- ------ ------ ---- ---- ------- ----- -- ----<br>-------- ------- -- ---------- --- - --- ----- ----- ----<br>---- --- --- ----- --- ---- ---- ------- ----- ---- -------<br>--- --- -- ----- -- --- ---- -- --- ---- -- ------ ------<br>--- ----- -- ----,61454.80000001192,61454,60903.492,60902.89999997616,60920.157,61470.142,,3,to
screen,html.Screen,0_2_0_1_4,2021-12-02T12:06:00.917Z,,,,,,,,,,,,,,,,53,,,,,,,,,,,,,,863.8580000000002,,response,,,99,,,,,,Space,keypress(Space),,,,,---- -- ----- -- having - ------- --- ----------<br>------------- ------ ------ ---- ---- ------- ----- -- ----<br>-------- ------- -- ---------- --- - --- ----- ----- ----<br>---- --- --- ----- --- ---- ---- ------- ----- ---- -------<br>--- --- -- ----- -- --- ---- -- --- ---- -- ------ ------<br>--- ----- -- ----,62334.89999997616,62334,61453.477,61455.19999998808,61470.142,62336.759,,4,having
screen,html.Screen,0_2_0_1_5,2021-12-02T12:06:01.781Z,,,,,,,,,,,,,,,,53,,,,,,,,,,,,,,861.340999964239,,response,,,99,,,,,,Space,keypress(Space),,,,,---- -- ----- -- ------ a ------- --- ----------<br>------------- ------ ------ ---- ---- ------- ----- -- ----<br>-------- ------- -- ---------- --- - --- ----- ----- ----<br>---- --- --- ----- --- ---- ---- ------- ----- ---- -------<br>--- --- -- ----- -- --- ---- -- --- ---- -- ------ ------<br>--- ----- -- ----,63198.80000001192,63198.09999996424,62320.094,62335.19999998808,62336.759,63203.47,,5,a
screen,html.Screen,0_2_0_1_6,2021-12-02T12:06:02.301Z,,,,,,,,,,,,,,,,53,,,,,,,,,,,,,,514.5299999999988,,response,,,99,,,,,,Space,keypress(Space),,,,,---- -- ----- -- ------ - lasting --- ----------<br>------------- ------ ------ ---- ---- ------- ----- -- ----<br>-------- ------- -- ---------- --- - --- ----- ----- ----<br>---- --- --- ----- --- ---- ---- ------- ----- ---- -------<br>--- --- -- ----- -- --- ---- -- --- ---- -- ------ ------<br>--- ----- -- ----,63718.69999998808,63718,63186.804,63199.09999996424,63203.47,63720.077,,6,lasting
screen,html.Screen,0_2_0_1_7,2021-12-02T12:06:03.069Z,,,,,,,,,,,,,,,,53,,,,,,,,,,,,,,765.9230000000025,,response,,,99,,,,,,Space,keypress(Space),,,,,---- -- ----- -- ------ - ------- and ----------<br>------------- ------ ------ ---- ---- ------- ----- -- ----<br>-------- ------- -- ---------- --- - --- ----- ----- ----<br>---- --- --- ----- --- ---- ---- ------- ----- ---- -------<br>--- --- -- ----- -- --- ---- -- --- ---- -- ------ ------<br>--- ----- -- ----,64486.69999998808,64486,63703.412,63718.89999997616,63720.077,64503.367,,7,and
screen,html.Screen,0_2_0_1_8,2021-12-02T12:06:03.957Z,,,,,,,,,,,,,,,,53,,,,,,,,,,,,,,870.5329999761598,,response,,,99,,,,,,Space,keypress(Space),,,,,---- -- ----- -- ------ - ------- --- fulfilling<br>------------- ------ ------ ---- ---- ------- ----- -- ----<br>-------- ------- -- ---------- --- - --- ----- ----- ----<br>---- --- --- ----- --- ---- ---- ------- ----- ---- -------<br>--- --- -- ----- -- --- ---- -- --- ---- -- ------ ------<br>--- ----- -- ----,65374.69999998808,65373.89999997616,64486.702,64486.80000001192,64503.367,65386.726,,8,fulfilling
screen,html.Screen,0_2_0_1_9,2021-12-02T12:06:04.797Z,,,,,,,,,,,,,,,,53,,,,,,,,,,,,,,827.1739999761558,,response,,,99,,,,,,Space,keypress(Space),,,,,"---- -- ----- -- ------ - ------- --- ----------<br>relationship, ------ ------ ---- ---- ------- ----- -- ----<br>-------- ------- -- ---------- --- - --- ----- ----- ----<br>---- --- --- ----- --- ---- ---- ------- ----- ---- -------<br>--- --- -- ----- -- --- ---- -- --- ---- -- ------ ------<br>--- ----- -- ----",66214.69999998808,66213.89999997616,65370.06,65374.89999997616,65386.726,66219.897,,9,"relationship,"
screen,html.Screen,0_2_0_1_10,2021-12-02T12:06:05.693Z,,,,,,,,,,,,,,,,53,,,,,,,,,,,,,,890.0029999761609,,response,,,99,,,,,,Space,keypress(Space),,,,,---- -- ----- -- ------ - ------- --- ----------<br>------------- common ------ ---- ---- ------- ----- -- ----<br>-------- ------- -- ---------- --- - --- ----- ----- ----<br>---- --- --- ----- --- ---- ---- ------- ----- ---- -------<br>--- --- -- ----- -- --- ---- -- --- ---- -- ------ ------<br>--- ----- -- ----,67110.5,67109.89999997616,66203.232,66214.80000001192,66219.897,67119.886,,10,common
screen,html.Screen,0_2_0_1_11,2021-12-02T12:06:06.301Z,,,,,,,,,,,,,,,,53,,,,,,,,,,,,,,598.0139999761595,,response,,,99,,,,,,Space,keypress(Space),,,,,---- -- ----- -- ------ - ------- --- ----------<br>------------- ------ wisdom ---- ---- ------- ----- -- ----<br>-------- ------- -- ---------- --- - --- ----- ----- ----<br>---- --- --- ----- --- ---- ---- ------- ----- ---- -------<br>--- --- -- ----- -- --- ---- -- --- ---- -- ------ ------<br>--- ----- -- ----,67718.59999996424,67717.89999997616,67103.221,67110.69999998808,67119.886,67720.002,,11,wisdom
screen,html.Screen,0_2_0_1_12,2021-12-02T12:06:06.773Z,,,,,,,,,,,,,,,,53,,,,,,,,,,,,,,469.897999976165,,response,,,99,,,,,,Space,keypress(Space),,,,,---- -- ----- -- ------ - ------- --- ----------<br>------------- ------ ------ says ---- ------- ----- -- ----<br>-------- ------- -- ---------- --- - --- ----- ----- ----<br>---- --- --- ----- --- ---- ---- ------- ----- ---- -------<br>--- --- -- ----- -- --- ---- -- --- ---- -- ------ ------<br>--- ----- -- ----,68190.5,68189.89999997616,67703.336,67718.69999998808,67720.002,68203.252,,12,says
screen,html.Screen,0_2_0_1_13,2021-12-02T12:06:07.221Z,,,,,,,,,,,,,,,,53,,,,,,,,,,,,,,434.5480000119278,,response,,,99,,,,,,Space,keypress(Space),,,,,---- -- ----- -- ------ - ------- --- ----------<br>------------- ------ ------ ---- that ------- ----- -- ----<br>-------- ------- -- ---------- --- - --- ----- ----- ----<br>---- --- --- ----- --- ---- ---- ------- ----- ---- -------<br>--- --- -- ----- -- --- ---- -- --- ---- -- ------ ------<br>--- ----- -- ----,68638.5,68637.80000001192,68186.587,68190.69999998808,68203.252,68653.24,,13,that
screen,html.Screen,0_2_0_1_14,2021-12-02T12:06:08.149Z,,,,,,,,,,,,,,,,53,,,,,,,,,,,,,,912.7599999999948,,response,,,99,,,,,,Space,keypress(Space),,,,,---- -- ----- -- ------ - ------- --- ----------<br>------------- ------ ------ ---- ---- feeling ----- -- ----<br>-------- ------- -- ---------- --- - --- ----- ----- ----<br>---- --- --- ----- --- ---- ---- ------- ----- ---- -------<br>--- --- -- ----- -- --- ---- -- --- ---- -- ------ ------<br>--- ----- -- ----,69566.59999996424,69566,68636.575,68638.59999996424,68653.24,69569.837,,14,feeling
screen,html.Screen,0_2_0_1_15,2021-12-02T12:06:08.925Z,,,,,,,,,,,,,,,,53,,,,,,,,,,,,,,771.9630000119214,,response,,,99,,,,,,Space,keypress(Space),,,,,---- -- ----- -- ------ - ------- --- ----------<br>------------- ------ ------ ---- ---- ------- close -- ----<br>-------- ------- -- ---------- --- - --- ----- ----- ----<br>---- --- --- ----- --- ---- ---- ------- ----- ---- -------<br>--- --- -- ----- -- --- ---- -- --- ---- -- ------ ------<br>--- ----- -- ----,70342.39999997616,70341.80000001192,69553.172,69566.80000001192,69569.837,70353.211,,15,close
screen,html.Screen,0_2_0_1_16,2021-12-02T12:06:09.469Z,,,,,,,,,,,,,,,,53,,,,,,,,,,,,,,532.4889999880834,,response,,,99,,,,,,Space,keypress(Space),,,,,---- -- ----- -- ------ - ------- --- ----------<br>------------- ------ ------ ---- ---- ------- ----- to ----<br>-------- ------- -- ---------- --- - --- ----- ----- ----<br>---- --- --- ----- --- ---- ---- ------- ----- ---- -------<br>--- --- -- ----- -- --- ---- -- --- ---- -- ------ ------<br>--- ----- -- ----,70886.30000001192,70885.69999998808,70336.545,70342.5,70353.211,70903.144,,16,to
screen,html.Screen,0_2_0_1_17,2021-12-02T12:06:09.989Z,,,,,,,,,,,,,,,,53,,,,,,,,,,,,,,502.55599998807884,,response,,,99,,,,,,Space,keypress(Space),,,,,---- -- ----- -- ------ - ------- --- ----------<br>------------- ------ ------ ---- ---- ------- ----- -- your<br>-------- ------- -- ---------- --- - --- ----- ----- ----<br>---- --- --- ----- --- ---- ---- ------- ----- ---- -------<br>--- --- -- ----- -- --- ---- -- --- ---- -- ------ ------<br>--- ----- -- ----,71406.30000001192,71405.69999998808,70886.479,70886.5,70903.144,71419.794,,17,your
screen,html.Screen,0_2_0_1_18,2021-12-02T12:06:10.565Z,,,,,,,,,,,,,,,,53,,,,,,,,,,,,,,561.8059999642428,,response,,,99,,,,,,Space,keypress(Space),,,,,---- -- ----- -- ------ - ------- --- ----------<br>------------- ------ ------ ---- ---- ------- ----- -- ----<br>romantic ------- -- ---------- --- - --- ----- ----- ----<br>---- --- --- ----- --- ---- ---- ------- ----- ---- -------<br>--- --- -- ----- -- --- ---- -- --- ---- -- ------ ------<br>--- ----- -- ----,71982.19999998808,71981.59999996424,71403.129,71406.5,71419.794,71986.32,,18,romantic
screen,html.Screen,0_2_0_1_19,2021-12-02T12:06:11.205Z,,,,,,,,,,,,,,,,53,,,,,,,,,,,,,,635.2799999642302,,response,,,99,,,,,,Space,keypress(Space),,,,,---- -- ----- -- ------ - ------- --- ----------<br>------------- ------ ------ ---- ---- ------- ----- -- ----<br>-------- partner -- ---------- --- - --- ----- ----- ----<br>---- --- --- ----- --- ---- ---- ------- ----- ---- -------<br>--- --- -- ----- -- --- ---- -- --- ---- -- ------ ------<br>--- ----- -- ----,72622.30000001192,72621.59999996424,71969.656,71982.39999997616,71986.32,72636.454,,19,partner
screen,html.Screen,0_2_0_1_20,2021-12-02T12:06:11.773Z,,,,,,,,,,,,,,,,53,,,,,,,,,,,,,,553.2459999880812,,response,,,99,,,,,,Space,keypress(Space),,,,,---- -- ----- -- ------ - ------- --- ----------<br>------------- ------ ------ ---- ---- ------- ----- -- ----<br>-------- ------- is ---------- --- - --- ----- ----- ----<br>---- --- --- ----- --- ---- ---- ------- ----- ---- -------<br>--- --- -- ----- -- --- ---- -- --- ---- -- ------ ------<br>--- ----- -- ----,73190.30000001192,73189.69999998808,72619.788,72622.39999997616,72636.454,73203.094,,20,is
screen,html.Screen,0_2_0_1_21,2021-12-02T12:06:13.037Z,,,,,,,,,,,,,,,,53,,,,,,,,,,,,,,1250.4060000000027,,response,,,99,,,,,,Space,keypress(Space),,,,,---- -- ----- -- ------ - ------- --- ----------<br>------------- ------ ------ ---- ---- ------- ----- -- ----<br>-------- ------- -- paramount. --- - --- ----- ----- ----<br>---- --- --- ----- --- ---- ---- ------- ----- ---- -------<br>--- --- -- ----- -- --- ---- -- --- ---- -- ------ ------<br>--- ----- -- ----,74454.09999996424,74453.5,73186.428,73190.39999997616,73203.094,74469.636,,21,paramount.
screen,html.Screen,0_2_0_1_22,2021-12-02T12:06:13.525Z,,,,,,,,,,,,,,,,53,,,,,,,,,,,,,,471.9639999642386,,response,,,99,,,,,,Space,keypress(Space),,,,,---- -- ----- -- ------ - ------- --- ----------<br>------------- ------ ------ ---- ---- ------- ----- -- ----<br>-------- ------- -- ---------- But - --- ----- ----- ----<br>---- --- --- ----- --- ---- ---- ------- ----- ---- -------<br>--- --- -- ----- -- --- ---- -- --- ---- -- ------ ------<br>--- ----- -- ----,74942.09999996424,74941.59999996424,74452.971,74454.39999997616,74469.636,74952.989,,22,But
screen,html.Screen,0_2_0_1_23,2021-12-02T12:06:14.053Z,,,,,,,,,,,,,,,,53,,,,,,,,,,,,,,516.6109999642358,,response,,,99,,,,,,Space,keypress(Space),,,,,---- -- ----- -- ------ - ------- --- ----------<br>------------- ------ ------ ---- ---- ------- ----- -- ----<br>-------- ------- -- ---------- --- a --- ----- ----- ----<br>---- --- --- ----- --- ---- ---- ------- ----- ---- -------<br>--- --- -- ----- -- --- ---- -- --- ---- -- ------ ------<br>--- ----- -- ----,75470.19999998808,75469.59999996424,74936.324,74942.30000001192,74952.989,75486.271,,23,a
screen,html.Screen,0_2_0_1_24,2021-12-02T12:06:14.581Z,,,,,,,,,,,,,,,,53,,,,,,,,,,,,,,511.1289999761648,,response,,,99,,,,,,Space,keypress(Space),,,,,---- -- ----- -- ------ - ------- --- ----------<br>------------- ------ ------ ---- ---- ------- ----- -- ----<br>-------- ------- -- ---------- --- - new ----- ----- ----<br>---- --- --- ----- --- ---- ---- ------- ----- ---- -------<br>--- --- -- ----- -- --- ---- -- --- ---- -- ------ ------<br>--- ----- -- ----,75998.09999996424,75997.39999997616,75469.606,75470.39999997616,75486.271,76003.049,,24,new
screen,html.Screen,0_2_0_1_25,2021-12-02T12:06:15.005Z,,,,,,,,,,,,,,,,53,,,,,,,,,,,,,,418.45100000000093,,response,,,99,,,,,,Space,keypress(Space),,,,,---- -- ----- -- ------ - ------- --- ----------<br>------------- ------ ------ ---- ---- ------- ----- -- ----<br>-------- ------- -- ---------- --- - --- study ----- ----<br>---- --- --- ----- --- ---- ---- ------- ----- ---- -------<br>--- --- -- ----- -- --- ---- -- --- ---- -- ------ ------<br>--- ----- -- ----,76422.19999998808,76421.5,75986.382,75998.19999998808,76003.049,76436.282,,25,study
screen,html.Screen,0_2_0_1_26,2021-12-02T12:06:15.493Z,,,,,,,,,,,,,,,,53,,,,,,,,,,,,,,473.1179999761516,,response,,,99,,,,,,Space,keypress(Space),,,,,---- -- ----- -- ------ - ------- --- ----------<br>------------- ------ ------ ---- ---- ------- ----- -- ----<br>-------- ------- -- ---------- --- - --- ----- finds ----<br>---- --- --- ----- --- ---- ---- ------- ----- ---- -------<br>--- --- -- ----- -- --- ---- -- --- ---- -- ------ ------<br>--- ----- -- ----,76910,76909.39999997616,76419.617,76422.30000001192,76436.282,76919.595,,26,finds
screen,html.Screen,0_2_0_1_27,2021-12-02T12:06:16.189Z,,,,,,,,,,,,,,,,53,,,,,,,,,,,,,,685.804999976157,,response,,,99,,,,,,Space,keypress(Space),,,,,---- -- ----- -- ------ - ------- --- ----------<br>------------- ------ ------ ---- ---- ------- ----- -- ----<br>-------- ------- -- ---------- --- - --- ----- ----- that<br>---- --- --- ----- --- ---- ---- ------- ----- ---- -------<br>--- --- -- ----- -- --- ---- -- --- ---- -- ------ ------<br>--- ----- -- ----,77606,77605.39999997616,76902.93,76910.09999996424,76919.595,77619.555,,27,that
screen,html.Screen,0_2_0_1_28,2021-12-02T12:06:16.877Z,,,,,,,,,,,,,,,,53,,,,,,,,,,,,,,673.945000000007,,response,,,99,,,,,,Space,keypress(Space),,,,,---- -- ----- -- ------ - ------- --- ----------<br>------------- ------ ------ ---- ---- ------- ----- -- ----<br>-------- ------- -- ---------- --- - --- ----- ----- ----<br>it's --- --- ----- --- ---- ---- ------- ----- ---- -------<br>--- --- -- ----- -- --- ---- -- --- ---- -- ------ ------<br>--- ----- -- ----,78294.09999996424,78293.5,77602.89,77606.19999998808,77619.555,78302.919,,28,it's
screen,html.Screen,0_2_0_1_29,2021-12-02T12:06:17.484Z,,,,,,,,,,,,,,,,53,,,,,,,,,,,,,,598.4809999761637,,response,,,99,,,,,,Space,keypress(Space),,,,,---- -- ----- -- ------ - ------- --- ----------<br>------------- ------ ------ ---- ---- ------- ----- -- ----<br>-------- ------- -- ---------- --- - --- ----- ----- ----<br>---- not --- ----- --- ---- ---- ------- ----- ---- -------<br>--- --- -- ----- -- --- ---- -- --- ---- -- ------ ------<br>--- ----- -- ----,78902,78901.39999997616,78286.253,78294.30000001192,78302.919,78902.848,,29,not
screen,html.Screen,0_2_0_1_30,2021-12-02T12:06:17.996Z,,,,,,,,,,,,,,,,53,,,,,,,,,,,,,,510.55199997616,,response,,,99,,,,,,Space,keypress(Space),,,,,---- -- ----- -- ------ - ------- --- ----------<br>------------- ------ ------ ---- ---- ------- ----- -- ----<br>-------- ------- -- ---------- --- - --- ----- ----- ----<br>---- --- how ----- --- ---- ---- ------- ----- ---- -------<br>--- --- -- ----- -- --- ---- -- --- ---- -- ------ ------<br>--- ----- -- ----,79414,79413.39999997616,78886.183,78902.09999996424,78902.848,79419.447,,30,how
screen,html.Screen,0_2_0_1_31,2021-12-02T12:06:18.869Z,,,,,,,,,,,,,,,,53,,,,,,,,,,,,,,866.1529999642371,,response,,,99,,,,,,Space,keypress(Space),,,,,---- -- ----- -- ------ - ------- --- ----------<br>------------- ------ ------ ---- ---- ------- ----- -- ----<br>-------- ------- -- ---------- --- - --- ----- ----- ----<br>---- --- --- close --- ---- ---- ------- ----- ---- -------<br>--- --- -- ----- -- --- ---- -- --- ---- -- ------ ------<br>--- ----- -- ----,80286.30000001192,80285.59999996424,79402.782,79414.19999998808,79419.447,80302.746,,31,close
screen,html.Screen,0_2_0_1_32,2021-12-02T12:06:19.516Z,,,,,,,,,,,,,,,,53,,,,,,,,,,,,,,630.5540000119217,,response,,,99,,,,,,Space,keypress(Space),,,,,---- -- ----- -- ------ - ------- --- ----------<br>------------- ------ ------ ---- ---- ------- ----- -- ----<br>-------- ------- -- ---------- --- - --- ----- ----- ----<br>---- --- --- ----- you ---- ---- ------- ----- ---- -------<br>--- --- -- ----- -- --- ---- -- --- ---- -- ------ ------<br>--- ----- -- ----,80933.89999997616,80933.30000001192,80286.081,80286.39999997616,80302.746,80936.182,,32,you
screen,html.Screen,0_2_0_1_33,2021-12-02T12:06:20.356Z,,,,,,,,,,,,,,,,53,,,,,,,,,,,,,,837.1180000119202,,response,,,99,,,,,,Space,keypress(Space),,,,,---- -- ----- -- ------ - ------- --- ----------<br>------------- ------ ------ ---- ---- ------- ----- -- ----<br>-------- ------- -- ---------- --- - --- ----- ----- ----<br>---- --- --- ----- --- feel ---- ------- ----- ---- -------<br>--- --- -- ----- -- --- ---- -- --- ---- -- ------ ------<br>--- ----- -- ----,81773.89999997616,81773.30000001192,80919.515,80934.09999996424,80936.182,81786.121,,33,feel
screen,html.Screen,0_2_0_1_34,2021-12-02T12:06:20.980Z,,,,,,,,,,,,,,,,53,,,,,,,,,,,,,,611.1790000119217,,response,,,99,,,,,,Space,keypress(Space),,,,,---- -- ----- -- ------ - ------- --- ----------<br>------------- ------ ------ ---- ---- ------- ----- -- ----<br>-------- ------- -- ---------- --- - --- ----- ----- ----<br>---- --- --- ----- --- ---- that ------- ----- ---- -------<br>--- --- -- ----- -- --- ---- -- --- ---- -- ------ ------<br>--- ----- -- ----,82397.89999997616,82397.30000001192,81769.455,81774.09999996424,81786.121,82402.712,,34,that
screen,html.Screen,0_2_0_1_35,2021-12-02T12:06:21.716Z,,,,,,,,,,,,,,,,53,,,,,,,,,,,,,,730.5880000119214,,response,,,99,,,,,,Space,keypress(Space),,,,,---- -- ----- -- ------ - ------- --- ----------<br>------------- ------ ------ ---- ---- ------- ----- -- ----<br>-------- ------- -- ---------- --- - --- ----- ----- ----<br>---- --- --- ----- --- ---- ---- matters ----- ---- -------<br>--- --- -- ----- -- --- ---- -- --- ---- -- ------ ------<br>--- ----- -- ----,83133.80000001192,83133.30000001192,82386.047,82398.09999996424,82402.712,83136.013,,35,matters
screen,html.Screen,0_2_0_1_36,2021-12-02T12:06:22.565Z,,,,,,,,,,,,,,,,53,,,,,,,,,,,,,,845.1869999880728,,response,,,99,,,,,,Space,keypress(Space),,,,,"---- -- ----- -- ------ - ------- --- ----------<br>------------- ------ ------ ---- ---- ------- ----- -- ----<br>-------- ------- -- ---------- --- - --- ----- ----- ----<br>---- --- --- ----- --- ---- ---- ------- most, ---- -------<br>--- --- -- ----- -- --- ---- -- --- ---- -- ------ ------<br>--- ----- -- ----",83982.09999996424,83981.19999998808,83119.348,83134.09999996424,83136.013,83985.973,,36,"most,"
screen,html.Screen,0_2_0_1_37,2021-12-02T12:06:23.276Z,,,,,,,,,,,,,,,,53,,,,,,,,,,,,,,707.3270000119228,,response,,,99,,,,,,Space,keypress(Space),,,,,---- -- ----- -- ------ - ------- --- ----------<br>------------- ------ ------ ---- ---- ------- ----- -- ----<br>-------- ------- -- ---------- --- - --- ----- ----- ----<br>---- --- --- ----- --- ---- ---- ------- ----- it's -------<br>--- --- -- ----- -- --- ---- -- --- ---- -- ------ ------<br>--- ----- -- ----,84693.80000001192,84693.30000001192,83969.308,83982.19999998808,83985.973,84702.483,,37,it's
screen,html.Screen,0_2_0_1_38,2021-12-02T12:06:23.948Z,,,,,,,,,,,,,,,,53,,,,,,,,,,,,,,662.7169999880862,,response,,,99,,,,,,Space,keypress(Space),,,,,---- -- ----- -- ------ - ------- --- ----------<br>------------- ------ ------ ---- ---- ------- ----- -- ----<br>-------- ------- -- ---------- --- - --- ----- ----- ----<br>---- --- --- ----- --- ---- ---- ------- ----- ---- whether<br>--- --- -- ----- -- --- ---- -- --- ---- -- ------ ------<br>--- ----- -- ----,85365.80000001192,85365.19999998808,84685.819,84694,84702.483,85369.332,,38,whether
screen,html.Screen,0_2_0_1_39,2021-12-02T12:06:24.572Z,,,,,,,,,,,,,,,,53,,,,,,,,,,,,,,619.7679999642423,,response,,,99,,,,,,Space,keypress(Space),,,,,---- -- ----- -- ------ - ------- --- ----------<br>------------- ------ ------ ---- ---- ------- ----- -- ----<br>-------- ------- -- ---------- --- - --- ----- ----- ----<br>---- --- --- ----- --- ---- ---- ------- ----- ---- -------<br>you --- -- ----- -- --- ---- -- --- ---- -- ------ ------<br>--- ----- -- ----,85989.59999996424,85989.09999996424,85352.666,85366,85369.332,86002.575,,39,you
screen,html.Screen,0_2_0_1_40,2021-12-02T12:06:25.300Z,,,,,,,,,,,,,,,,53,,,,,,,,,,,,,,714.624999988082,,response,,,99,,,,,,Space,keypress(Space),,,,,---- -- ----- -- ------ - ------- --- ----------<br>------------- ------ ------ ---- ---- ------- ----- -- ----<br>-------- ------- -- ---------- --- - --- ----- ----- ----<br>---- --- --- ----- --- ---- ---- ------- ----- ---- -------<br>--- are -- ----- -- --- ---- -- --- ---- -- ------ ------<br>--- ----- -- ----,86717.69999998808,86717.19999998808,85985.91,85989.89999997616,86002.575,86719.268,,40,are
screen,html.Screen,0_2_0_1_41,2021-12-02T12:06:26.156Z,,,,,,,,,,,,,,,,53,,,,,,,,,,,,,,853.8319999642408,,response,,,99,,,,,,Space,keypress(Space),,,,,---- -- ----- -- ------ - ------- --- ----------<br>------------- ------ ------ ---- ---- ------- ----- -- ----<br>-------- ------- -- ---------- --- - --- ----- ----- ----<br>---- --- --- ----- --- ---- ---- ------- ----- ---- -------<br>--- --- as ----- -- --- ---- -- --- ---- -- ------ ------<br>--- ----- -- ----,87573.80000001192,87573.09999996424,86702.602,86717.89999997616,86719.268,87585.838,,41,as
screen,html.Screen,0_2_0_1_42,2021-12-02T12:06:26.772Z,,,,,,,,,,,,,,,,53,,,,,,,,,,,,,,603.2619999642338,,response,,,99,,,,,,Space,keypress(Space),,,,,---- -- ----- -- ------ - ------- --- ----------<br>------------- ------ ------ ---- ---- ------- ----- -- ----<br>-------- ------- -- ---------- --- - --- ----- ----- ----<br>---- --- --- ----- --- ---- ---- ------- ----- ---- -------<br>--- --- -- close -- --- ---- -- --- ---- -- ------ ------<br>--- ----- -- ----,88189.69999998808,88189.09999996424,87569.173,87574,87585.838,88202.496,,42,close
screen,html.Screen,0_2_0_1_43,2021-12-02T12:06:27.396Z,,,,,,,,,,,,,,,,53,,,,,,,,,,,,,,610.603999964238,,response,,,99,,,,,,Space,keypress(Space),,,,,---- -- ----- -- ------ - ------- --- ----------<br>------------- ------ ------ ---- ---- ------- ----- -- ----<br>-------- ------- -- ---------- --- - --- ----- ----- ----<br>---- --- --- ----- --- ---- ---- ------- ----- ---- -------<br>--- --- -- ----- as --- ---- -- --- ---- -- ------ ------<br>--- ----- -- ----,88813.59999996424,88813.09999996424,88185.831,88189.89999997616,88202.496,88819.146,,43,as
screen,html.Screen,0_2_0_1_44,2021-12-02T12:06:28.036Z,,,,,,,,,,,,,,,,53,,,,,,,,,,,,,,633.8540000000066,,response,,,99,,,,,,Space,keypress(Space),,,,,---- -- ----- -- ------ - ------- --- ----------<br>------------- ------ ------ ---- ---- ------- ----- -- ----<br>-------- ------- -- ---------- --- - --- ----- ----- ----<br>---- --- --- ----- --- ---- ---- ------- ----- ---- -------<br>--- --- -- ----- -- you ---- -- --- ---- -- ------ ------<br>--- ----- -- ----,89453.59999996424,89453,88802.481,88813.80000001192,88819.146,89469.116,,44,you
screen,html.Screen,0_2_0_1_45,2021-12-02T12:06:28.804Z,,,,,,,,,,,,,,,,53,,,,,,,,,,,,,,751.8840000000055,,response,,,99,,,,,,Space,keypress(Space),,,,,---- -- ----- -- ------ - ------- --- ----------<br>------------- ------ ------ ---- ---- ------- ----- -- ----<br>-------- ------- -- ---------- --- - --- ----- ----- ----<br>---- --- --- ----- --- ---- ---- ------- ----- ---- -------<br>--- --- -- ----- -- --- want -- --- ---- -- ------ ------<br>--- ----- -- ----,90221.59999996424,90221,89452.451,89453.69999998808,89469.116,90235.747,,45,want
screen,html.Screen,0_2_0_1_46,2021-12-02T12:06:29.292Z,,,,,,,,,,,,,,,,53,,,,,,,,,,,,,,473.45299998807604,,response,,,99,,,,,,Space,keypress(Space),,,,,---- -- ----- -- ------ - ------- --- ----------<br>------------- ------ ------ ---- ---- ------- ----- -- ----<br>-------- ------- -- ---------- --- - --- ----- ----- ----<br>---- --- --- ----- --- ---- ---- ------- ----- ---- -------<br>--- --- -- ----- -- --- ---- to --- ---- -- ------ ------<br>--- ----- -- ----,90709.89999997616,90709.19999998808,90219.082,90221.80000001192,90235.747,90719.044,,46,to
screen,html.Screen,0_2_0_1_47,2021-12-02T12:06:29.780Z,,,,,,,,,,,,,,,,53,,,,,,,,,,,,,,477.9560000000056,,response,,,99,,,,,,Space,keypress(Space),,,,,"---- -- ----- -- ------ - ------- --- ----------<br>------------- ------ ------ ---- ---- ------- ----- -- ----<br>-------- ------- -- ---------- --- - --- ----- ----- ----<br>---- --- --- ----- --- ---- ---- ------- ----- ---- -------<br>--- --- -- ----- -- --- ---- -- be, ---- -- ------ ------<br>--- ----- -- ----",91197.59999996424,91197,90702.379,90710,90719.044,91202.446,,47,"be,"
screen,html.Screen,0_2_0_1_48,2021-12-02T12:06:30.308Z,,,,,,,,,,,,,,,,53,,,,,,,,,,,,,,522.4539999761619,,response,,,99,,,,,,Space,keypress(Space),,,,,---- -- ----- -- ------ - ------- --- ----------<br>------------- ------ ------ ---- ---- ------- ----- -- ----<br>-------- ------- -- ---------- --- - --- ----- ----- ----<br>---- --- --- ----- --- ---- ---- ------- ----- ---- -------<br>--- --- -- ----- -- --- ---- -- --- even -- ------ ------<br>--- ----- -- ----,91725.5,91724.89999997616,91185.78,91197.69999998808,91202.446,91735.622,,48,even
screen,html.Screen,0_2_0_1_49,2021-12-02T12:06:30.900Z,,,,,,,,,,,,,,,,53,,,,,,,,,,,,,,581.2779999761551,,response,,,99,,,,,,Space,keypress(Space),,,,,---- -- ----- -- ------ - ------- --- ----------<br>------------- ------ ------ ---- ---- ------- ----- -- ----<br>-------- ------- -- ---------- --- - --- ----- ----- ----<br>---- --- --- ----- --- ---- ---- ------- ----- ---- -------<br>--- --- -- ----- -- --- ---- -- --- ---- if ------ ------<br>--- ----- -- ----,92317.5,92316.89999997616,91718.958,91725.69999998808,91735.622,92319.079,,49,if
screen,html.Screen,0_2_0_1_50,2021-12-02T12:06:31.468Z,,,,,,,,,,,,,,,,53,,,,,,,,,,,,,,565.8209999761602,,response,,,99,,,,,,Space,keypress(Space),,,,,---- -- ----- -- ------ - ------- --- ----------<br>------------- ------ ------ ---- ---- ------- ----- -- ----<br>-------- ------- -- ---------- --- - --- ----- ----- ----<br>---- --- --- ----- --- ---- ---- ------- ----- ---- -------<br>--- --- -- ----- -- --- ---- -- --- ---- -- that's ------<br>--- ----- -- ----,92885.59999996424,92884.89999997616,92302.412,92317.59999996424,92319.079,92902.328,,50,that's
screen,html.Screen,0_2_0_1_51,2021-12-02T12:06:32.124Z,,,,,,,,,,,,,,,,53,,,,,,,,,,,,,,638.5719999761641,,response,,,99,,,,,,Space,keypress(Space),,,,,---- -- ----- -- ------ - ------- --- ----------<br>------------- ------ ------ ---- ---- ------- ----- -- ----<br>-------- ------- -- ---------- --- - --- ----- ----- ----<br>---- --- --- ----- --- ---- ---- ------- ----- ---- -------<br>--- --- -- ----- -- --- ---- -- --- ---- -- ------ really<br>--- ----- -- ----,93541.39999997616,93540.89999997616,92885.663,92885.69999998808,92902.328,93552.298,,51,really
screen,html.Screen,0_2_0_1_52,2021-12-02T12:06:32.692Z,,,,,,,,,,,,,,,,53,,,,,,,,,,,,,,556.5020000119257,,response,,,99,,,,,,Space,keypress(Space),,,,,---- -- ----- -- ------ - ------- --- ----------<br>------------- ------ ------ ---- ---- ------- ----- -- ----<br>-------- ------- -- ---------- --- - --- ----- ----- ----<br>---- --- --- ----- --- ---- ---- ------- ----- ---- -------<br>--- --- -- ----- -- --- ---- -- --- ---- -- ------ ------<br>not ----- -- ----,94109.39999997616,94108.80000001192,93535.633,93541.59999996424,93552.298,94118.95,,52,not
screen,html.Screen,0_2_0_1_53,2021-12-02T12:06:33.292Z,,,,,,,,,,,,,,,,53,,,,,,,,,,,,,,589.8500000119238,,response,,,99,,,,,,Space,keypress(Space),,,,,---- -- ----- -- ------ - ------- --- ----------<br>------------- ------ ------ ---- ---- ------- ----- -- ----<br>-------- ------- -- ---------- --- - --- ----- ----- ----<br>---- --- --- ----- --- ---- ---- ------- ----- ---- -------<br>--- --- -- ----- -- --- ---- -- --- ---- -- ------ ------<br>--- close -- ----,94709.39999997616,94708.80000001192,94102.285,94109.59999996424,94118.95,94718.917,,53,close
screen,html.Screen,0_2_0_1_54,2021-12-02T12:06:33.916Z,,,,,,,,,,,,,,,,53,,,,,,,,,,,,,,613.8830000119196,,response,,,99,,,,,,Space,keypress(Space),,,,,---- -- ----- -- ------ - ------- --- ----------<br>------------- ------ ------ ---- ---- ------- ----- -- ----<br>-------- ------- -- ---------- --- - --- ----- ----- ----<br>---- --- --- ----- --- ---- ---- ------- ----- ---- -------<br>--- --- -- ----- -- --- ---- -- --- ---- -- ------ ------<br>--- ----- at ----,95333.39999997616,95332.80000001192,94702.252,94709.5,94718.917,95335.617,,54,at
screen,html.Screen,0_2_0_1_55,2021-12-02T12:06:34.436Z,,,,,,,,,,,,,,,,53,,,,,,,,,,,,,,517.1830000119226,,response,,,99,,,,,,Space,keypress(Space),,,,,---- -- ----- -- ------ - ------- --- ----------<br>------------- ------ ------ ---- ---- ------- ----- -- ----<br>-------- ------- -- ---------- --- - --- ----- ----- ----<br>---- --- --- ----- --- ---- ---- ------- ----- ---- -------<br>--- --- -- ----- -- --- ---- -- --- ---- -- ------ ------<br>--- ----- -- all.,95853.39999997616,95852.80000001192,95318.951,95333.5,95335.617,95868.884,,55,all.
Item 99,flow.Loop,0_2_0_1,2021-12-02T12:06:34.439Z,,,,,,,,,,,,,,,,,,,,,,,,,,,,,,38099.14300001192,,completion,,,,E,,,,,,,,,,silence,,95856.19999998808,95852.80000001192,57736.991,57740.89999997616,57753.657,95868.884,,,
Question 1,html.Screen,0_2_0_2,2021-12-02T12:06:42.504Z,,,,,,,,,,,,,,,,,,,,,,,,,,,true,FALSE,,8051.6159999999945,,response,,,99,E,,,,,FALSE,click #choice-2,,,,silence,,103921.5,103920.5,95852.219,95856.39999997616,95868.884,103935.29,,,
Question 2,html.Screen,0_2_0_3,2021-12-02T12:06:51.749Z,,,,,,,,,,,,,,,,,,,,,,,,,,,false,TRUE,,9230.210000000006,,response,,,99,E,,,,,FALSE,click #choice-2,,,,silence,,113166.30000001192,113165.5,103918.624,103921.69999998808,103935.29,113168.259,,,
Item 99,flow.Sequence,0_2_0,2021-12-02T12:06:51.749Z,,,,,,,,,,,,,,,,,,,,,,,,,,,,,,65411.912,,completion,,,,,,,,,,,,,,,,113166.59999996424,113165.5,47736.925,47743.5,47753.588,113168.259,,,
Holding screen,html.Screen,0_2_1_0,2021-12-02T12:07:01.736Z,,,,,,,,,,,,,,,,,,,,,,,,,,,,,,9999.544999999998,,timeout,,,,,,,,,,,,,,,,123151.80000001192,123151.139,113151.594,113166.89999997616,113168.259,123167.804,,,
screen,html.Screen,0_2_1_1_0,2021-12-02T12:07:02.700Z,,,,,,,,,,,,,,,,54,,,,,,,,,,,,,,947.8959999880753,,response,,,100,,,,,,Space,keypress(Space),,,,,At --- ---- --- ------ ----- ------- ---- -- --- ------- --<br>------- ---------- ------ -- ----- -- ----- -- ---- ------<br>--- ----- --- --- ------ -------- ----- --- ------ ----- --<br>----- ----- ---------- --- --- ------ ------ ---- -- ------<br>------- --- ------ ----- --- ---- ------- -- ---- --- --<br>------- ------,124116.30000001192,124115.69999998808,123151.139,123152.09999996424,123167.804,124117.787,,0,At
screen,html.Screen,0_2_1_1_1,2021-12-02T12:07:03.141Z,,,,,,,,,,,,,,,,54,,,,,,,,,,,,,,438.2130000000034,,response,,,100,,,,,,Space,keypress(Space),,,,,-- the ---- --- ------ ----- ------- ---- -- --- ------- --<br>------- ---------- ------ -- ----- -- ----- -- ---- ------<br>--- ----- --- --- ------ -------- ----- --- ------ ----- --<br>----- ----- ---------- --- --- ------ ------ ---- -- ------<br>------- --- ------ ----- --- ---- ------- -- ---- --- --<br>------- ------,124556.5,124556,124101.122,124116.5,124117.787,124567.803,,1,the
screen,html.Screen,0_2_1_1_2,2021-12-02T12:07:03.556Z,,,,,,,,,,,,,,,,54,,,,,,,,,,,,,,403.8969999880792,,response,,,100,,,,,,Space,keypress(Space),,,,,-- --- time --- ------ ----- ------- ---- -- --- ------- --<br>------- ---------- ------ -- ----- -- ----- -- ---- ------<br>--- ----- --- --- ------ -------- ----- --- ------ ----- --<br>----- ----- ---------- --- --- ------ ------ ---- -- ------<br>------- --- ------ ----- --- ---- ------- -- ---- --- --<br>------- ------,124972.30000001192,124971.69999998808,124551.138,124556.69999998808,124567.803,124984.53,,2,time
screen,html.Screen,0_2_1_1_3,2021-12-02T12:07:04.028Z,,,,,,,,,,,,,,,,54,,,,,,,,,,,,,,459.16999998808024,,response,,,100,,,,,,Space,keypress(Space),,,,,-- --- ---- the ------ ----- ------- ---- -- --- ------- --<br>------- ---------- ------ -- ----- -- ----- -- ---- ------<br>--- ----- --- --- ------ -------- ----- --- ------ ----- --<br>----- ----- ---------- --- --- ------ ------ ---- -- ------<br>------- --- ------ ----- --- ---- ------- -- ---- --- --<br>------- ------,125444.39999997616,125443.69999998808,124967.864,124972.39999997616,124984.53,125451.135,,3,the
screen,html.Screen,0_2_1_1_4,2021-12-02T12:07:04.628Z,,,,,,,,,,,,,,,,54,,,,,,,,,,,,,,592.4649999642425,,response,,,100,,,,,,Space,keypress(Space),,,,,-- --- ---- --- French ----- ------- ---- -- --- ------- --<br>------- ---------- ------ -- ----- -- ----- -- ---- ------<br>--- ----- --- --- ------ -------- ----- --- ------ ----- --<br>----- ----- ---------- --- --- ------ ------ ---- -- ------<br>------- --- ------ ----- --- ---- ------- -- ---- --- --<br>------- ------,126044.30000001192,126043.59999996424,125434.47,125445.5,125451.135,126051.097,,4,French
screen,html.Screen,0_2_1_1_5,2021-12-02T12:07:05.412Z,,,,,,,,,,,,,,,,54,,,,,,,,,,,,,,776.5029999642429,,response,,,100,,,,,,Space,keypress(Space),,,,,-- --- ---- --- ------ crown ------- ---- -- --- ------- --<br>------- ---------- ------ -- ----- -- ----- -- ---- ------<br>--- ----- --- --- ------ -------- ----- --- ------ ----- --<br>----- ----- ---------- --- --- ------ ------ ---- -- ------<br>------- --- ------ ----- --- ---- ------- -- ---- --- --<br>------- ------,126828.30000001192,126827.59999996424,126034.432,126044.5,126051.097,126834.389,,5,crown
screen,html.Screen,0_2_1_1_6,2021-12-02T12:07:07.748Z,,,,,,,,,,,,,,,,54,,,,,,,,,,,,,,2329.2109999642416,,response,,,100,,,,,,Space,keypress(Space),,,,,-- --- ---- --- ------ ----- secured ---- -- --- ------- --<br>------- ---------- ------ -- ----- -- ----- -- ---- ------<br>--- ----- --- --- ------ -------- ----- --- ------ ----- --<br>----- ----- ---------- --- --- ------ ------ ---- -- ------<br>------- --- ------ ----- --- ---- ------- -- ---- --- --<br>------- ------,129164.09999996424,129163.59999996424,126817.724,126828.5,126834.389,129167.694,,6,secured
screen,html.Screen,0_2_1_1_7,2021-12-02T12:07:08.124Z,,,,,,,,,,,,,,,,54,,,,,,,,,,,,,,371.80599999999686,,response,,,100,,,,,,Space,keypress(Space),,,,,-- --- ---- --- ------ ----- ------- much -- --- ------- --<br>------- ---------- ------ -- ----- -- ----- -- ---- ------<br>--- ----- --- --- ------ -------- ----- --- ------ ----- --<br>----- ----- ---------- --- --- ------ ------ ---- -- ------<br>------- --- ------ ----- --- ---- ------- -- ---- --- --<br>------- ------,129540,129539.5,129151.028,129164.30000001192,129167.694,129550.952,,7,much
screen,html.Screen,0_2_1_1_8,2021-12-02T12:07:08.612Z,,,,,,,,,,,,,,,,54,,,,,,,,,,,,,,476.5479999999952,,response,,,100,,,,,,Space,keypress(Space),,,,,-- --- ---- --- ------ ----- ------- ---- of --- ------- --<br>------- ---------- ------ -- ----- -- ----- -- ---- ------<br>--- ----- --- --- ------ -------- ----- --- ------ ----- --<br>----- ----- ---------- --- --- ------ ------ ---- -- ------<br>------- --- ------ ----- --- ---- ------- -- ---- --- --<br>------- ------,130028,130027.5,129534.287,129540.30000001192,129550.952,130034.299,,8,of
screen,html.Screen,0_2_1_1_9,2021-12-02T12:07:09.188Z,,,,,,,,,,,,,,,,54,,,,,,,,,,,,,,569.1009999761591,,response,,,100,,,,,,Space,keypress(Space),,,,,-- --- ---- --- ------ ----- ------- ---- -- its ------- --<br>------- ---------- ------ -- ----- -- ----- -- ---- ------<br>--- ----- --- --- ------ -------- ----- --- ------ ----- --<br>----- ----- ---------- --- --- ------ ------ ---- -- ------<br>------- --- ------ ----- --- ---- ------- -- ---- --- --<br>------- ------,130604,130603.39999997616,130017.634,130028.19999998808,130034.299,130617.597,,9,its
screen,html.Screen,0_2_1_1_10,2021-12-02T12:07:10.540Z,,,,,,,,,,,,,,,,54,,,,,,,,,,,,,,1337.9030000000057,,response,,,100,,,,,,Space,keypress(Space),,,,,-- --- ---- --- ------ ----- ------- ---- -- --- revenue --<br>------- ---------- ------ -- ----- -- ----- -- ---- ------<br>--- ----- --- --- ------ -------- ----- --- ------ ----- --<br>----- ----- ---------- --- --- ------ ------ ---- -- ------<br>------- --- ------ ----- --- ---- ------- -- ---- --- --<br>------- ------,131956.09999996424,131955.5,130600.932,130604.09999996424,130617.597,131967.494,,10,revenue
screen,html.Screen,0_2_1_1_11,2021-12-02T12:07:11.676Z,,,,,,,,,,,,,,,,54,,,,,,,,,,,,,,1123.905999976152,,response,,,100,,,,,,Space,keypress(Space),,,,,-- --- ---- --- ------ ----- ------- ---- -- --- ------- by<br>------- ---------- ------ -- ----- -- ----- -- ---- ------<br>--- ----- --- --- ------ -------- ----- --- ------ ----- --<br>----- ----- ---------- --- --- ------ ------ ---- -- ------<br>------- --- ------ ----- --- ---- ------- -- ---- --- --<br>------- ------,133092,133091.39999997616,131950.829,131956.30000001192,131967.494,133100.882,,11,by
screen,html.Screen,0_2_1_1_12,2021-12-02T12:07:12.204Z,,,,,,,,,,,,,,,,54,,,,,,,,,,,,,,518.5179999761458,,response,,,100,,,,,,Space,keypress(Space),,,,,-- --- ---- --- ------ ----- ------- ---- -- --- ------- --<br>issuing ---------- ------ -- ----- -- ----- -- ---- ------<br>--- ----- --- --- ------ -------- ----- --- ------ ----- --<br>----- ----- ---------- --- --- ------ ------ ---- -- ------<br>------- --- ------ ----- --- ---- ------- -- ---- --- --<br>------- ------,133619.89999997616,133619.39999997616,133084.216,133092.19999998808,133100.882,133634.145,,12,issuing
screen,html.Screen,0_2_1_1_13,2021-12-02T12:07:12.860Z,,,,,,,,,,,,,,,,54,,,,,,,,,,,,,,641.1550000119314,,response,,,100,,,,,,Space,keypress(Space),,,,,-- --- ---- --- ------ ----- ------- ---- -- --- ------- --<br>------- government ------ -- ----- -- ----- -- ---- ------<br>--- ----- --- --- ------ -------- ----- --- ------ ----- --<br>----- ----- ---------- --- --- ------ ------ ---- -- ------<br>------- --- ------ ----- --- ---- ------- -- ---- --- --<br>------- ------,134276,134275.30000001192,133617.48,133620,133634.145,134284.117,,13,government
screen,html.Screen,0_2_1_1_14,2021-12-02T12:07:13.892Z,,,,,,,,,,,,,,,,54,,,,,,,,,,,,,,1023.4829999642388,,response,,,100,,,,,,Space,keypress(Space),,,,,-- --- ---- --- ------ ----- ------- ---- -- --- ------- --<br>------- ---------- bonds. -- ----- -- ----- -- ---- ------<br>--- ----- --- --- ------ -------- ----- --- ------ ----- --<br>----- ----- ---------- --- --- ------ ------ ---- -- ------<br>------- --- ------ ----- --- ---- ------- -- ---- --- --<br>------- ------,135308.09999996424,135307.59999996424,134267.452,134276.19999998808,134284.117,135317.363,,14,bonds.
screen,html.Screen,0_2_1_1_15,2021-12-02T12:07:14.596Z,,,,,,,,,,,,,,,,54,,,,,,,,,,,,,,694.036999976146,,response,,,100,,,,,,Space,keypress(Space),,,,,-- --- ---- --- ------ ----- ------- ---- -- --- ------- --<br>------- ---------- ------ In ----- -- ----- -- ---- ------<br>--- ----- --- --- ------ -------- ----- --- ------ ----- --<br>----- ----- ---------- --- --- ------ ------ ---- -- ------<br>------- --- ------ ----- --- ---- ------- -- ---- --- --<br>------- ------,136011.89999997616,136011.39999997616,135300.698,135308.39999997616,135317.363,136017.446,,15,In
screen,html.Screen,0_2_1_1_16,2021-12-02T12:07:15.948Z,,,,,,,,,,,,,,,,54,,,,,,,,,,,,,,1345.8540000119247,,response,,,100,,,,,,Space,keypress(Space),,,,,"-- --- ---- --- ------ ----- ------- ---- -- --- ------- --<br>------- ---------- ------ -- 1727, -- ----- -- ---- ------<br>--- ----- --- --- ------ -------- ----- --- ------ ----- --<br>----- ----- ---------- --- --- ------ ------ ---- -- ------<br>------- --- ------ ----- --- ---- ------- -- ---- --- --<br>------- ------",137363.89999997616,137363.30000001192,136000.78,136012.09999996424,136017.446,137367.295,,16,"1727,"
screen,html.Screen,0_2_1_1_17,2021-12-02T12:07:17.748Z,,,,,,,,,,,,,,,,54,,,,,,,,,,,,,,1795.9049999880663,,response,,,100,,,,,,Space,keypress(Space),,,,,-- --- ---- --- ------ ----- ------- ---- -- --- ------- --<br>------- ---------- ------ -- ----- in ----- -- ---- ------<br>--- ----- --- --- ------ -------- ----- --- ------ ----- --<br>----- ----- ---------- --- --- ------ ------ ---- -- ------<br>------- --- ------ ----- --- ---- ------- -- ---- --- --<br>------- ------,139163.80000001192,139163.19999998808,137350.63,137364.09999996424,137367.295,139167.142,,17,in
screen,html.Screen,0_2_1_1_18,2021-12-02T12:07:18.324Z,,,,,,,,,,,,,,,,54,,,,,,,,,,,,,,572.0579999880865,,response,,,100,,,,,,Space,keypress(Space),,,,,-- --- ---- --- ------ ----- ------- ---- -- --- ------- --<br>------- ---------- ------ -- ----- -- order -- ---- ------<br>--- ----- --- --- ------ -------- ----- --- ------ ----- --<br>----- ----- ---------- --- --- ------ ------ ---- -- ------<br>------- --- ------ ----- --- ---- ------- -- ---- --- --<br>------- ------,139739.69999998808,139739.19999998808,139150.477,139164,139167.142,139750.547,,18,order
screen,html.Screen,0_2_1_1_19,2021-12-02T12:07:18.844Z,,,,,,,,,,,,,,,,54,,,,,,,,,,,,,,508.5529999642458,,response,,,100,,,,,,Space,keypress(Space),,,,,-- --- ---- --- ------ ----- ------- ---- -- --- ------- --<br>------- ---------- ------ -- ----- -- ----- to ---- ------<br>--- ----- --- --- ------ -------- ----- --- ------ ----- --<br>----- ----- ---------- --- --- ------ ------ ---- -- ------<br>------- --- ------ ----- --- ---- ------- -- ---- --- --<br>------- ------,140259.69999998808,140259.09999996424,139733.882,139739.89999997616,139750.547,140267.286,,19,to
screen,html.Screen,0_2_1_1_20,2021-12-02T12:07:19.324Z,,,,,,,,,,,,,,,,54,,,,,,,,,,,,,,471.81399996424443,,response,,,100,,,,,,Space,keypress(Space),,,,,-- --- ---- --- ------ ----- ------- ---- -- --- ------- --<br>------- ---------- ------ -- ----- -- ----- -- save ------<br>--- ----- --- --- ------ -------- ----- --- ------ ----- --<br>----- ----- ---------- --- --- ------ ------ ---- -- ------<br>------- --- ------ ----- --- ---- ------- -- ---- --- --<br>------- ------,140739.80000001192,140739.09999996424,140250.62,140259.89999997616,140267.286,140750.545,,20,save
screen,html.Screen,0_2_1_1_21,2021-12-02T12:07:20.524Z,,,,,,,,,,,,,,,,54,,,,,,,,,,,,,,1188.6549999880663,,response,,,100,,,,,,Space,keypress(Space),,,,,"-- --- ---- --- ------ ----- ------- ---- -- --- ------- --<br>------- ---------- ------ -- ----- -- ----- -- ---- money,<br>--- ----- --- --- ------ -------- ----- --- ------ ----- --<br>----- ----- ---------- --- --- ------ ------ ---- -- ------<br>------- --- ------ ----- --- ---- ------- -- ---- --- --<br>------- ------",141939.69999998808,141939.19999998808,140733.88,140740,140750.545,141950.556,,21,"money,"
screen,html.Screen,0_2_1_1_22,2021-12-02T12:07:21.212Z,,,,,,,,,,,,,,,,54,,,,,,,,,,,,,,676.5439999642258,,response,,,100,,,,,,Space,keypress(Space),,,,,-- --- ---- --- ------ ----- ------- ---- -- --- ------- --<br>------- ---------- ------ -- ----- -- ----- -- ---- ------<br>the ----- --- --- ------ -------- ----- --- ------ ----- --<br>----- ----- ---------- --- --- ------ ------ ---- -- ------<br>------- --- ------ ----- --- ---- ------- -- ---- --- --<br>------- ------,142627.69999998808,142627.09999996424,141933.89,141939.89999997616,141950.556,142633.802,,22,the
screen,html.Screen,0_2_1_1_23,2021-12-02T12:07:21.948Z,,,,,,,,,,,,,,,,54,,,,,,,,,,,,,,729.198000000004,,response,,,100,,,,,,Space,keypress(Space),,,,,-- --- ---- --- ------ ----- ------- ---- -- --- ------- --<br>------- ---------- ------ -- ----- -- ----- -- ---- ------<br>--- state --- --- ------ -------- ----- --- ------ ----- --<br>----- ----- ---------- --- --- ------ ------ ---- -- ------<br>------- --- ------ ----- --- ---- ------- -- ---- --- --<br>------- ------,143363.69999998808,143363,142617.137,142627.89999997616,142633.802,143367.073,,23,state
screen,html.Screen,0_2_1_1_24,2021-12-02T12:07:22.580Z,,,,,,,,,,,,,,,,54,,,,,,,,,,,,,,628.0269999642333,,response,,,100,,,,,,Space,keypress(Space),,,,,-- --- ---- --- ------ ----- ------- ---- -- --- ------- --<br>------- ---------- ------ -- ----- -- ----- -- ---- ------<br>--- ----- cut --- ------ -------- ----- --- ------ ----- --<br>----- ----- ---------- --- --- ------ ------ ---- -- ------<br>------- --- ------ ----- --- ---- ------- -- ---- --- --<br>------- ------,143995.69999998808,143995.09999996424,143350.408,143363.80000001192,143367.073,144000.469,,24,cut
screen,html.Screen,0_2_1_1_25,2021-12-02T12:07:23.035Z,,,,,,,,,,,,,,,,54,,,,,,,,,,,,,,450.43099997614627,,response,,,100,,,,,,Space,keypress(Space),,,,,-- --- ---- --- ------ ----- ------- ---- -- --- ------- --<br>------- ---------- ------ -- ----- -- ----- -- ---- ------<br>--- ----- --- the ------ -------- ----- --- ------ ----- --<br>----- ----- ---------- --- --- ------ ------ ---- -- ------<br>------- --- ------ ----- --- ---- ------- -- ---- --- --<br>------- ------,144451.5,144450.89999997616,143983.803,143995.89999997616,144000.469,144467.132,,25,the
screen,html.Screen,0_2_1_1_26,2021-12-02T12:07:23.724Z,,,,,,,,,,,,,,,,54,,,,,,,,,,,,,,671.7679999761458,,response,,,100,,,,,,Space,keypress(Space),,,,,-- --- ---- --- ------ ----- ------- ---- -- --- ------- --<br>------- ---------- ------ -- ----- -- ----- -- ---- ------<br>--- ----- --- --- bonds' -------- ----- --- ------ ----- --<br>----- ----- ---------- --- --- ------ ------ ---- -- ------<br>------- --- ------ ----- --- ---- ------- -- ---- --- --<br>------- ------,145139.5,145138.89999997616,144450.466,144451.59999996424,144467.132,145150.368,,26,bonds'
screen,html.Screen,0_2_1_1_27,2021-12-02T12:07:24.300Z,,,,,,,,,,,,,,,,54,,,,,,,,,,,,,,564.7319999642496,,response,,,100,,,,,,Space,keypress(Space),,,,,-- --- ---- --- ------ ----- ------- ---- -- --- ------- --<br>------- ---------- ------ -- ----- -- ----- -- ---- ------<br>--- ----- --- --- ------ interest ----- --- ------ ----- --<br>----- ----- ---------- --- --- ------ ------ ---- -- ------<br>------- --- ------ ----- --- ---- ------- -- ---- --- --<br>------- ------,145715.69999998808,145715.09999996424,145133.703,145139.69999998808,145150.368,145717.099,,27,interest
screen,html.Screen,0_2_1_1_28,2021-12-02T12:07:25.252Z,,,,,,,,,,,,,,,,54,,,,,,,,,,,,,,949.8009999761707,,response,,,100,,,,,,Space,keypress(Space),,,,,-- --- ---- --- ------ ----- ------- ---- -- --- ------- --<br>------- ---------- ------ -- ----- -- ----- -- ---- ------<br>--- ----- --- --- ------ -------- rate. --- ------ ----- --<br>----- ----- ---------- --- --- ------ ------ ---- -- ------<br>------- --- ------ ----- --- ---- ------- -- ---- --- --<br>------- ------,146667.5,146666.89999997616,145700.433,145715.89999997616,145717.099,146683.721,,28,rate.
screen,html.Screen,0_2_1_1_29,2021-12-02T12:07:25.971Z,,,,,,,,,,,,,,,,54,,,,,,,,,,,,,,703.1789999761677,,response,,,100,,,,,,Space,keypress(Space),,,,,-- --- ---- --- ------ ----- ------- ---- -- --- ------- --<br>------- ---------- ------ -- ----- -- ----- -- ---- ------<br>--- ----- --- --- ------ -------- ----- The ------ ----- --<br>----- ----- ---------- --- --- ------ ------ ---- -- ------<br>------- --- ------ ----- --- ---- ------- -- ---- --- --<br>------- ------,147387.5,147386.89999997616,146667.055,146667.69999998808,146683.721,147400.276,,29,The
screen,html.Screen,0_2_1_1_30,2021-12-02T12:07:26.659Z,,,,,,,,,,,,,,,,54,,,,,,,,,,,,,,674.5240000119084,,response,,,100,,,,,,Space,keypress(Space),,,,,-- --- ---- --- ------ ----- ------- ---- -- --- ------- --<br>------- ---------- ------ -- ----- -- ----- -- ---- ------<br>--- ----- --- --- ------ -------- ----- --- market ----- --<br>----- ----- ---------- --- --- ------ ------ ---- -- ------<br>------- --- ------ ----- --- ---- ------- -- ---- --- --<br>------- ------,148075.5,148074.80000001192,147383.611,147387.59999996424,147400.276,148083.606,,30,market
screen,html.Screen,0_2_1_1_31,2021-12-02T12:07:27.475Z,,,,,,,,,,,,,,,,54,,,,,,,,,,,,,,807.1940000119212,,response,,,100,,,,,,Space,keypress(Space),,,,,-- --- ---- --- ------ ----- ------- ---- -- --- ------- --<br>------- ---------- ------ -- ----- -- ----- -- ---- ------<br>--- ----- --- --- ------ -------- ----- --- ------ value --<br>----- ----- ---------- --- --- ------ ------ ---- -- ------<br>------- --- ------ ----- --- ---- ------- -- ---- --- --<br>------- ------,148891.39999997616,148890.80000001192,148066.941,148075.59999996424,148083.606,148900.233,,31,value
screen,html.Screen,0_2_1_1_32,2021-12-02T12:07:27.995Z,,,,,,,,,,,,,,,,54,,,,,,,,,,,,,,510.5670000119135,,response,,,100,,,,,,Space,keypress(Space),,,,,-- --- ---- --- ------ ----- ------- ---- -- --- ------- --<br>------- ---------- ------ -- ----- -- ----- -- ---- ------<br>--- ----- --- --- ------ -------- ----- --- ------ ----- of<br>----- ----- ---------- --- --- ------ ------ ---- -- ------<br>------- --- ------ ----- --- ---- ------- -- ---- --- --<br>------- ------,149411.39999997616,149410.80000001192,148883.568,148891.59999996424,148900.233,149416.867,,32,of
screen,html.Screen,0_2_1_1_33,2021-12-02T12:07:28.443Z,,,,,,,,,,,,,,,,54,,,,,,,,,,,,,,441.8329999880807,,response,,,100,,,,,,Space,keypress(Space),,,,,-- --- ---- --- ------ ----- ------- ---- -- --- ------- --<br>------- ---------- ------ -- ----- -- ----- -- ---- ------<br>--- ----- --- --- ------ -------- ----- --- ------ ----- --<br>these ----- ---------- --- --- ------ ------ ---- -- ------<br>------- --- ------ ----- --- ---- ------- -- ---- --- --<br>------- ------,149859.30000001192,149858.69999998808,149400.202,149411.59999996424,149416.867,149866.923,,33,these
screen,html.Screen,0_2_1_1_34,2021-12-02T12:07:29.315Z,,,,,,,,,,,,,,,,54,,,,,,,,,,,,,,863.8770000119112,,response,,,100,,,,,,Space,keypress(Space),,,,,-- --- ---- --- ------ ----- ------- ---- -- --- ------- --<br>------- ---------- ------ -- ----- -- ----- -- ---- ------<br>--- ----- --- --- ------ -------- ----- --- ------ ----- --<br>----- bonds ---------- --- --- ------ ------ ---- -- ------<br>------- --- ------ ----- --- ---- ------- -- ---- --- --<br>------- ------,150731.39999997616,150730.80000001192,149850.257,149859.39999997616,149866.923,150733.558,,34,bonds
screen,html.Screen,0_2_1_1_35,2021-12-02T12:07:30.171Z,,,,,,,,,,,,,,,,54,,,,,,,,,,,,,,853.1419999880891,,response,,,100,,,,,,Space,keypress(Space),,,,,"-- --- ---- --- ------ ----- ------- ---- -- --- ------- --<br>------- ---------- ------ -- ----- -- ----- -- ---- ------<br>--- ----- --- --- ------ -------- ----- --- ------ ----- --<br>----- ----- plummeted, --- --- ------ ------ ---- -- ------<br>------- --- ------ ----- --- ---- ------- -- ---- --- --<br>------- ------",151587.39999997616,151586.69999998808,150716.892,150731.59999996424,150733.558,151600.127,,35,"plummeted,"
screen,html.Screen,0_2_1_1_36,2021-12-02T12:07:30.915Z,,,,,,,,,,,,,,,,54,,,,,,,,,,,,,,730.5729999880714,,response,,,100,,,,,,Space,keypress(Space),,,,,-- --- ---- --- ------ ----- ------- ---- -- --- ------- --<br>------- ---------- ------ -- ----- -- ----- -- ---- ------<br>--- ----- --- --- ------ -------- ----- --- ------ ----- --<br>----- ----- ---------- and --- ------ ------ ---- -- ------<br>------- --- ------ ----- --- ---- ------- -- ---- --- --<br>------- ------,152331.19999998808,152330.69999998808,151583.462,151587.5,151600.127,152333.44,,36,and
screen,html.Screen,0_2_1_1_37,2021-12-02T12:07:31.571Z,,,,,,,,,,,,,,,,54,,,,,,,,,,,,,,653.2599999880767,,response,,,100,,,,,,Space,keypress(Space),,,,,-- --- ---- --- ------ ----- ------- ---- -- --- ------- --<br>------- ---------- ------ -- ----- -- ----- -- ---- ------<br>--- ----- --- --- ------ -------- ----- --- ------ ----- --<br>----- ----- ---------- --- the ------ ------ ---- -- ------<br>------- --- ------ ----- --- ---- ------- -- ---- --- --<br>------- ------,152987.30000001192,152986.69999998808,152316.775,152331.39999997616,152333.44,153000.086,,37,the
screen,html.Screen,0_2_1_1_38,2021-12-02T12:07:32.363Z,,,,,,,,,,,,,,,,54,,,,,,,,,,,,,,778.513999964227,,response,,,100,,,,,,Space,keypress(Space),,,,,-- --- ---- --- ------ ----- ------- ---- -- --- ------- --<br>------- ---------- ------ -- ----- -- ----- -- ---- ------<br>--- ----- --- --- ------ -------- ----- --- ------ ----- --<br>----- ----- ---------- --- --- market ------ ---- -- ------<br>------- --- ------ ----- --- ---- ------- -- ---- --- --<br>------- ------,153779.19999998808,153778.59999996424,152983.421,152987.39999997616,153000.086,153783.254,,38,market
screen,html.Screen,0_2_1_1_39,2021-12-02T12:07:33.147Z,,,,,,,,,,,,,,,,54,,,,,,,,,,,,,,779.345999964251,,response,,,100,,,,,,Space,keypress(Space),,,,,-- --- ---- --- ------ ----- ------- ---- -- --- ------- --<br>------- ---------- ------ -- ----- -- ----- -- ---- ------<br>--- ----- --- --- ------ -------- ----- --- ------ ----- --<br>----- ----- ---------- --- --- ------ became ---- -- ------<br>------- --- ------ ----- --- ---- ------- -- ---- --- --<br>------- ------,154563.19999998808,154562.59999996424,153766.59,153779.5,153783.254,154566.796,,39,became
screen,html.Screen,0_2_1_1_40,2021-12-02T12:07:34.131Z,,,,,,,,,,,,,,,,54,,,,,,,,,,,,,,979.8039999642351,,response,,,100,,,,,,Space,keypress(Space),,,,,-- --- ---- --- ------ ----- ------- ---- -- --- ------- --<br>------- ---------- ------ -- ----- -- ----- -- ---- ------<br>--- ----- --- --- ------ -------- ----- --- ------ ----- --<br>----- ----- ---------- --- --- ------ ------ wary -- ------<br>------- --- ------ ----- --- ---- ------- -- ---- --- --<br>------- ------,155547.30000001192,155546.59999996424,154550.129,154563.39999997616,154566.796,155549.962,,40,wary
screen,html.Screen,0_2_1_1_41,2021-12-02T12:07:34.739Z,,,,,,,,,,,,,,,,54,,,,,,,,,,,,,,604.8380000119214,,response,,,100,,,,,,Space,keypress(Space),,,,,-- --- ---- --- ------ ----- ------- ---- -- --- ------- --<br>------- ---------- ------ -- ----- -- ----- -- ---- ------<br>--- ----- --- --- ------ -------- ----- --- ------ ----- --<br>----- ----- ---------- --- --- ------ ------ ---- of ------<br>------- --- ------ ----- --- ---- ------- -- ---- --- --<br>------- ------,156155.39999997616,156154.80000001192,155533.297,155547.5,155549.962,156166.692,,41,of
screen,html.Screen,0_2_1_1_42,2021-12-02T12:07:35.659Z,,,,,,,,,,,,,,,,54,,,,,,,,,,,,,,907.9079999642272,,response,,,100,,,,,,Space,keypress(Space),,,,,-- --- ---- --- ------ ----- ------- ---- -- --- ------- --<br>------- ---------- ------ -- ----- -- ----- -- ---- ------<br>--- ----- --- --- ------ -------- ----- --- ------ ----- --<br>----- ----- ---------- --- --- ------ ------ ---- -- French<br>------- --- ------ ----- --- ---- ------- -- ---- --- --<br>------- ------,157075.09999996424,157074.59999996424,156150.026,156155.5,156166.692,157083.258,,42,French
screen,html.Screen,0_2_1_1_43,2021-12-02T12:07:37.195Z,,,,,,,,,,,,,,,,54,,,,,,,,,,,,,,1527.2419999999984,,response,,,100,,,,,,Space,keypress(Space),,,,,-- --- ---- --- ------ ----- ------- ---- -- --- ------- --<br>------- ---------- ------ -- ----- -- ----- -- ---- ------<br>--- ----- --- --- ------ -------- ----- --- ------ ----- --<br>----- ----- ---------- --- --- ------ ------ ---- -- ------<br>credit. --- ------ ----- --- ---- ------- -- ---- --- --<br>------- ------,158611.09999996424,158610.5,157066.593,157075.30000001192,157083.258,158616.603,,43,credit.
screen,html.Screen,0_2_1_1_44,2021-12-02T12:07:39.180Z,,,,,,,,,,,,,,,,54,,,,,,,,,,,,,,1977.7969999761553,,response,,,100,,,,,,Space,keypress(Space),,,,,-- --- ---- --- ------ ----- ------- ---- -- --- ------- --<br>------- ---------- ------ -- ----- -- ----- -- ---- ------<br>--- ----- --- --- ------ -------- ----- --- ------ ----- --<br>----- ----- ---------- --- --- ------ ------ ---- -- ------<br>------- The ------ ----- --- ---- ------- -- ---- --- --<br>------- ------,160596.09999996424,160594.39999997616,158599.937,158611.30000001192,158616.603,160599.712,,44,The
screen,html.Screen,0_2_1_1_45,2021-12-02T12:07:39.811Z,,,,,,,,,,,,,,,,54,,,,,,,,,,,,,,626.6879999761586,,response,,,100,,,,,,Space,keypress(Space),,,,,-- --- ---- --- ------ ----- ------- ---- -- --- ------- --<br>------- ---------- ------ -- ----- -- ----- -- ---- ------<br>--- ----- --- --- ------ -------- ----- --- ------ ----- --<br>----- ----- ---------- --- --- ------ ------ ---- -- ------<br>------- --- French ----- --- ---- ------- -- ---- --- --<br>------- ------,161226.89999997616,161226.39999997616,160583.047,160596.30000001192,160599.712,161233.101,,45,French
screen,html.Screen,0_2_1_1_46,2021-12-02T12:07:40.531Z,,,,,,,,,,,,,,,,54,,,,,,,,,,,,,,713.1990000119258,,response,,,100,,,,,,Space,keypress(Space),,,,,-- --- ---- --- ------ ----- ------- ---- -- --- ------- --<br>------- ---------- ------ -- ----- -- ----- -- ---- ------<br>--- ----- --- --- ------ -------- ----- --- ------ ----- --<br>----- ----- ---------- --- --- ------ ------ ---- -- ------<br>------- --- ------ state --- ---- ------- -- ---- --- --<br>------- ------,161946.89999997616,161946.30000001192,161216.436,161227.09999996424,161233.101,161949.821,,46,state
screen,html.Screen,0_2_1_1_47,2021-12-02T12:07:41.083Z,,,,,,,,,,,,,,,,54,,,,,,,,,,,,,,548.4790000119247,,response,,,100,,,,,,Space,keypress(Space),,,,,-- --- ---- --- ------ ----- ------- ---- -- --- ------- --<br>------- ---------- ------ -- ----- -- ----- -- ---- ------<br>--- ----- --- --- ------ -------- ----- --- ------ ----- --<br>----- ----- ---------- --- --- ------ ------ ---- -- ------<br>------- --- ------ ----- was ---- ------- -- ---- --- --<br>------- ------,162499.09999996424,162498.30000001192,161933.155,161947,161949.821,162499.749,,47,was
screen,html.Screen,0_2_1_1_48,2021-12-02T12:07:41.603Z,,,,,,,,,,,,,,,,54,,,,,,,,,,,,,,518.4509999880684,,response,,,100,,,,,,Space,keypress(Space),,,,,-- --- ---- --- ------ ----- ------- ---- -- --- ------- --<br>------- ---------- ------ -- ----- -- ----- -- ---- ------<br>--- ----- --- --- ------ -------- ----- --- ------ ----- --<br>----- ----- ---------- --- --- ------ ------ ---- -- ------<br>------- --- ------ ----- --- left ------- -- ---- --- --<br>------- ------,163018.80000001192,163018.19999998808,162483.084,162499.19999998808,162499.749,163033.057,,48,left
screen,html.Screen,0_2_1_1_49,2021-12-02T12:07:42.067Z,,,,,,,,,,,,,,,,54,,,,,,,,,,,,,,449.1429999880784,,response,,,100,,,,,,Space,keypress(Space),,,,,-- --- ---- --- ------ ----- ------- ---- -- --- ------- --<br>------- ---------- ------ -- ----- -- ----- -- ---- ------<br>--- ----- --- --- ------ -------- ----- --- ------ ----- --<br>----- ----- ---------- --- --- ------ ------ ---- -- ------<br>------- --- ------ ----- --- ---- without -- ---- --- --<br>------- ------,163482.80000001192,163482.19999998808,163016.392,163019,163033.057,163499.754,,49,without
screen,html.Screen,0_2_1_1_50,2021-12-02T12:07:42.515Z,,,,,,,,,,,,,,,,54,,,,,,,,,,,,,,430.54600001193467,,response,,,100,,,,,,Space,keypress(Space),,,,,-- --- ---- --- ------ ----- ------- ---- -- --- ------- --<br>------- ---------- ------ -- ----- -- ----- -- ---- ------<br>--- ----- --- --- ------ -------- ----- --- ------ ----- --<br>----- ----- ---------- --- --- ------ ------ ---- -- ------<br>------- --- ------ ----- --- ---- ------- an ---- --- --<br>------- ------,163930.80000001192,163930.30000001192,163483.088,163483,163499.754,163933.011,,50,an
screen,html.Screen,0_2_1_1_51,2021-12-02T12:07:42.979Z,,,,,,,,,,,,,,,,54,,,,,,,,,,,,,,461.2890000119223,,response,,,100,,,,,,Space,keypress(Space),,,,,-- --- ---- --- ------ ----- ------- ---- -- --- ------- --<br>------- ---------- ------ -- ----- -- ----- -- ---- ------<br>--- ----- --- --- ------ -------- ----- --- ------ ----- --<br>----- ----- ---------- --- --- ------ ------ ---- -- ------<br>------- --- ------ ----- --- ---- ------- -- easy --- --<br>------- ------,164394.69999998808,164394.30000001192,163916.346,163931,163933.011,164399.667,,51,easy
screen,html.Screen,0_2_1_1_52,2021-12-02T12:07:43.387Z,,,,,,,,,,,,,,,,54,,,,,,,,,,,,,,402.53299998809234,,response,,,100,,,,,,Space,keypress(Space),,,,,-- --- ---- --- ------ ----- ------- ---- -- --- ------- --<br>------- ---------- ------ -- ----- -- ----- -- ---- ------<br>--- ----- --- --- ------ -------- ----- --- ------ ----- --<br>----- ----- ---------- --- --- ------ ------ ---- -- ------<br>------- --- ------ ----- --- ---- ------- -- ---- way --<br>------- ------,164802.69999998808,164802.19999998808,164383.002,164394.89999997616,164399.667,164816.229,,52,way
screen,html.Screen,0_2_1_1_53,2021-12-02T12:07:43.835Z,,,,,,,,,,,,,,,,54,,,,,,,,,,,,,,433.970999988087,,response,,,100,,,,,,Space,keypress(Space),,,,,-- --- ---- --- ------ ----- ------- ---- -- --- ------- --<br>------- ---------- ------ -- ----- -- ----- -- ---- ------<br>--- ----- --- --- ------ -------- ----- --- ------ ----- --<br>----- ----- ---------- --- --- ------ ------ ---- -- ------<br>------- --- ------ ----- --- ---- ------- -- ---- --- of<br>------- ------,165250.89999997616,165250.19999998808,164799.565,164802.89999997616,164816.229,165266.37,,53,of
screen,html.Screen,0_2_1_1_54,2021-12-02T12:07:44.251Z,,,,,,,,,,,,,,,,54,,,,,,,,,,,,,,399.8299999880837,,response,,,100,,,,,,Space,keypress(Space),,,,,-- --- ---- --- ------ ----- ------- ---- -- --- ------- --<br>------- ---------- ------ -- ----- -- ----- -- ---- ------<br>--- ----- --- --- ------ -------- ----- --- ------ ----- --<br>----- ----- ---------- --- --- ------ ------ ---- -- ------<br>------- --- ------ ----- --- ---- ------- -- ---- --- --<br>raising ------,165666.80000001192,165666.19999998808,165249.703,165251.09999996424,165266.37,165683.005,,54,raising
screen,html.Screen,0_2_1_1_55,2021-12-02T12:07:45.563Z,,,,,,,,,,,,,,,,54,,,,,,,,,,,,,,1295.3949999761535,,response,,,100,,,,,,Space,keypress(Space),,,,,-- --- ---- --- ------ ----- ------- ---- -- --- ------- --<br>------- ---------- ------ -- ----- -- ----- -- ---- ------<br>--- ----- --- --- ------ -------- ----- --- ------ ----- --<br>----- ----- ---------- --- --- ------ ------ ---- -- ------<br>------- --- ------ ----- --- ---- ------- -- ---- --- --<br>------- money.,166979,166978.39999997616,165666.339,165667.09999996424,165683.005,166982.868,,55,money.
Item 100,flow.Loop,0_2_1_1,2021-12-02T12:07:45.563Z,,,,,,,,,,,,,,,,,,,,,,,,,,,,,,43810.595999976154,,completion,,,,E,,,,,,,,,,silence,,166979.30000001192,166978.39999997616,123151.139,123152,123167.804,166982.868,,,
Question 1,html.Screen,0_2_1_2,2021-12-02T12:07:48.439Z,,,,,,,,,,,,,,,,,,,,,,,,,,,true,TRUE,,2871.2319999642496,,response,,,100,E,,,,,TRUE,click #choice-1,,,,silence,,169854.89999997616,169854.09999996424,166966.203,166979.5,166982.868,169882.788,,,
Question 2,html.Screen,0_2_1_3,2021-12-02T12:07:51.704Z,,,,,,,,,,,,,,,,,,,,,,,,,,,true,FALSE,,3236.6119999761577,,response,,,100,E,,,,,FALSE,click #choice-2,,,,silence,,173120.19999998808,173119.39999997616,169866.123,169855.09999996424,169882.788,173132.715,,,
Item 100,flow.Sequence,0_2_1,2021-12-02T12:07:51.704Z,,,,,,,,,,,,,,,,,,,,,,,,,,,,,,59951.14099997615,,completion,,,,,,,,,,,,,,,,173120.5,173119.39999997616,113151.594,113166.80000001192,113168.259,173132.715,,,
End of Practice,html.Page,0_2_2,2021-12-02T12:07:54.569Z,,,,,,,,,,,,,,,,,,,,,,,,,,,,,,2852.0850000119244,,form submission,,,,,,,,,,,,,,,,175985.19999998808,175984.80000001192,173116.049,173120.69999998808,173132.715,175999.218,,,
Practice,flow.Sequence,0_2,2021-12-02T12:07:54.569Z,,,,,,,,,,,,,,,,,,,,,,,,,,,,,,128231.21200001192,,completion,,,,,,,,,,,,,,,,175985.39999997616,175984.80000001192,47736.925,47743.39999997616,47753.588,175999.218,,,
Trap_instruction,html.Page,0_3_0,2021-12-02T12:07:56.792Z,,,,,,,,,,,,,,,,,,,,,,,,,,,,,,2208.6819999761647,,form submission,,,,,,,,,,,,,,,,178208.19999998808,178207.89999997616,175982.553,175985.59999996424,175999.218,178215.856,,,
trap_trial,html.Screen,0_3_1,2021-12-02T12:08:01.374Z,,,,,,,,,,,,,,,,,,,,,,,,,,,true,1,,4571.144,,response,,,,,,,,,1,click #choice-1,,,,,,182787.80000001192,182787,178199.19,178208.30000001192,178215.856,182791.695,,,
end of trap trial,html.Page,0_3_2,2021-12-02T12:08:03.546Z,,,,,,,,,,,,,,,,,,,,,,,,,,,,,,2168.105000011914,,form submission,,,,,,,,,,,,,,,,184960.09999996424,184959.80000001192,182775.056,182788,182791.695,184965.613,,,
Trap 1,flow.Sequence,0_3,2021-12-02T12:08:03.547Z,,,,,,,,,,,,,,,,,,,,,,,,,,,,,,8960.582000011927,,completion,,,,,,,,,,,,,,,,184960.39999997616,184959.80000001192,175982.553,175985.5,175999.218,184965.613,,,
Standby,html.Page,0_4_0,2021-12-02T12:08:11.535Z,,,,,,,,,,,,,,,,,,,,,,,,,,,,,,7999.187999999995,,timeout,,,,,,,,,,,,,,,,192948.80000001192,192948.136,184948.947,184960.5,184965.613,192964.801,,,
Holding screen,html.Screen,0_4_1_0_0,2021-12-02T12:08:18.535Z,,,,,,,,,,,,,,,,,,,,,,,,,,,,,,7000.182000000001,,timeout,,,,,,,,,,,,,,,,199948.89999997616,199948.318,192948.136,192949,192964.801,199964.983,,,
screen,html.Screen,0_4_1_0_1_0,2021-12-02T12:08:19.332Z,,,,,,,,,,,,,,,,51,,,,,,,,,,,,,,780.2169999880716,,response,,,13,E,,,,,Space,keypress(Space),,,,lyrical,American -------- --- --- ---- --- --- ------ -- --------<br>---- --------- --- ------- ------------ ---------- ---------<br>--- ---------- ------- ---------- ------- -- -------- ----<br>---- --- ------ ----- ------ -- ---- --- ----- -- - -------<br>-------- -- --- --- -- ----- ----------- ----- -----------<br>---- --- ---------- --- ---- --- -- ----------,200745.89999997616,200745.19999998808,199948.318,199949.19999998808,199964.983,200748.302,,0,American
screen,html.Screen,0_4_1_0_1_1,2021-12-02T12:08:19.924Z,,,,,,,,,,,,,,,,51,,,,,,,,,,,,,,588.5979999761621,,response,,,13,E,,,,,Space,keypress(Space),,,,lyrical,-------- industry --- --- ---- --- --- ------ -- --------<br>---- --------- --- ------- ------------ ---------- ---------<br>--- ---------- ------- ---------- ------- -- -------- ----<br>---- --- ------ ----- ------ -- ---- --- ----- -- - -------<br>-------- -- --- --- -- ----- ----------- ----- -----------<br>---- --- ---------- --- ---- --- -- ----------,201337.59999996424,201336.89999997616,200731.637,200746.19999998808,200748.302,201348.261,,1,industry
screen,html.Screen,0_4_1_0_1_2,2021-12-02T12:08:20.612Z,,,,,,,,,,,,,,,,51,,,,,,,,,,,,,,676.5390000119223,,response,,,13,E,,,,,Space,keypress(Space),,,,lyrical,-------- -------- may --- ---- --- --- ------ -- --------<br>---- --------- --- ------- ------------ ---------- ---------<br>--- ---------- ------- ---------- ------- -- -------- ----<br>---- --- ------ ----- ------ -- ---- --- ----- -- - -------<br>-------- -- --- --- -- ----- ----------- ----- -----------<br>---- --- ---------- --- ---- --- -- ----------,202025.30000001192,202024.80000001192,201331.596,201337.69999998808,201348.261,202031.53,,2,may
screen,html.Screen,0_4_1_0_1_3,2021-12-02T12:08:21.044Z,,,,,,,,,,,,,,,,51,,,,,,,,,,,,,,425.2700000119221,,response,,,13,E,,,,,Space,keypress(Space),,,,lyrical,-------- -------- --- not ---- --- --- ------ -- --------<br>---- --------- --- ------- ------------ ---------- ---------<br>--- ---------- ------- ---------- ------- -- -------- ----<br>---- --- ------ ----- ------ -- ---- --- ----- -- - -------<br>-------- -- --- --- -- ----- ----------- ----- -----------<br>---- --- ---------- --- ---- --- -- ----------,202457.39999997616,202456.80000001192,202014.865,202025.5,202031.53,202465.023,,3,not
screen,html.Screen,0_4_1_0_1_4,2021-12-02T12:08:21.468Z,,,,,,,,,,,,,,,,51,,,,,,,,,,,,,,415.77700001193443,,response,,,13,E,,,,,Space,keypress(Space),,,,lyrical,-------- -------- --- --- know --- --- ------ -- --------<br>---- --------- --- ------- ------------ ---------- ---------<br>--- ---------- ------- ---------- ------- -- -------- ----<br>---- --- ------ ----- ------ -- ---- --- ----- -- - -------<br>-------- -- --- --- -- ----- ----------- ----- -----------<br>---- --- ---------- --- ---- --- -- ----------,202881.39999997616,202880.80000001192,202448.356,202457.59999996424,202465.023,202898.242,,4,know
screen,html.Screen,0_4_1_0_1_5,2021-12-02T12:08:21.916Z,,,,,,,,,,,,,,,,51,,,,,,,,,,,,,,430.6579999761598,,response,,,13,E,,,,,Space,keypress(Space),,,,lyrical,"-------- -------- --- --- ---- it, --- ------ -- --------<br>---- --------- --- ------- ------------ ---------- ---------<br>--- ---------- ------- ---------- ------- -- -------- ----<br>---- --- ------ ----- ------ -- ---- --- ----- -- - -------<br>-------- -- --- --- -- ----- ----------- ----- -----------<br>---- --- ---------- --- ---- --- -- ----------",203329.5,203328.89999997616,202881.577,202881.5,202898.242,203331.595,,5,"it,"
screen,html.Screen,0_4_1_0_1_6,2021-12-02T12:08:22.476Z,,,,,,,,,,,,,,,,51,,,,,,,,,,,,,,557.2050000119198,,response,,,13,E,,,,,Space,keypress(Space),,,,lyrical,-------- -------- --- --- ---- --- but ------ -- --------<br>---- --------- --- ------- ------------ ---------- ---------<br>--- ---------- ------- ---------- ------- -- -------- ----<br>---- --- ------ ----- ------ -- ---- --- ----- -- - -------<br>-------- -- --- --- -- ----- ----------- ----- -----------<br>---- --- ---------- --- ---- --- -- ----------,203889.30000001192,203888.80000001192,203314.929,203329.59999996424,203331.595,203898.249,,6,but
screen,html.Screen,0_4_1_0_1_7,2021-12-02T12:08:23.284Z,,,,,,,,,,,,,,,,51,,,,,,,,,,,,,,798.4509999880684,,response,,,13,E,,,,,Space,keypress(Space),,,,lyrical,-------- -------- --- --- ---- --- --- debate -- --------<br>---- --------- --- ------- ------------ ---------- ---------<br>--- ---------- ------- ---------- ------- -- -------- ----<br>---- --- ------ ----- ------ -- ---- --- ----- -- - -------<br>-------- -- --- --- -- ----- ----------- ----- -----------<br>---- --- ---------- --- ---- --- -- ----------,204697.30000001192,204696.69999998808,203881.583,203889.5,203898.249,204698.223,,7,debate
screen,html.Screen,0_4_1_0_1_8,2021-12-02T12:08:23.876Z,,,,,,,,,,,,,,,,51,,,,,,,,,,,,,,590.4769999880809,,response,,,13,E,,,,,Space,keypress(Space),,,,lyrical,-------- -------- --- --- ---- --- --- ------ in --------<br>---- --------- --- ------- ------------ ---------- ---------<br>--- ---------- ------- ---------- ------- -- -------- ----<br>---- --- ------ ----- ------ -- ---- --- ----- -- - -------<br>-------- -- --- --- -- ----- ----------- ----- -----------<br>---- --- ---------- --- ---- --- -- ----------,205289.30000001192,205288.69999998808,204681.557,204697.59999996424,204698.223,205298.145,,8,in
screen,html.Screen,0_4_1_0_1_9,2021-12-02T12:08:24.596Z,,,,,,,,,,,,,,,,51,,,,,,,,,,,,,,710.5549999880895,,response,,,13,E,,,,,Space,keypress(Space),,,,lyrical,-------- -------- --- --- ---- --- --- ------ -- Congress<br>---- --------- --- ------- ------------ ---------- ---------<br>--- ---------- ------- ---------- ------- -- -------- ----<br>---- --- ------ ----- ------ -- ---- --- ----- -- - -------<br>-------- -- --- --- -- ----- ----------- ----- -----------<br>---- --- ---------- --- ---- --- -- ----------,206009.30000001192,206008.69999998808,205281.48,205289.5,205298.145,206014.748,,9,Congress
screen,html.Screen,0_4_1_0_1_10,2021-12-02T12:08:25.388Z,,,,,,,,,,,,,,,,51,,,,,,,,,,,,,,785.9519999880868,,response,,,13,E,,,,,Space,keypress(Space),,,,lyrical,-------- -------- --- --- ---- --- --- ------ -- --------<br>over --------- --- ------- ------------ ---------- ---------<br>--- ---------- ------- ---------- ------- -- -------- ----<br>---- --- ------ ----- ------ -- ---- --- ----- -- - -------<br>-------- -- --- --- -- ----- ----------- ----- -----------<br>---- --- ---------- --- ---- --- -- ----------,206801.19999998808,206800.69999998808,205998.083,206009.39999997616,206014.748,206814.699,,10,over
screen,html.Screen,0_4_1_0_1_11,2021-12-02T12:08:26.172Z,,,,,,,,,,,,,,,,51,,,,,,,,,,,,,,769.900999964244,,response,,,13,E,,,,,Space,keypress(Space),,,,lyrical,-------- -------- --- --- ---- --- --- ------ -- --------<br>---- reforming --- ------- ------------ ---------- ---------<br>--- ---------- ------- ---------- ------- -- -------- ----<br>---- --- ------ ----- ------ -- ---- --- ----- -- - -------<br>-------- -- --- --- -- ----- ----------- ----- -----------<br>---- --- ---------- --- ---- --- -- ----------,207585.09999996424,207584.59999996424,206798.034,206801.39999997616,206814.699,207598.117,,11,reforming
screen,html.Screen,0_4_1_0_1_12,2021-12-02T12:08:26.859Z,,,,,,,,,,,,,,,,51,,,,,,,,,,,,,,674.3830000000016,,response,,,13,E,,,,,Space,keypress(Space),,,,lyrical,-------- -------- --- --- ---- --- --- ------ -- --------<br>---- --------- the ------- ------------ ---------- ---------<br>--- ---------- ------- ---------- ------- -- -------- ----<br>---- --- ------ ----- ------ -- ---- --- ----- -- - -------<br>-------- -- --- --- -- ----- ----------- ----- -----------<br>---- --- ---------- --- ---- --- -- ----------,208272.89999997616,208272.5,207581.451,207585.19999998808,207598.117,208281.355,,12,the
screen,html.Screen,0_4_1_0_1_13,2021-12-02T12:08:27.796Z,,,,,,,,,,,,,,,,51,,,,,,,,,,,,,,927.2449999642267,,response,,,13,E,,,,,Space,keypress(Space),,,,lyrical,-------- -------- --- --- ---- --- --- ------ -- --------<br>---- --------- --- federal ------------ ---------- ---------<br>--- ---------- ------- ---------- ------- -- -------- ----<br>---- --- ------ ----- ------ -- ---- --- ----- -- - -------<br>-------- -- --- --- -- ----- ----------- ----- -----------<br>---- --- ---------- --- ---- --- -- ----------,209209.19999998808,209208.59999996424,208264.69,208273.09999996424,208281.355,209214.576,,13,federal
screen,html.Screen,0_4_1_0_1_14,2021-12-02T12:08:28.803Z,,,,,,,,,,,,,,,,51,,,,,,,,,,,,,,1001.9239999999991,,response,,,13,E,,,,,Space,keypress(Space),,,,lyrical,-------- -------- --- --- ---- --- --- ------ -- --------<br>---- --------- --- ------- government's ---------- ---------<br>--- ---------- ------- ---------- ------- -- -------- ----<br>---- --- ------ ----- ------ -- ---- --- ----- -- - -------<br>-------- -- --- --- -- ----- ----------- ----- -----------<br>---- --- ---------- --- ---- --- -- ----------,210217.09999996424,210216.5,209197.911,209209.39999997616,209214.576,210231.334,,14,government's
screen,html.Screen,0_4_1_0_1_15,2021-12-02T12:08:31.508Z,,,,,,,,,,,,,,,,51,,,,,,,,,,,,,,2689.3659999880765,,response,,,13,E,,,,,Space,keypress(Space),,,,lyrical,-------- -------- --- --- ---- --- --- ------ -- --------<br>---- --------- --- ------- ------------ regulatory ---------<br>--- ---------- ------- ---------- ------- -- -------- ----<br>---- --- ------ ----- ------ -- ---- --- ----- -- - -------<br>-------- -- --- --- -- ----- ----------- ----- -----------<br>---- --- ---------- --- ---- --- -- ----------,212921.30000001192,212920.69999998808,210214.668,210217.19999998808,210231.334,212931.223,,15,regulatory
screen,html.Screen,0_4_1_0_1_16,2021-12-02T12:08:32.531Z,,,,,,,,,,,,,,,,51,,,,,,,,,,,,,,1013.2770000000019,,response,,,13,E,,,,,Space,keypress(Space),,,,lyrical,-------- -------- --- --- ---- --- --- ------ -- --------<br>---- --------- --- ------- ------------ ---------- apparatus<br>--- ---------- ------- ---------- ------- -- -------- ----<br>---- --- ------ ----- ------ -- ---- --- ----- -- - -------<br>-------- -- --- --- -- ----- ----------- ----- -----------<br>---- --- ---------- --- ---- --- -- ----------,213945,213944.5,212914.557,212921.5,212931.223,213947.685,,16,apparatus
screen,html.Screen,0_4_1_0_1_17,2021-12-02T12:08:33.107Z,,,,,,,,,,,,,,,,51,,,,,,,,,,,,,,572.7149999761605,,response,,,13,E,,,,,Space,keypress(Space),,,,lyrical,-------- -------- --- --- ---- --- --- ------ -- --------<br>---- --------- --- ------- ------------ ---------- ---------<br>may ---------- ------- ---------- ------- -- -------- ----<br>---- --- ------ ----- ------ -- ---- --- ----- -- - -------<br>-------- -- --- --- -- ----- ----------- ----- -----------<br>---- --- ---------- --- ---- --- -- ----------,214521,214520.39999997616,213931.02,213945.19999998808,213947.685,214531.192,,17,may
screen,html.Screen,0_4_1_0_1_18,2021-12-02T12:08:33.595Z,,,,,,,,,,,,,,,,51,,,,,,,,,,,,,,477.20799997614813,,response,,,13,E,,,,,Space,keypress(Space),,,,lyrical,-------- -------- --- --- ---- --- --- ------ -- --------<br>---- --------- --- ------- ------------ ---------- ---------<br>--- profoundly ------- ---------- ------- -- -------- ----<br>---- --- ------ ----- ------ -- ---- --- ----- -- - -------<br>-------- -- --- --- -- ----- ----------- ----- -----------<br>---- --- ---------- --- ---- --- -- ----------,215008.80000001192,215008.39999997616,214514.526,214521.09999996424,214531.192,215014.441,,18,profoundly
screen,html.Screen,0_4_1_0_1_19,2021-12-02T12:08:34.123Z,,,,,,,,,,,,,,,,51,,,,,,,,,,,,,,521.8590000119293,,response,,,13,E,,,,,Space,keypress(Space),,,,lyrical,-------- -------- --- --- ---- --- --- ------ -- --------<br>---- --------- --- ------- ------------ ---------- ---------<br>--- ---------- improve ---------- ------- -- -------- ----<br>---- --- ------ ----- ------ -- ---- --- ----- -- - -------<br>-------- -- --- --- -- ----- ----------- ----- -----------<br>---- --- ---------- --- ---- --- -- ----------,215537,215536.30000001192,214997.776,215009.09999996424,215014.441,215547.806,,19,improve
screen,html.Screen,0_4_1_0_1_20,2021-12-02T12:08:34.787Z,,,,,,,,,,,,,,,,51,,,,,,,,,,,,,,652.5939999761467,,response,,,13,E,,,,,Space,keypress(Space),,,,lyrical,-------- -------- --- --- ---- --- --- ------ -- --------<br>---- --------- --- ------- ------------ ---------- ---------<br>--- ---------- ------- companies' ------- -- -------- ----<br>---- --- ------ ----- ------ -- ---- --- ----- -- - -------<br>-------- -- --- --- -- ----- ----------- ----- -----------<br>---- --- ---------- --- ---- --- -- ----------,216201,216200.39999997616,215531.14,215537.09999996424,215547.806,216214.301,,20,companies'
screen,html.Screen,0_4_1_0_1_21,2021-12-02T12:08:35.323Z,,,,,,,,,,,,,,,,51,,,,,,,,,,,,,,521.9990000119142,,response,,,13,E,,,,,Space,keypress(Space),,,,lyrical,-------- -------- --- --- ---- --- --- ------ -- --------<br>---- --------- --- ------- ------------ ---------- ---------<br>--- ---------- ------- ---------- ability -- -------- ----<br>---- --- ------ ----- ------ -- ---- --- ----- -- - -------<br>-------- -- --- --- -- ----- ----------- ----- -----------<br>---- --- ---------- --- ---- --- -- ----------,216736.89999997616,216736.30000001192,216197.637,216201.19999998808,216214.301,216747.808,,21,ability
screen,html.Screen,0_4_1_0_1_22,2021-12-02T12:08:35.715Z,,,,,,,,,,,,,,,,51,,,,,,,,,,,,,,380.3919999880891,,response,,,13,E,,,,,Space,keypress(Space),,,,lyrical,-------- -------- --- --- ---- --- --- ------ -- --------<br>---- --------- --- ------- ------------ ---------- ---------<br>--- ---------- ------- ---------- ------- to -------- ----<br>---- --- ------ ----- ------ -- ---- --- ----- -- - -------<br>-------- -- --- --- -- ----- ----------- ----- -----------<br>---- --- ---------- --- ---- --- -- ----------,217128.80000001192,217128.19999998808,216731.141,216737.09999996424,216747.808,217131.007,,22,to
screen,html.Screen,0_4_1_0_1_23,2021-12-02T12:08:36.315Z,,,,,,,,,,,,,,,,51,,,,,,,,,,,,,,597.1929999880667,,response,,,13,E,,,,,Space,keypress(Space),,,,lyrical,-------- -------- --- --- ---- --- --- ------ -- --------<br>---- --------- --- ------- ------------ ---------- ---------<br>--- ---------- ------- ---------- ------- -- survive. ----<br>---- --- ------ ----- ------ -- ---- --- ----- -- - -------<br>-------- -- --- --- -- ----- ----------- ----- -----------<br>---- --- ---------- --- ---- --- -- ----------,217728.80000001192,217728.19999998808,217114.342,217128.89999997616,217131.007,217731.123,,23,survive.
screen,html.Screen,0_4_1_0_1_24,2021-12-02T12:08:36.787Z,,,,,,,,,,,,,,,,51,,,,,,,,,,,,,,469.1770000119286,,response,,,13,E,,,,,Space,keypress(Space),,,,lyrical,-------- -------- --- --- ---- --- --- ------ -- --------<br>---- --------- --- ------- ------------ ---------- ---------<br>--- ---------- ------- ---------- ------- -- -------- This<br>---- --- ------ ----- ------ -- ---- --- ----- -- - -------<br>-------- -- --- --- -- ----- ----------- ----- -----------<br>---- --- ---------- --- ---- --- -- ----------,218200.89999997616,218200.30000001192,217714.456,217729,217731.123,218214.324,,24,This
screen,html.Screen,0_4_1_0_1_25,2021-12-02T12:08:37.363Z,,,,,,,,,,,,,,,,51,,,,,,,,,,,,,,561.9760000119277,,response,,,13,E,,,,,Space,keypress(Space),,,,lyrical,-------- -------- --- --- ---- --- --- ------ -- --------<br>---- --------- --- ------- ------------ ---------- ---------<br>--- ---------- ------- ---------- ------- -- -------- ----<br>week --- ------ ----- ------ -- ---- --- ----- -- - -------<br>-------- -- --- --- -- ----- ----------- ----- -----------<br>---- --- ---------- --- ---- --- -- ----------,218776.80000001192,218776.30000001192,218197.659,218201,218214.324,218780.977,,25,week
screen,html.Screen,0_4_1_0_1_26,2021-12-02T12:08:37.747Z,,,,,,,,,,,,,,,,51,,,,,,,,,,,,,,379.22299998806557,,response,,,13,E,,,,,Space,keypress(Space),,,,lyrical,-------- -------- --- --- ---- --- --- ------ -- --------<br>---- --------- --- ------- ------------ ---------- ---------<br>--- ---------- ------- ---------- ------- -- -------- ----<br>---- the ------ ----- ------ -- ---- --- ----- -- - -------<br>-------- -- --- --- -- ----- ----------- ----- -----------<br>---- --- ---------- --- ---- --- -- ----------,219160.80000001192,219160.19999998808,218764.312,218776.89999997616,218780.977,219164.305,,26,the
screen,html.Screen,0_4_1_0_1_27,2021-12-02T12:08:38.531Z,,,,,,,,,,,,,,,,51,,,,,,,,,,,,,,779.894999988086,,response,,,13,E,,,,,Space,keypress(Space),,,,lyrical,-------- -------- --- --- ---- --- --- ------ -- --------<br>---- --------- --- ------- ------------ ---------- ---------<br>--- ---------- ------- ---------- ------- -- -------- ----<br>---- --- Senate ----- ------ -- ---- --- ----- -- - -------<br>-------- -- --- --- -- ----- ----------- ----- -----------<br>---- --- ---------- --- ---- --- -- ----------,219944.80000001192,219944.19999998808,219147.64,219160.89999997616,219164.305,219947.644,,27,Senate
screen,html.Screen,0_4_1_0_1_28,2021-12-02T12:08:39.011Z,,,,,,,,,,,,,,,,51,,,,,,,,,,,,,,476.455999964237,,response,,,13,E,,,,,Space,keypress(Space),,,,lyrical,-------- -------- --- --- ---- --- --- ------ -- --------<br>---- --------- --- ------- ------------ ---------- ---------<br>--- ---------- ------- ---------- ------- -- -------- ----<br>---- --- ------ seems ------ -- ---- --- ----- -- - -------<br>-------- -- --- --- -- ----- ----------- ----- -----------<br>---- --- ---------- --- ---- --- -- ----------,220424.69999998808,220424.09999996424,219930.978,219945,219947.644,220430.914,,28,seems
screen,html.Screen,0_4_1_0_1_29,2021-12-02T12:08:39.427Z,,,,,,,,,,,,,,,,51,,,,,,,,,,,,,,409.18599996424746,,response,,,13,E,,,,,Space,keypress(Space),,,,lyrical,-------- -------- --- --- ---- --- --- ------ -- --------<br>---- --------- --- ------- ------------ ---------- ---------<br>--- ---------- ------- ---------- ------- -- -------- ----<br>---- --- ------ ----- poised -- ---- --- ----- -- - -------<br>-------- -- --- --- -- ----- ----------- ----- -----------<br>---- --- ---------- --- ---- --- -- ----------,220840.80000001192,220840.09999996424,220414.249,220424.89999997616,220430.914,220847.571,,29,poised
screen,html.Screen,0_4_1_0_1_30,2021-12-02T12:08:40.611Z,,,,,,,,,,,,,,,,51,,,,,,,,,,,,,,1176.6289999880828,,response,,,13,E,,,,,Space,keypress(Space),,,,lyrical,-------- -------- --- --- ---- --- --- ------ -- --------<br>---- --------- --- ------- ------------ ---------- ---------<br>--- ---------- ------- ---------- ------- -- -------- ----<br>---- --- ------ ----- ------ to ---- --- ----- -- - -------<br>-------- -- --- --- -- ----- ----------- ----- -----------<br>---- --- ---------- --- ---- --- -- ----------,222024.69999998808,222024.19999998808,220830.906,220840.89999997616,220847.571,222030.897,,30,to
screen,html.Screen,0_4_1_0_1_31,2021-12-02T12:08:41.027Z,,,,,,,,,,,,,,,,51,,,,,,,,,,,,,,409.20299996424,,response,,,13,E,,,,,Space,keypress(Space),,,,lyrical,-------- -------- --- --- ---- --- --- ------ -- --------<br>---- --------- --- ------- ------------ ---------- ---------<br>--- ---------- ------- ---------- ------- -- -------- ----<br>---- --- ------ ----- ------ -- join --- ----- -- - -------<br>-------- -- --- --- -- ----- ----------- ----- -----------<br>---- --- ---------- --- ---- --- -- ----------,222440.80000001192,222440.09999996424,222014.231,222025,222030.897,222447.393,,31,join
screen,html.Screen,0_4_1_0_1_32,2021-12-02T12:08:41.499Z,,,,,,,,,,,,,,,,51,,,,,,,,,,,,,,464.60699999998906,,response,,,13,E,,,,,Space,keypress(Space),,,,lyrical,-------- -------- --- --- ---- --- --- ------ -- --------<br>---- --------- --- ------- ------------ ---------- ---------<br>--- ---------- ------- ---------- ------- -- -------- ----<br>---- --- ------ ----- ------ -- ---- the ----- -- - -------<br>-------- -- --- --- -- ----- ----------- ----- -----------<br>---- --- ---------- --- ---- --- -- ----------,222912.59999996424,222912,222430.729,222440.89999997616,222447.393,222914.199,,32,the
screen,html.Screen,0_4_1_0_1_33,2021-12-02T12:08:42.179Z,,,,,,,,,,,,,,,,51,,,,,,,,,,,,,,678.2009999761649,,response,,,13,E,,,,,Space,keypress(Space),,,,lyrical,-------- -------- --- --- ---- --- --- ------ -- --------<br>---- --------- --- ------- ------------ ---------- ---------<br>--- ---------- ------- ---------- ------- -- -------- ----<br>---- --- ------ ----- ------ -- ---- --- House -- - -------<br>-------- -- --- --- -- ----- ----------- ----- -----------<br>---- --- ---------- --- ---- --- -- ----------,223592.89999997616,223592.39999997616,222897.533,222912.80000001192,222914.199,223597.458,,33,House
screen,html.Screen,0_4_1_0_1_34,2021-12-02T12:08:42.659Z,,,,,,,,,,,,,,,,51,,,,,,,,,,,,,,474.54199999998673,,response,,,13,E,,,,,Space,keypress(Space),,,,lyrical,-------- -------- --- --- ---- --- --- ------ -- --------<br>---- --------- --- ------- ------------ ---------- ---------<br>--- ---------- ------- ---------- ------- -- -------- ----<br>---- --- ------ ----- ------ -- ---- --- ----- in - -------<br>-------- -- --- --- -- ----- ----------- ----- -----------<br>---- --- ---------- --- ---- --- -- ----------,224072.59999996424,224072,223580.793,223593.09999996424,223597.458,224080.851,,34,in
screen,html.Screen,0_4_1_0_1_35,2021-12-02T12:08:43.155Z,,,,,,,,,,,,,,,,51,,,,,,,,,,,,,,487.1490000000049,,response,,,13,E,,,,,Space,keypress(Space),,,,lyrical,-------- -------- --- --- ---- --- --- ------ -- --------<br>---- --------- --- ------- ------------ ---------- ---------<br>--- ---------- ------- ---------- ------- -- -------- ----<br>---- --- ------ ----- ------ -- ---- --- ----- -- a -------<br>-------- -- --- --- -- ----- ----------- ----- -----------<br>---- --- ---------- --- ---- --- -- ----------,224568.59999996424,224568,224064.185,224072.69999998808,224080.851,224580.756,,35,a
screen,html.Screen,0_4_1_0_1_36,2021-12-02T12:08:43.771Z,,,,,,,,,,,,,,,,51,,,,,,,,,,,,,,603.244000000006,,response,,,13,E,,,,,Space,keypress(Space),,,,lyrical,-------- -------- --- --- ---- --- --- ------ -- --------<br>---- --------- --- ------- ------------ ---------- ---------<br>--- ---------- ------- ---------- ------- -- -------- ----<br>---- --- ------ ----- ------ -- ---- --- ----- -- - massive<br>-------- -- --- --- -- ----- ----------- ----- -----------<br>---- --- ---------- --- ---- --- -- ----------,225184.59999996424,225184,224564.091,224568.80000001192,224580.756,225197.383,,36,massive
screen,html.Screen,0_4_1_0_1_37,2021-12-02T12:08:44.835Z,,,,,,,,,,,,,,,,51,,,,,,,,,,,,,,1050.5169999761565,,response,,,13,E,,,,,Space,keypress(Space),,,,lyrical,-------- -------- --- --- ---- --- --- ------ -- --------<br>---- --------- --- ------- ------------ ---------- ---------<br>--- ---------- ------- ---------- ------- -- -------- ----<br>---- --- ------ ----- ------ -- ---- --- ----- -- - -------<br>overhaul -- --- --- -- ----- ----------- ----- -----------<br>---- --- ---------- --- ---- --- -- ----------,226248.5,226247.89999997616,225180.718,225184.69999998808,225197.383,226264.069,,37,overhaul
screen,html.Screen,0_4_1_0_1_38,2021-12-02T12:08:45.699Z,,,,,,,,,,,,,,,,51,,,,,,,,,,,,,,847.8309999761696,,response,,,13,E,,,,,Space,keypress(Space),,,,lyrical,-------- -------- --- --- ---- --- --- ------ -- --------<br>---- --------- --- ------- ------------ ---------- ---------<br>--- ---------- ------- ---------- ------- -- -------- ----<br>---- --- ------ ----- ------ -- ---- --- ----- -- - -------<br>-------- of --- --- -- ----- ----------- ----- -----------<br>---- --- ---------- --- ---- --- -- ----------,227112.5,227111.89999997616,226247.403,226248.69999998808,226264.069,227113.971,,38,of
screen,html.Screen,0_4_1_0_1_39,2021-12-02T12:08:46.075Z,,,,,,,,,,,,,,,,51,,,,,,,,,,,,,,373.9289999761677,,response,,,13,E,,,,,Space,keypress(Space),,,,lyrical,-------- -------- --- --- ---- --- --- ------ -- --------<br>---- --------- --- ------- ------------ ---------- ---------<br>--- ---------- ------- ---------- ------- -- -------- ----<br>---- --- ------ ----- ------ -- ---- --- ----- -- - -------<br>-------- -- the --- -- ----- ----------- ----- -----------<br>---- --- ---------- --- ---- --- -- ----------,227488.59999996424,227487.89999997616,227097.306,227112.59999996424,227113.971,227497.377,,39,the
screen,html.Screen,0_4_1_0_1_40,2021-12-02T12:08:46.827Z,,,,,,,,,,,,,,,,51,,,,,,,,,,,,,,742.5229999761505,,response,,,13,E,,,,,Space,keypress(Space),,,,lyrical,-------- -------- --- --- ---- --- --- ------ -- --------<br>---- --------- --- ------- ------------ ---------- ---------<br>--- ---------- ------- ---------- ------- -- -------- ----<br>---- --- ------ ----- ------ -- ---- --- ----- -- - -------<br>-------- -- --- way -- ----- ----------- ----- -----------<br>---- --- ---------- --- ---- --- -- ----------,228240.59999996424,228239.89999997616,227480.711,227488.80000001192,227497.377,228247.296,,40,way
screen,html.Screen,0_4_1_0_1_41,2021-12-02T12:08:47.387Z,,,,,,,,,,,,,,,,51,,,,,,,,,,,,,,552.5040000119188,,response,,,13,E,,,,,Space,keypress(Space),,,,lyrical,-------- -------- --- --- ---- --- --- ------ -- --------<br>---- --------- --- ------- ------------ ---------- ---------<br>--- ---------- ------- ---------- ------- -- -------- ----<br>---- --- ------ ----- ------ -- ---- --- ----- -- - -------<br>-------- -- --- --- in ----- ----------- ----- -----------<br>---- --- ---------- --- ---- --- -- ----------,228800.39999997616,228799.80000001192,228230.631,228240.80000001192,228247.296,228813.902,,41,in
screen,html.Screen,0_4_1_0_1_42,2021-12-02T12:08:48.059Z,,,,,,,,,,,,,,,,51,,,,,,,,,,,,,,657.9979999761563,,response,,,13,E,,,,,Space,keypress(Space),,,,lyrical,-------- -------- --- --- ---- --- --- ------ -- --------<br>---- --------- --- ------- ------------ ---------- ---------<br>--- ---------- ------- ---------- ------- -- -------- ----<br>---- --- ------ ----- ------ -- ---- --- ----- -- - -------<br>-------- -- --- --- -- which ----------- ----- -----------<br>---- --- ---------- --- ---- --- -- ----------,229472.5,229471.89999997616,228797.237,228800.5,228813.902,229480.645,,42,which
screen,html.Screen,0_4_1_0_1_43,2021-12-02T12:08:50.915Z,,,,,,,,,,,,,,,,51,,,,,,,,,,,,,,2847.0549999880895,,response,,,13,E,,,,,Space,keypress(Space),,,,lyrical,-------- -------- --- --- ---- --- --- ------ -- --------<br>---- --------- --- ------- ------------ ---------- ---------<br>--- ---------- ------- ---------- ------- -- -------- ----<br>---- --- ------ ----- ------ -- ---- --- ----- -- - -------<br>-------- -- --- --- -- ----- bureaucrats ----- -----------<br>---- --- ---------- --- ---- --- -- ----------,232328.30000001192,232327.69999998808,229463.979,229472.59999996424,229480.645,232330.525,,43,bureaucrats
screen,html.Screen,0_4_1_0_1_44,2021-12-02T12:08:51.715Z,,,,,,,,,,,,,,,,51,,,,,,,,,,,,,,797.2750000119267,,response,,,13,E,,,,,Space,keypress(Space),,,,lyrical,-------- -------- --- --- ---- --- --- ------ -- --------<br>---- --------- --- ------- ------------ ---------- ---------<br>--- ---------- ------- ---------- ------- -- -------- ----<br>---- --- ------ ----- ------ -- ---- --- ----- -- - -------<br>-------- -- --- --- -- ----- ----------- enact -----------<br>---- --- ---------- --- ---- --- -- ----------,233128.30000001192,233127.80000001192,232313.859,232328.59999996424,232330.525,233130.407,,44,enact
screen,html.Screen,0_4_1_0_1_45,2021-12-02T12:08:52.467Z,,,,,,,,,,,,,,,,51,,,,,,,,,,,,,,749.4929999761516,,response,,,13,E,,,,,Space,keypress(Space),,,,lyrical,-------- -------- --- --- ---- --- --- ------ -- --------<br>---- --------- --- ------- ------------ ---------- ---------<br>--- ---------- ------- ---------- ------- -- -------- ----<br>---- --- ------ ----- ------ -- ---- --- ----- -- - -------<br>-------- -- --- --- -- ----- ----------- ----- regulations<br>---- --- ---------- --- ---- --- -- ----------,233880.5,233879.89999997616,233113.742,233128.5,233130.407,233897.06,,45,regulations
screen,html.Screen,0_4_1_0_1_46,2021-12-02T12:08:52.875Z,,,,,,,,,,,,,,,,51,,,,,,,,,,,,,,390.53999996423954,,response,,,13,E,,,,,Space,keypress(Space),,,,lyrical,-------- -------- --- --- ---- --- --- ------ -- --------<br>---- --------- --- ------- ------------ ---------- ---------<br>--- ---------- ------- ---------- ------- -- -------- ----<br>---- --- ------ ----- ------ -- ---- --- ----- -- - -------<br>-------- -- --- --- -- ----- ----------- ----- -----------<br>that --- ---------- --- ---- --- -- ----------,234288.19999998808,234287.59999996424,233880.395,233880.69999998808,233897.06,234297.112,,46,that
screen,html.Screen,0_4_1_0_1_47,2021-12-02T12:08:53.403Z,,,,,,,,,,,,,,,,51,,,,,,,,,,,,,,518.4879999642435,,response,,,13,E,,,,,Space,keypress(Space),,,,lyrical,-------- -------- --- --- ---- --- --- ------ -- --------<br>---- --------- --- ------- ------------ ---------- ---------<br>--- ---------- ------- ---------- ------- -- -------- ----<br>---- --- ------ ----- ------ -- ---- --- ----- -- - -------<br>-------- -- --- --- -- ----- ----------- ----- -----------<br>---- are ---------- --- ---- --- -- ----------,234816.19999998808,234815.59999996424,234280.446,234288.39999997616,234297.112,234830.437,,47,are
screen,html.Screen,0_4_1_0_1_48,2021-12-02T12:08:53.883Z,,,,,,,,,,,,,,,,51,,,,,,,,,,,,,,465.16299996423186,,response,,,13,E,,,,,Space,keypress(Space),,,,lyrical,-------- -------- --- --- ---- --- --- ------ -- --------<br>---- --------- --- ------- ------------ ---------- ---------<br>--- ---------- ------- ---------- ------- -- -------- ----<br>---- --- ------ ----- ------ -- ---- --- ----- -- - -------<br>-------- -- --- --- -- ----- ----------- ----- -----------<br>---- --- strangling --- ---- --- -- ----------,235296.19999998808,235295.59999996424,234813.771,234816.30000001192,234830.437,235297.013,,48,strangling
screen,html.Screen,0_4_1_0_1_49,2021-12-02T12:08:54.355Z,,,,,,,,,,,,,,,,51,,,,,,,,,,,,,,470.4869999999937,,response,,,13,E,,,,,Space,keypress(Space),,,,lyrical,-------- -------- --- --- ---- --- --- ------ -- --------<br>---- --------- --- ------- ------------ ---------- ---------<br>--- ---------- ------- ---------- ------- -- -------- ----<br>---- --- ------ ----- ------ -- ---- --- ----- -- - -------<br>-------- -- --- --- -- ----- ----------- ----- -----------<br>---- --- ---------- the ---- --- -- ----------,235768.19999998808,235767.5,235280.348,235296.39999997616,235297.013,235780.41,,49,the
screen,html.Screen,0_4_1_0_1_50,2021-12-02T12:08:54.771Z,,,,,,,,,,,,,,,,51,,,,,,,,,,,,,,403.1899999642337,,response,,,13,E,,,,,Space,keypress(Space),,,,lyrical,-------- -------- --- --- ---- --- --- ------ -- --------<br>---- --------- --- ------- ------------ ---------- ---------<br>--- ---------- ------- ---------- ------- -- -------- ----<br>---- --- ------ ----- ------ -- ---- --- ----- -- - -------<br>-------- -- --- --- -- ----- ----------- ----- -----------<br>---- --- ---------- --- life --- -- ----------,236184.30000001192,236183.59999996424,235763.744,235768.39999997616,235780.41,236196.987,,50,life
