sender,sender_type,sender_id,timestamp,meta,,Blues,Classical,Country,Dance,Electronic,Folk,Gospel,Hip-Hop,Jazz,Latin,Musical/Film,New-age,Pop,Provo_ID,R&B,Rap,Reggae,Religious,Rock,Soul,Swing,Traditional,age,artist_name,correct,correctResponse,distraction,duration,education,ended_on,familiarity,gender,item,list,music_frequency,offensiveness,pleasantness,preference,response,response_action,snippet_file,song_name,song_rating,sound,text,time_commit,time_end,time_render,time_run,time_show,time_switch,url,word,word_ID
Instructions,html.Page,0_0,2021-11-19T11:20:43.219Z,"{""labjs_version"":""20.2.3"",""labjs_build"":{""flavor"":""production"",""commit"":""7ea907d66ca8aeef8054924ca5d82ffbe11e34e5""},""location"":""https://run.pavlovia.org/mvasilev/lab_music_a/"",""userAgent"":""Mozilla/5.0 (Windows NT 6.1; Win64; x64) AppleWebKit/537.36 (KHTML, like Gecko) Chrome/96.0.4664.45 Safari/537.36"",""platform"":""Win32"",""language"":""en-US"",""locale"":""en-US"",""timeZone"":""Europe/London"",""timezoneOffset"":0,""screen_width"":1920,""screen_height"":1080,""scroll_width"":1920,""scroll_height"":959,""window_innerWidth"":1920,""window_innerHeight"":1007,""devicePixelRatio"":1}",,,,,,,,,,,,,,,,,,,,,,,,,,,,,30673.485000047684,,form submission,,,,,,,,,,,,,,,,40463.39999997616,40462.200000047684,9755.375,9770.899999976158,9788.715,40463.711,{},,
Headphones,html.Page,0_1,2021-11-19T11:20:46.097Z,,,,,,,,,,,,,,,,,,,,,,,,,,,,,,2876.9890000476807,,form submission,,,,,,,,,,,,,,,,43341.299999952316,43340.700000047684,40447.037,40464.10000002384,40463.711,43347.778,,,
Holding screen,html.Screen,0_2_0_0,2021-11-19T11:20:56.095Z,,,,,,,,,,,,,,,,,,,,,,,,,,,,,,10002.220000000001,,timeout,,,,,,,,,,,,,,,,53339.39999997616,53333.329,43331.104,43342,43347.778,53349.998,,,
screen,html.Screen,0_2_0_1_0,2021-11-19T11:20:56.921Z,,,,,,,,,,,,,,,,53,,,,,,,,,,,,,,814.7020000476841,,response,,,99,,,,,,Space,keypress(Space),,,,,When -- ----- -- ------ - ------- --- ----------<br>------------- ------ ------ ---- ---- ------- ----- -- ----<br>-------- ------- -- ---------- --- - --- ----- ----- ----<br>---- --- --- ----- --- ---- ---- ------- ----- ---- -------<br>--- --- -- ----- -- --- ---- -- --- ---- -- ------ ------<br>--- ----- -- ----,54166,54164.700000047684,53333.329,53339.799999952316,53349.998,54167.281,,0,When
screen,html.Screen,0_2_0_1_1,2021-11-19T11:20:57.504Z,,,,,,,,,,,,,,,,53,,,,,,,,,,,,,,580.8190000238392,,response,,,99,,,,,,Space,keypress(Space),,,,,---- it ----- -- ------ - ------- --- ----------<br>------------- ------ ------ ---- ---- ------- ----- -- ----<br>-------- ------- -- ---------- --- - --- ----- ----- ----<br>---- --- --- ----- --- ---- ---- ------- ----- ---- -------<br>--- --- -- ----- -- --- ---- -- --- ---- -- ------ ------<br>--- ----- -- ----,54748.89999997616,54748.10000002384,54150.609,54166.39999997616,54167.281,54750.596,,1,it
screen,html.Screen,0_2_0_1_2,2021-11-19T11:20:58.016Z,,,,,,,,,,,,,,,,53,,,,,,,,,,,,,,509.5040000238441,,response,,,99,,,,,,Space,keypress(Space),,,,,---- -- comes -- ------ - ------- --- ----------<br>------------- ------ ------ ---- ---- ------- ----- -- ----<br>-------- ------- -- ---------- --- - --- ----- ----- ----<br>---- --- --- ----- --- ---- ---- ------- ----- ---- -------<br>--- --- -- ----- -- --- ---- -- --- ---- -- ------ ------<br>--- ----- -- ----,55260.89999997616,55260.10000002384,54733.926,54749.200000047684,54750.596,55267.466,,2,comes
screen,html.Screen,0_2_0_1_3,2021-11-19T11:20:58.648Z,,,,,,,,,,,,,,,,53,,,,,,,,,,,,,,624.6340000238415,,response,,,99,,,,,,Space,keypress(Space),,,,,---- -- ----- to ------ - ------- --- ----------<br>------------- ------ ------ ---- ---- ------- ----- -- ----<br>-------- ------- -- ---------- --- - --- ----- ----- ----<br>---- --- --- ----- --- ---- ---- ------- ----- ---- -------<br>--- --- -- ----- -- --- ---- -- --- ---- -- ------ ------<br>--- ----- -- ----,55893.10000002384,55892.10000002384,55250.795,55261.200000047684,55267.466,55900.9,,3,to
screen,html.Screen,0_2_0_1_4,2021-11-19T11:20:59.249Z,,,,,,,,,,,,,,,,53,,,,,,,,,,,,,,591.3000000476823,,response,,,99,,,,,,Space,keypress(Space),,,,,---- -- ----- -- having - ------- --- ----------<br>------------- ------ ------ ---- ---- ------- ----- -- ----<br>-------- ------- -- ---------- --- - --- ----- ----- ----<br>---- --- --- ----- --- ---- ---- ------- ----- ---- -------<br>--- --- -- ----- -- --- ---- -- --- ---- -- ------ ------<br>--- ----- -- ----,56493.39999997616,56492.200000047684,55884.23,55893.60000002384,55900.9,56501.12,,4,having
screen,html.Screen,0_2_0_1_5,2021-11-19T11:20:59.848Z,,,,,,,,,,,,,,,,53,,,,,,,,,,,,,,590.7799999761555,,response,,,99,,,,,,Space,keypress(Space),,,,,---- -- ----- -- ------ a ------- --- ----------<br>------------- ------ ------ ---- ---- ------- ----- -- ----<br>-------- ------- -- ---------- --- - --- ----- ----- ----<br>---- --- --- ----- --- ---- ---- ------- ----- ---- -------<br>--- --- -- ----- -- --- ---- -- --- ---- -- ------ ------<br>--- ----- -- ----,57092.799999952316,57091.89999997616,56484.449,56493.60000002384,56501.12,57101.196,,5,a
screen,html.Screen,0_2_0_1_6,2021-11-19T11:21:00.424Z,,,,,,,,,,,,,,,,53,,,,,,,,,,,,,,566.7039999761546,,response,,,99,,,,,,Space,keypress(Space),,,,,---- -- ----- -- ------ - lasting --- ----------<br>------------- ------ ------ ---- ---- ------- ----- -- ----<br>-------- ------- -- ---------- --- - --- ----- ----- ----<br>---- --- --- ----- --- ---- ---- ------- ----- ---- -------<br>--- --- -- ----- -- --- ---- -- --- ---- -- ------ ------<br>--- ----- -- ----,57668.799999952316,57667.89999997616,57084.526,57093.5,57101.196,57684.594,,6,lasting
screen,html.Screen,0_2_0_1_7,2021-11-19T11:21:01.008Z,,,,,,,,,,,,,,,,53,,,,,,,,,,,,,,567.3059999761608,,response,,,99,,,,,,Space,keypress(Space),,,,,---- -- ----- -- ------ - ------- and ----------<br>------------- ------ ------ ---- ---- ------- ----- -- ----<br>-------- ------- -- ---------- --- - --- ----- ----- ----<br>---- --- --- ----- --- ---- ---- ------- ----- ---- -------<br>--- --- -- ----- -- --- ---- -- --- ---- -- ------ ------<br>--- ----- -- ----,58252.799999952316,58251.89999997616,57667.925,57669.200000047684,57684.594,58268.305,,7,and
screen,html.Screen,0_2_0_1_8,2021-11-19T11:21:01.752Z,,,,,,,,,,,,,,,,53,,,,,,,,,,,,,,727.494999952316,,response,,,99,,,,,,Space,keypress(Space),,,,,---- -- ----- -- ------ - ------- --- fulfilling<br>------------- ------ ------ ---- ---- ------- ----- -- ----<br>-------- ------- -- ---------- --- - --- ----- ----- ----<br>---- --- --- ----- --- ---- ---- ------- ----- ---- -------<br>--- --- -- ----- -- --- ---- -- --- ---- -- ------ ------<br>--- ----- -- ----,58997.10000002384,58995.799999952316,58251.633,58253.10000002384,58268.305,59001.687,,8,fulfilling
screen,html.Screen,0_2_0_1_9,2021-11-19T11:21:02.680Z,,,,,,,,,,,,,,,,53,,,,,,,,,,,,,,922.1129999523182,,response,,,99,,,,,,Space,keypress(Space),,,,,"---- -- ----- -- ------ - ------- --- ----------<br>relationship, ------ ------ ---- ---- ------- ----- -- ----<br>-------- ------- -- ---------- --- - --- ----- ----- ----<br>---- --- --- ----- --- ---- ---- ------- ----- ---- -------<br>--- --- -- ----- -- --- ---- -- --- ---- -- ------ ------<br>--- ----- -- ----",59924.700000047684,59923.799999952316,58985.017,58997.39999997616,59001.687,59935.26,,9,"relationship,"
screen,html.Screen,0_2_0_1_10,2021-11-19T11:21:03.419Z,,,,,,,,,,,,,,,,53,,,,,,,,,,,,,,724.4400000476817,,response,,,99,,,,,,Space,keypress(Space),,,,,---- -- ----- -- ------ - ------- --- ----------<br>------------- common ------ ---- ---- ------- ----- -- ----<br>-------- ------- -- ---------- --- - --- ----- ----- ----<br>---- --- --- ----- --- ---- ---- ------- ----- ---- -------<br>--- --- -- ----- -- --- ---- -- --- ---- -- ------ ------<br>--- ----- -- ----,60660.700000047684,60659.700000047684,59918.59,59925,59935.26,60668.661,,10,common
screen,html.Screen,0_2_0_1_11,2021-11-19T11:21:04.163Z,,,,,,,,,,,,,,,,53,,,,,,,,,,,,,,735.0390000476837,,response,,,99,,,,,,Space,keypress(Space),,,,,---- -- ----- -- ------ - ------- --- ----------<br>------------- ------ wisdom ---- ---- ------- ----- -- ----<br>-------- ------- -- ---------- --- - --- ----- ----- ----<br>---- --- --- ----- --- ---- ---- ------- ----- ---- -------<br>--- --- -- ----- -- --- ---- -- --- ---- -- ------ ------<br>--- ----- -- ----,61404.60000002384,61403.700000047684,60651.992,60660.89999997616,60668.661,61419.076,,11,wisdom
screen,html.Screen,0_2_0_1_12,2021-11-19T11:21:04.835Z,,,,,,,,,,,,,,,,53,,,,,,,,,,,,,,656.5240000238409,,response,,,99,,,,,,Space,keypress(Space),,,,,---- -- ----- -- ------ - ------- --- ----------<br>------------- ------ ------ says ---- ------- ----- -- ----<br>-------- ------- -- ---------- --- - --- ----- ----- ----<br>---- --- --- ----- --- ---- ---- ------- ----- ---- -------<br>--- --- -- ----- -- --- ---- -- --- ---- -- ------ ------<br>--- ----- -- ----,62076.5,62075.60000002384,61402.405,61404.89999997616,61419.076,62085.718,,12,says
screen,html.Screen,0_2_0_1_13,2021-11-19T11:21:05.507Z,,,,,,,,,,,,,,,,53,,,,,,,,,,,,,,661.982000047683,,response,,,99,,,,,,Space,keypress(Space),,,,,---- -- ----- -- ------ - ------- --- ----------<br>------------- ------ ------ ---- that ------- ----- -- ----<br>-------- ------- -- ---------- --- - --- ----- ----- ----<br>---- --- --- ----- --- ---- ---- ------- ----- ---- -------<br>--- --- -- ----- -- --- ---- -- --- ---- -- ------ ------<br>--- ----- -- ----,62748.5,62747.700000047684,62069.049,62076.700000047684,62085.718,62752.718,,13,that
screen,html.Screen,0_2_0_1_14,2021-11-19T11:21:06.283Z,,,,,,,,,,,,,,,,53,,,,,,,,,,,,,,771.0819999523155,,response,,,99,,,,,,Space,keypress(Space),,,,,---- -- ----- -- ------ - ------- --- ----------<br>------------- ------ ------ ---- ---- feeling ----- -- ----<br>-------- ------- -- ---------- --- - --- ----- ----- ----<br>---- --- --- ----- --- ---- ---- ------- ----- ---- -------<br>--- --- -- ----- -- --- ---- -- --- ---- -- ------ ------<br>--- ----- -- ----,63524.60000002384,63523.799999952316,62736.047,62748.700000047684,62752.718,63536.183,,14,feeling
screen,html.Screen,0_2_0_1_15,2021-11-19T11:21:07.003Z,,,,,,,,,,,,,,,,53,,,,,,,,,,,,,,707.7169999761609,,response,,,99,,,,,,Space,keypress(Space),,,,,---- -- ----- -- ------ - ------- --- ----------<br>------------- ------ ------ ---- ---- ------- close -- ----<br>-------- ------- -- ---------- --- - --- ----- ----- ----<br>---- --- --- ----- --- ---- ---- ------- ----- ---- -------<br>--- --- -- ----- -- --- ---- -- --- ---- -- ------ ------<br>--- ----- -- ----,64244.700000047684,64243.89999997616,63519.513,63524.89999997616,63536.183,64253.004,,15,close
screen,html.Screen,0_2_0_1_16,2021-11-19T11:21:07.691Z,,,,,,,,,,,,,,,,53,,,,,,,,,,,,,,678.596000023841,,response,,,99,,,,,,Space,keypress(Space),,,,,---- -- ----- -- ------ - ------- --- ----------<br>------------- ------ ------ ---- ---- ------- ----- to ----<br>-------- ------- -- ---------- --- - --- ----- ----- ----<br>---- --- --- ----- --- ---- ---- ------- ----- ---- -------<br>--- --- -- ----- -- --- ---- -- --- ---- -- ------ ------<br>--- ----- -- ----,64932.5,64931.60000002384,64236.334,64245,64253.004,64936.619,,16,to
screen,html.Screen,0_2_0_1_17,2021-11-19T11:21:08.235Z,,,,,,,,,,,,,,,,53,,,,,,,,,,,,,,538.8810000000012,,response,,,99,,,,,,Space,keypress(Space),,,,,---- -- ----- -- ------ - ------- --- ----------<br>------------- ------ ------ ---- ---- ------- ----- -- your<br>-------- ------- -- ---------- --- - --- ----- ----- ----<br>---- --- --- ----- --- ---- ---- ------- ----- ---- -------<br>--- --- -- ----- -- --- ---- -- --- ---- -- ------ ------<br>--- ----- -- ----,65476.299999952316,65475.5,64919.948,64932.700000047684,64936.619,65486.721,,17,your
screen,html.Screen,0_2_0_1_18,2021-11-19T11:21:09.003Z,,,,,,,,,,,,,,,,53,,,,,,,,,,,,,,756.6789999761604,,response,,,99,,,,,,Space,keypress(Space),,,,,---- -- ----- -- ------ - ------- --- ----------<br>------------- ------ ------ ---- ---- ------- ----- -- ----<br>romantic ------- -- ---------- --- - --- ----- ----- ----<br>---- --- --- ----- --- ---- ---- ------- ----- ---- -------<br>--- --- -- ----- -- --- ---- -- --- ---- -- ------ ------<br>--- ----- -- ----,66244.20000004768,66243.39999997616,65470.051,65476.60000002384,65486.721,66253.569,,18,romantic
screen,html.Screen,0_2_0_1_19,2021-11-19T11:21:09.643Z,,,,,,,,,,,,,,,,53,,,,,,,,,,,,,,629.830999976155,,response,,,99,,,,,,Space,keypress(Space),,,,,---- -- ----- -- ------ - ------- --- ----------<br>------------- ------ ------ ---- ---- ------- ----- -- ----<br>-------- partner -- ---------- --- - --- ----- ----- ----<br>---- --- --- ----- --- ---- ---- ------- ----- ---- -------<br>--- --- -- ----- -- --- ---- -- --- ---- -- ------ ------<br>--- ----- -- ----,66884.20000004768,66883.39999997616,66236.899,66244.39999997616,66253.569,66887.032,,19,partner
screen,html.Screen,0_2_0_1_20,2021-11-19T11:21:10.259Z,,,,,,,,,,,,,,,,53,,,,,,,,,,,,,,612.3679999761516,,response,,,99,,,,,,Space,keypress(Space),,,,,---- -- ----- -- ------ - ------- --- ----------<br>------------- ------ ------ ---- ---- ------- ----- -- ----<br>-------- ------- is ---------- --- - --- ----- ----- ----<br>---- --- --- ----- --- ---- ---- ------- ----- ---- -------<br>--- --- -- ----- -- --- ---- -- --- ---- -- ------ ------<br>--- ----- -- ----,67500.20000004768,67499.39999997616,66870.362,66884.5,66887.032,67503.906,,20,is
screen,html.Screen,0_2_0_1_21,2021-11-19T11:21:11.059Z,,,,,,,,,,,,,,,,53,,,,,,,,,,,,,,795.4939999761555,,response,,,99,,,,,,Space,keypress(Space),,,,,---- -- ----- -- ------ - ------- --- ----------<br>------------- ------ ------ ---- ---- ------- ----- -- ----<br>-------- ------- -- paramount. --- - --- ----- ----- ----<br>---- --- --- ----- --- ---- ---- ------- ----- ---- -------<br>--- --- -- ----- -- --- ---- -- --- ---- -- ------ ------<br>--- ----- -- ----,68300.10000002384,68299.39999997616,67487.236,67500.39999997616,67503.906,68304.087,,21,paramount.
screen,html.Screen,0_2_0_1_22,2021-11-19T11:21:11.794Z,,,,,,,,,,,,,,,,53,,,,,,,,,,,,,,731.2129999523167,,response,,,99,,,,,,Space,keypress(Space),,,,,---- -- ----- -- ------ - ------- --- ----------<br>------------- ------ ------ ---- ---- ------- ----- -- ----<br>-------- ------- -- ---------- But - --- ----- ----- ----<br>---- --- --- ----- --- ---- ---- ------- ----- ---- -------<br>--- --- -- ----- -- --- ---- -- --- ---- -- ------ ------<br>--- ----- -- ----,69036.10000002384,69035.29999995232,68287.417,68300.60000002384,68304.087,69037.604,,22,But
screen,html.Screen,0_2_0_1_23,2021-11-19T11:21:12.994Z,,,,,,,,,,,,,,,,53,,,,,,,,,,,,,,1197.6959999523096,,response,,,99,,,,,,Space,keypress(Space),,,,,---- -- ----- -- ------ - ------- --- ----------<br>------------- ------ ------ ---- ---- ------- ----- -- ----<br>-------- ------- -- ---------- --- a --- ----- ----- ----<br>---- --- --- ----- --- ---- ---- ------- ----- ---- -------<br>--- --- -- ----- -- --- ---- -- --- ---- -- ------ ------<br>--- ----- -- ----,70236.10000002384,70235.29999995232,69020.934,69036.29999995232,69037.604,70237.897,,23,a
screen,html.Screen,0_2_0_1_24,2021-11-19T11:21:13.882Z,,,,,,,,,,,,,,,,53,,,,,,,,,,,,,,885.3030000476865,,response,,,99,,,,,,Space,keypress(Space),,,,,---- -- ----- -- ------ - ------- --- ----------<br>------------- ------ ------ ---- ---- ------- ----- -- ----<br>-------- ------- -- ---------- --- - new ----- ----- ----<br>---- --- --- ----- --- ---- ---- ------- ----- ---- -------<br>--- --- -- ----- -- --- ---- -- --- ---- -- ------ ------<br>--- ----- -- ----,71124,71123.20000004768,70221.227,70236.29999995232,70237.897,71138.15,,24,new
screen,html.Screen,0_2_0_1_25,2021-11-19T11:21:14.498Z,,,,,,,,,,,,,,,,53,,,,,,,,,,,,,,600.9500000238477,,response,,,99,,,,,,Space,keypress(Space),,,,,---- -- ----- -- ------ - ------- --- ----------<br>------------- ------ ------ ---- ---- ------- ----- -- ----<br>-------- ------- -- ---------- --- - --- study ----- ----<br>---- --- --- ----- --- ---- ---- ------- ----- ---- -------<br>--- --- -- ----- -- --- ---- -- --- ---- -- ------ ------<br>--- ----- -- ----,71739.89999997616,71739.10000002384,71121.48,71124.29999995232,71138.15,71754.986,,25,study
screen,html.Screen,0_2_0_1_26,2021-11-19T11:21:15.114Z,,,,,,,,,,,,,,,,53,,,,,,,,,,,,,,600.1140000238374,,response,,,99,,,,,,Space,keypress(Space),,,,,---- -- ----- -- ------ - ------- --- ----------<br>------------- ------ ------ ---- ---- ------- ----- -- ----<br>-------- ------- -- ---------- --- - --- ----- finds ----<br>---- --- --- ----- --- ---- ---- ------- ----- ---- -------<br>--- --- -- ----- -- --- ---- -- --- ---- -- ------ ------<br>--- ----- -- ----,72355.89999997616,72355.10000002384,71738.316,71740.20000004768,71754.986,72371.815,,26,finds
screen,html.Screen,0_2_0_1_27,2021-11-19T11:21:15.626Z,,,,,,,,,,,,,,,,53,,,,,,,,,,,,,,495.28500002383953,,response,,,99,,,,,,Space,keypress(Space),,,,,---- -- ----- -- ------ - ------- --- ----------<br>------------- ------ ------ ---- ---- ------- ----- -- ----<br>-------- ------- -- ---------- --- - --- ----- ----- that<br>---- --- --- ----- --- ---- ---- ------- ----- ---- -------<br>--- --- -- ----- -- --- ---- -- --- ---- -- ------ ------<br>--- ----- -- ----,72868.10000002384,72867.10000002384,72355.145,72356.20000004768,72371.815,72871.956,,27,that
screen,html.Screen,0_2_0_1_28,2021-11-19T11:21:16.266Z,,,,,,,,,,,,,,,,53,,,,,,,,,,,,,,635.1440000238363,,response,,,99,,,,,,Space,keypress(Space),,,,,---- -- ----- -- ------ - ------- --- ----------<br>------------- ------ ------ ---- ---- ------- ----- -- ----<br>-------- ------- -- ---------- --- - --- ----- ----- ----<br>it's --- --- ----- --- ---- ---- ------- ----- ---- -------<br>--- --- -- ----- -- --- ---- -- --- ---- -- ------ ------<br>--- ----- -- ----,73507.89999997616,73507.10000002384,72855.286,72868.29999995232,72871.956,73522.099,,28,it's
screen,html.Screen,0_2_0_1_29,2021-11-19T11:21:16.858Z,,,,,,,,,,,,,,,,53,,,,,,,,,,,,,,576.900999999998,,response,,,99,,,,,,Space,keypress(Space),,,,,---- -- ----- -- ------ - ------- --- ----------<br>------------- ------ ------ ---- ---- ------- ----- -- ----<br>-------- ------- -- ---------- --- - --- ----- ----- ----<br>---- not --- ----- --- ---- ---- ------- ----- ---- -------<br>--- --- -- ----- -- --- ---- -- --- ---- -- ------ ------<br>--- ----- -- ----,74099.79999995232,74099,73505.429,73508.10000002384,73522.099,74105.558,,29,not
screen,html.Screen,0_2_0_1_30,2021-11-19T11:21:17.379Z,,,,,,,,,,,,,,,,53,,,,,,,,,,,,,,513.7419999523117,,response,,,99,,,,,,Space,keypress(Space),,,,,---- -- ----- -- ------ - ------- --- ----------<br>------------- ------ ------ ---- ---- ------- ----- -- ----<br>-------- ------- -- ---------- --- - --- ----- ----- ----<br>---- --- how ----- --- ---- ---- ------- ----- ---- -------<br>--- --- -- ----- -- --- ---- -- --- ---- -- ------ ------<br>--- ----- -- ----,74620.10000002384,74619.29999995232,74088.888,74100.10000002384,74105.558,74622.46,,30,how
screen,html.Screen,0_2_0_1_31,2021-11-19T11:21:18.010Z,,,,,,,,,,,,,,,,53,,,,,,,,,,,,,,628.4399999761517,,response,,,99,,,,,,Space,keypress(Space),,,,,---- -- ----- -- ------ - ------- --- ----------<br>------------- ------ ------ ---- ---- ------- ----- -- ----<br>-------- ------- -- ---------- --- - --- ----- ----- ----<br>---- --- --- close --- ---- ---- ------- ----- ---- -------<br>--- --- -- ----- -- --- ---- -- --- ---- -- ------ ------<br>--- ----- -- ----,75251.70000004768,75250.89999997616,74605.789,74620.39999997616,74622.46,75255.902,,31,close
screen,html.Screen,0_2_0_1_32,2021-11-19T11:21:18.498Z,,,,,,,,,,,,,,,,53,,,,,,,,,,,,,,482.9979999761563,,response,,,99,,,,,,Space,keypress(Space),,,,,---- -- ----- -- ------ - ------- --- ----------<br>------------- ------ ------ ---- ---- ------- ----- -- ----<br>-------- ------- -- ---------- --- - --- ----- ----- ----<br>---- --- --- ----- you ---- ---- ------- ----- ---- -------<br>--- --- -- ----- -- --- ---- -- --- ---- -- ------ ------<br>--- ----- -- ----,75739.79999995232,75738.89999997616,75239.232,75252,75255.902,75756.002,,32,you
screen,html.Screen,0_2_0_1_33,2021-11-19T11:21:19.026Z,,,,,,,,,,,,,,,,53,,,,,,,,,,,,,,510.897999976165,,response,,,99,,,,,,Space,keypress(Space),,,,,---- -- ----- -- ------ - ------- --- ----------<br>------------- ------ ------ ---- ---- ------- ----- -- ----<br>-------- ------- -- ---------- --- - --- ----- ----- ----<br>---- --- --- ----- --- feel ---- ------- ----- ---- -------<br>--- --- -- ----- -- --- ---- -- --- ---- -- ------ ------<br>--- ----- -- ----,76267.79999995232,76266.89999997616,75739.332,75740.10000002384,75756.002,76272.803,,33,feel
screen,html.Screen,0_2_0_1_34,2021-11-19T11:21:19.626Z,,,,,,,,,,,,,,,,53,,,,,,,,,,,,,,593.9969999523164,,response,,,99,,,,,,Space,keypress(Space),,,,,---- -- ----- -- ------ - ------- --- ----------<br>------------- ------ ------ ---- ---- ------- ----- -- ----<br>-------- ------- -- ---------- --- - --- ----- ----- ----<br>---- --- --- ----- --- ---- that ------- ----- ---- -------<br>--- --- -- ----- -- --- ---- -- --- ---- -- ------ ------<br>--- ----- -- ----,76867.60000002384,76866.79999995232,76256.133,76268,76272.803,76872.979,,34,that
screen,html.Screen,0_2_0_1_35,2021-11-19T11:21:20.210Z,,,,,,,,,,,,,,,,53,,,,,,,,,,,,,,577.8209999523096,,response,,,99,,,,,,Space,keypress(Space),,,,,---- -- ----- -- ------ - ------- --- ----------<br>------------- ------ ------ ---- ---- ------- ----- -- ----<br>-------- ------- -- ---------- --- - --- ----- ----- ----<br>---- --- --- ----- --- ---- ---- matters ----- ---- -------<br>--- --- -- ----- -- --- ---- -- --- ---- -- ------ ------<br>--- ----- -- ----,77451.5,77450.79999995232,76856.309,76867.89999997616,76872.979,77456.444,,35,matters
screen,html.Screen,0_2_0_1_36,2021-11-19T11:21:21.018Z,,,,,,,,,,,,,,,,53,,,,,,,,,,,,,,802.2560000476806,,response,,,99,,,,,,Space,keypress(Space),,,,,"---- -- ----- -- ------ - ------- --- ----------<br>------------- ------ ------ ---- ---- ------- ----- -- ----<br>-------- ------- -- ---------- --- - --- ----- ----- ----<br>---- --- --- ----- --- ---- ---- ------- most, ---- -------<br>--- --- -- ----- -- --- ---- -- --- ---- -- ------ ------<br>--- ----- -- ----",78259.89999997616,78258.70000004768,77439.774,77451.79999995232,77456.444,78273.388,,36,"most,"
screen,html.Screen,0_2_0_1_37,2021-11-19T11:21:21.850Z,,,,,,,,,,,,,,,,53,,,,,,,,,,,,,,817.3120000476774,,response,,,99,,,,,,Space,keypress(Space),,,,,---- -- ----- -- ------ - ------- --- ----------<br>------------- ------ ------ ---- ---- ------- ----- -- ----<br>-------- ------- -- ---------- --- - --- ----- ----- ----<br>---- --- --- ----- --- ---- ---- ------- ----- it's -------<br>--- --- -- ----- -- --- ---- -- --- ---- -- ------ ------<br>--- ----- -- ----,79091.5,79090.70000004768,78256.717,78260.10000002384,78273.388,79106.822,,37,it's
screen,html.Screen,0_2_0_1_38,2021-11-19T11:21:22.418Z,,,,,,,,,,,,,,,,53,,,,,,,,,,,,,,551.8780000476836,,response,,,99,,,,,,Space,keypress(Space),,,,,---- -- ----- -- ------ - ------- --- ----------<br>------------- ------ ------ ---- ---- ------- ----- -- ----<br>-------- ------- -- ---------- --- - --- ----- ----- ----<br>---- --- --- ----- --- ---- ---- ------- ----- ---- whether<br>--- --- -- ----- -- --- ---- -- --- ---- -- ------ ------<br>--- ----- -- ----,79659.5,79658.70000004768,79090.152,79091.70000004768,79106.822,79673.659,,38,whether
screen,html.Screen,0_2_0_1_39,2021-11-19T11:21:22.882Z,,,,,,,,,,,,,,,,53,,,,,,,,,,,,,,448.9410000238422,,response,,,99,,,,,,Space,keypress(Space),,,,,---- -- ----- -- ------ - ------- --- ----------<br>------------- ------ ------ ---- ---- ------- ----- -- ----<br>-------- ------- -- ---------- --- - --- ----- ----- ----<br>---- --- --- ----- --- ---- ---- ------- ----- ---- -------<br>you --- -- ----- -- --- ---- -- --- ---- -- ------ ------<br>--- ----- -- ----,80123.5,80122.60000002384,79656.989,79659.70000004768,79673.659,80140.545,,39,you
screen,html.Screen,0_2_0_1_40,2021-11-19T11:21:23.346Z,,,,,,,,,,,,,,,,53,,,,,,,,,,,,,,446.0550000238436,,response,,,99,,,,,,Space,keypress(Space),,,,,---- -- ----- -- ------ - ------- --- ----------<br>------------- ------ ------ ---- ---- ------- ----- -- ----<br>-------- ------- -- ---------- --- - --- ----- ----- ----<br>---- --- --- ----- --- ---- ---- ------- ----- ---- -------<br>--- are -- ----- -- --- ---- -- --- ---- -- ------ ------<br>--- ----- -- ----,80587.39999997616,80586.60000002384,80123.874,80123.70000004768,80140.545,80590.595,,40,are
screen,html.Screen,0_2_0_1_41,2021-11-19T11:21:23.834Z,,,,,,,,,,,,,,,,53,,,,,,,,,,,,,,484.0050000238407,,response,,,99,,,,,,Space,keypress(Space),,,,,---- -- ----- -- ------ - ------- --- ----------<br>------------- ------ ------ ---- ---- ------- ----- -- ----<br>-------- ------- -- ---------- --- - --- ----- ----- ----<br>---- --- --- ----- --- ---- ---- ------- ----- ---- -------<br>--- --- as ----- -- --- ---- -- --- ---- -- ------ ------<br>--- ----- -- ----,81075.60000002384,81074.60000002384,80573.925,80587.70000004768,80590.595,81090.715,,41,as
screen,html.Screen,0_2_0_1_42,2021-11-19T11:21:24.314Z,,,,,,,,,,,,,,,,53,,,,,,,,,,,,,,463.88500002384535,,response,,,99,,,,,,Space,keypress(Space),,,,,---- -- ----- -- ------ - ------- --- ----------<br>------------- ------ ------ ---- ---- ------- ----- -- ----<br>-------- ------- -- ---------- --- - --- ----- ----- ----<br>---- --- --- ----- --- ---- ---- ------- ----- ---- -------<br>--- --- -- close -- --- ---- -- --- ---- -- ------ ------<br>--- ----- -- ----,81555.5,81554.60000002384,81074.045,81075.89999997616,81090.715,81557.587,,42,close
screen,html.Screen,0_2_0_1_43,2021-11-19T11:21:24.746Z,,,,,,,,,,,,,,,,53,,,,,,,,,,,,,,429.0130000238423,,response,,,99,,,,,,Space,keypress(Space),,,,,---- -- ----- -- ------ - ------- --- ----------<br>------------- ------ ------ ---- ---- ------- ----- -- ----<br>-------- ------- -- ---------- --- - --- ----- ----- ----<br>---- --- --- ----- --- ---- ---- ------- ----- ---- -------<br>--- --- -- ----- as --- ---- -- --- ---- -- ------ ------<br>--- ----- -- ----,81987.39999997616,81986.60000002384,81540.916,81555.70000004768,81557.587,81990.964,,43,as
screen,html.Screen,0_2_0_1_44,2021-11-19T11:21:25.202Z,,,,,,,,,,,,,,,,53,,,,,,,,,,,,,,451.5359999999928,,response,,,99,,,,,,Space,keypress(Space),,,,,---- -- ----- -- ------ - ------- --- ----------<br>------------- ------ ------ ---- ---- ------- ----- -- ----<br>-------- ------- -- ---------- --- - --- ----- ----- ----<br>---- --- --- ----- --- ---- ---- ------- ----- ---- -------<br>--- --- -- ----- -- you ---- -- --- ---- -- ------ ------<br>--- ----- -- ----,82443.29999995232,82442.5,81974.294,81987.60000002384,81990.964,82457.746,,44,you
screen,html.Screen,0_2_0_1_45,2021-11-19T11:21:25.698Z,,,,,,,,,,,,,,,,53,,,,,,,,,,,,,,480.8540000238427,,response,,,99,,,,,,Space,keypress(Space),,,,,---- -- ----- -- ------ - ------- --- ----------<br>------------- ------ ------ ---- ---- ------- ----- -- ----<br>-------- ------- -- ---------- --- - --- ----- ----- ----<br>---- --- --- ----- --- ---- ---- ------- ----- ---- -------<br>--- --- -- ----- -- --- want -- --- ---- -- ------ ------<br>--- ----- -- ----,82939.29999995232,82938.60000002384,82441.076,82443.5,82457.746,82941.199,,45,want
screen,html.Screen,0_2_0_1_46,2021-11-19T11:21:26.122Z,,,,,,,,,,,,,,,,53,,,,,,,,,,,,,,421.30100000000675,,response,,,99,,,,,,Space,keypress(Space),,,,,---- -- ----- -- ------ - ------- --- ----------<br>------------- ------ ------ ---- ---- ------- ----- -- ----<br>-------- ------- -- ---------- --- - --- ----- ----- ----<br>---- --- --- ----- --- ---- ---- ------- ----- ---- -------<br>--- --- -- ----- -- --- ---- to --- ---- -- ------ ------<br>--- ----- -- ----,83363.20000004768,83362.5,82924.529,82939.60000002384,82941.199,83374.694,,46,to
screen,html.Screen,0_2_0_1_47,2021-11-19T11:21:26.562Z,,,,,,,,,,,,,,,,53,,,,,,,,,,,,,,427.80599999999686,,response,,,99,,,,,,Space,keypress(Space),,,,,"---- -- ----- -- ------ - ------- --- ----------<br>------------- ------ ------ ---- ---- ------- ----- -- ----<br>-------- ------- -- ---------- --- - --- ----- ----- ----<br>---- --- --- ----- --- ---- ---- ------- ----- ---- -------<br>--- --- -- ----- -- --- ---- -- be, ---- -- ------ ------<br>--- ----- -- ----",83803.20000004768,83802.5,83358.023,83363.60000002384,83374.694,83808.105,,47,"be,"
screen,html.Screen,0_2_0_1_48,2021-11-19T11:21:27.018Z,,,,,,,,,,,,,,,,53,,,,,,,,,,,,,,450.3950000000041,,response,,,99,,,,,,Space,keypress(Space),,,,,---- -- ----- -- ------ - ------- --- ----------<br>------------- ------ ------ ---- ---- ------- ----- -- ----<br>-------- ------- -- ---------- --- - --- ----- ----- ----<br>---- --- --- ----- --- ---- ---- ------- ----- ---- -------<br>--- --- -- ----- -- --- ---- -- --- even -- ------ ------<br>--- ----- -- ----,84259.20000004768,84258.5,83791.435,83803.5,83808.105,84274.894,,48,even
screen,html.Screen,0_2_0_1_49,2021-11-19T11:21:27.666Z,,,,,,,,,,,,,,,,53,,,,,,,,,,,,,,632.0059999761579,,response,,,99,,,,,,Space,keypress(Space),,,,,---- -- ----- -- ------ - ------- --- ----------<br>------------- ------ ------ ---- ---- ------- ----- -- ----<br>-------- ------- -- ---------- --- - --- ----- ----- ----<br>---- --- --- ----- --- ---- ---- ------- ----- ---- -------<br>--- --- -- ----- -- --- ---- -- --- ---- if ------ ------<br>--- ----- -- ----,84907.70000004768,84906.89999997616,84258.224,84259.5,84274.894,84925.052,,49,if
screen,html.Screen,0_2_0_1_50,2021-11-19T11:21:28.090Z,,,,,,,,,,,,,,,,53,,,,,,,,,,,,,,405.24799995232024,,response,,,99,,,,,,Space,keypress(Space),,,,,---- -- ----- -- ------ - ------- --- ----------<br>------------- ------ ------ ---- ---- ------- ----- -- ----<br>-------- ------- -- ---------- --- - --- ----- ----- ----<br>---- --- --- ----- --- ---- ---- ------- ----- ---- -------<br>--- --- -- ----- -- --- ---- -- --- ---- -- that's ------<br>--- ----- -- ----,85331.20000004768,85330.29999995232,84908.382,84907.89999997616,84925.052,85341.818,,50,that's
screen,html.Screen,0_2_0_1_51,2021-11-19T11:21:28.570Z,,,,,,,,,,,,,,,,53,,,,,,,,,,,,,,468.58199997615884,,response,,,99,,,,,,Space,keypress(Space),,,,,---- -- ----- -- ------ - ------- --- ----------<br>------------- ------ ------ ---- ---- ------- ----- -- ----<br>-------- ------- -- ---------- --- - --- ----- ----- ----<br>---- --- --- ----- --- ---- ---- ------- ----- ---- -------<br>--- --- -- ----- -- --- ---- -- --- ---- -- ------ really<br>--- ----- -- ----,85811.10000002384,85810.39999997616,85325.148,85331.39999997616,85341.818,85825.328,,51,really
screen,html.Screen,0_2_0_1_52,2021-11-19T11:21:29.041Z,,,,,,,,,,,,,,,,53,,,,,,,,,,,,,,456.9719999523222,,response,,,99,,,,,,Space,keypress(Space),,,,,---- -- ----- -- ------ - ------- --- ----------<br>------------- ------ ------ ---- ---- ------- ----- -- ----<br>-------- ------- -- ---------- --- - --- ----- ----- ----<br>---- --- --- ----- --- ---- ---- ------- ----- ---- -------<br>--- --- -- ----- -- --- ---- -- --- ---- -- ------ ------<br>not ----- -- ----,86283.10000002384,86282.29999995232,85808.657,85811.39999997616,85825.328,86292.053,,52,not
screen,html.Screen,0_2_0_1_53,2021-11-19T11:21:29.513Z,,,,,,,,,,,,,,,,53,,,,,,,,,,,,,,462.34699997615826,,response,,,99,,,,,,Space,keypress(Space),,,,,---- -- ----- -- ------ - ------- --- ----------<br>------------- ------ ------ ---- ---- ------- ----- -- ----<br>-------- ------- -- ---------- --- - --- ----- ----- ----<br>---- --- --- ----- --- ---- ---- ------- ----- ---- -------<br>--- --- -- ----- -- --- ---- -- --- ---- -- ------ ------<br>--- close -- ----,86755.10000002384,86754.39999997616,86275.383,86283.29999995232,86292.053,86758.906,,53,close
screen,html.Screen,0_2_0_1_54,2021-11-19T11:21:29.881Z,,,,,,,,,,,,,,,,53,,,,,,,,,,,,,,363.3939999523136,,response,,,99,,,,,,Space,keypress(Space),,,,,---- -- ----- -- ------ - ------- --- ----------<br>------------- ------ ------ ---- ---- ------- ----- -- ----<br>-------- ------- -- ---------- --- - --- ----- ----- ----<br>---- --- --- ----- --- ---- ---- ------- ----- ---- -------<br>--- --- -- ----- -- --- ---- -- --- ---- -- ------ ------<br>--- ----- at ----,87123,87122.29999995232,86742.235,86755.39999997616,86758.906,87125.609,,54,at
screen,html.Screen,0_2_0_1_55,2021-11-19T11:21:30.297Z,,,,,,,,,,,,,,,,53,,,,,,,,,,,,,,412.69099995231954,,response,,,99,,,,,,Space,keypress(Space),,,,,---- -- ----- -- ------ - ------- --- ----------<br>------------- ------ ------ ---- ---- ------- ----- -- ----<br>-------- ------- -- ---------- --- - --- ----- ----- ----<br>---- --- --- ----- --- ---- ---- ------- ----- ---- -------<br>--- --- -- ----- -- --- ---- -- --- ---- -- ------ ------<br>--- ----- -- all.,87539.10000002384,87538.29999995232,87108.939,87123.29999995232,87125.609,87559.064,,55,all.
Item 99,flow.Loop,0_2_0_1,2021-11-19T11:21:30.302Z,,,,,,,,,,,,,,,,,,,,,,,,,,,,,,34188.30199995232,,completion,,,,A,,,,,,,,,,silence,,87543.70000004768,87538.29999995232,53333.329,53339.700000047684,53349.998,87559.064,,,
Question 1,html.Screen,0_2_0_2,2021-11-19T11:21:36.194Z,,,,,,,,,,,,,,,,,,,,,,,,,,,true,FALSE,,5875.636000047685,,response,,,99,A,,,,,FALSE,click #choice-2,,,,silence,,93436.10000002384,93434.70000004768,87542.394,87544,87559.064,93443.707,,,
Question 2,html.Screen,0_2_0_3,2021-11-19T11:21:43.020Z,,,,,,,,,,,,,,,,,,,,,,,,,,,true,TRUE,,6816.692999976163,,response,,,99,A,,,,,TRUE,click #choice-1,,,,silence,,100261.70000004768,100260.39999997616,93427.038,93436.29999995232,93443.707,100279.037,,,
Item 99,flow.Sequence,0_2_0,2021-11-19T11:21:43.021Z,,,,,,,,,,,,,,,,,,,,,,,,,,,,,,56912.62199997616,,completion,,,,,,,,,,,,,,,,100262.20000004768,100260.39999997616,43331.104,43341.799999952316,43347.778,100279.037,,,
Holding screen,html.Screen,0_2_1_0,2021-11-19T11:21:53.025Z,,,,,,,,,,,,,,,,,,,,,,,,,,,,,,10002.399000000005,,timeout,,,,,,,,,,,,,,,,110266.5,110264.766,100245.695,100262.89999997616,100279.037,110281.436,,,
screen,html.Screen,0_2_1_1_0,2021-11-19T11:21:54.025Z,,,,,,,,,,,,,,,,54,,,,,,,,,,,,,,983.9639999761566,,response,,,100,,,,,,Space,keypress(Space),,,,,At --- ---- --- ------ ----- ------- ---- -- --- ------- --<br>------- ---------- ------ -- ----- -- ----- -- ---- ------<br>--- ----- --- --- ------ -------- ----- --- ------ ----- --<br>----- ----- ---------- --- --- ------ ------ ---- -- ------<br>------- --- ------ ----- --- ---- ------- -- ---- --- --<br>------- ------,111266.29999995232,111265.39999997616,110264.766,110267,110281.436,111281.694,,0,At
screen,html.Screen,0_2_1_1_1,2021-11-19T11:21:54.888Z,,,,,,,,,,,,,,,,54,,,,,,,,,,,,,,847.205999976155,,response,,,100,,,,,,Space,keypress(Space),,,,,-- the ---- --- ------ ----- ------- ---- -- --- ------- --<br>------- ---------- ------ -- ----- -- ----- -- ---- ------<br>--- ----- --- --- ------ -------- ----- --- ------ ----- --<br>----- ----- ---------- --- --- ------ ------ ---- -- ------<br>------- --- ------ ----- --- ---- ------- -- ---- --- --<br>------- ------,112129.70000004768,112128.89999997616,111265.024,111266.5,111281.694,112132.123,,1,the
screen,html.Screen,0_2_1_1_2,2021-11-19T11:21:55.432Z,,,,,,,,,,,,,,,,54,,,,,,,,,,,,,,540.7769999761513,,response,,,100,,,,,,Space,keypress(Space),,,,,-- --- time --- ------ ----- ------- ---- -- --- ------- --<br>------- ---------- ------ -- ----- -- ----- -- ---- ------<br>--- ----- --- --- ------ -------- ----- --- ------ ----- --<br>----- ----- ---------- --- --- ------ ------ ---- -- ------<br>------- --- ------ ----- --- ---- ------- -- ---- --- --<br>------- ------,112673.60000002384,112672.89999997616,112115.452,112129.89999997616,112132.123,112682.245,,2,time
screen,html.Screen,0_2_1_1_3,2021-11-19T11:21:55.992Z,,,,,,,,,,,,,,,,54,,,,,,,,,,,,,,550.5549999523209,,response,,,100,,,,,,Space,keypress(Space),,,,,-- --- ---- the ------ ----- ------- ---- -- --- ------- --<br>------- ---------- ------ -- ----- -- ----- -- ---- ------<br>--- ----- --- --- ------ -------- ----- --- ------ ----- --<br>----- ----- ---------- --- --- ------ ------ ---- -- ------<br>------- --- ------ ----- --- ---- ------- -- ---- --- --<br>------- ------,113233.60000002384,113232.79999995232,112665.574,112673.89999997616,112682.245,113248.991,,3,the
screen,html.Screen,0_2_1_1_4,2021-11-19T11:21:56.592Z,,,,,,,,,,,,,,,,54,,,,,,,,,,,,,,583.8089999523218,,response,,,100,,,,,,Space,keypress(Space),,,,,-- --- ---- --- French ----- ------- ---- -- --- ------- --<br>------- ---------- ------ -- ----- -- ----- -- ---- ------<br>--- ----- --- --- ------ -------- ----- --- ------ ----- --<br>----- ----- ---------- --- --- ------ ------ ---- -- ------<br>------- --- ------ ----- --- ---- ------- -- ---- --- --<br>------- ------,113833.60000002384,113832.79999995232,113232.321,113235.29999995232,113248.991,113849.207,,4,French
screen,html.Screen,0_2_1_1_5,2021-11-19T11:21:57.304Z,,,,,,,,,,,,,,,,54,,,,,,,,,,,,,,695.5929999523214,,response,,,100,,,,,,Space,keypress(Space),,,,,-- --- ---- --- ------ crown ------- ---- -- --- ------- --<br>------- ---------- ------ -- ----- -- ----- -- ---- ------<br>--- ----- --- --- ------ -------- ----- --- ------ ----- --<br>----- ----- ---------- --- --- ------ ------ ---- -- ------<br>------- --- ------ ----- --- ---- ------- -- ---- --- --<br>------- ------,114545.60000002384,114544.79999995232,113832.536,113833.79999995232,113849.207,114549.235,,5,crown
screen,html.Screen,0_2_1_1_6,2021-11-19T11:21:57.952Z,,,,,,,,,,,,,,,,54,,,,,,,,,,,,,,643.5649999523157,,response,,,100,,,,,,Space,keypress(Space),,,,,-- --- ---- --- ------ ----- secured ---- -- --- ------- --<br>------- ---------- ------ -- ----- -- ----- -- ---- ------<br>--- ----- --- --- ------ -------- ----- --- ------ ----- --<br>----- ----- ---------- --- --- ------ ------ ---- -- ------<br>------- --- ------ ----- --- ---- ------- -- ---- --- --<br>------- ------,115193.5,115192.79999995232,114532.566,114545.79999995232,114549.235,115199.536,,6,secured
screen,html.Screen,0_2_1_1_7,2021-11-19T11:21:58.736Z,,,,,,,,,,,,,,,,54,,,,,,,,,,,,,,777.1640000476909,,response,,,100,,,,,,Space,keypress(Space),,,,,-- --- ---- --- ------ ----- ------- much -- --- ------- --<br>------- ---------- ------ -- ----- -- ----- -- ---- ------<br>--- ----- --- --- ------ -------- ----- --- ------ ----- --<br>----- ----- ---------- --- --- ------ ------ ---- -- ------<br>------- --- ------ ----- --- ---- ------- -- ---- --- --<br>------- ------,115977.5,115976.70000004768,115182.865,115193.79999995232,115199.536,115982.997,,7,much
screen,html.Screen,0_2_1_1_8,2021-11-19T11:21:59.232Z,,,,,,,,,,,,,,,,54,,,,,,,,,,,,,,489.7030000476807,,response,,,100,,,,,,Space,keypress(Space),,,,,-- --- ---- --- ------ ----- ------- ---- of --- ------- --<br>------- ---------- ------ -- ----- -- ----- -- ---- ------<br>--- ----- --- --- ------ -------- ----- --- ------ ----- --<br>----- ----- ---------- --- --- ------ ------ ---- -- ------<br>------- --- ------ ----- --- ---- ------- -- ---- --- --<br>------- ------,116473.39999997616,116472.70000004768,115966.327,115977.79999995232,115982.997,116483.212,,8,of
screen,html.Screen,0_2_1_1_9,2021-11-19T11:21:59.848Z,,,,,,,,,,,,,,,,54,,,,,,,,,,,,,,605.3880000238423,,response,,,100,,,,,,Space,keypress(Space),,,,,-- --- ---- --- ------ ----- ------- ---- -- its ------- --<br>------- ---------- ------ -- ----- -- ----- -- ---- ------<br>--- ----- --- --- ------ -------- ----- --- ------ ----- --<br>----- ----- ---------- --- --- ------ ------ ---- -- ------<br>------- --- ------ ----- --- ---- ------- -- ---- --- --<br>------- ------,117089.39999997616,117088.60000002384,116466.541,116473.70000004768,116483.212,117100.044,,9,its
screen,html.Screen,0_2_1_1_10,2021-11-19T11:22:00.904Z,,,,,,,,,,,,,,,,54,,,,,,,,,,,,,,1044.5560000238474,,response,,,100,,,,,,Space,keypress(Space),,,,,-- --- ---- --- ------ ----- ------- ---- -- --- revenue --<br>------- ---------- ------ -- ----- -- ----- -- ---- ------<br>--- ----- --- --- ------ -------- ----- --- ------ ----- --<br>----- ----- ---------- --- --- ------ ------ ---- -- ------<br>------- --- ------ ----- --- ---- ------- -- ---- --- --<br>------- ------,118145.29999995232,118144.60000002384,117083.373,117089.70000004768,117100.044,118150.208,,10,revenue
screen,html.Screen,0_2_1_1_11,2021-11-19T11:22:01.432Z,,,,,,,,,,,,,,,,54,,,,,,,,,,,,,,522.2920000000013,,response,,,100,,,,,,Space,keypress(Space),,,,,-- --- ---- --- ------ ----- ------- ---- -- --- ------- by<br>------- ---------- ------ -- ----- -- ----- -- ---- ------<br>--- ----- --- --- ------ -------- ----- --- ------ ----- --<br>----- ----- ---------- --- --- ------ ------ ---- -- ------<br>------- --- ------ ----- --- ---- ------- -- ---- --- --<br>------- ------,118673.39999997616,118672.5,118133.538,118145.60000002384,118150.208,118683.667,,11,by
screen,html.Screen,0_2_1_1_12,2021-11-19T11:22:02.312Z,,,,,,,,,,,,,,,,54,,,,,,,,,,,,,,868.8329999999987,,response,,,100,,,,,,Space,keypress(Space),,,,,-- --- ---- --- ------ ----- ------- ---- -- --- ------- --<br>issuing ---------- ------ -- ----- -- ----- -- ---- ------<br>--- ----- --- --- ------ -------- ----- --- ------ ----- --<br>----- ----- ---------- --- --- ------ ------ ---- -- ------<br>------- --- ------ ----- --- ---- ------- -- ---- --- --<br>------- ------,119553.29999995232,119552.5,118666.997,118673.70000004768,118683.667,119567.343,,12,issuing
screen,html.Screen,0_2_1_1_13,2021-11-19T11:22:02.992Z,,,,,,,,,,,,,,,,54,,,,,,,,,,,,,,665.0569999761647,,response,,,100,,,,,,Space,keypress(Space),,,,,-- --- ---- --- ------ ----- ------- ---- -- --- ------- --<br>------- government ------ -- ----- -- ----- -- ---- ------<br>--- ----- --- --- ------ -------- ----- --- ------ ----- --<br>----- ----- ---------- --- --- ------ ------ ---- -- ------<br>------- --- ------ ----- --- ---- ------- -- ---- --- --<br>------- ------,120233.20000004768,120232.39999997616,119550.672,119553.5,119567.343,120250.804,,13,government
screen,html.Screen,0_2_1_1_14,2021-11-19T11:22:05.115Z,,,,,,,,,,,,,,,,54,,,,,,,,,,,,,,2101.9959999523126,,response,,,100,,,,,,Space,keypress(Space),,,,,-- --- ---- --- ------ ----- ------- ---- -- --- ------- --<br>------- ---------- bonds. -- ----- -- ----- -- ---- ------<br>--- ----- --- --- ------ -------- ----- --- ------ ----- --<br>----- ----- ---------- --- --- ------ ------ ---- -- ------<br>------- --- ------ ----- --- ---- ------- -- ---- --- --<br>------- ------,122353.5,122352.79999995232,120234.134,120233.39999997616,120250.804,122367.886,,14,bonds.
screen,html.Screen,0_2_1_1_15,2021-11-19T11:22:05.803Z,,,,,,,,,,,,,,,,54,,,,,,,,,,,,,,672.4139999523177,,response,,,100,,,,,,Space,keypress(Space),,,,,-- --- ---- --- ------ ----- ------- ---- -- --- ------- --<br>------- ---------- ------ In ----- -- ----- -- ---- ------<br>--- ----- --- --- ------ -------- ----- --- ------ ----- --<br>----- ----- ---------- --- --- ------ ------ ---- -- ------<br>------- --- ------ ----- --- ---- ------- -- ---- --- --<br>------- ------,123041.10000002384,123040.29999995232,122351.216,122353.89999997616,122367.886,123051.583,,15,In
screen,html.Screen,0_2_1_1_16,2021-11-19T11:22:07.307Z,,,,,,,,,,,,,,,,54,,,,,,,,,,,,,,1492.7169999523176,,response,,,100,,,,,,Space,keypress(Space),,,,,"-- --- ---- --- ------ ----- ------- ---- -- --- ------- --<br>------- ---------- ------ -- 1727, -- ----- -- ---- ------<br>--- ----- --- --- ------ -------- ----- --- ------ ----- --<br>----- ----- ---------- --- --- ------ ------ ---- -- ------<br>------- --- ------ ----- --- ---- ------- -- ---- --- --<br>------- ------",124545,124544.29999995232,123034.912,123041.39999997616,123051.583,124551.819,,16,"1727,"
screen,html.Screen,0_2_1_1_17,2021-11-19T11:22:07.907Z,,,,,,,,,,,,,,,,54,,,,,,,,,,,,,,592.3810000476806,,response,,,100,,,,,,Space,keypress(Space),,,,,-- --- ---- --- ------ ----- ------- ---- -- --- ------- --<br>------- ---------- ------ -- ----- in ----- -- ---- ------<br>--- ----- --- --- ------ -------- ----- --- ------ ----- --<br>----- ----- ---------- --- --- ------ ------ ---- -- ------<br>------- --- ------ ----- --- ---- ------- -- ---- --- --<br>------- ------,125145,125144.20000004768,124535.149,124545.20000004768,124551.819,125151.986,,17,in
screen,html.Screen,0_2_1_1_18,2021-11-19T11:22:08.667Z,,,,,,,,,,,,,,,,54,,,,,,,,,,,,,,752.1140000238374,,response,,,100,,,,,,Space,keypress(Space),,,,,-- --- ---- --- ------ ----- ------- ---- -- --- ------- --<br>------- ---------- ------ -- ----- -- order -- ---- ------<br>--- ----- --- --- ------ -------- ----- --- ------ ----- --<br>----- ----- ---------- --- --- ------ ------ ---- -- ------<br>------- --- ------ ----- --- ---- ------- -- ---- --- --<br>------- ------,125904.89999997616,125904.10000002384,125135.316,125145.20000004768,125151.986,125918.966,,18,order
screen,html.Screen,0_2_1_1_19,2021-11-19T11:22:09.243Z,,,,,,,,,,,,,,,,54,,,,,,,,,,,,,,561.1340000238415,,response,,,100,,,,,,Space,keypress(Space),,,,,-- --- ---- --- ------ ----- ------- ---- -- --- ------- --<br>------- ---------- ------ -- ----- -- ----- to ---- ------<br>--- ----- --- --- ------ -------- ----- --- ------ ----- --<br>----- ----- ---------- --- --- ------ ------ ---- -- ------<br>------- --- ------ ----- --- ---- ------- -- ---- --- --<br>------- ------,126480.89999997616,126480.10000002384,125902.295,125905.20000004768,125918.966,126485.793,,19,to
screen,html.Screen,0_2_1_1_20,2021-11-19T11:22:09.851Z,,,,,,,,,,,,,,,,54,,,,,,,,,,,,,,602.2069999999949,,response,,,100,,,,,,Space,keypress(Space),,,,,-- --- ---- --- ------ ----- ------- ---- -- --- ------- --<br>------- ---------- ------ -- ----- -- ----- -- save ------<br>--- ----- --- --- ------ -------- ----- --- ------ ----- --<br>----- ----- ---------- --- --- ------ ------ ---- -- ------<br>------- --- ------ ----- --- ---- ------- -- ---- --- --<br>------- ------,127088.89999997616,127088,126469.122,126481.10000002384,126485.793,127102.556,,20,save
screen,html.Screen,0_2_1_1_21,2021-11-19T11:22:11.139Z,,,,,,,,,,,,,,,,54,,,,,,,,,,,,,,1273.4440000000031,,response,,,100,,,,,,Space,keypress(Space),,,,,"-- --- ---- --- ------ ----- ------- ---- -- --- ------- --<br>------- ---------- ------ -- ----- -- ----- -- ---- money,<br>--- ----- --- --- ------ -------- ----- --- ------ ----- --<br>----- ----- ---------- --- --- ------ ------ ---- -- ------<br>------- --- ------ ----- --- ---- ------- -- ---- --- --<br>------- ------",128376.79999995232,128376,127085.886,127089.20000004768,127102.556,128386.189,,21,"money,"
screen,html.Screen,0_2_1_1_22,2021-11-19T11:22:11.666Z,,,,,,,,,,,,,,,,54,,,,,,,,,,,,,,517.8110000000015,,response,,,100,,,,,,Space,keypress(Space),,,,,-- --- ---- --- ------ ----- ------- ---- -- --- ------- --<br>------- ---------- ------ -- ----- -- ----- -- ---- ------<br>the ----- --- --- ------ -------- ----- --- ------ ----- --<br>----- ----- ---------- --- --- ------ ------ ---- -- ------<br>------- --- ------ ----- --- ---- ------- -- ---- --- --<br>------- ------,128904.79999995232,128904,128369.519,128377.10000002384,128386.189,128919.749,,22,the
screen,html.Screen,0_2_1_1_23,2021-11-19T11:22:12.155Z,,,,,,,,,,,,,,,,54,,,,,,,,,,,,,,472.25100000000384,,response,,,100,,,,,,Space,keypress(Space),,,,,-- --- ---- --- ------ ----- ------- ---- -- --- ------- --<br>------- ---------- ------ -- ----- -- ----- -- ---- ------<br>--- state --- --- ------ -------- ----- --- ------ ----- --<br>----- ----- ---------- --- --- ------ ------ ---- -- ------<br>------- --- ------ ----- --- ---- ------- -- ---- --- --<br>------- ------,129392.79999995232,129392,128903.078,128905,128919.749,129403.152,,23,state
screen,html.Screen,0_2_1_1_24,2021-11-19T11:22:12.714Z,,,,,,,,,,,,,,,,54,,,,,,,,,,,,,,548.8479999999981,,response,,,100,,,,,,Space,keypress(Space),,,,,-- --- ---- --- ------ ----- ------- ---- -- --- ------- --<br>------- ---------- ------ -- ----- -- ----- -- ---- ------<br>--- ----- cut --- ------ -------- ----- --- ------ ----- --<br>----- ----- ---------- --- --- ------ ------ ---- -- ------<br>------- --- ------ ----- --- ---- ------- -- ---- --- --<br>------- ------,129952.60000002384,129952,129386.482,129393,129403.152,129969.968,,24,cut
screen,html.Screen,0_2_1_1_25,2021-11-19T11:22:13.154Z,,,,,,,,,,,,,,,,54,,,,,,,,,,,,,,421.93199997616466,,response,,,100,,,,,,Space,keypress(Space),,,,,-- --- ---- --- ------ ----- ------- ---- -- --- ------- --<br>------- ---------- ------ -- ----- -- ----- -- ---- ------<br>--- ----- --- the ------ -------- ----- --- ------ ----- --<br>----- ----- ---------- --- --- ------ ------ ---- -- ------<br>------- --- ------ ----- --- ---- ------- -- ---- --- --<br>------- ------,130392.70000004768,130391.89999997616,129953.298,129952.89999997616,129969.968,130403.485,,25,the
screen,html.Screen,0_2_1_1_26,2021-11-19T11:22:13.962Z,,,,,,,,,,,,,,,,54,,,,,,,,,,,,,,796.4149999761576,,response,,,100,,,,,,Space,keypress(Space),,,,,-- --- ---- --- ------ ----- ------- ---- -- --- ------- --<br>------- ---------- ------ -- ----- -- ----- -- ---- ------<br>--- ----- --- --- bonds' -------- ----- --- ------ ----- --<br>----- ----- ---------- --- --- ------ ------ ---- -- ------<br>------- --- ------ ----- --- ---- ------- -- ---- --- --<br>------- ------,131200.60000002384,131199.89999997616,130386.814,130392.89999997616,130403.485,131203.604,,26,bonds'
screen,html.Screen,0_2_1_1_27,2021-11-19T11:22:14.482Z,,,,,,,,,,,,,,,,54,,,,,,,,,,,,,,516.2959999761661,,response,,,100,,,,,,Space,keypress(Space),,,,,-- --- ---- --- ------ ----- ------- ---- -- --- ------- --<br>------- ---------- ------ -- ----- -- ----- -- ---- ------<br>--- ----- --- --- ------ interest ----- --- ------ ----- --<br>----- ----- ---------- --- --- ------ ------ ---- -- ------<br>------- --- ------ ----- --- ---- ------- -- ---- --- --<br>------- ------,131720.70000004768,131719.89999997616,131186.934,131200.89999997616,131203.604,131737.078,,27,interest
screen,html.Screen,0_2_1_1_28,2021-11-19T11:22:15.547Z,,,,,,,,,,,,,,,,54,,,,,,,,,,,,,,1047.122000047675,,response,,,100,,,,,,Space,keypress(Space),,,,,-- --- ---- --- ------ ----- ------- ---- -- --- ------- --<br>------- ---------- ------ -- ----- -- ----- -- ---- ------<br>--- ----- --- --- ------ -------- rate. --- ------ ----- --<br>----- ----- ---------- --- --- ------ ------ ---- -- ------<br>------- --- ------ ----- --- ---- ------- -- ---- --- --<br>------- ------,132785.10000002384,132784.20000004768,131720.408,131721,131737.078,132787.203,,28,rate.
screen,html.Screen,0_2_1_1_29,2021-11-19T11:22:16.082Z,,,,,,,,,,,,,,,,54,,,,,,,,,,,,,,532.3970000238332,,response,,,100,,,,,,Space,keypress(Space),,,,,-- --- ---- --- ------ ----- ------- ---- -- --- ------- --<br>------- ---------- ------ -- ----- -- ----- -- ---- ------<br>--- ----- --- --- ------ -------- ----- The ------ ----- --<br>----- ----- ---------- --- --- ------ ------ ---- -- ------<br>------- --- ------ ----- --- ---- ------- -- ---- --- --<br>------- ------,133320.10000002384,133319.60000002384,132770.534,132785.29999995232,132787.203,133320.947,,29,The
screen,html.Screen,0_2_1_1_30,2021-11-19T11:22:16.698Z,,,,,,,,,,,,,,,,54,,,,,,,,,,,,,,614.6530000238563,,response,,,100,,,,,,Space,keypress(Space),,,,,-- --- ---- --- ------ ----- ------- ---- -- --- ------- --<br>------- ---------- ------ -- ----- -- ----- -- ---- ------<br>--- ----- --- --- ------ -------- ----- --- market ----- --<br>----- ----- ---------- --- --- ------ ------ ---- -- ------<br>------- --- ------ ----- --- ---- ------- -- ---- --- --<br>------- ------,133936.70000004768,133935.60000002384,133304.275,133320.20000004768,133320.947,133954.316,,30,market
screen,html.Screen,0_2_1_1_31,2021-11-19T11:22:17.802Z,,,,,,,,,,,,,,,,54,,,,,,,,,,,,,,1085.2840000238502,,response,,,100,,,,,,Space,keypress(Space),,,,,-- --- ---- --- ------ ----- ------- ---- -- --- ------- --<br>------- ---------- ------ -- ----- -- ----- -- ---- ------<br>--- ----- --- --- ------ -------- ----- --- ------ value --<br>----- ----- ---------- --- --- ------ ------ ---- -- ------<br>------- --- ------ ----- --- ---- ------- -- ---- --- --<br>------- ------,135040.39999997616,135039.60000002384,133937.646,133937,133954.316,135054.579,,31,value
screen,html.Screen,0_2_1_1_32,2021-11-19T11:22:18.242Z,,,,,,,,,,,,,,,,54,,,,,,,,,,,,,,425.2209999523184,,response,,,100,,,,,,Space,keypress(Space),,,,,-- --- ---- --- ------ ----- ------- ---- -- --- ------- --<br>------- ---------- ------ -- ----- -- ----- -- ---- ------<br>--- ----- --- --- ------ -------- ----- --- ------ ----- of<br>----- ----- ---------- --- --- ------ ------ ---- -- ------<br>------- --- ------ ----- --- ---- ------- -- ---- --- --<br>------- ------,135480.60000002384,135479.79999995232,135037.909,135040.70000004768,135054.579,135488.035,,32,of
screen,html.Screen,0_2_1_1_33,2021-11-19T11:22:18.722Z,,,,,,,,,,,,,,,,54,,,,,,,,,,,,,,471.56500002383837,,response,,,100,,,,,,Space,keypress(Space),,,,,-- --- ---- --- ------ ----- ------- ---- -- --- ------- --<br>------- ---------- ------ -- ----- -- ----- -- ---- ------<br>--- ----- --- --- ------ -------- ----- --- ------ ----- --<br>these ----- ---------- --- --- ------ ------ ---- -- ------<br>------- --- ------ ----- --- ---- ------- -- ---- --- --<br>------- ------,135960.39999997616,135959.60000002384,135471.365,135480.79999995232,135488.035,135971.501,,33,these
screen,html.Screen,0_2_1_1_34,2021-11-19T11:22:19.210Z,,,,,,,,,,,,,,,,54,,,,,,,,,,,,,,476.09900002385257,,response,,,100,,,,,,Space,keypress(Space),,,,,-- --- ---- --- ------ ----- ------- ---- -- --- ------- --<br>------- ---------- ------ -- ----- -- ----- -- ---- ------<br>--- ----- --- --- ------ -------- ----- --- ------ ----- --<br>----- bonds ---------- --- --- ------ ------ ---- -- ------<br>------- --- ------ ----- --- ---- ------- -- ---- --- --<br>------- ------,136448.29999995232,136447.60000002384,135954.831,135960.70000004768,135971.501,136454.978,,34,bonds
screen,html.Screen,0_2_1_1_35,2021-11-19T11:22:19.930Z,,,,,,,,,,,,,,,,54,,,,,,,,,,,,,,712.5219999999972,,response,,,100,,,,,,Space,keypress(Space),,,,,"-- --- ---- --- ------ ----- ------- ---- -- --- ------- --<br>------- ---------- ------ -- ----- -- ----- -- ---- ------<br>--- ----- --- --- ------ -------- ----- --- ------ ----- --<br>----- ----- plummeted, --- --- ------ ------ ---- -- ------<br>------- --- ------ ----- --- ---- ------- -- ---- --- --<br>------- ------",137168.39999997616,137167.5,136438.308,136448.60000002384,136454.978,137171.816,,35,"plummeted,"
screen,html.Screen,0_2_1_1_36,2021-11-19T11:22:20.418Z,,,,,,,,,,,,,,,,54,,,,,,,,,,,,,,483.6840000000084,,response,,,100,,,,,,Space,keypress(Space),,,,,-- --- ---- --- ------ ----- ------- ---- -- --- ------- --<br>------- ---------- ------ -- ----- -- ----- -- ---- ------<br>--- ----- --- --- ------ -------- ----- --- ------ ----- --<br>----- ----- ---------- and --- ------ ------ ---- -- ------<br>------- --- ------ ----- --- ---- ------- -- ---- --- --<br>------- ------,137656.39999997616,137655.5,137155.146,137168.60000002384,137171.816,137671.955,,36,and
screen,html.Screen,0_2_1_1_37,2021-11-19T11:22:20.906Z,,,,,,,,,,,,,,,,54,,,,,,,,,,,,,,471.3449999523291,,response,,,100,,,,,,Space,keypress(Space),,,,,-- --- ---- --- ------ ----- ------- ---- -- --- ------- --<br>------- ---------- ------ -- ----- -- ----- -- ---- ------<br>--- ----- --- --- ------ -------- ----- --- ------ ----- --<br>----- ----- ---------- --- the ------ ------ ---- -- ------<br>------- --- ------ ----- --- ---- ------- -- ---- --- --<br>------- ------,138144.10000002384,138143.29999995232,137655.285,137656.60000002384,137671.955,138155.393,,37,the
screen,html.Screen,0_2_1_1_38,2021-11-19T11:22:21.402Z,,,,,,,,,,,,,,,,54,,,,,,,,,,,,,,484.10699999998906,,response,,,100,,,,,,Space,keypress(Space),,,,,-- --- ---- --- ------ ----- ------- ---- -- --- ------- --<br>------- ---------- ------ -- ----- -- ----- -- ---- ------<br>--- ----- --- --- ------ -------- ----- --- ------ ----- --<br>----- ----- ---------- --- --- market ------ ---- -- ------<br>------- --- ------ ----- --- ---- ------- -- ---- --- --<br>------- ------,138640.20000004768,138639.5,138138.723,138144.39999997616,138155.393,138655.593,,38,market
screen,html.Screen,0_2_1_1_39,2021-11-19T11:22:21.946Z,,,,,,,,,,,,,,,,54,,,,,,,,,,,,,,527.8069999761647,,response,,,100,,,,,,Space,keypress(Space),,,,,-- --- ---- --- ------ ----- ------- ---- -- --- ------- --<br>------- ---------- ------ -- ----- -- ----- -- ---- ------<br>--- ----- --- --- ------ -------- ----- --- ------ ----- --<br>----- ----- ---------- --- --- ------ became ---- -- ------<br>------- --- ------ ----- --- ---- ------- -- ---- --- --<br>------- ------,139184.20000004768,139183.39999997616,138638.922,138640.5,138655.593,139189.017,,39,became
screen,html.Screen,0_2_1_1_40,2021-11-19T11:22:22.562Z,,,,,,,,,,,,,,,,54,,,,,,,,,,,,,,610.3829999761656,,response,,,100,,,,,,Space,keypress(Space),,,,,-- --- ---- --- ------ ----- ------- ---- -- --- ------- --<br>------- ---------- ------ -- ----- -- ----- -- ---- ------<br>--- ----- --- --- ------ -------- ----- --- ------ ----- --<br>----- ----- ---------- --- --- ------ ------ wary -- ------<br>------- --- ------ ----- --- ---- ------- -- ---- --- --<br>------- ------,139800.20000004768,139799.39999997616,139172.347,139184.39999997616,139189.017,139805.836,,40,wary
screen,html.Screen,0_2_1_1_41,2021-11-19T11:22:22.979Z,,,,,,,,,,,,,,,,54,,,,,,,,,,,,,,409.46399995230604,,response,,,100,,,,,,Space,keypress(Space),,,,,-- --- ---- --- ------ ----- ------- ---- -- --- ------- --<br>------- ---------- ------ -- ----- -- ----- -- ---- ------<br>--- ----- --- --- ------ -------- ----- --- ------ ----- --<br>----- ----- ---------- --- --- ------ ------ ---- of ------<br>------- --- ------ ----- --- ---- ------- -- ---- --- --<br>------- ------,140217.29999995232,140215.29999995232,139789.166,139800.5,139805.836,140222.62,,41,of
screen,html.Screen,0_2_1_1_42,2021-11-19T11:22:23.570Z,,,,,,,,,,,,,,,,54,,,,,,,,,,,,,,584.7799999761628,,response,,,100,,,,,,Space,keypress(Space),,,,,-- --- ---- --- ------ ----- ------- ---- -- --- ------- --<br>------- ---------- ------ -- ----- -- ----- -- ---- ------<br>--- ----- --- --- ------ -------- ----- --- ------ ----- --<br>----- ----- ---------- --- --- ------ ------ ---- -- French<br>------- --- ------ ----- --- ---- ------- -- ---- --- --<br>------- ------,140808.10000002384,140807.39999997616,140205.95,140217.60000002384,140222.62,140822.762,,42,French
screen,html.Screen,0_2_1_1_43,2021-11-19T11:22:24.538Z,,,,,,,,,,,,,,,,54,,,,,,,,,,,,,,952.5379999523284,,response,,,100,,,,,,Space,keypress(Space),,,,,-- --- ---- --- ------ ----- ------- ---- -- --- ------- --<br>------- ---------- ------ -- ----- -- ----- -- ---- ------<br>--- ----- --- --- ------ -------- ----- --- ------ ----- --<br>----- ----- ---------- --- --- ------ ------ ---- -- ------<br>credit. --- ------ ----- --- ---- ------- -- ---- --- --<br>------- ------,141776.10000002384,141775.29999995232,140806.092,140808.5,140822.762,141789.494,,43,credit.
screen,html.Screen,0_2_1_1_44,2021-11-19T11:22:25.010Z,,,,,,,,,,,,,,,,54,,,,,,,,,,,,,,457.80599995231023,,response,,,100,,,,,,Space,keypress(Space),,,,,-- --- ---- --- ------ ----- ------- ---- -- --- ------- --<br>------- ---------- ------ -- ----- -- ----- -- ---- ------<br>--- ----- --- --- ------ -------- ----- --- ------ ----- --<br>----- ----- ---------- --- --- ------ ------ ---- -- ------<br>------- The ------ ----- --- ---- ------- -- ---- --- --<br>------- ------,142248.10000002384,142247.29999995232,141772.825,141776.39999997616,141789.494,142256.617,,44,The
screen,html.Screen,0_2_1_1_45,2021-11-19T11:22:25.450Z,,,,,,,,,,,,,,,,54,,,,,,,,,,,,,,430.6829999523179,,response,,,100,,,,,,Space,keypress(Space),,,,,-- --- ---- --- ------ ----- ------- ---- -- --- ------- --<br>------- ---------- ------ -- ----- -- ----- -- ---- ------<br>--- ----- --- --- ------ -------- ----- --- ------ ----- --<br>----- ----- ---------- --- --- ------ ------ ---- -- ------<br>------- --- French ----- --- ---- ------- -- ---- --- --<br>------- ------,142688,142687.29999995232,142239.945,142248.29999995232,142256.617,142689.9,,45,French
screen,html.Screen,0_2_1_1_46,2021-11-19T11:22:25.914Z,,,,,,,,,,,,,,,,54,,,,,,,,,,,,,,461.7000000238477,,response,,,100,,,,,,Space,keypress(Space),,,,,-- --- ---- --- ------ ----- ------- ---- -- --- ------- --<br>------- ---------- ------ -- ----- -- ----- -- ---- ------<br>--- ----- --- --- ------ -------- ----- --- ------ ----- --<br>----- ----- ---------- --- --- ------ ------ ---- -- ------<br>------- --- ------ state --- ---- ------- -- ---- --- --<br>------- ------,143152.39999997616,143151.60000002384,142673.23,142688.29999995232,142689.9,143156.712,,46,state
screen,html.Screen,0_2_1_1_47,2021-11-19T11:22:26.410Z,,,,,,,,,,,,,,,,54,,,,,,,,,,,,,,490.4880000476842,,response,,,100,,,,,,Space,keypress(Space),,,,,-- --- ---- --- ------ ----- ------- ---- -- --- ------- --<br>------- ---------- ------ -- ----- -- ----- -- ---- ------<br>--- ----- --- --- ------ -------- ----- --- ------ ----- --<br>----- ----- ---------- --- --- ------ ------ ---- -- ------<br>------- --- ------ ----- was ---- ------- -- ---- --- --<br>------- ------,143648,143647.20000004768,143140.042,143152.70000004768,143156.712,143656.827,,47,was
screen,html.Screen,0_2_1_1_48,2021-11-19T11:22:26.898Z,,,,,,,,,,,,,,,,54,,,,,,,,,,,,,,478.27300002385164,,response,,,100,,,,,,Space,keypress(Space),,,,,-- --- ---- --- ------ ----- ------- ---- -- --- ------- --<br>------- ---------- ------ -- ----- -- ----- -- ---- ------<br>--- ----- --- --- ------ -------- ----- --- ------ ----- --<br>----- ----- ---------- --- --- ------ ------ ---- -- ------<br>------- --- ------ ----- --- left ------- -- ---- --- --<br>------- ------,144136,144135.10000002384,143640.157,143648.20000004768,143656.827,144140.259,,48,left
screen,html.Screen,0_2_1_1_49,2021-11-19T11:22:27.418Z,,,,,,,,,,,,,,,,54,,,,,,,,,,,,,,514.9410000476928,,response,,,100,,,,,,Space,keypress(Space),,,,,-- --- ---- --- ------ ----- ------- ---- -- --- ------- --<br>------- ---------- ------ -- ----- -- ----- -- ---- ------<br>--- ----- --- --- ------ -------- ----- --- ------ ----- --<br>----- ----- ---------- --- --- ------ ------ ---- -- ------<br>------- --- ------ ----- --- ---- without -- ---- --- --<br>------- ------,144656.10000002384,144655.20000004768,144123.589,144136.20000004768,144140.259,144673.797,,49,without
screen,html.Screen,0_2_1_1_50,2021-11-19T11:22:27.842Z,,,,,,,,,,,,,,,,54,,,,,,,,,,,,,,405.3030000238505,,response,,,100,,,,,,Space,keypress(Space),,,,,-- --- ---- --- ------ ----- ------- ---- -- --- ------- --<br>------- ---------- ------ -- ----- -- ----- -- ---- ------<br>--- ----- --- --- ------ -------- ----- --- ------ ----- --<br>----- ----- ---------- --- --- ------ ------ ---- -- ------<br>------- --- ------ ----- --- ---- ------- an ---- --- --<br>------- ------,145079.89999997616,145079.10000002384,144657.126,144656.29999995232,144673.797,145090.536,,50,an
screen,html.Screen,0_2_1_1_51,2021-11-19T11:22:28.322Z,,,,,,,,,,,,,,,,54,,,,,,,,,,,,,,468.5640000238491,,response,,,100,,,,,,Space,keypress(Space),,,,,-- --- ---- --- ------ ----- ------- ---- -- --- ------- --<br>------- ---------- ------ -- ----- -- ----- -- ---- ------<br>--- ----- --- --- ------ -------- ----- --- ------ ----- --<br>----- ----- ---------- --- --- ------ ------ ---- -- ------<br>------- --- ------ ----- --- ---- ------- -- easy --- --<br>------- ------,145559.89999997616,145559.10000002384,145073.866,145080.10000002384,145090.536,145574.041,,51,easy
screen,html.Screen,0_2_1_1_52,2021-11-19T11:22:28.682Z,,,,,,,,,,,,,,,,54,,,,,,,,,,,,,,345.0590000238444,,response,,,100,,,,,,Space,keypress(Space),,,,,-- --- ---- --- ------ ----- ------- ---- -- --- ------- --<br>------- ---------- ------ -- ----- -- ----- -- ---- ------<br>--- ----- --- --- ------ -------- ----- --- ------ ----- --<br>----- ----- ---------- --- --- ------ ------ ---- -- ------<br>------- --- ------ ----- --- ---- ------- -- ---- way --<br>------- ------,145919.79999995232,145919.10000002384,145557.37,145560.10000002384,145574.041,145924.07,,52,way
screen,html.Screen,0_2_1_1_53,2021-11-19T11:22:29.034Z,,,,,,,,,,,,,,,,54,,,,,,,,,,,,,,347.13000004767673,,response,,,100,,,,,,Space,keypress(Space),,,,,-- --- ---- --- ------ ----- ------- ---- -- --- ------- --<br>------- ---------- ------ -- ----- -- ----- -- ---- ------<br>--- ----- --- --- ------ -------- ----- --- ------ ----- --<br>----- ----- ---------- --- --- ------ ------ ---- -- ------<br>------- --- ------ ----- --- ---- ------- -- ---- --- of<br>------- ------,146272,146271.20000004768,145907.4,145920.10000002384,145924.07,146274.211,,53,of
screen,html.Screen,0_2_1_1_54,2021-11-19T11:22:29.466Z,,,,,,,,,,,,,,,,54,,,,,,,,,,,,,,428.78899999998976,,response,,,100,,,,,,Space,keypress(Space),,,,,-- --- ---- --- ------ ----- ------- ---- -- --- ------- --<br>------- ---------- ------ -- ----- -- ----- -- ---- ------<br>--- ----- --- --- ------ -------- ----- --- ------ ----- --<br>----- ----- ---------- --- --- ------ ------ ---- -- ------<br>------- --- ------ ----- --- ---- ------- -- ---- --- --<br>raising ------,146703.79999995232,146703,146257.54,146272.20000004768,146274.211,146707.613,,54,raising
screen,html.Screen,0_2_1_1_55,2021-11-19T11:22:29.914Z,,,,,,,,,,,,,,,,54,,,,,,,,,,,,,,443.3869999999879,,response,,,100,,,,,,Space,keypress(Space),,,,,-- --- ---- --- ------ ----- ------- ---- -- --- ------- --<br>------- ---------- ------ -- ----- -- ----- -- ---- ------<br>--- ----- --- --- ------ -------- ----- --- ------ ----- --<br>----- ----- ---------- --- --- ------ ------ ---- -- ------<br>------- --- ------ ----- --- ---- ------- -- ---- --- --<br>------- money.,147151.70000004768,147151,146690.943,146704,146707.613,147157.734,,55,money.
Item 100,flow.Loop,0_2_1_1,2021-11-19T11:22:29.914Z,,,,,,,,,,,,,,,,,,,,,,,,,,,,,,36869.564,,completion,,,,A,,,,,,,,,,silence,,147152.20000004768,147151,110264.766,110266.79999995232,110281.436,147157.734,,,
Question 1,html.Screen,0_2_1_2,2021-11-19T11:22:33.522Z,,,,,,,,,,,,,,,,,,,,,,,,,,,true,TRUE,,3601.366000023845,,response,,,100,A,,,,,TRUE,click #choice-1,,,,silence,,150760.29999995232,150759.10000002384,147141.064,147152.39999997616,147157.734,150775.287,,,
Question 2,html.Screen,0_2_1_3,2021-11-19T11:22:36.227Z,,,,,,,,,,,,,,,,,,,,,,,,,,,true,FALSE,,2689.112999976147,,response,,,100,A,,,,,FALSE,click #choice-2,,,,silence,,153465.60000002384,153464.39999997616,150758.617,150760.5,150775.287,153476.019,,,
Item 100,flow.Sequence,0_2_1,2021-11-19T11:22:36.228Z,,,,,,,,,,,,,,,,,,,,,,,,,,,,,,53185.36299997616,,completion,,,,,,,,,,,,,,,,153466.20000004768,153464.39999997616,100245.695,100262.60000002384,100279.037,153476.019,,,
End of Practice,html.Page,0_2_2,2021-11-19T11:22:40.172Z,,,,,,,,,,,,,,,,,,,,,,,,,,,,,,3934.0810000238416,,form submission,,,,,,,,,,,,,,,,157410.70000004768,157410.10000002384,153459.349,153466.29999995232,153476.019,157410.33,,,
Practice,flow.Sequence,0_2,2021-11-19T11:22:40.173Z,,,,,,,,,,,,,,,,,,,,,,,,,,,,,,114062.32200002385,,completion,,,,,,,,,,,,,,,,157411.20000004768,157410.10000002384,43331.104,43341.700000047684,43347.778,157410.33,,,
Trap_instruction,html.Page,0_3_0,2021-11-19T11:22:43.992Z,,,,,,,,,,,,,,,,,,,,,,,,,,,,,,3819.969999952329,,form submission,,,,,,,,,,,,,,,,161230.70000004768,161230.29999995232,157393.66,157411.5,157410.33,161261.093,,,
trap_trial,html.Screen,0_3_1,2021-11-19T11:22:47.196Z,,,,,,,,,,,,,,,,,,,,,,,,,,,true,1,,3172.206999952323,,response,,,,,,,,,1,click #choice-1,,,,,,164434.39999997616,164433.29999995232,161227.753,161231,161261.093,164445.316,,,
end of trap trial,html.Page,0_3_2,2021-11-19T11:22:49.206Z,,,,,,,,,,,,,,,,,,,,,,,,,,,,,,1998.7840000238502,,form submission,,,,,,,,,,,,,,,,166444.39999997616,166444.10000002384,164428.646,164434.70000004768,164445.316,166445.975,,,
Trap 1,flow.Sequence,0_3,2021-11-19T11:22:49.207Z,,,,,,,,,,,,,,,,,,,,,,,,,,,,,,9033.770000023855,,completion,,,,,,,,,,,,,,,,166444.79999995232,166444.10000002384,157393.66,157411.29999995232,157410.33,166445.975,,,
Standby,html.Page,0_4_0,2021-11-19T11:22:57.195Z,,,,,,,,,,,,,,,,,,,,,,,,,,,,,,8002.172999999981,,timeout,,,,,,,,,,,,,,,,174432.79999995232,174431.477,166429.305,166445.10000002384,166445.975,174448.148,,,
Holding screen,html.Screen,0_4_1_0_0,2021-11-19T11:23:04.197Z,,,,,,,,,,,,,,,,,,,,,,,,,,,,,,7001.642000000022,,timeout,,,,,,,,,,,,,,,,181434.79999995232,181433.12,174431.477,174433.20000004768,174448.148,181449.79,,,
screen,html.Screen,0_4_1_0_1_0,2021-11-19T11:23:05.212Z,,,,,,,,,,,,,,,,15,,,,,,,,,,,,,,995.8100000238337,,response,,,7,A,,,,,Space,keypress(Space),,,,silence,Greg --------- ---------- - --- ------- -- --- ------------<br>----- -- -------- ------- ---- ------ - -------- ---- -----<br>--- ------- ---- -- --- -------- --- - ----- ------ ---- --<br>-------- --- -------- -------- --- -------- ---- -- ----- -<br>-------- ---- --- ---------- --------- -- ------- ------ -<br>--------- ----- -----,182446.70000004768,182445.60000002384,181433.12,181435.20000004768,181449.79,182450.163,,0,Greg
screen,html.Screen,0_4_1_0_1_1,2021-11-19T11:23:06.235Z,,,,,,,,,,,,,,,,15,,,,,,,,,,,,,,1018.8369999999995,,response,,,7,A,,,,,Space,keypress(Space),,,,silence,"---- Anderson, ---------- - --- ------- -- --- ------------<br>----- -- -------- ------- ---- ------ - -------- ---- -----<br>--- ------- ---- -- --- -------- --- - ----- ------ ---- --<br>-------- --- -------- -------- --- -------- ---- -- ----- -<br>-------- ---- --- ---------- --------- -- ------- ------ -<br>--------- ----- -----",183469.79999995232,183469,182433.492,182447.10000002384,182450.163,183483.712,,1,"Anderson,"
screen,html.Screen,0_4_1_0_1_2,2021-11-19T11:23:06.915Z,,,,,,,,,,,,,,,,15,,,,,,,,,,,,,,665.1879999761586,,response,,,7,A,,,,,Space,keypress(Space),,,,silence,---- --------- considered - --- ------- -- --- ------------<br>----- -- -------- ------- ---- ------ - -------- ---- -----<br>--- ------- ---- -- --- -------- --- - ----- ------ ---- --<br>-------- --- -------- -------- --- -------- ---- -- ----- -<br>-------- ---- --- ---------- --------- -- ------- ------ -<br>--------- ----- -----,184149.79999995232,184148.89999997616,183467.042,183470.20000004768,183483.712,184167.241,,2,considered
screen,html.Screen,0_4_1_0_1_3,2021-11-19T11:23:07.483Z,,,,,,,,,,,,,,,,15,,,,,,,,,,,,,,549.6589999761491,,response,,,7,A,,,,,Space,keypress(Space),,,,silence,---- --------- ---------- a --- ------- -- --- ------------<br>----- -- -------- ------- ---- ------ - -------- ---- -----<br>--- ------- ---- -- --- -------- --- - ----- ------ ---- --<br>-------- --- -------- -------- --- -------- ---- -- ----- -<br>-------- ---- --- ---------- --------- -- ------- ------ -<br>--------- ----- -----,184717.70000004768,184716.89999997616,184150.571,184150,184167.241,184734.059,,3,a
screen,html.Screen,0_4_1_0_1_4,2021-11-19T11:23:08.035Z,,,,,,,,,,,,,,,,15,,,,,,,,,,,,,,534.8409999761498,,response,,,7,A,,,,,Space,keypress(Space),,,,silence,---- --------- ---------- - key ------- -- --- ------------<br>----- -- -------- ------- ---- ------ - -------- ---- -----<br>--- ------- ---- -- --- -------- --- - ----- ------ ---- --<br>-------- --- -------- -------- --- -------- ---- -- ----- -<br>-------- ---- --- ---------- --------- -- ------- ------ -<br>--------- ----- -----,185269.70000004768,185268.89999997616,184717.389,184717.89999997616,184734.059,185284.206,,4,key
screen,html.Screen,0_4_1_0_1_5,2021-11-19T11:23:08.635Z,,,,,,,,,,,,,,,,15,,,,,,,,,,,,,,584.5939999523107,,response,,,7,A,,,,,Space,keypress(Space),,,,silence,---- --------- ---------- - --- witness -- --- ------------<br>----- -- -------- ------- ---- ------ - -------- ---- -----<br>--- ------- ---- -- --- -------- --- - ----- ------ ---- --<br>-------- --- -------- -------- --- -------- ---- -- ----- -<br>-------- ---- --- ---------- --------- -- ------- ------ -<br>--------- ----- -----,185869.60000002384,185868.79999995232,185267.536,185269.89999997616,185284.206,185884.361,,5,witness
screen,html.Screen,0_4_1_0_1_6,2021-11-19T11:23:09.403Z,,,,,,,,,,,,,,,,15,,,,,,,,,,,,,,752.4389999523119,,response,,,7,A,,,,,Space,keypress(Space),,,,silence,---- --------- ---------- - --- ------- by --- ------------<br>----- -- -------- ------- ---- ------ - -------- ---- -----<br>--- ------- ---- -- --- -------- --- - ----- ------ ---- --<br>-------- --- -------- -------- --- -------- ---- -- ----- -<br>-------- ---- --- ---------- --------- -- ------- ------ -<br>--------- ----- -----,186637.60000002384,186636.79999995232,185867.691,185869.89999997616,185884.361,186651.222,,6,by
screen,html.Screen,0_4_1_0_1_7,2021-11-19T11:23:09.891Z,,,,,,,,,,,,,,,,15,,,,,,,,,,,,,,473.47800004767487,,response,,,7,A,,,,,Space,keypress(Space),,,,silence,---- --------- ---------- - --- ------- -- the ------------<br>----- -- -------- ------- ---- ------ - -------- ---- -----<br>--- ------- ---- -- --- -------- --- - ----- ------ ---- --<br>-------- --- -------- -------- --- -------- ---- -- ----- -<br>-------- ---- --- ---------- --------- -- ------- ------ -<br>--------- ----- -----,187125.5,187124.70000004768,186634.552,186637.89999997616,186651.222,187134.6,,7,the
screen,html.Screen,0_4_1_0_1_8,2021-11-19T11:23:10.811Z,,,,,,,,,,,,,,,,15,,,,,,,,,,,,,,910.1000000476779,,response,,,7,A,,,,,Space,keypress(Space),,,,silence,"---- --------- ---------- - --- ------- -- --- prosecution,<br>----- -- -------- ------- ---- ------ - -------- ---- -----<br>--- ------- ---- -- --- -------- --- - ----- ------ ---- --<br>-------- --- -------- -------- --- -------- ---- -- ----- -<br>-------- ---- --- ---------- --------- -- ------- ------ -<br>--------- ----- -----",188045.5,188044.70000004768,187117.931,187125.70000004768,187134.6,188051.627,,8,"prosecution,"
screen,html.Screen,0_4_1_0_1_9,2021-11-19T11:23:11.898Z,,,,,,,,,,,,,,,,15,,,,,,,,,,,,,,1080.9730000238342,,response,,,7,A,,,,,Space,keypress(Space),,,,silence,---- --------- ---------- - --- ------- -- --- ------------<br>vowed -- -------- ------- ---- ------ - -------- ---- -----<br>--- ------- ---- -- --- -------- --- - ----- ------ ---- --<br>-------- --- -------- -------- --- -------- ---- -- ----- -<br>-------- ---- --- ---------- --------- -- ------- ------ -<br>--------- ----- -----,189133.5,189132.60000002384,188034.956,188045.70000004768,188051.627,189134.984,,9,vowed
screen,html.Screen,0_4_1_0_1_10,2021-11-19T11:23:12.411Z,,,,,,,,,,,,,,,,15,,,,,,,,,,,,,,509.716000047687,,response,,,7,A,,,,,Space,keypress(Space),,,,silence,---- --------- ---------- - --- ------- -- --- ------------<br>----- he -------- ------- ---- ------ - -------- ---- -----<br>--- ------- ---- -- --- -------- --- - ----- ------ ---- --<br>-------- --- -------- -------- --- -------- ---- -- ----- -<br>-------- ---- --- ---------- --------- -- ------- ------ -<br>--------- ----- -----,189645.5,189644.70000004768,189118.315,189133.70000004768,189134.984,189652.064,,10,he
screen,html.Screen,0_4_1_0_1_11,2021-11-19T11:23:12.986Z,,,,,,,,,,,,,,,,15,,,,,,,,,,,,,,568.6360000476707,,response,,,7,A,,,,,Space,keypress(Space),,,,silence,---- --------- ---------- - --- ------- -- --- ------------<br>----- -- wouldn't ------- ---- ------ - -------- ---- -----<br>--- ------- ---- -- --- -------- --- - ----- ------ ---- --<br>-------- --- -------- -------- --- -------- ---- -- ----- -<br>-------- ---- --- ---------- --------- -- ------- ------ -<br>--------- ----- -----,190221.39999997616,190220.70000004768,189635.393,189645.79999995232,189652.064,190235.486,,11,wouldn't
screen,html.Screen,0_4_1_0_1_12,2021-11-19T11:23:13.682Z,,,,,,,,,,,,,,,,15,,,,,,,,,,,,,,681.1140000238374,,response,,,7,A,,,,,Space,keypress(Space),,,,silence,---- --------- ---------- - --- ------- -- --- ------------<br>----- -- -------- testify ---- ------ - -------- ---- -----<br>--- ------- ---- -- --- -------- --- - ----- ------ ---- --<br>-------- --- -------- -------- --- -------- ---- -- ----- -<br>-------- ---- --- ---------- --------- -- ------- ------ -<br>--------- ----- -----,190917.39999997616,190916.60000002384,190218.816,190221.79999995232,190235.486,190918.967,,12,testify
screen,html.Screen,0_4_1_0_1_13,2021-11-19T11:23:14.170Z,,,,,,,,,,,,,,,,15,,,,,,,,,,,,,,485.63300002383767,,response,,,7,A,,,,,Space,keypress(Space),,,,silence,---- --------- ---------- - --- ------- -- --- ------------<br>----- -- -------- ------- when ------ - -------- ---- -----<br>--- ------- ---- -- --- -------- --- - ----- ------ ---- --<br>-------- --- -------- -------- --- -------- ---- -- ----- -<br>-------- ---- --- ---------- --------- -- ------- ------ -<br>--------- ----- -----,191405.39999997616,191404.60000002384,190902.297,190917.60000002384,190918.967,191419.164,,13,when
screen,html.Screen,0_4_1_0_1_14,2021-11-19T11:23:15.275Z,,,,,,,,,,,,,,,,15,,,,,,,,,,,,,,1089.7359999761684,,response,,,7,A,,,,,Space,keypress(Space),,,,silence,---- --------- ---------- - --- ------- -- --- ------------<br>----- -- -------- ------- ---- served - -------- ---- -----<br>--- ------- ---- -- --- -------- --- - ----- ------ ---- --<br>-------- --- -------- -------- --- -------- ---- -- ----- -<br>-------- ---- --- ---------- --------- -- ------- ------ -<br>--------- ----- -----,192509.70000004768,192508.89999997616,191402.493,191405.60000002384,191419.164,192519.377,,14,served
screen,html.Screen,0_4_1_0_1_15,2021-11-19T11:23:15.626Z,,,,,,,,,,,,,,,,15,,,,,,,,,,,,,,341.1229999999923,,response,,,7,A,,,,,Space,keypress(Space),,,,silence,---- --------- ---------- - --- ------- -- --- ------------<br>----- -- -------- ------- ---- ------ a -------- ---- -----<br>--- ------- ---- -- --- -------- --- - ----- ------ ---- --<br>-------- --- -------- -------- --- -------- ---- -- ----- -<br>-------- ---- --- ---------- --------- -- ------- ------ -<br>--------- ----- -----,192861.20000004768,192860.5,192502.707,192509.89999997616,192519.377,192869.442,,15,a
screen,html.Screen,0_4_1_0_1_16,2021-11-19T11:23:16.482Z,,,,,,,,,,,,,,,,15,,,,,,,,,,,,,,846.9579999761481,,response,,,7,A,,,,,Space,keypress(Space),,,,silence,---- --------- ---------- - --- ------- -- --- ------------<br>----- -- -------- ------- ---- ------ - subpoena ---- -----<br>--- ------- ---- -- --- -------- --- - ----- ------ ---- --<br>-------- --- -------- -------- --- -------- ---- -- ----- -<br>-------- ---- --- ---------- --------- -- ------- ------ -<br>--------- ----- -----,193717.29999995232,193716.39999997616,192852.772,192861.5,192869.442,193719.678,,16,subpoena
screen,html.Screen,0_4_1_0_1_17,2021-11-19T11:23:17.082Z,,,,,,,,,,,,,,,,15,,,,,,,,,,,,,,596.7219999761437,,response,,,7,A,,,,,Space,keypress(Space),,,,silence,---- --------- ---------- - --- ------- -- --- ------------<br>----- -- -------- ------- ---- ------ - -------- last -----<br>--- ------- ---- -- --- -------- --- - ----- ------ ---- --<br>-------- --- -------- -------- --- -------- ---- -- ----- -<br>-------- ---- --- ---------- --------- -- ------- ------ -<br>--------- ----- -----,194317.10000002384,194316.39999997616,193703.008,193717.60000002384,193719.678,194319.919,,17,last
screen,html.Screen,0_4_1_0_1_18,2021-11-19T11:23:18.418Z,,,,,,,,,,,,,,,,15,,,,,,,,,,,,,,1332.3809999523219,,response,,,7,A,,,,,Space,keypress(Space),,,,silence,---- --------- ---------- - --- ------- -- --- ------------<br>----- -- -------- ------- ---- ------ - -------- ---- week.<br>--- ------- ---- -- --- -------- --- - ----- ------ ---- --<br>-------- --- -------- -------- --- -------- ---- -- ----- -<br>-------- ---- --- ---------- --------- -- ------- ------ -<br>--------- ----- -----,195653.10000002384,195652.29999995232,194303.248,194317.39999997616,194319.919,195670.125,,18,week.
screen,html.Screen,0_4_1_0_1_19,2021-11-19T11:23:18.970Z,,,,,,,,,,,,,,,,15,,,,,,,,,,,,,,534.1749999523163,,response,,,7,A,,,,,Space,keypress(Space),,,,silence,---- --------- ---------- - --- ------- -- --- ------------<br>----- -- -------- ------- ---- ------ - -------- ---- -----<br>His ------- ---- -- --- -------- --- - ----- ------ ---- --<br>-------- --- -------- -------- --- -------- ---- -- ----- -<br>-------- ---- --- ---------- --------- -- ------- ------ -<br>--------- ----- -----,196205.10000002384,196204.29999995232,195653.455,195653.29999995232,195670.125,196220.432,,19,His
screen,html.Screen,0_4_1_0_1_20,2021-11-19T11:23:19.858Z,,,,,,,,,,,,,,,,15,,,,,,,,,,,,,,871.768000047683,,response,,,7,A,,,,,Space,keypress(Space),,,,silence,---- --------- ---------- - --- ------- -- --- ------------<br>----- -- -------- ------- ---- ------ - -------- ---- -----<br>--- lawyers ---- -- --- -------- --- - ----- ------ ---- --<br>-------- --- -------- -------- --- -------- ---- -- ----- -<br>-------- ---- --- ---------- --------- -- ------- ------ -<br>--------- ----- -----,197093.10000002384,197092.20000004768,196203.761,196205.29999995232,196220.432,197103.902,,20,lawyers
screen,html.Screen,0_4_1_0_1_21,2021-11-19T11:23:20.522Z,,,,,,,,,,,,,,,,15,,,,,,,,,,,,,,652.2980000476819,,response,,,7,A,,,,,Space,keypress(Space),,,,silence,---- --------- ---------- - --- ------- -- --- ------------<br>----- -- -------- ------- ---- ------ - -------- ---- -----<br>--- ------- said -- --- -------- --- - ----- ------ ---- --<br>-------- --- -------- -------- --- -------- ---- -- ----- -<br>-------- ---- --- ---------- --------- -- ------- ------ -<br>--------- ----- -----,197757.20000004768,197756.20000004768,197087.232,197093.29999995232,197103.902,197770.566,,21,said
screen,html.Screen,0_4_1_0_1_22,2021-11-19T11:23:20.978Z,,,,,,,,,,,,,,,,15,,,,,,,,,,,,,,441.53400002385024,,response,,,7,A,,,,,Space,keypress(Space),,,,silence,---- --------- ---------- - --- ------- -- --- ------------<br>----- -- -------- ------- ---- ------ - -------- ---- -----<br>--- ------- ---- he --- -------- --- - ----- ------ ---- --<br>-------- --- -------- -------- --- -------- ---- -- ----- -<br>-------- ---- --- ---------- --------- -- ------- ------ -<br>--------- ----- -----,198212.89999997616,198212.10000002384,197753.897,197757.39999997616,197770.566,198220.932,,22,he
screen,html.Screen,0_4_1_0_1_23,2021-11-19T11:23:21.426Z,,,,,,,,,,,,,,,,15,,,,,,,,,,,,,,439.268000047683,,response,,,7,A,,,,,Space,keypress(Space),,,,silence,---- --------- ---------- - --- ------- -- --- ------------<br>----- -- -------- ------- ---- ------ - -------- ---- -----<br>--- ------- ---- -- was -------- --- - ----- ------ ---- --<br>-------- --- -------- -------- --- -------- ---- -- ----- -<br>-------- ---- --- ---------- --------- -- ------- ------ -<br>--------- ----- -----,198661,198660.20000004768,198204.261,198213.20000004768,198220.932,198670.968,,23,was
screen,html.Screen,0_4_1_0_1_24,2021-11-19T11:23:21.978Z,,,,,,,,,,,,,,,,15,,,,,,,,,,,,,,541.1320000238484,,response,,,7,A,,,,,Space,keypress(Space),,,,silence,---- --------- ---------- - --- ------- -- --- ------------<br>----- -- -------- ------- ---- ------ - -------- ---- -----<br>--- ------- ---- -- --- prepared --- - ----- ------ ---- --<br>-------- --- -------- -------- --- -------- ---- -- ----- -<br>-------- ---- --- ---------- --------- -- ------- ------ -<br>--------- ----- -----,199212.89999997616,199212.10000002384,198654.298,198661.20000004768,198670.968,199221.131,,24,prepared
screen,html.Screen,0_4_1_0_1_25,2021-11-19T11:23:22.410Z,,,,,,,,,,,,,,,,15,,,,,,,,,,,,,,422.9690000238479,,response,,,7,A,,,,,Space,keypress(Space),,,,silence,---- --------- ---------- - --- ------- -- --- ------------<br>----- -- -------- ------- ---- ------ - -------- ---- -----<br>--- ------- ---- -- --- -------- for - ----- ------ ---- --<br>-------- --- -------- -------- --- -------- ---- -- ----- -<br>-------- ---- --- ---------- --------- -- ------- ------ -<br>--------- ----- -----,199644.79999995232,199644.10000002384,199204.461,199213.10000002384,199221.131,199654.557,,25,for
screen,html.Screen,0_4_1_0_1_26,2021-11-19T11:23:22.754Z,,,,,,,,,,,,,,,,15,,,,,,,,,,,,,,333.54300002384116,,response,,,7,A,,,,,Space,keypress(Space),,,,silence,---- --------- ---------- - --- ------- -- --- ------------<br>----- -- -------- ------- ---- ------ - -------- ---- -----<br>--- ------- ---- -- --- -------- --- a ----- ------ ---- --<br>-------- --- -------- -------- --- -------- ---- -- ----- -<br>-------- ---- --- ---------- --------- -- ------- ------ -<br>--------- ----- -----,199988.89999997616,199988.10000002384,199637.887,199645.10000002384,199654.557,200004.68,,26,a
screen,html.Screen,0_4_1_0_1_27,2021-11-19T11:23:23.234Z,,,,,,,,,,,,,,,,15,,,,,,,,,,,,,,463.42000002384884,,response,,,7,A,,,,,Space,keypress(Space),,,,silence,---- --------- ---------- - --- ------- -- --- ------------<br>----- -- -------- ------- ---- ------ - -------- ---- -----<br>--- ------- ---- -- --- -------- --- - third ------ ---- --<br>-------- --- -------- -------- --- -------- ---- -- ----- -<br>-------- ---- --- ---------- --------- -- ------- ------ -<br>--------- ----- -----,200468.79999995232,200468.10000002384,199988.01,199989.10000002384,200004.68,200471.446,,27,third
screen,html.Screen,0_4_1_0_1_28,2021-11-19T11:23:23.698Z,,,,,,,,,,,,,,,,15,,,,,,,,,,,,,,460.5540000000037,,response,,,7,A,,,,,Space,keypress(Space),,,,silence,---- --------- ---------- - --- ------- -- --- ------------<br>----- -- -------- ------- ---- ------ - -------- ---- -----<br>--- ------- ---- -- --- -------- --- - ----- prison ---- --<br>-------- --- -------- -------- --- -------- ---- -- ----- -<br>-------- ---- --- ---------- --------- -- ------- ------ -<br>--------- ----- -----,200932.70000004768,200932,200454.776,200469.10000002384,200471.446,200938.237,,28,prison
screen,html.Screen,0_4_1_0_1_29,2021-11-19T11:23:24.418Z,,,,,,,,,,,,,,,,15,,,,,,,,,,,,,,713.6629999761644,,response,,,7,A,,,,,Space,keypress(Space),,,,silence,---- --------- ---------- - --- ------- -- --- ------------<br>----- -- -------- ------- ---- ------ - -------- ---- -----<br>--- ------- ---- -- --- -------- --- - ----- ------ stay --<br>-------- --- -------- -------- --- -------- ---- -- ----- -<br>-------- ---- --- ---------- --------- -- ------- ------ -<br>--------- ----- -----,201652.89999997616,201651.89999997616,200921.567,200933.10000002384,200938.237,201655.077,,29,stay
screen,html.Screen,0_4_1_0_1_30,2021-11-19T11:23:24.850Z,,,,,,,,,,,,,,,,15,,,,,,,,,,,,,,428.8229999761679,,response,,,7,A,,,,,Space,keypress(Space),,,,silence,---- --------- ---------- - --- ------- -- --- ------------<br>----- -- -------- ------- ---- ------ - -------- ---- -----<br>--- ------- ---- -- --- -------- --- - ----- ------ ---- to<br>-------- --- -------- -------- --- -------- ---- -- ----- -<br>-------- ---- --- ---------- --------- -- ------- ------ -<br>--------- ----- -----,202084.79999995232,202083.89999997616,201638.407,201653.20000004768,201655.077,202088.539,,30,to
screen,html.Screen,0_4_1_0_1_31,2021-11-19T11:23:25.410Z,,,,,,,,,,,,,,,,15,,,,,,,,,,,,,,555.7609999523265,,response,,,7,A,,,,,Space,keypress(Space),,,,silence,---- --------- ---------- - --- ------- -- --- ------------<br>----- -- -------- ------- ---- ------ - -------- ---- -----<br>--- ------- ---- -- --- -------- --- - ----- ------ ---- --<br>maintain --- -------- -------- --- -------- ---- -- ----- -<br>-------- ---- --- ---------- --------- -- ------- ------ -<br>--------- ----- -----,202645.10000002384,202644.29999995232,202071.869,202085,202088.539,202655.344,,31,maintain
screen,html.Screen,0_4_1_0_1_32,2021-11-19T11:23:25.842Z,,,,,,,,,,,,,,,,15,,,,,,,,,,,,,,420.55599997614627,,response,,,7,A,,,,,Space,keypress(Space),,,,silence,---- --------- ---------- - --- ------- -- --- ------------<br>----- -- -------- ------- ---- ------ - -------- ---- -----<br>--- ------- ---- -- --- -------- --- - ----- ------ ---- --<br>-------- his -------- -------- --- -------- ---- -- ----- -<br>-------- ---- --- ---------- --------- -- ------- ------ -<br>--------- ----- -----,203076.60000002384,203075.89999997616,202638.674,202645.39999997616,202655.344,203088.839,,32,his
screen,html.Screen,0_4_1_0_1_33,2021-11-19T11:23:27.114Z,,,,,,,,,,,,,,,,15,,,,,,,,,,,,,,1259.060999976151,,response,,,7,A,,,,,Space,keypress(Space),,,,silence,---- --------- ---------- - --- ------- -- --- ------------<br>----- -- -------- ------- ---- ------ - -------- ---- -----<br>--- ------- ---- -- --- -------- --- - ----- ------ ---- --<br>-------- --- silence. -------- --- -------- ---- -- ----- -<br>-------- ---- --- ---------- --------- -- ------- ------ -<br>--------- ----- -----,204348.60000002384,204347.89999997616,203072.168,203076.79999995232,203088.839,204355.575,,33,silence.
screen,html.Screen,0_4_1_0_1_34,2021-11-19T11:23:27.666Z,,,,,,,,,,,,,,,,15,,,,,,,,,,,,,,544.2249999523046,,response,,,7,A,,,,,Space,keypress(Space),,,,silence,---- --------- ---------- - --- ------- -- --- ------------<br>----- -- -------- ------- ---- ------ - -------- ---- -----<br>--- ------- ---- -- --- -------- --- - ----- ------ ---- --<br>-------- --- -------- Anderson --- -------- ---- -- ----- -<br>-------- ---- --- ---------- --------- -- ------- ------ -<br>--------- ----- -----,204900.60000002384,204899.79999995232,204338.906,204348.89999997616,204355.575,204906.075,,34,Anderson
screen,html.Screen,0_4_1_0_1_35,2021-11-19T11:23:28.114Z,,,,,,,,,,,,,,,,15,,,,,,,,,,,,,,441.6250000476721,,response,,,7,A,,,,,Space,keypress(Space),,,,silence,---- --------- ---------- - --- ------- -- --- ------------<br>----- -- -------- ------- ---- ------ - -------- ---- -----<br>--- ------- ---- -- --- -------- --- - ----- ------ ---- --<br>-------- --- -------- -------- was -------- ---- -- ----- -<br>-------- ---- --- ---------- --------- -- ------- ------ -<br>--------- ----- -----,205348.5,205347.70000004768,204889.403,204900.89999997616,204906.075,205356.017,,35,was
screen,html.Screen,0_4_1_0_1_36,2021-11-19T11:23:28.722Z,,,,,,,,,,,,,,,,15,,,,,,,,,,,,,,599.6830000476912,,response,,,7,A,,,,,Space,keypress(Space),,,,silence,---- --------- ---------- - --- ------- -- --- ------------<br>----- -- -------- ------- ---- ------ - -------- ---- -----<br>--- ------- ---- -- --- -------- --- - ----- ------ ---- --<br>-------- --- -------- -------- --- released ---- -- ----- -<br>-------- ---- --- ---------- --------- -- ------- ------ -<br>--------- ----- -----,205956.5,205955.70000004768,205339.347,205348.79999995232,205356.017,205972.897,,36,released
screen,html.Screen,0_4_1_0_1_37,2021-11-19T11:23:29.298Z,,,,,,,,,,,,,,,,15,,,,,,,,,,,,,,558.8030000476865,,response,,,7,A,,,,,Space,keypress(Space),,,,silence,---- --------- ---------- - --- ------- -- --- ------------<br>----- -- -------- ------- ---- ------ - -------- ---- -----<br>--- ------- ---- -- --- -------- --- - ----- ------ ---- --<br>-------- --- -------- -------- --- -------- July -- ----- -<br>-------- ---- --- ---------- --------- -- ------- ------ -<br>--------- ----- -----,206532.5,206531.70000004768,205956.226,205956.70000004768,205972.897,206539.67,,37,July
screen,html.Screen,0_4_1_0_1_38,2021-11-19T11:23:29.785Z,,,,,,,,,,,,,,,,15,,,,,,,,,,,,,,480.0300000476709,,response,,,7,A,,,,,Space,keypress(Space),,,,silence,---- --------- ---------- - --- ------- -- --- ------------<br>----- -- -------- ------- ---- ------ - -------- ---- -----<br>--- ------- ---- -- --- -------- --- - ----- ------ ---- --<br>-------- --- -------- -------- --- -------- ---- 20 ----- -<br>-------- ---- --- ---------- --------- -- ------- ------ -<br>--------- ----- -----,207020.5,207019.70000004768,206523,206532.70000004768,206539.67,207023.135,,38,20
screen,html.Screen,0_4_1_0_1_39,2021-11-19T11:23:30.290Z,,,,,,,,,,,,,,,,15,,,,,,,,,,,,,,500.5650000476744,,response,,,7,A,,,,,Space,keypress(Space),,,,silence,---- --------- ---------- - --- ------- -- --- ------------<br>----- -- -------- ------- ---- ------ - -------- ---- -----<br>--- ------- ---- -- --- -------- --- - ----- ------ ---- --<br>-------- --- -------- -------- --- -------- ---- -- after -<br>-------- ---- --- ---------- --------- -- ------- ------ -<br>--------- ----- -----,207524.60000002384,207523.70000004768,207006.465,207020.60000002384,207023.135,207539.829,,39,after
screen,html.Screen,0_4_1_0_1_40,2021-11-19T11:23:30.841Z,,,,,,,,,,,,,,,,15,,,,,,,,,,,,,,535.771000023844,,response,,,7,A,,,,,Space,keypress(Space),,,,silence,---- --------- ---------- - --- ------- -- --- ------------<br>----- -- -------- ------- ---- ------ - -------- ---- -----<br>--- ------- ---- -- --- -------- --- - ----- ------ ---- --<br>-------- --- -------- -------- --- -------- ---- -- ----- a<br>-------- ---- --- ---------- --------- -- ------- ------ -<br>--------- ----- -----,208076.29999995232,208075.60000002384,207523.16,207524.79999995232,207539.829,208090.179,,40,a
screen,html.Screen,0_4_1_0_1_41,2021-11-19T11:23:31.538Z,,,,,,,,,,,,,,,,15,,,,,,,,,,,,,,681.4210000238381,,response,,,7,A,,,,,Space,keypress(Space),,,,silence,---- --------- ---------- - --- ------- -- --- ------------<br>----- -- -------- ------- ---- ------ - -------- ---- -----<br>--- ------- ---- -- --- -------- --- - ----- ------ ---- --<br>-------- --- -------- -------- --- -------- ---- -- ----- -<br>two-week ---- --- ---------- --------- -- ------- ------ -<br>--------- ----- -----,208772.60000002384,208771.60000002384,208073.507,208076.60000002384,208090.179,208773.572,,41,two-week
screen,html.Screen,0_4_1_0_1_42,2021-11-19T11:23:32.297Z,,,,,,,,,,,,,,,,15,,,,,,,,,,,,,,758.0280000238563,,response,,,7,A,,,,,Space,keypress(Space),,,,silence,---- --------- ---------- - --- ------- -- --- ------------<br>----- -- -------- ------- ---- ------ - -------- ---- -----<br>--- ------- ---- -- --- -------- --- - ----- ------ ---- --<br>-------- --- -------- -------- --- -------- ---- -- ----- -<br>-------- stay --- ---------- --------- -- ------- ------ -<br>--------- ----- -----,209532.39999997616,209531.60000002384,208756.902,208772.70000004768,208773.572,209540.297,,42,stay
screen,html.Screen,0_4_1_0_1_43,2021-11-19T11:23:32.769Z,,,,,,,,,,,,,,,,15,,,,,,,,,,,,,,463.2030000000086,,response,,,7,A,,,,,Space,keypress(Space),,,,silence,---- --------- ---------- - --- ------- -- --- ------------<br>----- -- -------- ------- ---- ------ - -------- ---- -----<br>--- ------- ---- -- --- -------- --- - ----- ------ ---- --<br>-------- --- -------- -------- --- -------- ---- -- ----- -<br>-------- ---- for ---------- --------- -- ------- ------ -<br>--------- ----- -----,210004.29999995232,210003.5,209523.628,209532.60000002384,209540.297,210007.361,,43,for
screen,html.Screen,0_4_1_0_1_44,2021-11-19T11:23:33.281Z,,,,,,,,,,,,,,,,15,,,,,,,,,,,,,,508.0389999761537,,response,,,7,A,,,,,Space,keypress(Space),,,,silence,---- --------- ---------- - --- ------- -- --- ------------<br>----- -- -------- ------- ---- ------ - -------- ---- -----<br>--- ------- ---- -- --- -------- --- - ----- ------ ---- --<br>-------- --- -------- -------- --- -------- ---- -- ----- -<br>-------- ---- --- previously --------- -- ------- ------ -<br>--------- ----- -----,210516.20000004768,210515.39999997616,209990.689,210004.5,210007.361,210524.018,,44,previously
screen,html.Screen,0_4_1_0_1_45,2021-11-19T11:23:33.777Z,,,,,,,,,,,,,,,,15,,,,,,,,,,,,,,487.48199999998906,,response,,,7,A,,,,,Space,keypress(Space),,,,silence,---- --------- ---------- - --- ------- -- --- ------------<br>----- -- -------- ------- ---- ------ - -------- ---- -----<br>--- ------- ---- -- --- -------- --- - ----- ------ ---- --<br>-------- --- -------- -------- --- -------- ---- -- ----- -<br>-------- ---- --- ---------- declining -- ------- ------ -<br>--------- ----- -----,211012.29999995232,211011.5,210507.348,210516.39999997616,210524.018,211024.137,,45,declining
screen,html.Screen,0_4_1_0_1_46,2021-11-19T11:23:34.217Z,,,,,,,,,,,,,,,,15,,,,,,,,,,,,,,427.26299997617025,,response,,,7,A,,,,,Space,keypress(Space),,,,silence,---- --------- ---------- - --- ------- -- --- ------------<br>----- -- -------- ------- ---- ------ - -------- ---- -----<br>--- ------- ---- -- --- -------- --- - ----- ------ ---- --<br>-------- --- -------- -------- --- -------- ---- -- ----- -<br>-------- ---- --- ---------- --------- to ------- ------ -<br>--------- ----- -----,211452.29999995232,211451.39999997616,211007.467,211012.39999997616,211024.137,211457.611,,46,to
screen,html.Screen,0_4_1_0_1_47,2021-11-19T11:23:34.625Z,,,,,,,,,,,,,,,,15,,,,,,,,,,,,,,401.8889999999956,,response,,,7,A,,,,,Space,keypress(Space),,,,silence,---- --------- ---------- - --- ------- -- --- ------------<br>----- -- -------- ------- ---- ------ - -------- ---- -----<br>--- ------- ---- -- --- -------- --- - ----- ------ ---- --<br>-------- --- -------- -------- --- -------- ---- -- ----- -<br>-------- ---- --- ---------- --------- -- testify ------ -<br>--------- ----- -----,211860.20000004768,211859.5,211440.941,211452.5,211457.611,211874.388,,47,testify
screen,html.Screen,0_4_1_0_1_48,2021-11-19T11:23:35.081Z,,,,,,,,,,,,,,,,15,,,,,,,,,,,,,,441.01199997615186,,response,,,7,A,,,,,Space,keypress(Space),,,,silence,---- --------- ---------- - --- ------- -- --- ------------<br>----- -- -------- ------- ---- ------ - -------- ---- -----<br>--- ------- ---- -- --- -------- --- - ----- ------ ---- --<br>-------- --- -------- -------- --- -------- ---- -- ----- -<br>-------- ---- --- ---------- --------- -- ------- before -<br>--------- ----- -----,212316.10000002384,212315.39999997616,211857.718,211860.5,211874.388,212324.543,,48,before
screen,html.Screen,0_4_1_0_1_49,2021-11-19T11:23:35.650Z,,,,,,,,,,,,,,,,15,,,,,,,,,,,,,,559.356999976153,,response,,,7,A,,,,,Space,keypress(Space),,,,silence,---- --------- ---------- - --- ------- -- --- ------------<br>----- -- -------- ------- ---- ------ - -------- ---- -----<br>--- ------- ---- -- --- -------- --- - ----- ------ ---- --<br>-------- --- -------- -------- --- -------- ---- -- ----- -<br>-------- ---- --- ---------- --------- -- ------- ------ a<br>--------- ----- -----,212884.60000002384,212883.89999997616,212307.872,212316.39999997616,212324.543,212891.192,,49,a
screen,html.Screen,0_4_1_0_1_50,2021-11-19T11:23:36.113Z,,,,,,,,,,,,,,,,15,,,,,,,,,,,,,,456.1079999523063,,response,,,7,A,,,,,Space,keypress(Space),,,,silence,---- --------- ---------- - --- ------- -- --- ------------<br>----- -- -------- ------- ---- ------ - -------- ---- -----<br>--- ------- ---- -- --- -------- --- - ----- ------ ---- --<br>-------- --- -------- -------- --- -------- ---- -- ----- -<br>-------- ---- --- ---------- --------- -- ------- ------ -<br>different ----- -----,213348.10000002384,213347.29999995232,212874.523,212884.79999995232,212891.192,213358.211,,50,different
screen,html.Screen,0_4_1_0_1_51,2021-11-19T11:23:36.569Z,,,,,,,,,,,,,,,,15,,,,,,,,,,,,,,445.08899995230604,,response,,,7,A,,,,,Space,keypress(Space),,,,silence,---- --------- ---------- - --- ------- -- --- ------------<br>----- -- -------- ------- ---- ------ - -------- ---- -----<br>--- ------- ---- -- --- -------- --- - ----- ------ ---- --<br>-------- --- -------- -------- --- -------- ---- -- ----- -<br>-------- ---- --- ---------- --------- -- ------- ------ -<br>--------- grand -----,213804.10000002384,213803.29999995232,213341.539,213348.29999995232,213358.211,213808.207,,51,grand
screen,html.Screen,0_4_1_0_1_52,2021-11-19T11:23:36.977Z,,,,,,,,,,,,,,,,15,,,,,,,,,,,,,,403.0929999523214,,response,,,7,A,,,,,Space,keypress(Space),,,,silence,---- --------- ---------- - --- ------- -- --- ------------<br>----- -- -------- ------- ---- ------ - -------- ---- -----<br>--- ------- ---- -- --- -------- --- - ----- ------ ---- --<br>-------- --- -------- -------- --- -------- ---- -- ----- -<br>-------- ---- --- ---------- --------- -- ------- ------ -<br>--------- ----- jury.,214212.20000004768,214211.29999995232,213791.537,213804.29999995232,213808.207,214224.991,,52,jury.
