sender,sender_type,sender_id,timestamp,meta,,Blues,Classical,Country,Dance,Electronic,Folk,Gospel,Hip-Hop,Jazz,Latin,Musical/Film,New-age,Pop,Provo_ID,R&B,Rap,Reggae,Religious,Rock,Soul,Swing,Traditional,age,artist_name,correct,correctResponse,distraction,duration,education,ended_on,familiarity,gender,item,list,music_frequency,offensiveness,pleasantness,preference,response,response_action,snippet_file,song_name,song_rating,sound,text,time_commit,time_end,time_render,time_run,time_show,time_switch,url,word,word_ID
Instructions,html.Page,0_0,2021-12-02T10:00:05.073Z,"{""labjs_version"":""20.2.3"",""labjs_build"":{""flavor"":""production"",""commit"":""7ea907d66ca8aeef8054924ca5d82ffbe11e34e5""},""location"":""https://run.pavlovia.org/mvasilev/lab_music_c/"",""userAgent"":""Mozilla/5.0 (Windows NT 6.1; Win64; x64) AppleWebKit/537.36 (KHTML, like Gecko) Chrome/96.0.4664.45 Safari/537.36"",""platform"":""Win32"",""language"":""en-US"",""locale"":""en-US"",""timeZone"":""Europe/London"",""timezoneOffset"":0,""screen_width"":1920,""screen_height"":1080,""scroll_width"":1920,""scroll_height"":921,""window_innerWidth"":1920,""window_innerHeight"":969,""devicePixelRatio"":1}",,,,,,,,,,,,,,,,,,,,,,,,,,,,,23866.794000000184,,form submission,,,,,,,,,,,,,,,,33825.90000000037,33824.700000000186,9941.236,9954.299999999814,9957.906,33832.438,{},,
Headphones,html.Page,0_1,2021-12-02T10:00:05.435Z,,,,,,,,,,,,,,,,,,,,,,,,,,,,,,354.4620000003706,,form submission,,,,,,,,,,,,,,,,34187.40000000037,34186.90000000037,33815.721,33826.59999999963,33832.438,34197.994,,,
Holding screen,html.Screen,0_2_0_0,2021-12-02T10:00:15.437Z,,,,,,,,,,,,,,,,,,,,,,,,,,,,,,10002.527000000002,,timeout,,,,,,,,,,,,,,,,44189.799999999814,44183.851,34181.324,34187.799999999814,34197.994,44200.521,,,
screen,html.Screen,0_2_0_1_0,2021-12-02T10:00:16.682Z,,,,,,,,,,,,,,,,53,,,,,,,,,,,,,,1233.278999999813,,response,,,99,,,,,,Space,keypress(Space),,,,,When -- ----- -- ------ - ------- --- ----------<br>------------- ------ ------ ---- ---- ------- ----- -- ----<br>-------- ------- -- ---------- --- - --- ----- ----- ----<br>---- --- --- ----- --- ---- ---- ------- ----- ---- -------<br>--- --- -- ----- -- --- ---- -- --- ---- -- ------ ------<br>--- ----- -- ----,45435.200000000186,45433.799999999814,44183.851,44190.200000000186,44200.521,45451.064,,0,When
screen,html.Screen,0_2_0_1_1,2021-12-02T10:00:17.105Z,,,,,,,,,,,,,,,,53,,,,,,,,,,,,,,406.33600000037404,,response,,,99,,,,,,Space,keypress(Space),,,,,---- it ----- -- ------ - ------- --- ----------<br>------------- ------ ------ ---- ---- ------- ----- -- ----<br>-------- ------- -- ---------- --- - --- ----- ----- ----<br>---- --- --- ----- --- ---- ---- ------- ----- ---- -------<br>--- --- -- ----- -- --- ---- -- --- ---- -- ------ ------<br>--- ----- -- ----,45858.299999999814,45857.40000000037,45434.393,45435.59999999963,45451.064,45867.777,,1,it
screen,html.Screen,0_2_0_1_2,2021-12-02T10:00:17.665Z,,,,,,,,,,,,,,,,53,,,,,,,,,,,,,,549.5229999998119,,response,,,99,,,,,,Space,keypress(Space),,,,,---- -- comes -- ------ - ------- --- ----------<br>------------- ------ ------ ---- ---- ------- ----- -- ----<br>-------- ------- -- ---------- --- - --- ----- ----- ----<br>---- --- --- ----- --- ---- ---- ------- ----- ---- -------<br>--- --- -- ----- -- --- ---- -- --- ---- -- ------ ------<br>--- ----- -- ----,46418.200000000186,46417.299999999814,45851.107,45858.5,45867.777,46434.589,,2,comes
screen,html.Screen,0_2_0_1_3,2021-12-02T10:00:18.066Z,,,,,,,,,,,,,,,,53,,,,,,,,,,,,,,382.7109999998138,,response,,,99,,,,,,Space,keypress(Space),,,,,---- -- ----- to ------ - ------- --- ----------<br>------------- ------ ------ ---- ---- ------- ----- -- ----<br>-------- ------- -- ---------- --- - --- ----- ----- ----<br>---- --- --- ----- --- ---- ---- ------- ----- ---- -------<br>--- --- -- ----- -- --- ---- -- --- ---- -- ------ ------<br>--- ----- -- ----,46818.299999999814,46817.299999999814,46417.919,46418.5,46434.589,46834.745,,3,to
screen,html.Screen,0_2_0_1_4,2021-12-02T10:00:18.458Z,,,,,,,,,,,,,,,,53,,,,,,,,,,,,,,374.5549999998111,,response,,,99,,,,,,Space,keypress(Space),,,,,---- -- ----- -- having - ------- --- ----------<br>------------- ------ ------ ---- ---- ------- ----- -- ----<br>-------- ------- -- ---------- --- - --- ----- ----- ----<br>---- --- --- ----- --- ---- ---- ------- ----- ---- -------<br>--- --- -- ----- -- --- ---- -- --- ---- -- ------ ------<br>--- ----- -- ----,47210.40000000037,47209.299999999814,46818.074,46818.799999999814,46834.745,47218.15,,4,having
screen,html.Screen,0_2_0_1_5,2021-12-02T10:00:18.993Z,,,,,,,,,,,,,,,,53,,,,,,,,,,,,,,527.1499999998123,,response,,,99,,,,,,Space,keypress(Space),,,,,---- -- ----- -- ------ a ------- --- ----------<br>------------- ------ ------ ---- ---- ------- ----- -- ----<br>-------- ------- -- ---------- --- - --- ----- ----- ----<br>---- --- --- ----- --- ---- ---- ------- ----- ---- -------<br>--- --- -- ----- -- --- ---- -- --- ---- -- ------ ------<br>--- ----- -- ----,47746.200000000186,47745.299999999814,47201.48,47210.700000000186,47218.15,47751.62,,5,a
screen,html.Screen,0_2_0_1_6,2021-12-02T10:00:19.529Z,,,,,,,,,,,,,,,,53,,,,,,,,,,,,,,529.6799999998111,,response,,,99,,,,,,Space,keypress(Space),,,,,---- -- ----- -- ------ - lasting --- ----------<br>------------- ------ ------ ---- ---- ------- ----- -- ----<br>-------- ------- -- ---------- --- - --- ----- ----- ----<br>---- --- --- ----- --- ---- ---- ------- ----- ---- -------<br>--- --- -- ----- -- --- ---- -- --- ---- -- ------ ------<br>--- ----- -- ----,48282.09999999963,48281.299999999814,47734.95,47746.59999999963,47751.62,48284.966,,6,lasting
screen,html.Screen,0_2_0_1_7,2021-12-02T10:00:20.081Z,,,,,,,,,,,,,,,,53,,,,,,,,,,,,,,548.2340000001859,,response,,,99,,,,,,Space,keypress(Space),,,,,---- -- ----- -- ------ - ------- and ----------<br>------------- ------ ------ ---- ---- ------- ----- -- ----<br>-------- ------- -- ---------- --- - --- ----- ----- ----<br>---- --- --- ----- --- ---- ---- ------- ----- ---- -------<br>--- --- -- ----- -- --- ---- -- --- ---- -- ------ ------<br>--- ----- -- ----,48834,48833.200000000186,48268.297,48282.5,48284.966,48835.332,,7,and
screen,html.Screen,0_2_0_1_8,2021-12-02T10:00:20.729Z,,,,,,,,,,,,,,,,53,,,,,,,,,,,,,,645.8680000001841,,response,,,99,,,,,,Space,keypress(Space),,,,,---- -- ----- -- ------ - ------- --- fulfilling<br>------------- ------ ------ ---- ---- ------- ----- -- ----<br>-------- ------- -- ---------- --- - --- ----- ----- ----<br>---- --- --- ----- --- ---- ---- ------- ----- ---- -------<br>--- --- -- ----- -- --- ---- -- --- ---- -- ------ ------<br>--- ----- -- ----,49482.200000000186,49481.200000000186,48818.66,48834.40000000037,48835.332,49485.381,,8,fulfilling
screen,html.Screen,0_2_0_1_9,2021-12-02T10:00:21.625Z,,,,,,,,,,,,,,,,53,,,,,,,,,,,,,,891.7189999996262,,response,,,99,,,,,,Space,keypress(Space),,,,,"---- -- ----- -- ------ - ------- --- ----------<br>relationship, ------ ------ ---- ---- ------- ----- -- ----<br>-------- ------- -- ---------- --- - --- ----- ----- ----<br>---- --- --- ----- --- ---- ---- ------- ----- ---- -------<br>--- --- -- ----- -- --- ---- -- --- ---- -- ------ ------<br>--- ----- -- ----",50378,50377.09999999963,49468.711,49482.5,49485.381,50385.61,,9,"relationship,"
screen,html.Screen,0_2_0_1_10,2021-12-02T10:00:22.313Z,,,,,,,,,,,,,,,,53,,,,,,,,,,,,,,679.3899999999994,,response,,,99,,,,,,Space,keypress(Space),,,,,---- -- ----- -- ------ - ------- --- ----------<br>------------- common ------ ---- ---- ------- ----- -- ----<br>-------- ------- -- ---------- --- - --- ----- ----- ----<br>---- --- --- ----- --- ---- ---- ------- ----- ---- -------<br>--- --- -- ----- -- --- ---- -- --- ---- -- ------ ------<br>--- ----- -- ----,51065.90000000037,51065,50368.94,50378.200000000186,50385.61,51069.14,,10,common
screen,html.Screen,0_2_0_1_11,2021-12-02T10:00:22.937Z,,,,,,,,,,,,,,,,53,,,,,,,,,,,,,,619.8600000000006,,response,,,99,,,,,,Space,keypress(Space),,,,,---- -- ----- -- ------ - ------- --- ----------<br>------------- ------ wisdom ---- ---- ------- ----- -- ----<br>-------- ------- -- ---------- --- - --- ----- ----- ----<br>---- --- --- ----- --- ---- ---- ------- ----- ---- -------<br>--- --- -- ----- -- --- ---- -- --- ---- -- ------ ------<br>--- ----- -- ----,51689.90000000037,51689,51052.47,51066.200000000186,51069.14,51702.649,,11,wisdom
screen,html.Screen,0_2_0_1_12,2021-12-02T10:00:23.425Z,,,,,,,,,,,,,,,,53,,,,,,,,,,,,,,474.45099999962986,,response,,,99,,,,,,Space,keypress(Space),,,,,---- -- ----- -- ------ - ------- --- ----------<br>------------- ------ ------ says ---- ------- ----- -- ----<br>-------- ------- -- ---------- --- - --- ----- ----- ----<br>---- --- --- ----- --- ---- ---- ------- ----- ---- -------<br>--- --- -- ----- -- --- ---- -- --- ---- -- ------ ------<br>--- ----- -- ----,52177.799999999814,52177.09999999963,51685.979,51690.09999999963,51702.649,52186.005,,12,says
screen,html.Screen,0_2_0_1_13,2021-12-02T10:00:23.873Z,,,,,,,,,,,,,,,,53,,,,,,,,,,,,,,438.9950000000026,,response,,,99,,,,,,Space,keypress(Space),,,,,---- -- ----- -- ------ - ------- --- ----------<br>------------- ------ ------ ---- that ------- ----- -- ----<br>-------- ------- -- ---------- --- - --- ----- ----- ----<br>---- --- --- ----- --- ---- ---- ------- ----- ---- -------<br>--- --- -- ----- -- --- ---- -- --- ---- -- ------ ------<br>--- ----- -- ----,52625.90000000037,52625,52169.336,52178.09999999963,52186.005,52636.329,,13,that
screen,html.Screen,0_2_0_1_14,2021-12-02T10:00:24.409Z,,,,,,,,,,,,,,,,53,,,,,,,,,,,,,,524.7709999996296,,response,,,99,,,,,,Space,keypress(Space),,,,,---- -- ----- -- ------ - ------- --- ----------<br>------------- ------ ------ ---- ---- feeling ----- -- ----<br>-------- ------- -- ---------- --- - --- ----- ----- ----<br>---- --- --- ----- --- ---- ---- ------- ----- ---- -------<br>--- --- -- ----- -- --- ---- -- --- ---- -- ------ ------<br>--- ----- -- ----,53161.799999999814,53161.09999999963,52619.657,52626.09999999963,52636.329,53169.717,,14,feeling
screen,html.Screen,0_2_0_1_15,2021-12-02T10:00:24.825Z,,,,,,,,,,,,,,,,53,,,,,,,,,,,,,,407.38299999963056,,response,,,99,,,,,,Space,keypress(Space),,,,,---- -- ----- -- ------ - ------- --- ----------<br>------------- ------ ------ ---- ---- ------- close -- ----<br>-------- ------- -- ---------- --- - --- ----- ----- ----<br>---- --- --- ----- --- ---- ---- ------- ----- ---- -------<br>--- --- -- ----- -- --- ---- -- --- ---- -- ------ ------<br>--- ----- -- ----,53577.799999999814,53577.09999999963,53153.047,53162,53169.717,53586.499,,15,close
screen,html.Screen,0_2_0_1_16,2021-12-02T10:00:25.209Z,,,,,,,,,,,,,,,,53,,,,,,,,,,,,,,374.50099999999657,,response,,,99,,,,,,Space,keypress(Space),,,,,---- -- ----- -- ------ - ------- --- ----------<br>------------- ------ ------ ---- ---- ------- ----- to ----<br>-------- ------- -- ---------- --- - --- ----- ----- ----<br>---- --- --- ----- --- ---- ---- ------- ----- ---- -------<br>--- --- -- ----- -- --- ---- -- --- ---- -- ------ ------<br>--- ----- -- ----,53961.700000000186,53961,53569.829,53578.09999999963,53586.499,53969.974,,16,to
screen,html.Screen,0_2_0_1_17,2021-12-02T10:00:25.649Z,,,,,,,,,,,,,,,,53,,,,,,,,,,,,,,430.92600000037055,,response,,,99,,,,,,Space,keypress(Space),,,,,---- -- ----- -- ------ - ------- --- ----------<br>------------- ------ ------ ---- ---- ------- ----- -- your<br>-------- ------- -- ---------- --- - --- ----- ----- ----<br>---- --- --- ----- --- ---- ---- ------- ----- ---- -------<br>--- --- -- ----- -- --- ---- -- --- ---- -- ------ ------<br>--- ----- -- ----,54401.799999999814,54400.90000000037,53953.303,53962,53969.974,54403.376,,17,your
screen,html.Screen,0_2_0_1_18,2021-12-02T10:00:26.153Z,,,,,,,,,,,,,,,,53,,,,,,,,,,,,,,501.52400000037596,,response,,,99,,,,,,Space,keypress(Space),,,,,---- -- ----- -- ------ - ------- --- ----------<br>------------- ------ ------ ---- ---- ------- ----- -- ----<br>romantic ------- -- ---------- --- - --- ----- ----- ----<br>---- --- --- ----- --- ---- ---- ------- ----- ---- -------<br>--- --- -- ----- -- --- ---- -- --- ---- -- ------ ------<br>--- ----- -- ----,54905.700000000186,54904.90000000037,54386.706,54402,54403.376,54920.185,,18,romantic
screen,html.Screen,0_2_0_1_19,2021-12-02T10:00:26.601Z,,,,,,,,,,,,,,,,53,,,,,,,,,,,,,,432.71500000037486,,response,,,99,,,,,,Space,keypress(Space),,,,,---- -- ----- -- ------ - ------- --- ----------<br>------------- ------ ------ ---- ---- ------- ----- -- ----<br>-------- partner -- ---------- --- - --- ----- ----- ----<br>---- --- --- ----- --- ---- ---- ------- ----- ---- -------<br>--- --- -- ----- -- --- ---- -- --- ---- -- ------ ------<br>--- ----- -- ----,55353.700000000186,55352.90000000037,54903.515,54905.90000000037,54920.185,55370.308,,19,partner
screen,html.Screen,0_2_0_1_20,2021-12-02T10:00:27.073Z,,,,,,,,,,,,,,,,53,,,,,,,,,,,,,,454.99199999981647,,response,,,99,,,,,,Space,keypress(Space),,,,,---- -- ----- -- ------ - ------- --- ----------<br>------------- ------ ------ ---- ---- ------- ----- -- ----<br>-------- ------- is ---------- --- - --- ----- ----- ----<br>---- --- --- ----- --- ---- ---- ------- ----- ---- -------<br>--- --- -- ----- -- --- ---- -- --- ---- -- ------ ------<br>--- ----- -- ----,55826.09999999963,55825.299999999814,55353.638,55354,55370.308,55837.102,,20,is
screen,html.Screen,0_2_0_1_21,2021-12-02T10:00:27.505Z,,,,,,,,,,,,,,,,53,,,,,,,,,,,,,,419.6979999998148,,response,,,99,,,,,,Space,keypress(Space),,,,,---- -- ----- -- ------ - ------- --- ----------<br>------------- ------ ------ ---- ---- ------- ----- -- ----<br>-------- ------- -- paramount. --- - --- ----- ----- ----<br>---- --- --- ----- --- ---- ---- ------- ----- ---- -------<br>--- --- -- ----- -- --- ---- -- --- ---- -- ------ ------<br>--- ----- -- ----,56257.59999999963,56256.799999999814,55820.432,55826.299999999814,55837.102,56270.55,,21,paramount.
screen,html.Screen,0_2_0_1_22,2021-12-02T10:00:28.057Z,,,,,,,,,,,,,,,,53,,,,,,,,,,,,,,538.2499999998108,,response,,,99,,,,,,Space,keypress(Space),,,,,---- -- ----- -- ------ - ------- --- ----------<br>------------- ------ ------ ---- ---- ------- ----- -- ----<br>-------- ------- -- ---------- But - --- ----- ----- ----<br>---- --- --- ----- --- ---- ---- ------- ----- ---- -------<br>--- --- -- ----- -- --- ---- -- --- ---- -- ------ ------<br>--- ----- -- ----,56809.59999999963,56808.799999999814,56253.88,56258,56270.55,56820.672,,22,But
screen,html.Screen,0_2_0_1_23,2021-12-02T10:00:28.529Z,,,,,,,,,,,,,,,,53,,,,,,,,,,,,,,460.1279999998151,,response,,,99,,,,,,Space,keypress(Space),,,,,---- -- ----- -- ------ - ------- --- ----------<br>------------- ------ ------ ---- ---- ------- ----- -- ----<br>-------- ------- -- ---------- --- a --- ----- ----- ----<br>---- --- --- ----- --- ---- ---- ------- ----- ---- -------<br>--- --- -- ----- -- --- ---- -- --- ---- -- ------ ------<br>--- ----- -- ----,57281.59999999963,57280.799999999814,56804.002,56809.799999999814,56820.672,57287.517,,23,a
screen,html.Screen,0_2_0_1_24,2021-12-02T10:00:28.945Z,,,,,,,,,,,,,,,,53,,,,,,,,,,,,,,409.3830000003727,,response,,,99,,,,,,Space,keypress(Space),,,,,---- -- ----- -- ------ - ------- --- ----------<br>------------- ------ ------ ---- ---- ------- ----- -- ----<br>-------- ------- -- ---------- --- - new ----- ----- ----<br>---- --- --- ----- --- ---- ---- ------- ----- ---- -------<br>--- --- -- ----- -- --- ---- -- --- ---- -- ------ ------<br>--- ----- -- ----,57697.700000000186,57696.90000000037,57270.846,57281.799999999814,57287.517,57704.304,,24,new
screen,html.Screen,0_2_0_1_25,2021-12-02T10:00:29.353Z,,,,,,,,,,,,,,,,53,,,,,,,,,,,,,,400.3960000001898,,response,,,99,,,,,,Space,keypress(Space),,,,,---- -- ----- -- ------ - ------- --- ----------<br>------------- ------ ------ ---- ---- ------- ----- -- ----<br>-------- ------- -- ---------- --- - --- study ----- ----<br>---- --- --- ----- --- ---- ---- ------- ----- ---- -------<br>--- --- -- ----- -- --- ---- -- --- ---- -- ------ ------<br>--- ----- -- ----,58105.5,58104.700000000186,57687.633,57697.90000000037,57704.304,58121.037,,25,study
screen,html.Screen,0_2_0_1_26,2021-12-02T10:00:29.745Z,,,,,,,,,,,,,,,,53,,,,,,,,,,,,,,375.8630000003759,,response,,,99,,,,,,Space,keypress(Space),,,,,---- -- ----- -- ------ - ------- --- ----------<br>------------- ------ ------ ---- ---- ------- ----- -- ----<br>-------- ------- -- ---------- --- - --- ----- finds ----<br>---- --- --- ----- --- ---- ---- ------- ----- ---- -------<br>--- --- -- ----- -- --- ---- -- --- ---- -- ------ ------<br>--- ----- -- ----,58497.59999999963,58496.90000000037,58104.367,58105.700000000186,58121.037,58504.377,,26,finds
screen,html.Screen,0_2_0_1_27,2021-12-02T10:00:30.161Z,,,,,,,,,,,,,,,,53,,,,,,,,,,,,,,408.4229999998133,,response,,,99,,,,,,Space,keypress(Space),,,,,---- -- ----- -- ------ - ------- --- ----------<br>------------- ------ ------ ---- ---- ------- ----- -- ----<br>-------- ------- -- ---------- --- - --- ----- ----- that<br>---- --- --- ----- --- ---- ---- ------- ----- ---- -------<br>--- --- -- ----- -- --- ---- -- --- ---- -- ------ ------<br>--- ----- -- ----,58913.5,58912.799999999814,58487.708,58497.90000000037,58504.377,58921.32,,27,that
screen,html.Screen,0_2_0_1_28,2021-12-02T10:00:30.609Z,,,,,,,,,,,,,,,,53,,,,,,,,,,,,,,439.479999999814,,response,,,99,,,,,,Space,keypress(Space),,,,,---- -- ----- -- ------ - ------- --- ----------<br>------------- ------ ------ ---- ---- ------- ----- -- ----<br>-------- ------- -- ---------- --- - --- ----- ----- ----<br>it's --- --- ----- --- ---- ---- ------- ----- ---- -------<br>--- --- -- ----- -- --- ---- -- --- ---- -- ------ ------<br>--- ----- -- ----,59361.5,59360.799999999814,58904.648,58913.799999999814,58921.32,59371.406,,28,it's
screen,html.Screen,0_2_0_1_29,2021-12-02T10:00:30.969Z,,,,,,,,,,,,,,,,53,,,,,,,,,,,,,,349.2940000001836,,response,,,99,,,,,,Space,keypress(Space),,,,,---- -- ----- -- ------ - ------- --- ----------<br>------------- ------ ------ ---- ---- ------- ----- -- ----<br>-------- ------- -- ---------- --- - --- ----- ----- ----<br>---- not --- ----- --- ---- ---- ------- ----- ---- -------<br>--- --- -- ----- -- --- ---- -- --- ---- -- ------ ------<br>--- ----- -- ----,59721.5,59720.700000000186,59354.735,59361.799999999814,59371.406,59737.998,,29,not
screen,html.Screen,0_2_0_1_30,2021-12-02T10:00:31.324Z,,,,,,,,,,,,,,,,53,,,,,,,,,,,,,,334.7020000001867,,response,,,99,,,,,,Space,keypress(Space),,,,,---- -- ----- -- ------ - ------- --- ----------<br>------------- ------ ------ ---- ---- ------- ----- -- ----<br>-------- ------- -- ---------- --- - --- ----- ----- ----<br>---- --- how ----- --- ---- ---- ------- ----- ---- -------<br>--- --- -- ----- -- --- ---- -- --- ---- -- ------ ------<br>--- ----- -- ----,60073.59999999963,60072.700000000186,59721.33,59721.90000000037,59737.998,60088.296,,30,how
screen,html.Screen,0_2_0_1_31,2021-12-02T10:00:31.756Z,,,,,,,,,,,,,,,,53,,,,,,,,,,,,,,416.3039999996254,,response,,,99,,,,,,Space,keypress(Space),,,,,---- -- ----- -- ------ - ------- --- ----------<br>------------- ------ ------ ---- ---- ------- ----- -- ----<br>-------- ------- -- ---------- --- - --- ----- ----- ----<br>---- --- --- close --- ---- ---- ------- ----- ---- -------<br>--- --- -- ----- -- --- ---- -- --- ---- -- ------ ------<br>--- ----- -- ----,60505.5,60504.59999999963,60071.624,60073.799999999814,60088.296,60521.532,,31,close
screen,html.Screen,0_2_0_1_32,2021-12-02T10:00:32.180Z,,,,,,,,,,,,,,,,53,,,,,,,,,,,,,,407.168000000187,,response,,,99,,,,,,Space,keypress(Space),,,,,---- -- ----- -- ------ - ------- --- ----------<br>------------- ------ ------ ---- ---- ------- ----- -- ----<br>-------- ------- -- ---------- --- - --- ----- ----- ----<br>---- --- --- ----- you ---- ---- ------- ----- ---- -------<br>--- --- -- ----- -- --- ---- -- --- ---- -- ------ ------<br>--- ----- -- ----,60929.40000000037,60928.700000000186,60504.864,60505.700000000186,60521.532,60938.567,,32,you
screen,html.Screen,0_2_0_1_33,2021-12-02T10:00:32.564Z,,,,,,,,,,,,,,,,53,,,,,,,,,,,,,,374.13300000018353,,response,,,99,,,,,,Space,keypress(Space),,,,,---- -- ----- -- ------ - ------- --- ----------<br>------------- ------ ------ ---- ---- ------- ----- -- ----<br>-------- ------- -- ---------- --- - --- ----- ----- ----<br>---- --- --- ----- --- feel ---- ------- ----- ---- -------<br>--- --- -- ----- -- --- ---- -- --- ---- -- ------ ------<br>--- ----- -- ----,61313.40000000037,61312.700000000186,60921.894,60929.59999999963,60938.567,61321.89,,33,feel
screen,html.Screen,0_2_0_1_34,2021-12-02T10:00:33.068Z,,,,,,,,,,,,,,,,53,,,,,,,,,,,,,,494.70999999962805,,response,,,99,,,,,,Space,keypress(Space),,,,,---- -- ----- -- ------ - ------- --- ----------<br>------------- ------ ------ ---- ---- ------- ----- -- ----<br>-------- ------- -- ---------- --- - --- ----- ----- ----<br>---- --- --- ----- --- ---- that ------- ----- ---- -------<br>--- --- -- ----- -- --- ---- -- --- ---- -- ------ ------<br>--- ----- -- ----,61817.40000000037,61816.59999999963,61305.22,61313.59999999963,61321.89,61822.019,,34,that
screen,html.Screen,0_2_0_1_35,2021-12-02T10:00:33.524Z,,,,,,,,,,,,,,,,53,,,,,,,,,,,,,,450.58099999962724,,response,,,99,,,,,,Space,keypress(Space),,,,,---- -- ----- -- ------ - ------- --- ----------<br>------------- ------ ------ ---- ---- ------- ----- -- ----<br>-------- ------- -- ---------- --- - --- ----- ----- ----<br>---- --- --- ----- --- ---- ---- matters ----- ---- -------<br>--- --- -- ----- -- --- ---- -- --- ---- -- ------ ------<br>--- ----- -- ----,62273.299999999814,62272.59999999963,61805.349,61817.59999999963,61822.019,62288.782,,35,matters
screen,html.Screen,0_2_0_1_36,2021-12-02T10:00:34.012Z,,,,,,,,,,,,,,,,53,,,,,,,,,,,,,,471.8179999996282,,response,,,99,,,,,,Space,keypress(Space),,,,,"---- -- ----- -- ------ - ------- --- ----------<br>------------- ------ ------ ---- ---- ------- ----- -- ----<br>-------- ------- -- ---------- --- - --- ----- ----- ----<br>---- --- --- ----- --- ---- ---- ------- most, ---- -------<br>--- --- -- ----- -- --- ---- -- --- ---- -- ------ ------<br>--- ----- -- ----",62761.299999999814,62760.59999999963,62272.112,62273.59999999963,62288.782,62772.166,,36,"most,"
screen,html.Screen,0_2_0_1_37,2021-12-02T10:00:34.476Z,,,,,,,,,,,,,,,,53,,,,,,,,,,,,,,452.43399999963003,,response,,,99,,,,,,Space,keypress(Space),,,,,---- -- ----- -- ------ - ------- --- ----------<br>------------- ------ ------ ---- ---- ------- ----- -- ----<br>-------- ------- -- ---------- --- - --- ----- ----- ----<br>---- --- --- ----- --- ---- ---- ------- ----- it's -------<br>--- --- -- ----- -- --- ---- -- --- ---- -- ------ ------<br>--- ----- -- ----,63225.299999999814,63224.59999999963,62755.497,62761.59999999963,62772.166,63239.211,,37,it's
screen,html.Screen,0_2_0_1_38,2021-12-02T10:00:34.988Z,,,,,,,,,,,,,,,,53,,,,,,,,,,,,,,497.28899999999703,,response,,,99,,,,,,Space,keypress(Space),,,,,---- -- ----- -- ------ - ------- --- ----------<br>------------- ------ ------ ---- ---- ------- ----- -- ----<br>-------- ------- -- ---------- --- - --- ----- ----- ----<br>---- --- --- ----- --- ---- ---- ------- ----- ---- whether<br>--- --- -- ----- -- --- ---- -- --- ---- -- ------ ------<br>--- ----- -- ----,63737.299999999814,63736.5,63222.538,63225.59999999963,63239.211,63739.189,,38,whether
screen,html.Screen,0_2_0_1_39,2021-12-02T10:00:35.572Z,,,,,,,,,,,,,,,,53,,,,,,,,,,,,,,581.211000000374,,response,,,99,,,,,,Space,keypress(Space),,,,,---- -- ----- -- ------ - ------- --- ----------<br>------------- ------ ------ ---- ---- ------- ----- -- ----<br>-------- ------- -- ---------- --- - --- ----- ----- ----<br>---- --- --- ----- --- ---- ---- ------- ----- ---- -------<br>you --- -- ----- -- --- ---- -- --- ---- -- ------ ------<br>--- ----- -- ----,64321.200000000186,64320.40000000037,63722.519,63737.59999999963,63739.189,64322.662,,39,you
screen,html.Screen,0_2_0_1_40,2021-12-02T10:00:36.076Z,,,,,,,,,,,,,,,,53,,,,,,,,,,,,,,501.8380000000034,,response,,,99,,,,,,Space,keypress(Space),,,,,---- -- ----- -- ------ - ------- --- ----------<br>------------- ------ ------ ---- ---- ------- ----- -- ----<br>-------- ------- -- ---------- --- - --- ----- ----- ----<br>---- --- --- ----- --- ---- ---- ------- ----- ---- -------<br>--- are -- ----- -- --- ---- -- --- ---- -- ------ ------<br>--- ----- -- ----,64825.299999999814,64824.5,64305.992,64321.40000000037,64322.662,64839.532,,40,are
screen,html.Screen,0_2_0_1_41,2021-12-02T10:00:36.740Z,,,,,,,,,,,,,,,,53,,,,,,,,,,,,,,648.8680000003733,,response,,,99,,,,,,Space,keypress(Space),,,,,---- -- ----- -- ------ - ------- --- ----------<br>------------- ------ ------ ---- ---- ------- ----- -- ----<br>-------- ------- -- ---------- --- - --- ----- ----- ----<br>---- --- --- ----- --- ---- ---- ------- ----- ---- -------<br>--- --- as ----- -- --- ---- -- --- ---- -- ------ ------<br>--- ----- -- ----,65489.200000000186,65488.40000000037,64822.861,64825.5,64839.532,65506.305,,41,as
screen,html.Screen,0_2_0_1_42,2021-12-02T10:00:37.164Z,,,,,,,,,,,,,,,,53,,,,,,,,,,,,,,406.49499999981344,,response,,,99,,,,,,Space,keypress(Space),,,,,---- -- ----- -- ------ - ------- --- ----------<br>------------- ------ ------ ---- ---- ------- ----- -- ----<br>-------- ------- -- ---------- --- - --- ----- ----- ----<br>---- --- --- ----- --- ---- ---- ------- ----- ---- -------<br>--- --- -- close -- --- ---- -- --- ---- -- ------ ------<br>--- ----- -- ----,65913.59999999963,65912.79999999981,65489.635,65489.299999999814,65506.305,65923.107,,42,close
screen,html.Screen,0_2_0_1_43,2021-12-02T10:00:37.580Z,,,,,,,,,,,,,,,,53,,,,,,,,,,,,,,405.2930000003689,,response,,,99,,,,,,Space,keypress(Space),,,,,---- -- ----- -- ------ - ------- --- ----------<br>------------- ------ ------ ---- ---- ------- ----- -- ----<br>-------- ------- -- ---------- --- - --- ----- ----- ----<br>---- --- --- ----- --- ---- ---- ------- ----- ---- -------<br>--- --- -- ----- as --- ---- -- --- ---- -- ------ ------<br>--- ----- -- ----,66329.20000000019,66328.40000000037,65906.437,65913.79999999981,65923.107,66339.885,,43,as
screen,html.Screen,0_2_0_1_44,2021-12-02T10:00:38.020Z,,,,,,,,,,,,,,,,53,,,,,,,,,,,,,,428.51500000037777,,response,,,99,,,,,,Space,keypress(Space),,,,,---- -- ----- -- ------ - ------- --- ----------<br>------------- ------ ------ ---- ---- ------- ----- -- ----<br>-------- ------- -- ---------- --- - --- ----- ----- ----<br>---- --- --- ----- --- ---- ---- ------- ----- ---- -------<br>--- --- -- ----- -- you ---- -- --- ---- -- ------ ------<br>--- ----- -- ----,66769.20000000019,66768.40000000037,66323.215,66329.40000000037,66339.885,66773.246,,44,you
screen,html.Screen,0_2_0_1_45,2021-12-02T10:00:38.468Z,,,,,,,,,,,,,,,,53,,,,,,,,,,,,,,443.05399999981455,,response,,,99,,,,,,Space,keypress(Space),,,,,---- -- ----- -- ------ - ------- --- ----------<br>------------- ------ ------ ---- ---- ------- ----- -- ----<br>-------- ------- -- ---------- --- - --- ----- ----- ----<br>---- --- --- ----- --- ---- ---- ------- ----- ---- -------<br>--- --- -- ----- -- --- want -- --- ---- -- ------ ------<br>--- ----- -- ----,67217.09999999963,67216.29999999981,66756.577,66769.40000000037,66773.246,67223.593,,45,want
screen,html.Screen,0_2_0_1_46,2021-12-02T10:00:38.844Z,,,,,,,,,,,,,,,,53,,,,,,,,,,,,,,368.6070000001928,,response,,,99,,,,,,Space,keypress(Space),,,,,---- -- ----- -- ------ - ------- --- ----------<br>------------- ------ ------ ---- ---- ------- ----- -- ----<br>-------- ------- -- ---------- --- - --- ----- ----- ----<br>---- --- --- ----- --- ---- ---- ------- ----- ---- -------<br>--- --- -- ----- -- --- ---- to --- ---- -- ------ ------<br>--- ----- -- ----,67593,67592.20000000019,67206.92,67217.29999999981,67223.593,67606.747,,46,to
screen,html.Screen,0_2_0_1_47,2021-12-02T10:00:39.244Z,,,,,,,,,,,,,,,,53,,,,,,,,,,,,,,385.5529999998107,,response,,,99,,,,,,Space,keypress(Space),,,,,"---- -- ----- -- ------ - ------- --- ----------<br>------------- ------ ------ ---- ---- ------- ----- -- ----<br>-------- ------- -- ---------- --- - --- ----- ----- ----<br>---- --- --- ----- --- ---- ---- ------- ----- ---- -------<br>--- --- -- ----- -- --- ---- -- be, ---- -- ------ ------<br>--- ----- -- ----",67993.09999999963,67992.29999999981,67590.079,67593.29999999981,67606.747,68007.03,,47,"be,"
screen,html.Screen,0_2_0_1_48,2021-12-02T10:00:39.684Z,,,,,,,,,,,,,,,,53,,,,,,,,,,,,,,425.2699999998149,,response,,,99,,,,,,Space,keypress(Space),,,,,---- -- ----- -- ------ - ------- --- ----------<br>------------- ------ ------ ---- ---- ------- ----- -- ----<br>-------- ------- -- ---------- --- - --- ----- ----- ----<br>---- --- --- ----- --- ---- ---- ------- ----- ---- -------<br>--- --- -- ----- -- --- ---- -- --- even -- ------ ------<br>--- ----- -- ----,68433,68432.29999999981,67990.358,67993.29999999981,68007.03,68440.259,,48,even
screen,html.Screen,0_2_0_1_49,2021-12-02T10:00:40.036Z,,,,,,,,,,,,,,,,53,,,,,,,,,,,,,,343.9410000001808,,response,,,99,,,,,,Space,keypress(Space),,,,,---- -- ----- -- ------ - ------- --- ----------<br>------------- ------ ------ ---- ---- ------- ----- -- ----<br>-------- ------- -- ---------- --- - --- ----- ----- ----<br>---- --- --- ----- --- ---- ---- ------- ----- ---- -------<br>--- --- -- ----- -- --- ---- -- --- ---- if ------ ------<br>--- ----- -- ----,68785,68784.20000000019,68423.591,68433.29999999981,68440.259,68790.67,,49,if
screen,html.Screen,0_2_0_1_50,2021-12-02T10:00:40.420Z,,,,,,,,,,,,,,,,53,,,,,,,,,,,,,,377.530000000188,,response,,,99,,,,,,Space,keypress(Space),,,,,---- -- ----- -- ------ - ------- --- ----------<br>------------- ------ ------ ---- ---- ------- ----- -- ----<br>-------- ------- -- ---------- --- - --- ----- ----- ----<br>---- --- --- ----- --- ---- ---- ------- ----- ---- -------<br>--- --- -- ----- -- --- ---- -- --- ---- -- that's ------<br>--- ----- -- ----,69169.29999999981,69168.20000000019,68773.997,68785.20000000019,68790.67,69173.98,,50,that's
screen,html.Screen,0_2_0_1_51,2021-12-02T10:00:40.828Z,,,,,,,,,,,,,,,,53,,,,,,,,,,,,,,402.3199999998178,,response,,,99,,,,,,Space,keypress(Space),,,,,---- -- ----- -- ------ - ------- --- ----------<br>------------- ------ ------ ---- ---- ------- ----- -- ----<br>-------- ------- -- ---------- --- - --- ----- ----- ----<br>---- --- --- ----- --- ---- ---- ------- ----- ---- -------<br>--- --- -- ----- -- --- ---- -- --- ---- -- ------ really<br>--- ----- -- ----,69577,69576.29999999981,69157.31,69169.5,69173.98,69590.595,,51,really
screen,html.Screen,0_2_0_1_52,2021-12-02T10:00:41.260Z,,,,,,,,,,,,,,,,53,,,,,,,,,,,,,,417.6050000001851,,response,,,99,,,,,,Space,keypress(Space),,,,,---- -- ----- -- ------ - ------- --- ----------<br>------------- ------ ------ ---- ---- ------- ----- -- ----<br>-------- ------- -- ---------- --- - --- ----- ----- ----<br>---- --- --- ----- --- ---- ---- ------- ----- ---- -------<br>--- --- -- ----- -- --- ---- -- --- ---- -- ------ ------<br>not ----- -- ----,70008.90000000037,70008.20000000019,69573.927,69577.20000000019,69590.595,70024.189,,52,not
screen,html.Screen,0_2_0_1_53,2021-12-02T10:00:41.644Z,,,,,,,,,,,,,,,,53,,,,,,,,,,,,,,368.0110000001878,,response,,,99,,,,,,Space,keypress(Space),,,,,---- -- ----- -- ------ - ------- --- ----------<br>------------- ------ ------ ---- ---- ------- ----- -- ----<br>-------- ------- -- ---------- --- - --- ----- ----- ----<br>---- --- --- ----- --- ---- ---- ------- ----- ---- -------<br>--- --- -- ----- -- --- ---- -- --- ---- -- ------ ------<br>--- close -- ----,70393,70392.20000000019,70007.518,70009.09999999963,70024.189,70407.661,,53,close
screen,html.Screen,0_2_0_1_54,2021-12-02T10:00:42.028Z,,,,,,,,,,,,,,,,53,,,,,,,,,,,,,,368.5390000001935,,response,,,99,,,,,,Space,keypress(Space),,,,,---- -- ----- -- ------ - ------- --- ----------<br>------------- ------ ------ ---- ---- ------- ----- -- ----<br>-------- ------- -- ---------- --- - --- ----- ----- ----<br>---- --- --- ----- --- ---- ---- ------- ----- ---- -------<br>--- --- -- ----- -- --- ---- -- --- ---- -- ------ ------<br>--- ----- at ----,70777,70776.20000000019,70390.99,70393.20000000019,70407.661,70791.108,,54,at
screen,html.Screen,0_2_0_1_55,2021-12-02T10:00:42.356Z,,,,,,,,,,,,,,,,53,,,,,,,,,,,,,,313.09200000019337,,response,,,99,,,,,,Space,keypress(Space),,,,,---- -- ----- -- ------ - ------- --- ----------<br>------------- ------ ------ ---- ---- ------- ----- -- ----<br>-------- ------- -- ---------- --- - --- ----- ----- ----<br>---- --- --- ----- --- ---- ---- ------- ----- ---- -------<br>--- --- -- ----- -- --- ---- -- --- ---- -- ------ ------<br>--- ----- -- all.,71104.90000000037,71104.20000000019,70774.437,70777.09999999963,70791.108,71124.411,,55,all.
Item 99,flow.Loop,0_2_0_1,2021-12-02T10:00:42.360Z,,,,,,,,,,,,,,,,,,,,,,,,,,,,,,26903.679000000186,,completion,,,,C,,,,,,,,,,silence,,71109.40000000037,71104.20000000019,44183.851,44190.200000000186,44200.521,71124.411,,,
Question 1,html.Screen,0_2_0_2,2021-12-02T10:00:48.948Z,,,,,,,,,,,,,,,,,,,,,,,,,,,true,FALSE,,6571.2890000001935,,response,,,99,C,,,,,FALSE,click #choice-2,,,,silence,,77697,77695.70000000019,71107.742,71109.70000000019,71124.411,77709.534,,,
Question 2,html.Screen,0_2_0_3,2021-12-02T10:00:56.203Z,,,,,,,,,,,,,,,,,,,,,,,,,,,true,TRUE,,7241.765999999814,,response,,,99,C,,,,,TRUE,click #choice-1,,,,silence,,84952.59999999963,84951.29999999981,77692.864,77697.29999999981,77709.534,84961.287,,,
Item 99,flow.Sequence,0_2_0,2021-12-02T10:00:56.204Z,,,,,,,,,,,,,,,,,,,,,,,,,,,,,,50753.305999999815,,completion,,,,,,,,,,,,,,,,84953,84951.29999999981,34181.324,34187.700000000186,34197.994,84961.287,,,
Holding screen,html.Screen,0_2_1_0,2021-12-02T10:01:06.199Z,,,,,,,,,,,,,,,,,,,,,,,,,,,,,,10002.778000000006,,timeout,,,,,,,,,,,,,,,,94948.70000000019,94947.395,84944.619,84953.5,84961.287,94964.065,,,
screen,html.Screen,0_2_1_1_0,2021-12-02T10:01:08.347Z,,,,,,,,,,,,,,,,54,,,,,,,,,,,,,,2131.33500000037,,response,,,100,,,,,,Space,keypress(Space),,,,,At --- ---- --- ------ ----- ------- ---- -- --- ------- --<br>------- ---------- ------ -- ----- -- ----- -- ---- ------<br>--- ----- --- --- ------ -------- ----- --- ------ ----- --<br>----- ----- ---------- --- --- ------ ------ ---- -- ------<br>------- --- ------ ----- --- ---- ------- -- ---- --- --<br>------- ------,97096.20000000019,97095.40000000037,94947.395,94949,94964.065,97098.129,,0,At
screen,html.Screen,0_2_1_1_1,2021-12-02T10:01:09.082Z,,,,,,,,,,,,,,,,54,,,,,,,,,,,,,,732.7710000003717,,response,,,100,,,,,,Space,keypress(Space),,,,,-- the ---- --- ------ ----- ------- ---- -- --- ------- --<br>------- ---------- ------ -- ----- -- ----- -- ---- ------<br>--- ----- --- --- ------ -------- ----- --- ------ ----- --<br>----- ----- ---------- --- --- ------ ------ ---- -- ------<br>------- --- ------ ----- --- ---- ------- -- ---- --- --<br>------- ------,97831.79999999981,97830.90000000037,97081.458,97096.5,97098.129,97848.22,,1,the
screen,html.Screen,0_2_1_1_2,2021-12-02T10:01:09.642Z,,,,,,,,,,,,,,,,54,,,,,,,,,,,,,,542.6800000003714,,response,,,100,,,,,,Space,keypress(Space),,,,,-- --- time --- ------ ----- ------- ---- -- --- ------- --<br>------- ---------- ------ -- ----- -- ----- -- ---- ------<br>--- ----- --- --- ------ -------- ----- --- ------ ----- --<br>----- ----- ---------- --- --- ------ ------ ---- -- ------<br>------- --- ------ ----- --- ---- ------- -- ---- --- --<br>------- ------,98391.70000000019,98390.90000000037,97831.55,97832,97848.22,98398.308,,2,time
screen,html.Screen,0_2_1_1_3,2021-12-02T10:01:10.066Z,,,,,,,,,,,,,,,,54,,,,,,,,,,,,,,416.4919999998092,,response,,,100,,,,,,Space,keypress(Space),,,,,-- --- ---- the ------ ----- ------- ---- -- --- ------- --<br>------- ---------- ------ -- ----- -- ----- -- ---- ------<br>--- ----- --- --- ------ -------- ----- --- ------ ----- --<br>----- ----- ---------- --- --- ------ ------ ---- -- ------<br>------- --- ------ ----- --- ---- ------- -- ---- --- --<br>------- ------,98815.70000000019,98814.79999999981,98381.638,98391.90000000037,98398.308,98831.88,,3,the
screen,html.Screen,0_2_1_1_4,2021-12-02T10:01:10.466Z,,,,,,,,,,,,,,,,54,,,,,,,,,,,,,,383.0200000003679,,response,,,100,,,,,,Space,keypress(Space),,,,,-- --- ---- --- French ----- ------- ---- -- --- ------- --<br>------- ---------- ------ -- ----- -- ----- -- ---- ------<br>--- ----- --- --- ------ -------- ----- --- ------ ----- --<br>----- ----- ---------- --- --- ------ ------ ---- -- ------<br>------- --- ------ ----- --- ---- ------- -- ---- --- --<br>------- ------,99215.70000000019,99214.90000000037,98815.209,98815.90000000037,98831.88,99232.008,,4,French
screen,html.Screen,0_2_1_1_5,2021-12-02T10:01:10.810Z,,,,,,,,,,,,,,,,54,,,,,,,,,,,,,,326.8920000003709,,response,,,100,,,,,,Space,keypress(Space),,,,,-- --- ---- --- ------ crown ------- ---- -- --- ------- --<br>------- ---------- ------ -- ----- -- ----- -- ---- ------<br>--- ----- --- --- ------ -------- ----- --- ------ ----- --<br>----- ----- ---------- --- --- ------ ------ ---- -- ------<br>------- --- ------ ----- --- ---- ------- -- ---- --- --<br>------- ------,99559.70000000019,99558.90000000037,99215.337,99216,99232.008,99565.427,,5,crown
screen,html.Screen,0_2_1_1_6,2021-12-02T10:01:11.234Z,,,,,,,,,,,,,,,,54,,,,,,,,,,,,,,417.3729999998177,,response,,,100,,,,,,Space,keypress(Space),,,,,-- --- ---- --- ------ ----- secured ---- -- --- ------- --<br>------- ---------- ------ -- ----- -- ----- -- ---- ------<br>--- ----- --- --- ------ -------- ----- --- ------ ----- --<br>----- ----- ---------- --- --- ------ ------ ---- -- ------<br>------- --- ------ ----- --- ---- ------- -- ---- --- --<br>------- ------,99983.59999999963,99982.79999999981,99548.756,99560,99565.427,99998.833,,6,secured
screen,html.Screen,0_2_1_1_7,2021-12-02T10:01:11.722Z,,,,,,,,,,,,,,,,54,,,,,,,,,,,,,,471.86700000018755,,response,,,100,,,,,,Space,keypress(Space),,,,,-- --- ---- --- ------ ----- ------- much -- --- ------- --<br>------- ---------- ------ -- ----- -- ----- -- ---- ------<br>--- ----- --- --- ------ -------- ----- --- ------ ----- --<br>----- ----- ---------- --- --- ------ ------ ---- -- ------<br>------- --- ------ ----- --- ---- ------- -- ---- --- --<br>------- ------,100471.59999999963,100470.70000000019,99982.163,99984,99998.833,100482.284,,7,much
screen,html.Screen,0_2_1_1_8,2021-12-02T10:01:12.138Z,,,,,,,,,,,,,,,,54,,,,,,,,,,,,,,404.5159999998141,,response,,,100,,,,,,Space,keypress(Space),,,,,-- --- ---- --- ------ ----- ------- ---- of --- ------- --<br>------- ---------- ------ -- ----- -- ----- -- ---- ------<br>--- ----- --- --- ------ -------- ----- --- ------ ----- --<br>----- ----- ---------- --- --- ------ ------ ---- -- ------<br>------- --- ------ ----- --- ---- ------- -- ---- --- --<br>------- ------,100887.59999999963,100886.79999999981,100465.614,100471.79999999981,100482.284,100899.112,,8,of
screen,html.Screen,0_2_1_1_9,2021-12-02T10:01:12.530Z,,,,,,,,,,,,,,,,54,,,,,,,,,,,,,,379.68799999982,,response,,,100,,,,,,Space,keypress(Space),,,,,-- --- ---- --- ------ ----- ------- ---- -- its ------- --<br>------- ---------- ------ -- ----- -- ----- -- ---- ------<br>--- ----- --- --- ------ -------- ----- --- ------ ----- --<br>----- ----- ---------- --- --- ------ ------ ---- -- ------<br>------- --- ------ ----- --- ---- ------- -- ---- --- --<br>------- ------,101279.5,101278.79999999981,100882.441,100887.90000000037,100899.112,101282.431,,9,its
screen,html.Screen,0_2_1_1_10,2021-12-02T10:01:12.962Z,,,,,,,,,,,,,,,,54,,,,,,,,,,,,,,428.2690000001894,,response,,,100,,,,,,Space,keypress(Space),,,,,-- --- ---- --- ------ ----- ------- ---- -- --- revenue --<br>------- ---------- ------ -- ----- -- ----- -- ---- ------<br>--- ----- --- --- ------ -------- ----- --- ------ ----- --<br>----- ----- ---------- --- --- ------ ------ ---- -- ------<br>------- --- ------ ----- --- ---- ------- -- ---- --- --<br>------- ------,101711.59999999963,101710.70000000019,101265.762,101279.79999999981,101282.431,101716.038,,10,revenue
screen,html.Screen,0_2_1_1_11,2021-12-02T10:01:13.474Z,,,,,,,,,,,,,,,,54,,,,,,,,,,,,,,506.6620000001858,,response,,,100,,,,,,Space,keypress(Space),,,,,-- --- ---- --- ------ ----- ------- ---- -- --- ------- by<br>------- ---------- ------ -- ----- -- ----- -- ---- ------<br>--- ----- --- --- ------ -------- ----- --- ------ ----- --<br>----- ----- ---------- --- --- ------ ------ ---- -- ------<br>------- --- ------ ----- --- ---- ------- -- ---- --- --<br>------- ------,102223.5,102222.70000000019,101699.366,101711.90000000037,101716.038,102232.82,,11,by
screen,html.Screen,0_2_1_1_12,2021-12-02T10:01:13.946Z,,,,,,,,,,,,,,,,54,,,,,,,,,,,,,,461.8800000001793,,response,,,100,,,,,,Space,keypress(Space),,,,,-- --- ---- --- ------ ----- ------- ---- -- --- ------- --<br>issuing ---------- ------ -- ----- -- ----- -- ---- ------<br>--- ----- --- --- ------ -------- ----- --- ------ ----- --<br>----- ----- ---------- --- --- ------ ------ ---- -- ------<br>------- --- ------ ----- --- ---- ------- -- ---- --- --<br>------- ------,102695.40000000037,102694.70000000019,102216.149,102223.79999999981,102232.82,102699.381,,12,issuing
screen,html.Screen,0_2_1_1_13,2021-12-02T10:01:14.434Z,,,,,,,,,,,,,,,,54,,,,,,,,,,,,,,483.2189999996335,,response,,,100,,,,,,Space,keypress(Space),,,,,-- --- ---- --- ------ ----- ------- ---- -- --- ------- --<br>------- government ------ -- ----- -- ----- -- ---- ------<br>--- ----- --- --- ------ -------- ----- --- ------ ----- --<br>----- ----- ---------- --- --- ------ ------ ---- -- ------<br>------- --- ------ ----- --- ---- ------- -- ---- --- --<br>------- ------,103183.40000000037,103182.59999999963,102682.713,102695.70000000019,102699.381,103199.779,,13,government
screen,html.Screen,0_2_1_1_14,2021-12-02T10:01:14.954Z,,,,,,,,,,,,,,,,54,,,,,,,,,,,,,,502.8209999996325,,response,,,100,,,,,,Space,keypress(Space),,,,,-- --- ---- --- ------ ----- ------- ---- -- --- ------- --<br>------- ---------- bonds. -- ----- -- ----- -- ---- ------<br>--- ----- --- --- ------ -------- ----- --- ------ ----- --<br>----- ----- ---------- --- --- ------ ------ ---- -- ------<br>------- --- ------ ----- --- ---- ------- -- ---- --- --<br>------- ------,103703.40000000037,103702.59999999963,103183.107,103183.59999999963,103199.779,103716.53,,14,bonds.
screen,html.Screen,0_2_1_1_15,2021-12-02T10:01:15.754Z,,,,,,,,,,,,,,,,54,,,,,,,,,,,,,,785.9700000000012,,response,,,100,,,,,,Space,keypress(Space),,,,,-- --- ---- --- ------ ----- ------- ---- -- --- ------- --<br>------- ---------- ------ In ----- -- ----- -- ---- ------<br>--- ----- --- --- ------ -------- ----- --- ------ ----- --<br>----- ----- ---------- --- --- ------ ------ ---- -- ------<br>------- --- ------ ----- --- ---- ------- -- ---- --- --<br>------- ------,104503.5,104502.5,103699.859,103703.59999999963,103716.53,104516.669,,15,In
screen,html.Screen,0_2_1_1_16,2021-12-02T10:01:16.674Z,,,,,,,,,,,,,,,,54,,,,,,,,,,,,,,905.8310000000056,,response,,,100,,,,,,Space,keypress(Space),,,,,"-- --- ---- --- ------ ----- ------- ---- -- --- ------- --<br>------- ---------- ------ -- 1727, -- ----- -- ---- ------<br>--- ----- --- --- ------ -------- ----- --- ------ ----- --<br>----- ----- ---------- --- --- ------ ------ ---- -- ------<br>------- --- ------ ----- --- ---- ------- -- ---- --- --<br>------- ------",105423.29999999981,105422.5,104499.999,104503.70000000019,104516.669,105433.578,,16,"1727,"
screen,html.Screen,0_2_1_1_17,2021-12-02T10:01:17.794Z,,,,,,,,,,,,,,,,54,,,,,,,,,,,,,,1109.0219999996334,,response,,,100,,,,,,Space,keypress(Space),,,,,-- --- ---- --- ------ ----- ------- ---- -- --- ------- --<br>------- ---------- ------ -- ----- in ----- -- ---- ------<br>--- ----- --- --- ------ -------- ----- --- ------ ----- --<br>----- ----- ---------- --- --- ------ ------ ---- -- ------<br>------- --- ------ ----- --- ---- ------- -- ---- --- --<br>------- ------,106543.29999999981,106542.59999999963,105416.908,105423.5,105433.578,106550.524,,17,in
screen,html.Screen,0_2_1_1_18,2021-12-02T10:01:18.434Z,,,,,,,,,,,,,,,,54,,,,,,,,,,,,,,632.3760000003676,,response,,,100,,,,,,Space,keypress(Space),,,,,-- --- ---- --- ------ ----- ------- ---- -- --- ------- --<br>------- ---------- ------ -- ----- -- order -- ---- ------<br>--- ----- --- --- ------ -------- ----- --- ------ ----- --<br>----- ----- ---------- --- --- ------ ------ ---- -- ------<br>------- --- ------ ----- --- ---- ------- -- ---- --- --<br>------- ------,107183.70000000019,107182.90000000037,106533.854,106543.5,106550.524,107200.7,,18,order
screen,html.Screen,0_2_1_1_19,2021-12-02T10:01:18.994Z,,,,,,,,,,,,,,,,54,,,,,,,,,,,,,,541.8000000000029,,response,,,100,,,,,,Space,keypress(Space),,,,,-- --- ---- --- ------ ----- ------- ---- -- --- ------- --<br>------- ---------- ------ -- ----- -- ----- to ---- ------<br>--- ----- --- --- ------ -------- ----- --- ------ ----- --<br>----- ----- ---------- --- --- ------ ------ ---- -- ------<br>------- --- ------ ----- --- ---- ------- -- ---- --- --<br>------- ------,107743.29999999981,107742.5,107184.03,107183.90000000037,107200.7,107750.813,,19,to
screen,html.Screen,0_2_1_1_20,2021-12-02T10:01:19.474Z,,,,,,,,,,,,,,,,54,,,,,,,,,,,,,,471.5870000003779,,response,,,100,,,,,,Space,keypress(Space),,,,,-- --- ---- --- ------ ----- ------- ---- -- --- ------- --<br>------- ---------- ------ -- ----- -- ----- -- save ------<br>--- ----- --- --- ------ -------- ----- --- ------ ----- --<br>----- ----- ---------- --- --- ------ ------ ---- -- ------<br>------- --- ------ ----- --- ---- ------- -- ---- --- --<br>------- ------,108223.20000000019,108222.40000000037,107734.143,107743.5,107750.813,108234.47,,20,save
screen,html.Screen,0_2_1_1_21,2021-12-02T10:01:19.914Z,,,,,,,,,,,,,,,,54,,,,,,,,,,,,,,427.93000000037136,,response,,,100,,,,,,Space,keypress(Space),,,,,"-- --- ---- --- ------ ----- ------- ---- -- --- ------- --<br>------- ---------- ------ -- ----- -- ----- -- ---- money,<br>--- ----- --- --- ------ -------- ----- --- ------ ----- --<br>----- ----- ---------- --- --- ------ ------ ---- -- ------<br>------- --- ------ ----- --- ---- ------- -- ---- --- --<br>------- ------",108663.29999999981,108662.40000000037,108217.798,108223.40000000037,108234.47,108667.809,,21,"money,"
screen,html.Screen,0_2_1_1_22,2021-12-02T10:01:20.426Z,,,,,,,,,,,,,,,,54,,,,,,,,,,,,,,506.5910000003787,,response,,,100,,,,,,Space,keypress(Space),,,,,-- --- ---- --- ------ ----- ------- ---- -- --- ------- --<br>------- ---------- ------ -- ----- -- ----- -- ---- ------<br>the ----- --- --- ------ -------- ----- --- ------ ----- --<br>----- ----- ---------- --- --- ------ ------ ---- -- ------<br>------- --- ------ ----- --- ---- ------- -- ---- --- --<br>------- ------,109175.20000000019,109174.40000000037,108651.139,108663.5,108667.809,109184.561,,22,the
screen,html.Screen,0_2_1_1_23,2021-12-02T10:01:20.794Z,,,,,,,,,,,,,,,,54,,,,,,,,,,,,,,357.839000000371,,response,,,100,,,,,,Space,keypress(Space),,,,,-- --- ---- --- ------ ----- ------- ---- -- --- ------- --<br>------- ---------- ------ -- ----- -- ----- -- ---- ------<br>--- state --- --- ------ -------- ----- --- ------ ----- --<br>----- ----- ---------- --- --- ------ ------ ---- -- ------<br>------- --- ------ ----- --- ---- ------- -- ---- --- --<br>------- ------,109543.09999999963,109542.40000000037,109167.891,109175.40000000037,109184.561,109551.4,,23,state
screen,html.Screen,0_2_1_1_24,2021-12-02T10:01:21.241Z,,,,,,,,,,,,,,,,54,,,,,,,,,,,,,,438.6000000000058,,response,,,100,,,,,,Space,keypress(Space),,,,,-- --- ---- --- ------ ----- ------- ---- -- --- ------- --<br>------- ---------- ------ -- ----- -- ----- -- ---- ------<br>--- ----- cut --- ------ -------- ----- --- ------ ----- --<br>----- ----- ---------- --- --- ------ ------ ---- -- ------<br>------- --- ------ ----- --- ---- ------- -- ---- --- --<br>------- ------,109990.5,109990,109534.729,109543.40000000037,109551.4,110001.488,,24,cut
screen,html.Screen,0_2_1_1_25,2021-12-02T10:01:21.649Z,,,,,,,,,,,,,,,,54,,,,,,,,,,,,,,396.51200000000244,,response,,,100,,,,,,Space,keypress(Space),,,,,-- --- ---- --- ------ ----- ------- ---- -- --- ------- --<br>------- ---------- ------ -- ----- -- ----- -- ---- ------<br>--- ----- --- the ------ -------- ----- --- ------ ----- --<br>----- ----- ---------- --- --- ------ ------ ---- -- ------<br>------- --- ------ ----- --- ---- ------- -- ---- --- --<br>------- ------,110398.5,110398,109984.818,109990.59999999963,110001.488,110401.614,,25,the
screen,html.Screen,0_2_1_1_26,2021-12-02T10:01:22.066Z,,,,,,,,,,,,,,,,54,,,,,,,,,,,,,,412.68599999981234,,response,,,100,,,,,,Space,keypress(Space),,,,,-- --- ---- --- ------ ----- ------- ---- -- --- ------- --<br>------- ---------- ------ -- ----- -- ----- -- ---- ------<br>--- ----- --- --- bonds' -------- ----- --- ------ ----- --<br>----- ----- ---------- --- --- ------ ------ ---- -- ------<br>------- --- ------ ----- --- ---- ------- -- ---- --- --<br>------- ------,110815,110814.29999999981,110384.943,110398.59999999963,110401.614,110818.215,,26,bonds'
screen,html.Screen,0_2_1_1_27,2021-12-02T10:01:22.642Z,,,,,,,,,,,,,,,,54,,,,,,,,,,,,,,572.0849999998172,,response,,,100,,,,,,Space,keypress(Space),,,,,-- --- ---- --- ------ ----- ------- ---- -- --- ------- --<br>------- ---------- ------ -- ----- -- ----- -- ---- ------<br>--- ----- --- --- ------ interest ----- --- ------ ----- --<br>----- ----- ---------- --- --- ------ ------ ---- -- ------<br>------- --- ------ ----- --- ---- ------- -- ---- --- --<br>------- ------,111391,111390.29999999981,110801.547,110815.29999999981,110818.215,111401.783,,27,interest
screen,html.Screen,0_2_1_1_28,2021-12-02T10:01:23.082Z,,,,,,,,,,,,,,,,54,,,,,,,,,,,,,,428.5169999998179,,response,,,100,,,,,,Space,keypress(Space),,,,,-- --- ---- --- ------ ----- ------- ---- -- --- ------- --<br>------- ---------- ------ -- ----- -- ----- -- ---- ------<br>--- ----- --- --- ------ -------- rate. --- ------ ----- --<br>----- ----- ---------- --- --- ------ ------ ---- -- ------<br>------- --- ------ ----- --- ---- ------- -- ---- --- --<br>------- ------,111831,111830.29999999981,111385.113,111391.29999999981,111401.783,111835.452,,28,rate.
screen,html.Screen,0_2_1_1_29,2021-12-02T10:01:23.650Z,,,,,,,,,,,,,,,,54,,,,,,,,,,,,,,562.7480000001815,,response,,,100,,,,,,Space,keypress(Space),,,,,-- --- ---- --- ------ ----- ------- ---- -- --- ------- --<br>------- ---------- ------ -- ----- -- ----- -- ---- ------<br>--- ----- --- --- ------ -------- ----- The ------ ----- --<br>----- ----- ---------- --- --- ------ ------ ---- -- ------<br>------- --- ------ ----- --- ---- ------- -- ---- --- --<br>------- ------,112399.09999999963,112398.20000000019,111818.779,111831.29999999981,111835.452,112402.171,,29,The
screen,html.Screen,0_2_1_1_30,2021-12-02T10:01:24.114Z,,,,,,,,,,,,,,,,54,,,,,,,,,,,,,,460.02900000018417,,response,,,100,,,,,,Space,keypress(Space),,,,,-- --- ---- --- ------ ----- ------- ---- -- --- ------- --<br>------- ---------- ------ -- ----- -- ----- -- ---- ------<br>--- ----- --- --- ------ -------- ----- --- market ----- --<br>----- ----- ---------- --- --- ------ ------ ---- -- ------<br>------- --- ------ ----- --- ---- ------- -- ---- --- --<br>------- ------,112863,112862.20000000019,112385.5,112399.5,112402.171,112868.927,,30,market
screen,html.Screen,0_2_1_1_31,2021-12-02T10:01:24.578Z,,,,,,,,,,,,,,,,54,,,,,,,,,,,,,,457.2730000001902,,response,,,100,,,,,,Space,keypress(Space),,,,,-- --- ---- --- ------ ----- ------- ---- -- --- ------- --<br>------- ---------- ------ -- ----- -- ----- -- ---- ------<br>--- ----- --- --- ------ -------- ----- --- ------ value --<br>----- ----- ---------- --- --- ------ ------ ---- -- ------<br>------- --- ------ ----- --- ---- ------- -- ---- --- --<br>------- ------,113327,113326.20000000019,112852.257,112863.20000000019,112868.927,113335.699,,31,value
screen,html.Screen,0_2_1_1_32,2021-12-02T10:01:25.026Z,,,,,,,,,,,,,,,,54,,,,,,,,,,,,,,438.501000000193,,response,,,100,,,,,,Space,keypress(Space),,,,,-- --- ---- --- ------ ----- ------- ---- -- --- ------- --<br>------- ---------- ------ -- ----- -- ----- -- ---- ------<br>--- ----- --- --- ------ -------- ----- --- ------ ----- of<br>----- ----- ---------- --- --- ------ ------ ---- -- ------<br>------- --- ------ ----- --- ---- ------- -- ---- --- --<br>------- ------,113775,113774.20000000019,113319.029,113327.20000000019,113335.699,113785.828,,32,of
screen,html.Screen,0_2_1_1_33,2021-12-02T10:01:25.426Z,,,,,,,,,,,,,,,,54,,,,,,,,,,,,,,388.3720000001922,,response,,,100,,,,,,Space,keypress(Space),,,,,-- --- ---- --- ------ ----- ------- ---- -- --- ------- --<br>------- ---------- ------ -- ----- -- ----- -- ---- ------<br>--- ----- --- --- ------ -------- ----- --- ------ ----- --<br>these ----- ---------- --- --- ------ ------ ---- -- ------<br>------- --- ------ ----- --- ---- ------- -- ---- --- --<br>------- ------,114174.90000000037,114174.20000000019,113769.158,113775.29999999981,113785.828,114185.98,,33,these
screen,html.Screen,0_2_1_1_34,2021-12-02T10:01:25.794Z,,,,,,,,,,,,,,,,54,,,,,,,,,,,,,,356.22000000019034,,response,,,100,,,,,,Space,keypress(Space),,,,,-- --- ---- --- ------ ----- ------- ---- -- --- ------- --<br>------- ---------- ------ -- ----- -- ----- -- ---- ------<br>--- ----- --- --- ------ -------- ----- --- ------ ----- --<br>----- bonds ---------- --- --- ------ ------ ---- -- ------<br>------- --- ------ ----- --- ---- ------- -- ---- --- --<br>------- ------,114542.90000000037,114542.20000000019,114169.309,114175.20000000019,114185.98,114552.704,,34,bonds
screen,html.Screen,0_2_1_1_35,2021-12-02T10:01:26.306Z,,,,,,,,,,,,,,,,54,,,,,,,,,,,,,,501.49600000018836,,response,,,100,,,,,,Space,keypress(Space),,,,,"-- --- ---- --- ------ ----- ------- ---- -- --- ------- --<br>------- ---------- ------ -- ----- -- ----- -- ---- ------<br>--- ----- --- --- ------ -------- ----- --- ------ ----- --<br>----- ----- plummeted, --- --- ------ ------ ---- -- ------<br>------- --- ------ ----- --- ---- ------- -- ---- --- --<br>------- ------",115055,115054.20000000019,114536.034,114543.20000000019,114552.704,115069.507,,35,"plummeted,"
screen,html.Screen,0_2_1_1_36,2021-12-02T10:01:27.297Z,,,,,,,,,,,,,,,,54,,,,,,,,,,,,,,976.4930000000022,,response,,,100,,,,,,Space,keypress(Space),,,,,-- --- ---- --- ------ ----- ------- ---- -- --- ------- --<br>------- ---------- ------ -- ----- -- ----- -- ---- ------<br>--- ----- --- --- ------ -------- ----- --- ------ ----- --<br>----- ----- ---------- and --- ------ ------ ---- -- ------<br>------- --- ------ ----- --- ---- ------- -- ---- --- --<br>------- ------,116046.90000000037,116046,115052.837,115055.20000000019,115069.507,116053.071,,36,and
screen,html.Screen,0_2_1_1_37,2021-12-02T10:01:27.801Z,,,,,,,,,,,,,,,,54,,,,,,,,,,,,,,497.0289999996312,,response,,,100,,,,,,Space,keypress(Space),,,,,-- --- ---- --- ------ ----- ------- ---- -- --- ------- --<br>------- ---------- ------ -- ----- -- ----- -- ---- ------<br>--- ----- --- --- ------ -------- ----- --- ------ ----- --<br>----- ----- ---------- --- the ------ ------ ---- -- ------<br>------- --- ------ ----- --- ---- ------- -- ---- --- --<br>------- ------,116550.79999999981,116550.09999999963,116036.401,116047.09999999963,116053.071,116553.052,,37,the
screen,html.Screen,0_2_1_1_38,2021-12-02T10:01:28.201Z,,,,,,,,,,,,,,,,54,,,,,,,,,,,,,,397.04799999963143,,response,,,100,,,,,,Space,keypress(Space),,,,,-- --- ---- --- ------ ----- ------- ---- -- --- ------- --<br>------- ---------- ------ -- ----- -- ----- -- ---- ------<br>--- ----- --- --- ------ -------- ----- --- ------ ----- --<br>----- ----- ---------- --- --- market ------ ---- -- ------<br>------- --- ------ ----- --- ---- ------- -- ---- --- --<br>------- ------,116950.79999999981,116950.09999999963,116536.383,116551.09999999963,116553.052,116953.385,,38,market
screen,html.Screen,0_2_1_1_39,2021-12-02T10:01:28.778Z,,,,,,,,,,,,,,,,54,,,,,,,,,,,,,,572.914999999819,,response,,,100,,,,,,Space,keypress(Space),,,,,-- --- ---- --- ------ ----- ------- ---- -- --- ------- --<br>------- ---------- ------ -- ----- -- ----- -- ---- ------<br>--- ----- --- --- ------ -------- ----- --- ------ ----- --<br>----- ----- ---------- --- --- ------ became ---- -- ------<br>------- --- ------ ----- --- ---- ------- -- ---- --- --<br>------- ------,117527.09999999963,117526.29999999981,116936.714,116951,116953.385,117536.823,,39,became
screen,html.Screen,0_2_1_1_40,2021-12-02T10:01:29.193Z,,,,,,,,,,,,,,,,54,,,,,,,,,,,,,,405.17699999999604,,response,,,100,,,,,,Space,keypress(Space),,,,,-- --- ---- --- ------ ----- ------- ---- -- --- ------- --<br>------- ---------- ------ -- ----- -- ----- -- ---- ------<br>--- ----- --- --- ------ -------- ----- --- ------ ----- --<br>----- ----- ---------- --- --- ------ ------ wary -- ------<br>------- --- ------ ----- --- ---- ------- -- ---- --- --<br>------- ------,117942.70000000019,117942,117520.153,117527.40000000037,117536.823,117953.609,,40,wary
screen,html.Screen,0_2_1_1_41,2021-12-02T10:01:29.617Z,,,,,,,,,,,,,,,,54,,,,,,,,,,,,,,412.39100000000326,,response,,,100,,,,,,Space,keypress(Space),,,,,-- --- ---- --- ------ ----- ------- ---- -- --- ------- --<br>------- ---------- ------ -- ----- -- ----- -- ---- ------<br>--- ----- --- --- ------ -------- ----- --- ------ ----- --<br>----- ----- ---------- --- --- ------ ------ ---- of ------<br>------- --- ------ ----- --- ---- ------- -- ---- --- --<br>------- ------,118366.70000000019,118366,117936.939,117944.20000000019,117953.609,118370.282,,41,of
screen,html.Screen,0_2_1_1_42,2021-12-02T10:01:30.193Z,,,,,,,,,,,,,,,,54,,,,,,,,,,,,,,571.7179999999935,,response,,,100,,,,,,Space,keypress(Space),,,,,-- --- ---- --- ------ ----- ------- ---- -- --- ------- --<br>------- ---------- ------ -- ----- -- ----- -- ---- ------<br>--- ----- --- --- ------ -------- ----- --- ------ ----- --<br>----- ----- ---------- --- --- ------ ------ ---- -- French<br>------- --- ------ ----- --- ---- ------- -- ---- --- --<br>------- ------,118942.79999999981,118942,118353.613,118367,118370.282,118953.821,,42,French
screen,html.Screen,0_2_1_1_43,2021-12-02T10:01:30.737Z,,,,,,,,,,,,,,,,54,,,,,,,,,,,,,,532.0790000003763,,response,,,100,,,,,,Space,keypress(Space),,,,,-- --- ---- --- ------ ----- ------- ---- -- --- ------- --<br>------- ---------- ------ -- ----- -- ----- -- ---- ------<br>--- ----- --- --- ------ -------- ----- --- ------ ----- --<br>----- ----- ---------- --- --- ------ ------ ---- -- ------<br>credit. --- ------ ----- --- ---- ------- -- ---- --- --<br>------- ------,119486.70000000019,119485.90000000037,118937.151,118943,118953.821,119504.107,,43,credit.
screen,html.Screen,0_2_1_1_44,2021-12-02T10:01:31.652Z,,,,,,,,,,,,,,,,54,,,,,,,,,,,,,,893.7930000003689,,response,,,100,,,,,,Space,keypress(Space),,,,,-- --- ---- --- ------ ----- ------- ---- -- --- ------- --<br>------- ---------- ------ -- ----- -- ----- -- ---- ------<br>--- ----- --- --- ------ -------- ----- --- ------ ----- --<br>----- ----- ---------- --- --- ------ ------ ---- -- ------<br>------- The ------ ----- --- ---- ------- -- ---- --- --<br>------- ------,120398.70000000019,120397.90000000037,119487.435,119486.90000000037,119504.107,120404.223,,44,The
screen,html.Screen,0_2_1_1_45,2021-12-02T10:01:32.028Z,,,,,,,,,,,,,,,,54,,,,,,,,,,,,,,369.4770000001881,,response,,,100,,,,,,Space,keypress(Space),,,,,-- --- ---- --- ------ ----- ------- ---- -- --- ------- --<br>------- ---------- ------ -- ----- -- ----- -- ---- ------<br>--- ----- --- --- ------ -------- ----- --- ------ ----- --<br>----- ----- ---------- --- --- ------ ------ ---- -- ------<br>------- --- French ----- --- ---- ------- -- ---- --- --<br>------- ------,120774.5,120773.70000000019,120387.553,120398.90000000037,120404.223,120787.735,,45,French
screen,html.Screen,0_2_1_1_46,2021-12-02T10:01:32.468Z,,,,,,,,,,,,,,,,54,,,,,,,,,,,,,,425.9650000001857,,response,,,100,,,,,,Space,keypress(Space),,,,,-- --- ---- --- ------ ----- ------- ---- -- --- ------- --<br>------- ---------- ------ -- ----- -- ----- -- ---- ------<br>--- ----- --- --- ------ -------- ----- --- ------ ----- --<br>----- ----- ---------- --- --- ------ ------ ---- -- ------<br>------- --- ------ state --- ---- ------- -- ---- --- --<br>------- ------,121214.5,121213.70000000019,120771.064,120774.79999999981,120787.735,121221.151,,46,state
screen,html.Screen,0_2_1_1_47,2021-12-02T10:01:32.884Z,,,,,,,,,,,,,,,,54,,,,,,,,,,,,,,408.54900000018824,,response,,,100,,,,,,Space,keypress(Space),,,,,-- --- ---- --- ------ ----- ------- ---- -- --- ------- --<br>------- ---------- ------ -- ----- -- ----- -- ---- ------<br>--- ----- --- --- ------ -------- ----- --- ------ ----- --<br>----- ----- ---------- --- --- ------ ------ ---- -- ------<br>------- --- ------ ----- was ---- ------- -- ---- --- --<br>------- ------,121630.59999999963,121629.70000000019,121204.481,121214.70000000019,121221.151,121637.928,,47,was
screen,html.Screen,0_2_1_1_48,2021-12-02T10:01:33.308Z,,,,,,,,,,,,,,,,54,,,,,,,,,,,,,,415.7720000001864,,response,,,100,,,,,,Space,keypress(Space),,,,,-- --- ---- --- ------ ----- ------- ---- -- --- ------- --<br>------- ---------- ------ -- ----- -- ----- -- ---- ------<br>--- ----- --- --- ------ -------- ----- --- ------ ----- --<br>----- ----- ---------- --- --- ------ ------ ---- -- ------<br>------- --- ------ ----- --- left ------- -- ---- --- --<br>------- ------,122054.5,122053.70000000019,121621.258,121630.79999999981,121637.928,122071.362,,48,left
screen,html.Screen,0_2_1_1_49,2021-12-02T10:01:33.740Z,,,,,,,,,,,,,,,,54,,,,,,,,,,,,,,414.33800000019255,,response,,,100,,,,,,Space,keypress(Space),,,,,-- --- ---- --- ------ ----- ------- ---- -- --- ------- --<br>------- ---------- ------ -- ----- -- ----- -- ---- ------<br>--- ----- --- --- ------ -------- ----- --- ------ ----- --<br>----- ----- ---------- --- --- ------ ------ ---- -- ------<br>------- --- ------ ----- --- ---- without -- ---- --- --<br>------- ------,122486.5,122485.70000000019,122054.692,122054.70000000019,122071.362,122488.132,,49,without
screen,html.Screen,0_2_1_1_50,2021-12-02T10:01:34.180Z,,,,,,,,,,,,,,,,54,,,,,,,,,,,,,,437.5680000001885,,response,,,100,,,,,,Space,keypress(Space),,,,,-- --- ---- --- ------ ----- ------- ---- -- --- ------- --<br>------- ---------- ------ -- ----- -- ----- -- ---- ------<br>--- ----- --- --- ------ -------- ----- --- ------ ----- --<br>----- ----- ---------- --- --- ------ ------ ---- -- ------<br>------- --- ------ ----- --- ---- ------- an ---- --- --<br>------- ------,122926.5,122925.70000000019,122471.462,122486.70000000019,122488.132,122938.316,,50,an
screen,html.Screen,0_2_1_1_51,2021-12-02T10:01:34.628Z,,,,,,,,,,,,,,,,54,,,,,,,,,,,,,,435.3840000001801,,response,,,100,,,,,,Space,keypress(Space),,,,,-- --- ---- --- ------ ----- ------- ---- -- --- ------- --<br>------- ---------- ------ -- ----- -- ----- -- ---- ------<br>--- ----- --- --- ------ -------- ----- --- ------ ----- --<br>----- ----- ---------- --- --- ------ ------ ---- -- ------<br>------- --- ------ ----- --- ---- ------- -- easy --- --<br>------- ------,123374.5,123373.70000000019,122921.645,122926.70000000019,122938.316,123388.377,,51,easy
screen,html.Screen,0_2_1_1_52,2021-12-02T10:01:35.092Z,,,,,,,,,,,,,,,,54,,,,,,,,,,,,,,449.32300000019313,,response,,,100,,,,,,Space,keypress(Space),,,,,-- --- ---- --- ------ ----- ------- ---- -- --- ------- --<br>------- ---------- ------ -- ----- -- ----- -- ---- ------<br>--- ----- --- --- ------ -------- ----- --- ------ ----- --<br>----- ----- ---------- --- --- ------ ------ ---- -- ------<br>------- --- ------ ----- --- ---- ------- -- ---- way --<br>------- ------,123838.5,123837.70000000019,123371.707,123374.79999999981,123388.377,123855.172,,52,way
screen,html.Screen,0_2_1_1_53,2021-12-02T10:01:35.508Z,,,,,,,,,,,,,,,,54,,,,,,,,,,,,,,398.5280000001803,,response,,,100,,,,,,Space,keypress(Space),,,,,-- --- ---- --- ------ ----- ------- ---- -- --- ------- --<br>------- ---------- ------ -- ----- -- ----- -- ---- ------<br>--- ----- --- --- ------ -------- ----- --- ------ ----- --<br>----- ----- ---------- --- --- ------ ------ ---- -- ------<br>------- --- ------ ----- --- ---- ------- -- ---- --- of<br>------- ------,124254.5,124253.70000000019,123838.502,123838.79999999981,123855.172,124271.991,,53,of
screen,html.Screen,0_2_1_1_54,2021-12-02T10:01:35.923Z,,,,,,,,,,,,,,,,54,,,,,,,,,,,,,,397.70900000019174,,response,,,100,,,,,,Space,keypress(Space),,,,,-- --- ---- --- ------ ----- ------- ---- -- --- ------- --<br>------- ---------- ------ -- ----- -- ----- -- ---- ------<br>--- ----- --- --- ------ -------- ----- --- ------ ----- --<br>----- ----- ---------- --- --- ------ ------ ---- -- ------<br>------- --- ------ ----- --- ---- ------- -- ---- --- --<br>raising ------,124670.5,124669.70000000019,124255.32,124254.70000000019,124271.991,124672.067,,54,raising
screen,html.Screen,0_2_1_1_55,2021-12-02T10:01:36.395Z,,,,,,,,,,,,,,,,54,,,,,,,,,,,,,,469.532999999632,,response,,,100,,,,,,Space,keypress(Space),,,,,-- --- ---- --- ------ ----- ------- ---- -- --- ------- --<br>------- ---------- ------ -- ----- -- ----- -- ---- ------<br>--- ----- --- --- ------ -------- ----- --- ------ ----- --<br>----- ----- ---------- --- --- ------ ------ ---- -- ------<br>------- --- ------ ----- --- ---- ------- -- ---- --- --<br>------- money.,125142.5,125141.59999999963,124655.397,124670.70000000019,124672.067,125155.523,,55,money.
Item 100,flow.Loop,0_2_1_1,2021-12-02T10:01:36.396Z,,,,,,,,,,,,,,,,,,,,,,,,,,,,,,30177.534999999625,,completion,,,,C,,,,,,,,,,silence,,125142.79999999981,125141.59999999963,94947.395,94948.90000000037,94964.065,125155.523,,,
Question 1,html.Screen,0_2_1_2,2021-12-02T10:01:40.195Z,,,,,,,,,,,,,,,,,,,,,,,,,,,true,TRUE,,3785.7769999998127,,response,,,100,C,,,,,TRUE,click #choice-1,,,,silence,,128942.40000000037,128941.29999999981,125138.853,125143.09999999963,125155.523,128956.958,,,
Question 2,html.Screen,0_2_1_3,2021-12-02T10:01:43.723Z,,,,,,,,,,,,,,,,,,,,,,,,,,,true,FALSE,,3512.1419999996288,,response,,,100,C,,,,,FALSE,click #choice-2,,,,silence,,132470.2000000002,132469.09999999963,128940.28,128942.59999999963,128956.958,132474.135,,,
Item 100,flow.Sequence,0_2_1,2021-12-02T10:01:43.724Z,,,,,,,,,,,,,,,,,,,,,,,,,,,,,,47507.81299999963,,completion,,,,,,,,,,,,,,,,132470.59999999963,132469.09999999963,84944.619,84953.40000000037,84961.287,132474.135,,,
End of Practice,html.Page,0_2_2,2021-12-02T10:01:48.668Z,,,,,,,,,,,,,,,,,,,,,,,,,,,,,,4940.364999999991,,form submission,,,,,,,,,,,,,,,,137415.09999999963,137414.5,132457.465,132470.7000000002,132474.135,137425.407,,,
Practice,flow.Sequence,0_2,2021-12-02T10:01:48.669Z,,,,,,,,,,,,,,,,,,,,,,,,,,,,,,103216.506,,completion,,,,,,,,,,,,,,,,137415.5,137414.5,34181.324,34187.59999999963,34197.994,137425.407,,,
Trap_instruction,html.Page,0_3_0,2021-12-02T10:01:52.532Z,,,,,,,,,,,,,,,,,,,,,,,,,,,,,,3852.993000000366,,form submission,,,,,,,,,,,,,,,,141278.90000000037,141278.40000000037,137408.737,137415.7999999998,137425.407,141309.799,,,
trap_trial,html.Screen,0_3_1,2021-12-02T10:01:56.475Z,,,,,,,,,,,,,,,,,,,,,,,,,,,true,1,,3910.6010000003735,,response,,,,,,,,,1,click #choice-1,,,,,,145221.7000000002,145220.40000000037,141276.457,141279.2999999998,141309.799,145225.189,,,
end of trap trial,html.Page,0_3_2,2021-12-02T10:01:59.419Z,,,,,,,,,,,,,,,,,,,,,,,,,,,,,,2940.6109999998007,,form submission,,,,,,,,,,,,,,,,148166.2000000002,148165.7999999998,145208.528,145222.09999999963,145225.189,148178.22,,,
Trap 1,flow.Sequence,0_3,2021-12-02T10:01:59.420Z,,,,,,,,,,,,,,,,,,,,,,,,,,,,,,10740.392999999807,,completion,,,,,,,,,,,,,,,,148166.7999999998,148165.7999999998,137408.737,137415.7000000002,137425.407,148178.22,,,
Standby,html.Page,0_4_0,2021-12-02T10:02:07.418Z,,,,,,,,,,,,,,,,,,,,,,,,,,,,,,8002.196999999986,,timeout,,,,,,,,,,,,,,,,156165.2000000002,156163.746,148161.55,148167.2000000002,148178.22,156180.417,,,
Holding screen,html.Screen,0_4_1_0_0,2021-12-02T10:02:14.420Z,,,,,,,,,,,,,,,,,,,,,,,,,,,,,,7001.803000000014,,timeout,,,,,,,,,,,,,,,,163166.59999999963,163165.55,156163.746,156165.5,156180.417,163182.22,,,
screen,html.Screen,0_4_1_0_1_0,2021-12-02T10:02:15.394Z,,,,,,,,,,,,,,,,11,,,,,,,,,,,,,,958.0799999998126,,response,,,4,C,,,,,Space,keypress(Space),,,,instrumental,Known -- ---- --- -- --- -------- ------------ ---------- --<br>- ------- ------ --------- -- ------------ -- --- ---- -----<br>------ ---- ---- ------ ------ ------- --- ----- ---------<br>---- --- -------- -------- --- --- -- ------- --- --- -----<br>-- --- ------ ------- --- --- -------- ---- --------- --<br>---------- -- -------- ----------------,164141.2999999998,164140.2999999998,163165.55,163167.09999999963,163182.22,164165.734,,0,Known
screen,html.Screen,0_4_1_0_1_1,2021-12-02T10:02:16.433Z,,,,,,,,,,,,,,,,11,,,,,,,,,,,,,,1013.9660000001895,,response,,,4,C,,,,,Space,keypress(Space),,,,instrumental,----- as ---- --- -- --- -------- ------------ ---------- --<br>- ------- ------ --------- -- ------------ -- --- ---- -----<br>------ ---- ---- ------ ------ ------- --- ----- ---------<br>---- --- -------- -------- --- --- -- ------- --- --- -----<br>-- --- ------ ------- --- --- -------- ---- --------- --<br>---------- -- -------- ----------------,165180.40000000037,165179.7000000002,164149.064,164141.7000000002,164165.734,165182.885,,1,as
screen,html.Screen,0_4_1_0_1_2,2021-12-02T10:02:17.329Z,,,,,,,,,,,,,,,,11,,,,,,,,,,,,,,892.7149999996182,,response,,,4,C,,,,,Space,keypress(Space),,,,instrumental,----- -- Rapa --- -- --- -------- ------------ ---------- --<br>- ------- ------ --------- -- ------------ -- --- ---- -----<br>------ ---- ---- ------ ------ ------- --- ----- ---------<br>---- --- -------- -------- --- --- -- ------- --- --- -----<br>-- --- ------ ------- --- --- -------- ---- --------- --<br>---------- -- -------- ----------------,166076.40000000037,166075.59999999963,165166.214,165180.7000000002,165182.885,166083.031,,2,Rapa
screen,html.Screen,0_4_1_0_1_3,2021-12-02T10:02:17.938Z,,,,,,,,,,,,,,,,11,,,,,,,,,,,,,,600.6690000001981,,response,,,4,C,,,,,Space,keypress(Space),,,,instrumental,----- -- ---- Nui -- --- -------- ------------ ---------- --<br>- ------- ------ --------- -- ------------ -- --- ---- -----<br>------ ---- ---- ------ ------ ------- --- ----- ---------<br>---- --- -------- -------- --- --- -- ------- --- --- -----<br>-- --- ------ ------- --- --- -------- ---- --------- --<br>---------- -- -------- ----------------,166684.5,166683.7000000002,166066.361,166076.7000000002,166083.031,166699.878,,3,Nui
screen,html.Screen,0_4_1_0_1_4,2021-12-02T10:02:18.346Z,,,,,,,,,,,,,,,,11,,,,,,,,,,,,,,391.8220000001893,,response,,,4,C,,,,,Space,keypress(Space),,,,instrumental,----- -- ---- --- to --- -------- ------------ ---------- --<br>- ------- ------ --------- -- ------------ -- --- ---- -----<br>------ ---- ---- ------ ------ ------- --- ----- ---------<br>---- --- -------- -------- --- --- -- ------- --- --- -----<br>-- --- ------ ------- --- --- -------- ---- --------- --<br>---------- -- -------- ----------------,167092.59999999963,167091.7000000002,166683.208,166684.7999999998,166699.878,167100.048,,4,to
screen,html.Screen,0_4_1_0_1_5,2021-12-02T10:02:18.729Z,,,,,,,,,,,,,,,,11,,,,,,,,,,,,,,375.6520000001765,,response,,,4,C,,,,,Space,keypress(Space),,,,instrumental,----- -- ---- --- -- the -------- ------------ ---------- --<br>- ------- ------ --------- -- ------------ -- --- ---- -----<br>------ ---- ---- ------ ------ ------- --- ----- ---------<br>---- --- -------- -------- --- --- -- ------- --- --- -----<br>-- --- ------ ------- --- --- -------- ---- --------- --<br>---------- -- -------- ----------------,167476.40000000037,167475.7000000002,167083.377,167092.7000000002,167100.048,167483.45,,5,the
screen,html.Screen,0_4_1_0_1_6,2021-12-02T10:02:19.281Z,,,,,,,,,,,,,,,,11,,,,,,,,,,,,,,544.1499999996158,,response,,,4,C,,,,,Space,keypress(Space),,,,instrumental,----- -- ---- --- -- --- island's ------------ ---------- --<br>- ------- ------ --------- -- ------------ -- --- ---- -----<br>------ ---- ---- ------ ------ ------- --- ----- ---------<br>---- --- -------- -------- --- --- -- ------- --- --- -----<br>-- --- ------ ------- --- --- -------- ---- --------- --<br>---------- -- -------- ----------------,168028.40000000037,168027.59999999963,167466.78,167476.7000000002,167483.45,168033.562,,6,island's
screen,html.Screen,0_4_1_0_1_7,2021-12-02T10:02:19.825Z,,,,,,,,,,,,,,,,11,,,,,,,,,,,,,,538.1380000001809,,response,,,4,C,,,,,Space,keypress(Space),,,,instrumental,"----- -- ---- --- -- --- -------- inhabitants, ---------- --<br>- ------- ------ --------- -- ------------ -- --- ---- -----<br>------ ---- ---- ------ ------ ------- --- ----- ---------<br>---- --- -------- -------- --- --- -- ------- --- --- -----<br>-- --- ------ ------- --- --- -------- ---- --------- --<br>---------- -- -------- ----------------",168572.40000000037,168571.7000000002,168016.892,168028.7000000002,168033.562,168583.688,,7,"inhabitants,"
screen,html.Screen,0_4_1_0_1_8,2021-12-02T10:02:22.769Z,,,,,,,,,,,,,,,,11,,,,,,,,,,,,,,2931.911999999633,,response,,,4,C,,,,,Space,keypress(Space),,,,instrumental,----- -- ---- --- -- --- -------- ------------ Rongorongo --<br>- ------- ------ --------- -- ------------ -- --- ---- -----<br>------ ---- ---- ------ ------ ------- --- ----- ---------<br>---- --- -------- -------- --- --- -- ------- --- --- -----<br>-- --- ------ ------- --- --- -------- ---- --------- --<br>---------- -- -------- ----------------,171516.40000000037,171515.59999999963,168567.018,168572.59999999963,168583.688,171517.86,,8,Rongorongo
screen,html.Screen,0_4_1_0_1_9,2021-12-02T10:02:23.585Z,,,,,,,,,,,,,,,,11,,,,,,,,,,,,,,813.5400000003865,,response,,,4,C,,,,,Space,keypress(Space),,,,instrumental,----- -- ---- --- -- --- -------- ------------ ---------- is<br>- ------- ------ --------- -- ------------ -- --- ---- -----<br>------ ---- ---- ------ ------ ------- --- ----- ---------<br>---- --- -------- -------- --- --- -- ------- --- --- -----<br>-- --- ------ ------- --- --- -------- ---- --------- --<br>---------- -- -------- ----------------,172332.2000000002,172331.40000000037,171501.189,171516.7000000002,171517.86,172334.681,,9,is
screen,html.Screen,0_4_1_0_1_10,2021-12-02T10:02:24.081Z,,,,,,,,,,,,,,,,11,,,,,,,,,,,,,,492.8189999999886,,response,,,4,C,,,,,Space,keypress(Space),,,,instrumental,----- -- ---- --- -- --- -------- ------------ ---------- --<br>a ------- ------ --------- -- ------------ -- --- ---- -----<br>------ ---- ---- ------ ------ ------- --- ----- ---------<br>---- --- -------- -------- --- --- -- ------- --- --- -----<br>-- --- ------ ------- --- --- -------- ---- --------- --<br>---------- -- -------- ----------------,172828.2000000002,172827.5,172318.011,172332.5,172334.681,172834.775,,10,a
screen,html.Screen,0_4_1_0_1_11,2021-12-02T10:02:24.617Z,,,,,,,,,,,,,,,,11,,,,,,,,,,,,,,528.5249999998196,,response,,,4,C,,,,,Space,keypress(Space),,,,instrumental,----- -- ---- --- -- --- -------- ------------ ---------- --<br>- writing ------ --------- -- ------------ -- --- ---- -----<br>------ ---- ---- ------ ------ ------- --- ----- ---------<br>---- --- -------- -------- --- --- -- ------- --- --- -----<br>-- --- ------ ------- --- --- -------- ---- --------- --<br>---------- -- -------- ----------------,173364.2000000002,173363.2999999998,172818.105,172828.5,172834.775,173368.332,,11,writing
screen,html.Screen,0_4_1_0_1_12,2021-12-02T10:02:25.129Z,,,,,,,,,,,,,,,,11,,,,,,,,,,,,,,507.06800000037765,,response,,,4,C,,,,,Space,keypress(Space),,,,instrumental,----- -- ---- --- -- --- -------- ------------ ---------- --<br>- ------- system --------- -- ------------ -- --- ---- -----<br>------ ---- ---- ------ ------ ------- --- ----- ---------<br>---- --- -------- -------- --- --- -- ------- --- --- -----<br>-- --- ------ ------- --- --- -------- ---- --------- --<br>---------- -- -------- ----------------,173876.2000000002,173875.40000000037,173351.661,173364.5,173368.332,173885.091,,12,system
screen,html.Screen,0_4_1_0_1_13,2021-12-02T10:02:25.818Z,,,,,,,,,,,,,,,,11,,,,,,,,,,,,,,678.6090000002005,,response,,,4,C,,,,,Space,keypress(Space),,,,instrumental,----- -- ---- --- -- --- -------- ------------ ---------- --<br>- ------- ------ comprised -- ------------ -- --- ---- -----<br>------ ---- ---- ------ ------ ------- --- ----- ---------<br>---- --- -------- -------- --- --- -- ------- --- --- -----<br>-- --- ------ ------- --- --- -------- ---- --------- --<br>---------- -- -------- ----------------,174564.59999999963,174563.7000000002,173868.421,173876.59999999963,173885.091,174568.728,,13,comprised
screen,html.Screen,0_4_1_0_1_14,2021-12-02T10:02:26.257Z,,,,,,,,,,,,,,,,11,,,,,,,,,,,,,,434.57199999981094,,response,,,4,C,,,,,Space,keypress(Space),,,,instrumental,----- -- ---- --- -- --- -------- ------------ ---------- --<br>- ------- ------ --------- of ------------ -- --- ---- -----<br>------ ---- ---- ------ ------ ------- --- ----- ---------<br>---- --- -------- -------- --- --- -- ------- --- --- -----<br>-- --- ------ ------- --- --- -------- ---- --------- --<br>---------- -- -------- ----------------,175004.09999999963,175003.2999999998,174552.056,174564.90000000037,174568.728,175018.774,,14,of
screen,html.Screen,0_4_1_0_1_15,2021-12-02T10:02:27.049Z,,,,,,,,,,,,,,,,11,,,,,,,,,,,,,,776.5259999998088,,response,,,4,C,,,,,Space,keypress(Space),,,,instrumental,----- -- ---- --- -- --- -------- ------------ ---------- --<br>- ------- ------ --------- -- pictographs. -- --- ---- -----<br>------ ---- ---- ------ ------ ------- --- ----- ---------<br>---- --- -------- -------- --- --- -- ------- --- --- -----<br>-- --- ------ ------- --- --- -------- ---- --------- --<br>---------- -- -------- ----------------,175796.09999999963,175795.2999999998,175002.104,175004.40000000037,175018.774,175802.29,,15,pictographs.
screen,html.Screen,0_4_1_0_1_16,2021-12-02T10:02:27.553Z,,,,,,,,,,,,,,,,11,,,,,,,,,,,,,,496.9100000001781,,response,,,4,C,,,,,Space,keypress(Space),,,,instrumental,----- -- ---- --- -- --- -------- ------------ ---------- --<br>- ------- ------ --------- -- ------------ It --- ---- -----<br>------ ---- ---- ------ ------ ------- --- ----- ---------<br>---- --- -------- -------- --- --- -- ------- --- --- -----<br>-- --- ------ ------- --- --- -------- ---- --------- --<br>---------- -- -------- ----------------,176300,176299.2000000002,175785.62,175796.40000000037,175802.29,176302.381,,16,It
screen,html.Screen,0_4_1_0_1_17,2021-12-02T10:02:28.129Z,,,,,,,,,,,,,,,,11,,,,,,,,,,,,,,572.8190000001923,,response,,,4,C,,,,,Space,keypress(Space),,,,instrumental,----- -- ---- --- -- --- -------- ------------ ---------- --<br>- ------- ------ --------- -- ------------ -- has ---- -----<br>------ ---- ---- ------ ------ ------- --- ----- ---------<br>---- --- -------- -------- --- --- -- ------- --- --- -----<br>-- --- ------ ------- --- --- -------- ---- --------- --<br>---------- -- -------- ----------------,176876.09999999963,176875.2000000002,176285.711,176300.2999999998,176302.381,176885.971,,17,has
screen,html.Screen,0_4_1_0_1_18,2021-12-02T10:02:28.625Z,,,,,,,,,,,,,,,,11,,,,,,,,,,,,,,485.2290000001958,,response,,,4,C,,,,,Space,keypress(Space),,,,instrumental,----- -- ---- --- -- --- -------- ------------ ---------- --<br>- ------- ------ --------- -- ------------ -- --- been -----<br>------ ---- ---- ------ ------ ------- --- ----- ---------<br>---- --- -------- -------- --- --- -- ------- --- --- -----<br>-- --- ------ ------- --- --- -------- ---- --------- --<br>---------- -- -------- ----------------,177372,177371.2000000002,176869.3,176876.40000000037,176885.971,177386.065,,18,been
screen,html.Screen,0_4_1_0_1_19,2021-12-02T10:02:29.009Z,,,,,,,,,,,,,,,,11,,,,,,,,,,,,,,369.03499999962514,,response,,,4,C,,,,,Space,keypress(Space),,,,instrumental,----- -- ---- --- -- --- -------- ------------ ---------- --<br>- ------- ------ --------- -- ------------ -- --- ---- found<br>------ ---- ---- ------ ------ ------- --- ----- ---------<br>---- --- -------- -------- --- --- -- ------- --- --- -----<br>-- --- ------ ------- --- --- -------- ---- --------- --<br>---------- -- -------- ----------------,177755.90000000037,177755.09999999963,177369.395,177372.2999999998,177386.065,177769.506,,19,found
screen,html.Screen,0_4_1_0_1_20,2021-12-02T10:02:29.521Z,,,,,,,,,,,,,,,,11,,,,,,,,,,,,,,497.6940000001923,,response,,,4,C,,,,,Space,keypress(Space),,,,instrumental,----- -- ---- --- -- --- -------- ------------ ---------- --<br>- ------- ------ --------- -- ------------ -- --- ---- -----<br>carved ---- ---- ------ ------ ------- --- ----- ---------<br>---- --- -------- -------- --- --- -- ------- --- --- -----<br>-- --- ------ ------- --- --- -------- ---- --------- --<br>---------- -- -------- ----------------,178267.90000000037,178267.2000000002,177752.836,177756.09999999963,177769.506,178269.633,,20,carved
screen,html.Screen,0_4_1_0_1_21,2021-12-02T10:02:30.057Z,,,,,,,,,,,,,,,,11,,,,,,,,,,,,,,533.4669999996258,,response,,,4,C,,,,,Space,keypress(Space),,,,instrumental,----- -- ---- --- -- --- -------- ------------ ---------- --<br>- ------- ------ --------- -- ------------ -- --- ---- -----<br>------ into ---- ------ ------ ------- --- ----- ---------<br>---- --- -------- -------- --- --- -- ------- --- --- -----<br>-- --- ------ ------- --- --- -------- ---- --------- --<br>---------- -- -------- ----------------,178803.90000000037,178803.09999999963,178252.963,178268.2000000002,178269.633,178819.842,,21,into
screen,html.Screen,0_4_1_0_1_22,2021-12-02T10:02:30.513Z,,,,,,,,,,,,,,,,11,,,,,,,,,,,,,,439.1579999999958,,response,,,4,C,,,,,Space,keypress(Space),,,,instrumental,----- -- ---- --- -- --- -------- ------------ ---------- --<br>- ------- ------ --------- -- ------------ -- --- ---- -----<br>------ ---- many ------ ------ ------- --- ----- ---------<br>---- --- -------- -------- --- --- -- ------- --- --- -----<br>-- --- ------ ------- --- --- -------- ---- --------- --<br>---------- -- -------- ----------------,179259.90000000037,179259,178803.171,178804.09999999963,178819.842,179269.882,,22,many
screen,html.Screen,0_4_1_0_1_23,2021-12-02T10:02:31.017Z,,,,,,,,,,,,,,,,11,,,,,,,,,,,,,,493.21799999961513,,response,,,4,C,,,,,Space,keypress(Space),,,,instrumental,----- -- ---- --- -- --- -------- ------------ ---------- --<br>- ------- ------ --------- -- ------------ -- --- ---- -----<br>------ ---- ---- oblong ------ ------- --- ----- ---------<br>---- --- -------- -------- --- --- -- ------- --- --- -----<br>-- --- ------ ------- --- --- -------- ---- --------- --<br>---------- -- -------- ----------------,179763.90000000037,179763.09999999963,179253.212,179260.09999999963,179269.882,179770.031,,23,oblong
screen,html.Screen,0_4_1_0_1_24,2021-12-02T10:02:31.593Z,,,,,,,,,,,,,,,,11,,,,,,,,,,,,,,568.9690000000119,,response,,,4,C,,,,,Space,keypress(Space),,,,instrumental,----- -- ---- --- -- --- -------- ------------ ---------- --<br>- ------- ------ --------- -- ------------ -- --- ---- -----<br>------ ---- ---- ------ wooden ------- --- ----- ---------<br>---- --- -------- -------- --- --- -- ------- --- --- -----<br>-- --- ------ ------- --- --- -------- ---- --------- --<br>---------- -- -------- ----------------,180339.7999999998,180339,179753.361,179764.09999999963,179770.031,180353.512,,24,wooden
screen,html.Screen,0_4_1_0_1_25,2021-12-02T10:02:32.203Z,,,,,,,,,,,,,,,,11,,,,,,,,,,,,,,601.5879999996396,,response,,,4,C,,,,,Space,keypress(Space),,,,instrumental,----- -- ---- --- -- --- -------- ------------ ---------- --<br>- ------- ------ --------- -- ------------ -- --- ---- -----<br>------ ---- ---- ------ ------ tablets --- ----- ---------<br>---- --- -------- -------- --- --- -- ------- --- --- -----<br>-- --- ------ ------- --- --- -------- ---- --------- --<br>---------- -- -------- ----------------,180955.90000000037,180955.09999999963,180336.842,180340,180353.512,180970.338,,25,tablets
screen,html.Screen,0_4_1_0_1_26,2021-12-02T10:02:32.674Z,,,,,,,,,,,,,,,,11,,,,,,,,,,,,,,456.6620000000112,,response,,,4,C,,,,,Space,keypress(Space),,,,instrumental,----- -- ---- --- -- --- -------- ------------ ---------- --<br>- ------- ------ --------- -- ------------ -- --- ---- -----<br>------ ---- ---- ------ ------ ------- and ----- ---------<br>---- --- -------- -------- --- --- -- ------- --- --- -----<br>-- --- ------ ------- --- --- -------- ---- --------- --<br>---------- -- -------- ----------------,181427.7999999998,181427,180953.668,180956.09999999963,180970.338,181437.12,,26,and
screen,html.Screen,0_4_1_0_1_27,2021-12-02T10:02:33.210Z,,,,,,,,,,,,,,,,11,,,,,,,,,,,,,,525.8800000000047,,response,,,4,C,,,,,Space,keypress(Space),,,,instrumental,----- -- ---- --- -- --- -------- ------------ ---------- --<br>- ------- ------ --------- -- ------------ -- --- ---- -----<br>------ ---- ---- ------ ------ ------- --- other ---------<br>---- --- -------- -------- --- --- -- ------- --- --- -----<br>-- --- ------ ------- --- --- -------- ---- --------- --<br>---------- -- -------- ----------------,181963.7999999998,181963,181420.45,181428.09999999963,181437.12,181970.674,,27,other
screen,html.Screen,0_4_1_0_1_28,2021-12-02T10:02:33.834Z,,,,,,,,,,,,,,,,11,,,,,,,,,,,,,,616.3260000000009,,response,,,4,C,,,,,Space,keypress(Space),,,,instrumental,----- -- ---- --- -- --- -------- ------------ ---------- --<br>- ------- ------ --------- -- ------------ -- --- ---- -----<br>------ ---- ---- ------ ------ ------- --- ----- artifacts<br>---- --- -------- -------- --- --- -- ------- --- --- -----<br>-- --- ------ ------- --- --- -------- ---- --------- --<br>---------- -- -------- ----------------,182587.7999999998,182587,181954.003,181964,181970.674,182604.086,,28,artifacts
screen,html.Screen,0_4_1_0_1_29,2021-12-02T10:02:34.730Z,,,,,,,,,,,,,,,,11,,,,,,,,,,,,,,878.8140000003623,,response,,,4,C,,,,,Space,keypress(Space),,,,instrumental,----- -- ---- --- -- --- -------- ------------ ---------- --<br>- ------- ------ --------- -- ------------ -- --- ---- -----<br>------ ---- ---- ------ ------ ------- --- ----- ---------<br>from --- -------- -------- --- --- -- ------- --- --- -----<br>-- --- ------ ------- --- --- -------- ---- --------- --<br>---------- -- -------- ----------------,183483.7000000002,183482.90000000037,182587.416,182588,182604.086,183487.726,,29,from
screen,html.Screen,0_4_1_0_1_30,2021-12-02T10:02:35.138Z,,,,,,,,,,,,,,,,11,,,,,,,,,,,,,,403.1740000003774,,response,,,4,C,,,,,Space,keypress(Space),,,,instrumental,----- -- ---- --- -- --- -------- ------------ ---------- --<br>- ------- ------ --------- -- ------------ -- --- ---- -----<br>------ ---- ---- ------ ------ ------- --- ----- ---------<br>---- the -------- -------- --- --- -- ------- --- --- -----<br>-- --- ------ ------- --- --- -------- ---- --------- --<br>---------- -- -------- ----------------,183891.59999999963,183890.90000000037,183471.055,183483.90000000037,183487.726,183904.476,,30,the
screen,html.Screen,0_4_1_0_1_31,2021-12-02T10:02:35.762Z,,,,,,,,,,,,,,,,11,,,,,,,,,,,,,,610.4240000003774,,response,,,4,C,,,,,Space,keypress(Space),,,,instrumental,----- -- ---- --- -- --- -------- ------------ ---------- --<br>- ------- ------ --------- -- ------------ -- --- ---- -----<br>------ ---- ---- ------ ------ ------- --- ----- ---------<br>---- --- island's -------- --- --- -- ------- --- --- -----<br>-- --- ------ ------- --- --- -------- ---- --------- --<br>---------- -- -------- ----------------,184515.7000000002,184514.90000000037,183887.806,183891.90000000037,183904.476,184521.27,,31,island's
screen,html.Screen,0_4_1_0_1_32,2021-12-02T10:02:36.268Z,,,,,,,,,,,,,,,,11,,,,,,,,,,,,,,497.93000000019674,,response,,,4,C,,,,,Space,keypress(Space),,,,instrumental,----- -- ---- --- -- --- -------- ------------ ---------- --<br>- ------- ------ --------- -- ------------ -- --- ---- -----<br>------ ---- ---- ------ ------ ------- --- ----- ---------<br>---- --- -------- history. --- --- -- ------- --- --- -----<br>-- --- ------ ------- --- --- -------- ---- --------- --<br>---------- -- -------- ----------------,185021.09999999963,185019.2000000002,184504.6,184515.90000000037,184521.27,185038.09,,32,history.
screen,html.Screen,0_4_1_0_1_33,2021-12-02T10:02:36.890Z,,,,,,,,,,,,,,,,11,,,,,,,,,,,,,,604.7099999998172,,response,,,4,C,,,,,Space,keypress(Space),,,,instrumental,----- -- ---- --- -- --- -------- ------------ ---------- --<br>- ------- ------ --------- -- ------------ -- --- ---- -----<br>------ ---- ---- ------ ------ ------- --- ----- ---------<br>---- --- -------- -------- The --- -- ------- --- --- -----<br>-- --- ------ ------- --- --- -------- ---- --------- --<br>---------- -- -------- ----------------,185643.59999999963,185642.7999999998,185021.42,185021.40000000037,185038.09,185654.969,,33,The
screen,html.Screen,0_4_1_0_1_34,2021-12-02T10:02:37.466Z,,,,,,,,,,,,,,,,11,,,,,,,,,,,,,,563.8309999998019,,response,,,4,C,,,,,Space,keypress(Space),,,,instrumental,----- -- ---- --- -- --- -------- ------------ ---------- --<br>- ------- ------ --------- -- ------------ -- --- ---- -----<br>------ ---- ---- ------ ------ ------- --- ----- ---------<br>---- --- -------- -------- --- art -- ------- --- --- -----<br>-- --- ------ ------- --- --- -------- ---- --------- --<br>---------- -- -------- ----------------,186219.5,186218.7999999998,185638.298,185643.7999999998,185654.969,186221.73,,34,art
screen,html.Screen,0_4_1_0_1_35,2021-12-02T10:02:37.914Z,,,,,,,,,,,,,,,,11,,,,,,,,,,,,,,445.06999999980326,,response,,,4,C,,,,,Space,keypress(Space),,,,instrumental,----- -- ---- --- -- --- -------- ------------ ---------- --<br>- ------- ------ --------- -- ------------ -- --- ---- -----<br>------ ---- ---- ------ ------ ------- --- ----- ---------<br>---- --- -------- -------- --- --- of ------- --- --- -----<br>-- --- ------ ------- --- --- -------- ---- --------- --<br>---------- -- -------- ----------------,186667.7000000002,186666.7999999998,186205.06,186219.7000000002,186221.73,186671.872,,35,of
screen,html.Screen,0_4_1_0_1_36,2021-12-02T10:02:38.330Z,,,,,,,,,,,,,,,,11,,,,,,,,,,,,,,410.82800000018324,,response,,,4,C,,,,,Space,keypress(Space),,,,instrumental,----- -- ---- --- -- --- -------- ------------ ---------- --<br>- ------- ------ --------- -- ------------ -- --- ---- -----<br>------ ---- ---- ------ ------ ------- --- ----- ---------<br>---- --- -------- -------- --- --- -- writing --- --- -----<br>-- --- ------ ------- --- --- -------- ---- --------- --<br>---------- -- -------- ----------------,187083.5,187082.7000000002,186655.202,186668,186671.872,187088.64,,36,writing
screen,html.Screen,0_4_1_0_1_37,2021-12-02T10:02:38.722Z,,,,,,,,,,,,,,,,11,,,,,,,,,,,,,,386.15999999979977,,response,,,4,C,,,,,Space,keypress(Space),,,,instrumental,----- -- ---- --- -- --- -------- ------------ ---------- --<br>- ------- ------ --------- -- ------------ -- --- ---- -----<br>------ ---- ---- ------ ------ ------- --- ----- ---------<br>---- --- -------- -------- --- --- -- ------- was --- -----<br>-- --- ------ ------- --- --- -------- ---- --------- --<br>---------- -- -------- ----------------,187475.59999999963,187474.7999999998,187071.97,187083.7999999998,187088.64,187488.756,,37,was
screen,html.Screen,0_4_1_0_1_38,2021-12-02T10:02:39.194Z,,,,,,,,,,,,,,,,11,,,,,,,,,,,,,,458.0439999998198,,response,,,4,C,,,,,Space,keypress(Space),,,,instrumental,----- -- ---- --- -- --- -------- ------------ ---------- --<br>- ------- ------ --------- -- ------------ -- --- ---- -----<br>------ ---- ---- ------ ------ ------- --- ----- ---------<br>---- --- -------- -------- --- --- -- ------- --- not -----<br>-- --- ------ ------- --- --- -------- ---- --------- --<br>---------- -- -------- ----------------,187947.5,187946.7999999998,187472.086,187475.7000000002,187488.756,187955.526,,38,not
screen,html.Screen,0_4_1_0_1_39,2021-12-02T10:02:39.658Z,,,,,,,,,,,,,,,,11,,,,,,,,,,,,,,455.1740000001737,,response,,,4,C,,,,,Space,keypress(Space),,,,instrumental,----- -- ---- --- -- --- -------- ------------ ---------- --<br>- ------- ------ --------- -- ------------ -- --- ---- -----<br>------ ---- ---- ------ ------ ------- --- ----- ---------<br>---- --- -------- -------- --- --- -- ------- --- --- known<br>-- --- ------ ------- --- --- -------- ---- --------- --<br>---------- -- -------- ----------------,188411.40000000037,188410.7000000002,187938.856,187947.7999999998,187955.526,188422.395,,39,known
screen,html.Screen,0_4_1_0_1_40,2021-12-02T10:02:40.146Z,,,,,,,,,,,,,,,,11,,,,,,,,,,,,,,476.20499999963795,,response,,,4,C,,,,,Space,keypress(Space),,,,instrumental,----- -- ---- --- -- --- -------- ------------ ---------- --<br>- ------- ------ --------- -- ------------ -- --- ---- -----<br>------ ---- ---- ------ ------ ------- --- ----- ---------<br>---- --- -------- -------- --- --- -- ------- --- --- -----<br>in --- ------ ------- --- --- -------- ---- --------- --<br>---------- -- -------- ----------------,188899.40000000037,188898.59999999963,188405.724,188411.90000000037,188422.395,188905.677,,40,in
screen,html.Screen,0_4_1_0_1_41,2021-12-02T10:02:40.642Z,,,,,,,,,,,,,,,,11,,,,,,,,,,,,,,488.92299999963143,,response,,,4,C,,,,,Space,keypress(Space),,,,instrumental,----- -- ---- --- -- --- -------- ------------ ---------- --<br>- ------- ------ --------- -- ------------ -- --- ---- -----<br>------ ---- ---- ------ ------ ------- --- ----- ---------<br>---- --- -------- -------- --- --- -- ------- --- --- -----<br>-- any ------ ------- --- --- -------- ---- --------- --<br>---------- -- -------- ----------------,189395.40000000037,189394.59999999963,188889.008,188899.59999999963,188905.677,189406.012,,41,any
screen,html.Screen,0_4_1_0_1_42,2021-12-02T10:02:41.098Z,,,,,,,,,,,,,,,,11,,,,,,,,,,,,,,444.6880000001984,,response,,,4,C,,,,,Space,keypress(Space),,,,instrumental,----- -- ---- --- -- --- -------- ------------ ---------- --<br>- ------- ------ --------- -- ------------ -- --- ---- -----<br>------ ---- ---- ------ ------ ------- --- ----- ---------<br>---- --- -------- -------- --- --- -- ------- --- --- -----<br>-- --- nearby ------- --- --- -------- ---- --------- --<br>---------- -- -------- ----------------,189851.40000000037,189850.7000000002,189389.34,189395.59999999963,189406.012,189856.042,,42,nearby
screen,html.Screen,0_4_1_0_1_43,2021-12-02T10:02:41.538Z,,,,,,,,,,,,,,,,11,,,,,,,,,,,,,,434.55799999964074,,response,,,4,C,,,,,Space,keypress(Space),,,,instrumental,----- -- ---- --- -- --- -------- ------------ ---------- --<br>- ------- ------ --------- -- ------------ -- --- ---- -----<br>------ ---- ---- ------ ------ ------- --- ----- ---------<br>---- --- -------- -------- --- --- -- ------- --- --- -----<br>-- --- ------ islands --- --- -------- ---- --------- --<br>---------- -- -------- ----------------,190291.2999999998,190290.59999999963,189839.372,189851.7000000002,189856.042,190306.208,,43,islands
screen,html.Screen,0_4_1_0_1_44,2021-12-02T10:02:42.010Z,,,,,,,,,,,,,,,,11,,,,,,,,,,,,,,456.3919999996142,,response,,,4,C,,,,,Space,keypress(Space),,,,instrumental,----- -- ---- --- -- --- -------- ------------ ---------- --<br>- ------- ------ --------- -- ------------ -- --- ---- -----<br>------ ---- ---- ------ ------ ------- --- ----- ---------<br>---- --- -------- -------- --- --- -- ------- --- --- -----<br>-- --- ------ ------- and --- -------- ---- --------- --<br>---------- -- -------- ----------------,190763.40000000037,190762.59999999963,190289.537,190291.59999999963,190306.208,190772.961,,44,and
screen,html.Screen,0_4_1_0_1_45,2021-12-02T10:02:42.458Z,,,,,,,,,,,,,,,,11,,,,,,,,,,,,,,437.53899999998976,,response,,,4,C,,,,,Space,keypress(Space),,,,instrumental,----- -- ---- --- -- --- -------- ------------ ---------- --<br>- ------- ------ --------- -- ------------ -- --- ---- -----<br>------ ---- ---- ------ ------ ------- --- ----- ---------<br>---- --- -------- -------- --- --- -- ------- --- --- -----<br>-- --- ------ ------- --- the -------- ---- --------- --<br>---------- -- -------- ----------------,191211.2999999998,191210.5,190756.291,190763.59999999963,190772.961,191223.049,,45,the
screen,html.Screen,0_4_1_0_1_46,2021-12-02T10:02:42.946Z,,,,,,,,,,,,,,,,11,,,,,,,,,,,,,,475.35100000037346,,response,,,4,C,,,,,Space,keypress(Space),,,,instrumental,----- -- ---- --- -- --- -------- ------------ ---------- --<br>- ------- ------ --------- -- ------------ -- --- ---- -----<br>------ ---- ---- ------ ------ ------- --- ----- ---------<br>---- --- -------- -------- --- --- -- ------- --- --- -----<br>-- --- ------ ------- --- --- script's ---- --------- --<br>---------- -- -------- ----------------,191699.2999999998,191698.40000000037,191206.379,191211.59999999963,191223.049,191706.57,,46,script's
screen,html.Screen,0_4_1_0_1_47,2021-12-02T10:02:43.458Z,,,,,,,,,,,,,,,,11,,,,,,,,,,,,,,503.929999999993,,response,,,4,C,,,,,Space,keypress(Space),,,,instrumental,----- -- ---- --- -- --- -------- ------------ ---------- --<br>- ------- ------ --------- -- ------------ -- --- ---- -----<br>------ ---- ---- ------ ------ ------- --- ----- ---------<br>---- --- -------- -------- --- --- -- ------- --- --- -----<br>-- --- ------ ------- --- --- -------- mere --------- --<br>---------- -- -------- ----------------,192211.2000000002,192210.5,191689.899,191699.5,191706.57,192223.226,,47,mere
screen,html.Screen,0_4_1_0_1_48,2021-12-02T10:02:44.058Z,,,,,,,,,,,,,,,,11,,,,,,,,,,,,,,587.2740000000049,,response,,,4,C,,,,,Space,keypress(Space),,,,instrumental,----- -- ---- --- -- --- -------- ------------ ---------- --<br>- ------- ------ --------- -- ------------ -- --- ---- -----<br>------ ---- ---- ------ ------ ------- --- ----- ---------<br>---- --- -------- -------- --- --- -- ------- --- --- -----<br>-- --- ------ ------- --- --- -------- ---- existence --<br>---------- -- -------- ----------------,192811.2999999998,192810.5,192206.557,192211.5,192223.226,192823.613,,48,existence
screen,html.Screen,0_4_1_0_1_49,2021-12-02T10:02:44.650Z,,,,,,,,,,,,,,,,11,,,,,,,,,,,,,,578.8869999999879,,response,,,4,C,,,,,Space,keypress(Space),,,,instrumental,----- -- ---- --- -- --- -------- ------------ ---------- --<br>- ------- ------ --------- -- ------------ -- --- ---- -----<br>------ ---- ---- ------ ------ ------- --- ----- ---------<br>---- --- -------- -------- --- --- -- ------- --- --- -----<br>-- --- ------ ------- --- --- -------- ---- --------- is<br>---------- -- -------- ----------------,193403.2999999998,193402.5,192806.941,192811.5,192823.613,193406.985,,49,is
screen,html.Screen,0_4_1_0_1_50,2021-12-02T10:02:45.274Z,,,,,,,,,,,,,,,,11,,,,,,,,,,,,,,619.515000000014,,response,,,4,C,,,,,Space,keypress(Space),,,,instrumental,----- -- ---- --- -- --- -------- ------------ ---------- --<br>- ------- ------ --------- -- ------------ -- --- ---- -----<br>------ ---- ---- ------ ------ ------- --- ----- ---------<br>---- --- -------- -------- --- --- -- ------- --- --- -----<br>-- --- ------ ------- --- --- -------- ---- --------- --<br>sufficient -- -------- ----------------,194027.2000000002,194026.5,193390.315,193403.5,193406.985,194040.47,,50,sufficient
