sender,sender_type,sender_id,timestamp,meta,,Blues,Classical,Country,Dance,Electronic,Folk,Gospel,Hip-Hop,Jazz,Latin,Musical/Film,New-age,Pop,Provo_ID,R&B,Rap,Reggae,Religious,Rock,Soul,Swing,Traditional,age,artist_name,correct,correctResponse,distraction,duration,education,ended_on,familiarity,gender,item,list,music_frequency,offensiveness,pleasantness,preference,response,response_action,snippet_file,song_name,song_rating,sound,text,time_commit,time_end,time_render,time_run,time_show,time_switch,url,word,word_ID
Instructions,html.Page,0_0,2021-11-12T14:01:47.301Z,"{""labjs_version"":""20.2.3"",""labjs_build"":{""flavor"":""production"",""commit"":""7ea907d66ca8aeef8054924ca5d82ffbe11e34e5""},""location"":""https://run.pavlovia.org/mvasilev/lab_music_b/"",""userAgent"":""Mozilla/5.0 (Windows NT 6.1; Win64; x64) AppleWebKit/537.36 (KHTML, like Gecko) Chrome/95.0.4638.69 Safari/537.36"",""platform"":""Win32"",""language"":""en-US"",""locale"":""en-US"",""timeZone"":""Europe/London"",""timezoneOffset"":0,""screen_width"":1920,""screen_height"":1080,""scroll_width"":1920,""scroll_height"":959,""window_innerWidth"":1920,""window_innerHeight"":1007,""devicePixelRatio"":1}",,,,,,,,,,,,,,,,,,,,,,,,,,,,,39347.55699992848,,form submission,,,,,,,,,,,,,,,,56321.299999952316,56320.199999928474,16955.966,16958.599999904633,16972.643,56329.312,{},,
Headphones,html.Page,0_1,2021-11-12T14:01:49.711Z,,,,,,,,,,,,,,,,,,,,,,,,,,,,,,2401.58799997616,,form submission,,,,,,,,,,,,,,,,58731.299999952316,58730.89999997616,56312.583,56322.09999990463,56329.312,58745.908,,,
Holding screen,html.Screen,0_2_0_0,2021-11-12T14:01:59.721Z,,,,,,,,,,,,,,,,,,,,,,,,,,,,,,10002.64699999999,,timeout,,,,,,,,,,,,,,,,68738.59999990463,68731.884,58729.237,58731.799999952316,58745.908,68748.555,,,
screen,html.Screen,0_2_0_1_0,2021-11-12T14:02:00.689Z,,,,,,,,,,,,,,,,53,,,,,,,,,,,,,,956.7449999523233,,response,,,99,,,,,,Space,keypress(Space),,,,,When -- ----- -- ------ - ------- --- ----------<br>------------- ------ ------ ---- ---- ------- ----- -- ----<br>-------- ------- -- ---------- --- - --- ----- ----- ----<br>---- --- --- ----- --- ---- ---- ------- ----- ---- -------<br>--- --- -- ----- -- --- ---- -- --- ---- -- ------ ------<br>--- ----- -- ----,69706.79999995232,69705.29999995232,68731.884,68739.09999990463,68748.555,69715.551,,0,When
screen,html.Screen,0_2_0_1_1,2021-11-12T14:02:01.112Z,,,,,,,,,,,,,,,,53,,,,,,,,,,,,,,413.74899995230953,,response,,,99,,,,,,Space,keypress(Space),,,,,---- it ----- -- ------ - ------- --- ----------<br>------------- ------ ------ ---- ---- ------- ----- -- ----<br>-------- ------- -- ---------- --- - --- ----- ----- ----<br>---- --- --- ----- --- ---- ---- ------- ----- ---- -------<br>--- --- -- ----- -- --- ---- -- --- ---- -- ------ ------<br>--- ----- -- ----,70130.19999992847,70129.29999995232,69698.88,69707.09999990463,69715.551,70132.301,,1,it
screen,html.Screen,0_2_0_1_2,2021-11-12T14:02:01.552Z,,,,,,,,,,,,,,,,53,,,,,,,,,,,,,,436.69899999999325,,response,,,99,,,,,,Space,keypress(Space),,,,,---- -- comes -- ------ - ------- --- ----------<br>------------- ------ ------ ---- ---- ------- ----- -- ----<br>-------- ------- -- ---------- --- - --- ----- ----- ----<br>---- --- --- ----- --- ---- ---- ------- ----- ---- -------<br>--- --- -- ----- -- --- ---- -- --- ---- -- ------ ------<br>--- ----- -- ----,70569.39999997616,70569,70115.63,70130.5,70132.301,70582.466,,2,comes
screen,html.Screen,0_2_0_1_3,2021-11-12T14:02:01.927Z,,,,,,,,,,,,,,,,53,,,,,,,,,,,,,,362.4339999761578,,response,,,99,,,,,,Space,keypress(Space),,,,,---- -- ----- to ------ - ------- --- ----------<br>------------- ------ ------ ---- ---- ------- ----- -- ----<br>-------- ------- -- ---------- --- - --- ----- ----- ----<br>---- --- --- ----- --- ---- ---- ------- ----- ---- -------<br>--- --- -- ----- -- --- ---- -- --- ---- -- ------ ------<br>--- ----- -- ----,70945.19999992847,70944.89999997616,70565.795,70569.39999997616,70582.466,70949.168,,3,to
screen,html.Screen,0_2_0_1_4,2021-11-12T14:02:02.497Z,,,,,,,,,,,,,,,,53,,,,,,,,,,,,,,564.0319999284693,,response,,,99,,,,,,Space,keypress(Space),,,,,---- -- ----- -- having - ------- --- ----------<br>------------- ------ ------ ---- ---- ------- ----- -- ----<br>-------- ------- -- ---------- --- - --- ----- ----- ----<br>---- --- --- ----- --- ---- ---- ------- ----- ---- -------<br>--- --- -- ----- -- --- ---- -- --- ---- -- ------ ------<br>--- ----- -- ----,71514.39999997616,71513.19999992847,70932.498,70945.39999997616,70949.168,71515.815,,4,having
screen,html.Screen,0_2_0_1_5,2021-11-12T14:02:02.976Z,,,,,,,,,,,,,,,,53,,,,,,,,,,,,,,477.48499995231396,,response,,,99,,,,,,Space,keypress(Space),,,,,---- -- ----- -- ------ a ------- --- ----------<br>------------- ------ ------ ---- ---- ------- ----- -- ----<br>-------- ------- -- ---------- --- - --- ----- ----- ----<br>---- --- --- ----- --- ---- ---- ------- ----- ---- -------<br>--- --- -- ----- -- --- ---- -- --- ---- -- ------ ------<br>--- ----- -- ----,71994.19999992847,71993.29999995232,71499.147,71514.69999992847,71515.815,71999.429,,5,a
screen,html.Screen,0_2_0_1_6,2021-11-12T14:02:03.384Z,,,,,,,,,,,,,,,,53,,,,,,,,,,,,,,401.87099995231256,,response,,,99,,,,,,Space,keypress(Space),,,,,---- -- ----- -- ------ - lasting --- ----------<br>------------- ------ ------ ---- ---- ------- ----- -- ----<br>-------- ------- -- ---------- --- - --- ----- ----- ----<br>---- --- --- ----- --- ---- ---- ------- ----- ---- -------<br>--- --- -- ----- -- --- ---- -- --- ---- -- ------ ------<br>--- ----- -- ----,72402.19999992847,72401.29999995232,71982.758,71994.59999990463,71999.429,72416.347,,6,lasting
screen,html.Screen,0_2_0_1_7,2021-11-12T14:02:03.752Z,,,,,,,,,,,,,,,,53,,,,,,,,,,,,,,352.85299992848013,,response,,,99,,,,,,Space,keypress(Space),,,,,---- -- ----- -- ------ - ------- and ----------<br>------------- ------ ------ ---- ---- ------- ----- -- ----<br>-------- ------- -- ---------- --- - --- ----- ----- ----<br>---- --- --- ----- --- ---- ---- ------- ----- ---- -------<br>--- --- -- ----- -- --- ---- -- --- ---- -- ------ ------<br>--- ----- -- ----,72770.09999990463,72769.19999992847,72399.675,72402.5,72416.347,72783.059,,7,and
screen,html.Screen,0_2_0_1_8,2021-11-12T14:02:04.185Z,,,,,,,,,,,,,,,,53,,,,,,,,,,,,,,418.1409999284806,,response,,,99,,,,,,Space,keypress(Space),,,,,---- -- ----- -- ------ - ------- --- fulfilling<br>------------- ------ ------ ---- ---- ------- ----- -- ----<br>-------- ------- -- ---------- --- - --- ----- ----- ----<br>---- --- --- ----- --- ---- ---- ------- ----- ---- -------<br>--- --- -- ----- -- --- ---- -- --- ---- -- ------ ------<br>--- ----- -- ----,73202.19999992847,73201.19999992847,72766.388,72770.5,72783.059,73216.387,,8,fulfilling
screen,html.Screen,0_2_0_1_9,2021-11-12T14:02:04.600Z,,,,,,,,,,,,,,,,53,,,,,,,,,,,,,,400.812999928472,,response,,,99,,,,,,Space,keypress(Space),,,,,"---- -- ----- -- ------ - ------- --- ----------<br>relationship, ------ ------ ---- ---- ------- ----- -- ----<br>-------- ------- -- ---------- --- - --- ----- ----- ----<br>---- --- --- ----- --- ---- ---- ------- ----- ---- -------<br>--- --- -- ----- -- --- ---- -- --- ---- -- ------ ------<br>--- ----- -- ----",73618.19999992847,73617.19999992847,73199.718,73202.59999990463,73216.387,73633.288,,9,"relationship,"
screen,html.Screen,0_2_0_1_10,2021-11-12T14:02:05.008Z,,,,,,,,,,,,,,,,53,,,,,,,,,,,,,,391.8119999046321,,response,,,99,,,,,,Space,keypress(Space),,,,,---- -- ----- -- ------ - ------- --- ----------<br>------------- common ------ ---- ---- ------- ----- -- ----<br>-------- ------- -- ---------- --- - --- ----- ----- ----<br>---- --- --- ----- --- ---- ---- ------- ----- ---- -------<br>--- --- -- ----- -- --- ---- -- --- ---- -- ------ ------<br>--- ----- -- ----,74026.09999990463,74025.09999990463,73616.617,73618.39999997616,73633.288,74033.373,,10,common
screen,html.Screen,0_2_0_1_11,2021-11-12T14:02:05.489Z,,,,,,,,,,,,,,,,53,,,,,,,,,,,,,,472.2269999046257,,response,,,99,,,,,,Space,keypress(Space),,,,,---- -- ----- -- ------ - ------- --- ----------<br>------------- ------ wisdom ---- ---- ------- ----- -- ----<br>-------- ------- -- ---------- --- - --- ----- ----- ----<br>---- --- --- ----- --- ---- ---- ------- ----- ---- -------<br>--- --- -- ----- -- --- ---- -- --- ---- -- ------ ------<br>--- ----- -- ----,74506.5,74505.59999990463,74016.702,74026.39999997616,74033.373,74516.852,,11,wisdom
screen,html.Screen,0_2_0_1_12,2021-11-12T14:02:05.864Z,,,,,,,,,,,,,,,,53,,,,,,,,,,,,,,364.3479999284755,,response,,,99,,,,,,Space,keypress(Space),,,,,---- -- ----- -- ------ - ------- --- ----------<br>------------- ------ ------ says ---- ------- ----- -- ----<br>-------- ------- -- ---------- --- - --- ----- ----- ----<br>---- --- --- ----- --- ---- ---- ------- ----- ---- -------<br>--- --- -- ----- -- --- ---- -- --- ---- -- ------ ------<br>--- ----- -- ----,74881.89999997616,74881.19999992847,74500.181,74506.69999992847,74516.852,74883.576,,12,says
screen,html.Screen,0_2_0_1_13,2021-11-12T14:02:06.216Z,,,,,,,,,,,,,,,,53,,,,,,,,,,,,,,349.52399990463164,,response,,,99,,,,,,Space,keypress(Space),,,,,---- -- ----- -- ------ - ------- --- ----------<br>------------- ------ ------ ---- that ------- ----- -- ----<br>-------- ------- -- ---------- --- - --- ----- ----- ----<br>---- --- --- ----- --- ---- ---- ------- ----- ---- -------<br>--- --- -- ----- -- --- ---- -- --- ---- -- ------ ------<br>--- ----- -- ----,75233.89999997616,75233.09999990463,74866.906,74882.19999992847,74883.576,75250.384,,13,that
screen,html.Screen,0_2_0_1_14,2021-11-12T14:02:06.576Z,,,,,,,,,,,,,,,,53,,,,,,,,,,,,,,342.7159999046271,,response,,,99,,,,,,Space,keypress(Space),,,,,---- -- ----- -- ------ - ------- --- ----------<br>------------- ------ ------ ---- ---- feeling ----- -- ----<br>-------- ------- -- ---------- --- - --- ----- ----- ----<br>---- --- --- ----- --- ---- ---- ------- ----- ---- -------<br>--- --- -- ----- -- --- ---- -- --- ---- -- ------ ------<br>--- ----- -- ----,75594,75593.09999990463,75233.713,75234.29999995232,75250.384,75600.487,,14,feeling
screen,html.Screen,0_2_0_1_15,2021-11-12T14:02:07.032Z,,,,,,,,,,,,,,,,53,,,,,,,,,,,,,,448.5130000000063,,response,,,99,,,,,,Space,keypress(Space),,,,,---- -- ----- -- ------ - ------- --- ----------<br>------------- ------ ------ ---- ---- ------- close -- ----<br>-------- ------- -- ---------- --- - --- ----- ----- ----<br>---- --- --- ----- --- ---- ---- ------- ----- ---- -------<br>--- --- -- ----- -- --- ---- -- --- ---- -- ------ ------<br>--- ----- -- ----,76049.89999997616,76049,75583.816,75594.09999990463,75600.487,76067.106,,15,close
screen,html.Screen,0_2_0_1_16,2021-11-12T14:02:07.416Z,,,,,,,,,,,,,,,,53,,,,,,,,,,,,,,365.89400000000023,,response,,,99,,,,,,Space,keypress(Space),,,,,---- -- ----- -- ------ - ------- --- ----------<br>------------- ------ ------ ---- ---- ------- ----- to ----<br>-------- ------- -- ---------- --- - --- ----- ----- ----<br>---- --- --- ----- --- ---- ---- ------- ----- ---- -------<br>--- --- -- ----- -- --- ---- -- --- ---- -- ------ ------<br>--- ----- -- ----,76433.89999997616,76433,76050.438,76050.09999990463,76067.106,76450.762,,16,to
screen,html.Screen,0_2_0_1_17,2021-11-12T14:02:07.824Z,,,,,,,,,,,,,,,,53,,,,,,,,,,,,,,390.23799999999756,,response,,,99,,,,,,Space,keypress(Space),,,,,---- -- ----- -- ------ - ------- --- ----------<br>------------- ------ ------ ---- ---- ------- ----- -- your<br>-------- ------- -- ---------- --- - --- ----- ----- ----<br>---- --- --- ----- --- ---- ---- ------- ----- ---- -------<br>--- --- -- ----- -- --- ---- -- --- ---- -- ------ ------<br>--- ----- -- ----,76841.79999995232,76841,76434.09,76434.09999990463,76450.762,76850.64,,17,your
screen,html.Screen,0_2_0_1_18,2021-11-12T14:02:08.240Z,,,,,,,,,,,,,,,,53,,,,,,,,,,,,,,406.45999990463315,,response,,,99,,,,,,Space,keypress(Space),,,,,---- -- ----- -- ------ - ------- --- ----------<br>------------- ------ ------ ---- ---- ------- ----- -- ----<br>romantic ------- -- ---------- --- - --- ----- ----- ----<br>---- --- --- ----- --- ---- ---- ------- ----- ---- -------<br>--- --- -- ----- -- --- ---- -- --- ---- -- ------ ------<br>--- ----- -- ----,77257.89999997616,77257.09999990463,76833.972,76842.09999990463,76850.64,77267.66,,18,romantic
screen,html.Screen,0_2_0_1_19,2021-11-12T14:02:08.544Z,,,,,,,,,,,,,,,,53,,,,,,,,,,,,,,293.3399999999965,,response,,,99,,,,,,Space,keypress(Space),,,,,---- -- ----- -- ------ - ------- --- ----------<br>------------- ------ ------ ---- ---- ------- ----- -- ----<br>-------- partner -- ---------- --- - --- ----- ----- ----<br>---- --- --- ----- --- ---- ---- ------- ----- ---- -------<br>--- --- -- ----- -- --- ---- -- --- ---- -- ------ ------<br>--- ----- -- ----,77561.79999995232,77561,77250.987,77258.09999990463,77267.66,77567.668,,19,partner
screen,html.Screen,0_2_0_1_20,2021-11-12T14:02:08.936Z,,,,,,,,,,,,,,,,53,,,,,,,,,,,,,,385.3319999999949,,response,,,99,,,,,,Space,keypress(Space),,,,,---- -- ----- -- ------ - ------- --- ----------<br>------------- ------ ------ ---- ---- ------- ----- -- ----<br>-------- ------- is ---------- --- - --- ----- ----- ----<br>---- --- --- ----- --- ---- ---- ------- ----- ---- -------<br>--- --- -- ----- -- --- ---- -- --- ---- -- ------ ------<br>--- ----- -- ----,77953.79999995232,77953,77550.997,77562.09999990463,77567.668,77967.775,,20,is
screen,html.Screen,0_2_0_1_21,2021-11-12T14:02:09.280Z,,,,,,,,,,,,,,,,53,,,,,,,,,,,,,,329.2250000000058,,response,,,99,,,,,,Space,keypress(Space),,,,,---- -- ----- -- ------ - ------- --- ----------<br>------------- ------ ------ ---- ---- ------- ----- -- ----<br>-------- ------- -- paramount. --- - --- ----- ----- ----<br>---- --- --- ----- --- ---- ---- ------- ----- ---- -------<br>--- --- -- ----- -- --- ---- -- --- ---- -- ------ ------<br>--- ----- -- ----,78297.79999995232,78297,77951.104,77954.09999990463,77967.775,78301.155,,21,paramount.
screen,html.Screen,0_2_0_1_22,2021-11-12T14:02:09.736Z,,,,,,,,,,,,,,,,53,,,,,,,,,,,,,,451.84500000000116,,response,,,99,,,,,,Space,keypress(Space),,,,,---- -- ----- -- ------ - ------- --- ----------<br>------------- ------ ------ ---- ---- ------- ----- -- ----<br>-------- ------- -- ---------- But - --- ----- ----- ----<br>---- --- --- ----- --- ---- ---- ------- ----- ---- -------<br>--- --- -- ----- -- --- ---- -- --- ---- -- ------ ------<br>--- ----- -- ----,78753.79999995232,78753,78284.485,78298.19999992847,78301.155,78767.991,,22,But
screen,html.Screen,0_2_0_1_23,2021-11-12T14:02:10.128Z,,,,,,,,,,,,,,,,53,,,,,,,,,,,,,,376.9089999761636,,response,,,99,,,,,,Space,keypress(Space),,,,,---- -- ----- -- ------ - ------- --- ----------<br>------------- ------ ------ ---- ---- ------- ----- -- ----<br>-------- ------- -- ---------- --- a --- ----- ----- ----<br>---- --- --- ----- --- ---- ---- ------- ----- ---- -------<br>--- --- -- ----- -- --- ---- -- --- ---- -- ------ ------<br>--- ----- -- ----,79145.69999992847,79144.89999997616,78751.32,78754,78767.991,79151.436,,23,a
screen,html.Screen,0_2_0_1_24,2021-11-12T14:02:10.480Z,,,,,,,,,,,,,,,,53,,,,,,,,,,,,,,345.46399997615663,,response,,,99,,,,,,Space,keypress(Space),,,,,---- -- ----- -- ------ - ------- --- ----------<br>------------- ------ ------ ---- ---- ------- ----- -- ----<br>-------- ------- -- ---------- --- - new ----- ----- ----<br>---- --- --- ----- --- ---- ---- ------- ----- ---- -------<br>--- --- -- ----- -- --- ---- -- --- ---- -- ------ ------<br>--- ----- -- ----,79497.59999990463,79496.89999997616,79134.765,79146,79151.436,79501.398,,24,new
screen,html.Screen,0_2_0_1_25,2021-11-12T14:02:10.864Z,,,,,,,,,,,,,,,,53,,,,,,,,,,,,,,379.5019999761571,,response,,,99,,,,,,Space,keypress(Space),,,,,---- -- ----- -- ------ - ------- --- ----------<br>------------- ------ ------ ---- ---- ------- ----- -- ----<br>-------- ------- -- ---------- --- - --- study ----- ----<br>---- --- --- ----- --- ---- ---- ------- ----- ---- -------<br>--- --- -- ----- -- --- ---- -- --- ---- -- ------ ------<br>--- ----- -- ----,79881.69999992847,79880.89999997616,79484.729,79498,79501.398,79884.989,,25,study
screen,html.Screen,0_2_0_1_26,2021-11-12T14:02:11.264Z,,,,,,,,,,,,,,,,53,,,,,,,,,,,,,,395.91099997615675,,response,,,99,,,,,,Space,keypress(Space),,,,,---- -- ----- -- ------ - ------- --- ----------<br>------------- ------ ------ ---- ---- ------- ----- -- ----<br>-------- ------- -- ---------- --- - --- ----- finds ----<br>---- --- --- ----- --- ---- ---- ------- ----- ---- -------<br>--- --- -- ----- -- --- ---- -- --- ---- -- ------ ------<br>--- ----- -- ----,80281.69999992847,80280.89999997616,79868.317,79882,79884.989,80285.075,,26,finds
screen,html.Screen,0_2_0_1_27,2021-11-12T14:02:11.656Z,,,,,,,,,,,,,,,,53,,,,,,,,,,,,,,387.7249999523192,,response,,,99,,,,,,Space,keypress(Space),,,,,---- -- ----- -- ------ - ------- --- ----------<br>------------- ------ ------ ---- ---- ------- ----- -- ----<br>-------- ------- -- ---------- --- - --- ----- ----- that<br>---- --- --- ----- --- ---- ---- ------- ----- ---- -------<br>--- --- -- ----- -- --- ---- -- --- ---- -- ------ ------<br>--- ----- -- ----,80673.59999990463,80672.79999995232,80268.404,80281.89999997616,80285.075,80685.134,,27,that
screen,html.Screen,0_2_0_1_28,2021-11-12T14:02:12.160Z,,,,,,,,,,,,,,,,53,,,,,,,,,,,,,,491.76599997615267,,response,,,99,,,,,,Space,keypress(Space),,,,,---- -- ----- -- ------ - ------- --- ----------<br>------------- ------ ------ ---- ---- ------- ----- -- ----<br>-------- ------- -- ---------- --- - --- ----- ----- ----<br>it's --- --- ----- --- ---- ---- ------- ----- ---- -------<br>--- --- -- ----- -- --- ---- -- --- ---- -- ------ ------<br>--- ----- -- ----,81177.69999992847,81176.89999997616,80668.464,80673.79999995232,80685.134,81185.298,,28,it's
screen,html.Screen,0_2_0_1_29,2021-11-12T14:02:12.568Z,,,,,,,,,,,,,,,,53,,,,,,,,,,,,,,399.50199995232106,,response,,,99,,,,,,Space,keypress(Space),,,,,---- -- ----- -- ------ - ------- --- ----------<br>------------- ------ ------ ---- ---- ------- ----- -- ----<br>-------- ------- -- ---------- --- - --- ----- ----- ----<br>---- not --- ----- --- ---- ---- ------- ----- ---- -------<br>--- --- -- ----- -- --- ---- -- --- ---- -- ------ ------<br>--- ----- -- ----,81585.69999992847,81584.79999995232,81168.627,81177.89999997616,81185.298,81602.038,,29,not
screen,html.Screen,0_2_0_1_30,2021-11-12T14:02:12.936Z,,,,,,,,,,,,,,,,53,,,,,,,,,,,,,,350.7619999523158,,response,,,99,,,,,,Space,keypress(Space),,,,,---- -- ----- -- ------ - ------- --- ----------<br>------------- ------ ------ ---- ---- ------- ----- -- ----<br>-------- ------- -- ---------- --- - --- ----- ----- ----<br>---- --- how ----- --- ---- ---- ------- ----- ---- -------<br>--- --- -- ----- -- --- ---- -- --- ---- -- ------ ------<br>--- ----- -- ----,81953.59999990463,81952.79999995232,81585.368,81585.89999997616,81602.038,81968.857,,30,how
screen,html.Screen,0_2_0_1_31,2021-11-12T14:02:13.288Z,,,,,,,,,,,,,,,,53,,,,,,,,,,,,,,335.9429999523127,,response,,,99,,,,,,Space,keypress(Space),,,,,---- -- ----- -- ------ - ------- --- ----------<br>------------- ------ ------ ---- ---- ------- ----- -- ----<br>-------- ------- -- ---------- --- - --- ----- ----- ----<br>---- --- --- close --- ---- ---- ------- ----- ---- -------<br>--- --- -- ----- -- --- ---- -- --- ---- -- ------ ------<br>--- ----- -- ----,82305.59999990463,82304.79999995232,81952.186,81953.89999997616,81968.857,82318.788,,31,close
screen,html.Screen,0_2_0_1_32,2021-11-12T14:02:13.704Z,,,,,,,,,,,,,,,,53,,,,,,,,,,,,,,401.91199992847396,,response,,,99,,,,,,Space,keypress(Space),,,,,---- -- ----- -- ------ - ------- --- ----------<br>------------- ------ ------ ---- ---- ------- ----- -- ----<br>-------- ------- -- ---------- --- - --- ----- ----- ----<br>---- --- --- ----- you ---- ---- ------- ----- ---- -------<br>--- --- -- ----- -- --- ---- -- --- ---- -- ------ ------<br>--- ----- -- ----,82721.69999992847,82720.69999992847,82302.12,82305.89999997616,82318.788,82735.786,,32,you
screen,html.Screen,0_2_0_1_33,2021-11-12T14:02:14.104Z,,,,,,,,,,,,,,,,53,,,,,,,,,,,,,,385.0139999523235,,response,,,99,,,,,,Space,keypress(Space),,,,,---- -- ----- -- ------ - ------- --- ----------<br>------------- ------ ------ ---- ---- ------- ----- -- ----<br>-------- ------- -- ---------- --- - --- ----- ----- ----<br>---- --- --- ----- --- feel ---- ------- ----- ---- -------<br>--- --- -- ----- -- --- ---- -- --- ---- -- ------ ------<br>--- ----- -- ----,83121.5,83120.79999995232,82719.113,82722,82735.786,83135.836,,33,feel
screen,html.Screen,0_2_0_1_34,2021-11-12T14:02:14.456Z,,,,,,,,,,,,,,,,53,,,,,,,,,,,,,,336.86399992847873,,response,,,99,,,,,,Space,keypress(Space),,,,,---- -- ----- -- ------ - ------- --- ----------<br>------------- ------ ------ ---- ---- ------- ----- -- ----<br>-------- ------- -- ---------- --- - --- ----- ----- ----<br>---- --- --- ----- --- ---- that ------- ----- ---- -------<br>--- --- -- ----- -- --- ---- -- --- ---- -- ------ ------<br>--- ----- -- ----,83473.5,83472.69999992847,83119.165,83121.79999995232,83135.836,83485.892,,34,that
screen,html.Screen,0_2_0_1_35,2021-11-12T14:02:14.832Z,,,,,,,,,,,,,,,,53,,,,,,,,,,,,,,362.8079999284673,,response,,,99,,,,,,Space,keypress(Space),,,,,---- -- ----- -- ------ - ------- --- ----------<br>------------- ------ ------ ---- ---- ------- ----- -- ----<br>-------- ------- -- ---------- --- - --- ----- ----- ----<br>---- --- --- ----- --- ---- ---- matters ----- ---- -------<br>--- --- -- ----- -- --- ---- -- --- ---- -- ------ ------<br>--- ----- -- ----,83849.5,83848.69999992847,83469.222,83473.79999995232,83485.892,83852.689,,35,matters
screen,html.Screen,0_2_0_1_36,2021-11-12T14:02:15.176Z,,,,,,,,,,,,,,,,53,,,,,,,,,,,,,,340.01099992847594,,response,,,99,,,,,,Space,keypress(Space),,,,,"---- -- ----- -- ------ - ------- --- ----------<br>------------- ------ ------ ---- ---- ------- ----- -- ----<br>-------- ------- -- ---------- --- - --- ----- ----- ----<br>---- --- --- ----- --- ---- ---- ------- most, ---- -------<br>--- --- -- ----- -- --- ---- -- --- ---- -- ------ ------<br>--- ----- -- ----",84193.69999992847,84192.69999992847,83836.018,83849.79999995232,83852.689,84202.808,,36,"most,"
screen,html.Screen,0_2_0_1_37,2021-11-12T14:02:15.672Z,,,,,,,,,,,,,,,,53,,,,,,,,,,,,,,486.291999904628,,response,,,99,,,,,,Space,keypress(Space),,,,,---- -- ----- -- ------ - ------- --- ----------<br>------------- ------ ------ ---- ---- ------- ----- -- ----<br>-------- ------- -- ---------- --- - --- ----- ----- ----<br>---- --- --- ----- --- ---- ---- ------- ----- it's -------<br>--- --- -- ----- -- --- ---- -- --- ---- -- ------ ------<br>--- ----- -- ----,84689.79999995232,84689.09999990463,84186.137,84194,84202.808,84702.861,,37,it's
screen,html.Screen,0_2_0_1_38,2021-11-12T14:02:16.008Z,,,,,,,,,,,,,,,,53,,,,,,,,,,,,,,321.73899990462814,,response,,,99,,,,,,Space,keypress(Space),,,,,---- -- ----- -- ------ - ------- --- ----------<br>------------- ------ ------ ---- ---- ------- ----- -- ----<br>-------- ------- -- ---------- --- - --- ----- ----- ----<br>---- --- --- ----- --- ---- ---- ------- ----- ---- whether<br>--- --- -- ----- -- --- ---- -- --- ---- -- ------ ------<br>--- ----- -- ----,85025.39999997616,85024.59999990463,84686.191,84690.09999990463,84702.861,85036.329,,38,whether
screen,html.Screen,0_2_0_1_39,2021-11-12T14:02:16.376Z,,,,,,,,,,,,,,,,53,,,,,,,,,,,,,,356.27099990463466,,response,,,99,,,,,,Space,keypress(Space),,,,,---- -- ----- -- ------ - ------- --- ----------<br>------------- ------ ------ ---- ---- ------- ----- -- ----<br>-------- ------- -- ---------- --- - --- ----- ----- ----<br>---- --- --- ----- --- ---- ---- ------- ----- ---- -------<br>you --- -- ----- -- --- ---- -- --- ---- -- ------ ------<br>--- ----- -- ----,85393.5,85392.59999990463,85019.658,85025.69999992847,85036.329,85403.1,,39,you
screen,html.Screen,0_2_0_1_40,2021-11-12T14:02:16.720Z,,,,,,,,,,,,,,,,53,,,,,,,,,,,,,,333.5999999284686,,response,,,99,,,,,,Space,keypress(Space),,,,,---- -- ----- -- ------ - ------- --- ----------<br>------------- ------ ------ ---- ---- ------- ----- -- ----<br>-------- ------- -- ---------- --- - --- ----- ----- ----<br>---- --- --- ----- --- ---- ---- ------- ----- ---- -------<br>--- are -- ----- -- --- ---- -- --- ---- -- ------ ------<br>--- ----- -- ----,85737.5,85736.69999992847,85386.429,85393.69999992847,85403.1,85753.197,,40,are
screen,html.Screen,0_2_0_1_41,2021-11-12T14:02:17.040Z,,,,,,,,,,,,,,,,53,,,,,,,,,,,,,,303.40299990463245,,response,,,99,,,,,,Space,keypress(Space),,,,,---- -- ----- -- ------ - ------- --- ----------<br>------------- ------ ------ ---- ---- ------- ----- -- ----<br>-------- ------- -- ---------- --- - --- ----- ----- ----<br>---- --- --- ----- --- ---- ---- ------- ----- ---- -------<br>--- --- as ----- -- --- ---- -- --- ---- -- ------ ------<br>--- ----- -- ----,86057.39999997616,86056.59999990463,85736.526,85737.69999992847,85753.197,86069.861,,41,as
screen,html.Screen,0_2_0_1_42,2021-11-12T14:02:17.400Z,,,,,,,,,,,,,,,,53,,,,,,,,,,,,,,346.73899990462814,,response,,,99,,,,,,Space,keypress(Space),,,,,---- -- ----- -- ------ - ------- --- ----------<br>------------- ------ ------ ---- ---- ------- ----- -- ----<br>-------- ------- -- ---------- --- - --- ----- ----- ----<br>---- --- --- ----- --- ---- ---- ------- ----- ---- -------<br>--- --- -- close -- --- ---- -- --- ---- -- ------ ------<br>--- ----- -- ----,86417.39999997616,86416.59999990463,86053.192,86057.59999990463,86069.861,86420.051,,42,close
screen,html.Screen,0_2_0_1_43,2021-11-12T14:02:17.752Z,,,,,,,,,,,,,,,,53,,,,,,,,,,,,,,348.44899999999325,,response,,,99,,,,,,Space,keypress(Space),,,,,---- -- ----- -- ------ - ------- --- ----------<br>------------- ------ ------ ---- ---- ------- ----- -- ----<br>-------- ------- -- ---------- --- - --- ----- ----- ----<br>---- --- --- ----- --- ---- ---- ------- ----- ---- -------<br>--- --- -- ----- as --- ---- -- --- ---- -- ------ ------<br>--- ----- -- ----,86769.29999995232,86768.5,86403.38,86417.59999990463,86420.051,86786.656,,43,as
screen,html.Screen,0_2_0_1_44,2021-11-12T14:02:18.168Z,,,,,,,,,,,,,,,,53,,,,,,,,,,,,,,397.74399997615546,,response,,,99,,,,,,Space,keypress(Space),,,,,---- -- ----- -- ------ - ------- --- ----------<br>------------- ------ ------ ---- ---- ------- ----- -- ----<br>-------- ------- -- ---------- --- - --- ----- ----- ----<br>---- --- --- ----- --- ---- ---- ------- ----- ---- -------<br>--- --- -- ----- -- you ---- -- --- ---- -- ------ ------<br>--- ----- -- ----,87185.19999992847,87184.39999997616,86769.988,86769.59999990463,86786.656,87186.985,,44,you
screen,html.Screen,0_2_0_1_45,2021-11-12T14:02:18.504Z,,,,,,,,,,,,,,,,53,,,,,,,,,,,,,,333.614999904632,,response,,,99,,,,,,Space,keypress(Space),,,,,---- -- ----- -- ------ - ------- --- ----------<br>------------- ------ ------ ---- ---- ------- ----- -- ----<br>-------- ------- -- ---------- --- - --- ----- ----- ----<br>---- --- --- ----- --- ---- ---- ------- ----- ---- -------<br>--- --- -- ----- -- --- want -- --- ---- -- ------ ------<br>--- ----- -- ----,87521.29999995232,87520.59999990463,87170.312,87185.5,87186.985,87537.012,,45,want
screen,html.Screen,0_2_0_1_46,2021-11-12T14:02:18.832Z,,,,,,,,,,,,,,,,53,,,,,,,,,,,,,,311.48799999999756,,response,,,99,,,,,,Space,keypress(Space),,,,,---- -- ----- -- ------ - ------- --- ----------<br>------------- ------ ------ ---- ---- ------- ----- -- ----<br>-------- ------- -- ---------- --- - --- ----- ----- ----<br>---- --- --- ----- --- ---- ---- ------- ----- ---- -------<br>--- --- -- ----- -- --- ---- to --- ---- -- ------ ------<br>--- ----- -- ----,87849.29999995232,87848.5,87520.341,87521.59999990463,87537.012,87853.762,,46,to
screen,html.Screen,0_2_0_1_47,2021-11-12T14:02:19.192Z,,,,,,,,,,,,,,,,53,,,,,,,,,,,,,,354.73799999999756,,response,,,99,,,,,,Space,keypress(Space),,,,,"---- -- ----- -- ------ - ------- --- ----------<br>------------- ------ ------ ---- ---- ------- ----- -- ----<br>-------- ------- -- ---------- --- - --- ----- ----- ----<br>---- --- --- ----- --- ---- ---- ------- ----- ---- -------<br>--- --- -- ----- -- --- ---- -- be, ---- -- ------ ------<br>--- ----- -- ----",88209.29999995232,88208.5,87837.091,87849.59999990463,87853.762,88220.538,,47,"be,"
screen,html.Screen,0_2_0_1_48,2021-11-12T14:02:19.559Z,,,,,,,,,,,,,,,,53,,,,,,,,,,,,,,355.8619999761577,,response,,,99,,,,,,Space,keypress(Space),,,,,---- -- ----- -- ------ - ------- --- ----------<br>------------- ------ ------ ---- ---- ------- ----- -- ----<br>-------- ------- -- ---------- --- - --- ----- ----- ----<br>---- --- --- ----- --- ---- ---- ------- ----- ---- -------<br>--- --- -- ----- -- --- ---- -- --- even -- ------ ------<br>--- ----- -- ----,88577.29999995232,88576.39999997616,88203.867,88209.5,88220.538,88587.251,,48,even
screen,html.Screen,0_2_0_1_49,2021-11-12T14:02:19.895Z,,,,,,,,,,,,,,,,53,,,,,,,,,,,,,,325.1489999761543,,response,,,99,,,,,,Space,keypress(Space),,,,,---- -- ----- -- ------ - ------- --- ----------<br>------------- ------ ------ ---- ---- ------- ----- -- ----<br>-------- ------- -- ---------- --- - --- ----- ----- ----<br>---- --- --- ----- --- ---- ---- ------- ----- ---- -------<br>--- --- -- ----- -- --- ---- -- --- ---- if ------ ------<br>--- ----- -- ----,88913.19999992847,88912.39999997616,88570.581,88577.5,88587.251,88920.711,,49,if
screen,html.Screen,0_2_0_1_50,2021-11-12T14:02:20.231Z,,,,,,,,,,,,,,,,53,,,,,,,,,,,,,,327.68899997616245,,response,,,99,,,,,,Space,keypress(Space),,,,,---- -- ----- -- ------ - ------- --- ----------<br>------------- ------ ------ ---- ---- ------- ----- -- ----<br>-------- ------- -- ---------- --- - --- ----- ----- ----<br>---- --- --- ----- --- ---- ---- ------- ----- ---- -------<br>--- --- -- ----- -- --- ---- -- --- ---- -- that's ------<br>--- ----- -- ----,89249.19999992847,89248.39999997616,88904.04,88913.5,88920.711,89254.106,,50,that's
screen,html.Screen,0_2_0_1_51,2021-11-12T14:02:20.615Z,,,,,,,,,,,,,,,,53,,,,,,,,,,,,,,378.2939999761584,,response,,,99,,,,,,Space,keypress(Space),,,,,---- -- ----- -- ------ - ------- --- ----------<br>------------- ------ ------ ---- ---- ------- ----- -- ----<br>-------- ------- -- ---------- --- - --- ----- ----- ----<br>---- --- --- ----- --- ---- ---- ------- ----- ---- -------<br>--- --- -- ----- -- --- ---- -- --- ---- -- ------ really<br>--- ----- -- ----,89633.19999992847,89632.39999997616,89237.436,89249.39999997616,89254.106,89637.578,,51,really
screen,html.Screen,0_2_0_1_52,2021-11-12T14:02:21.023Z,,,,,,,,,,,,,,,,53,,,,,,,,,,,,,,402.8219999761641,,response,,,99,,,,,,Space,keypress(Space),,,,,---- -- ----- -- ------ - ------- --- ----------<br>------------- ------ ------ ---- ---- ------- ----- -- ----<br>-------- ------- -- ---------- --- - --- ----- ----- ----<br>---- --- --- ----- --- ---- ---- ------- ----- ---- -------<br>--- --- -- ----- -- --- ---- -- --- ---- -- ------ ------<br>not ----- -- ----,90041.29999995232,90040.39999997616,89620.907,89633.39999997616,89637.578,90054.353,,52,not
screen,html.Screen,0_2_0_1_53,2021-11-12T14:02:21.343Z,,,,,,,,,,,,,,,,53,,,,,,,,,,,,,,305.9469999523135,,response,,,99,,,,,,Space,keypress(Space),,,,,---- -- ----- -- ------ - ------- --- ----------<br>------------- ------ ------ ---- ---- ------- ----- -- ----<br>-------- ------- -- ---------- --- - --- ----- ----- ----<br>---- --- --- ----- --- ---- ---- ------- ----- ---- -------<br>--- --- -- ----- -- --- ---- -- --- ---- -- ------ ------<br>--- close -- ----,90361.09999990463,90360.29999995232,90037.682,90041.39999997616,90054.353,90370.953,,53,close
screen,html.Screen,0_2_0_1_54,2021-11-12T14:02:21.671Z,,,,,,,,,,,,,,,,53,,,,,,,,,,,,,,317.4469999761641,,response,,,99,,,,,,Space,keypress(Space),,,,,---- -- ----- -- ------ - ------- --- ----------<br>------------- ------ ------ ---- ---- ------- ----- -- ----<br>-------- ------- -- ---------- --- - --- ----- ----- ----<br>---- --- --- ----- --- ---- ---- ------- ----- ---- -------<br>--- --- -- ----- -- --- ---- -- --- ---- -- ------ ------<br>--- ----- at ----,90689.19999992847,90688.39999997616,90354.285,90361.29999995232,90370.953,90704.56,,54,at
screen,html.Screen,0_2_0_1_55,2021-11-12T14:02:21.999Z,,,,,,,,,,,,,,,,53,,,,,,,,,,,,,,311.83999997616047,,response,,,99,,,,,,Space,keypress(Space),,,,,---- -- ----- -- ------ - ------- --- ----------<br>------------- ------ ------ ---- ---- ------- ----- -- ----<br>-------- ------- -- ---------- --- - --- ----- ----- ----<br>---- --- --- ----- --- ---- ---- ------- ----- ---- -------<br>--- --- -- ----- -- --- ---- -- --- ---- -- ------ ------<br>--- ----- -- all.,91017.19999992847,91016.39999997616,90687.888,90689.5,90704.56,91037.937,,55,all.
Item 99,flow.Loop,0_2_0_1,2021-11-12T14:02:22.004Z,,,,,,,,,,,,,,,,,,,,,,,,,,,,,,22267.844999976165,,completion,,,,B,,,,,,,,,,silence,,91021.69999992847,91016.39999997616,68731.884,68738.89999997616,68748.555,91037.937,,,
Question 1,html.Screen,0_2_0_2,2021-11-12T14:02:26.176Z,,,,,,,,,,,,,,,,,,,,,,,,,,,true,FALSE,,4154.162999904627,,response,,,99,B,,,,,FALSE,click #choice-2,,,,silence,,95193.5,95192.09999990463,91021.266,91022,91037.937,95205.776,,,
Question 2,html.Screen,0_2_0_3,2021-11-12T14:02:29.335Z,,,,,,,,,,,,,,,,,,,,,,,,,,,true,TRUE,,3146.12399997616,,response,,,99,B,,,,,TRUE,click #choice-1,,,,silence,,98353.09999990463,98351.89999997616,95189.104,95193.69999992847,95205.776,98356.631,,,
Item 99,flow.Sequence,0_2_0,2021-11-12T14:02:29.336Z,,,,,,,,,,,,,,,,,,,,,,,,,,,,,,39605.991999976155,,completion,,,,,,,,,,,,,,,,98353.59999990463,98351.89999997616,58729.237,58731.799999952316,58745.908,98356.631,,,
Holding screen,html.Screen,0_2_1_0,2021-11-12T14:02:39.326Z,,,,,,,,,,,,,,,,,,,,,,,,,,,,,,10002.383000000002,,timeout,,,,,,,,,,,,,,,,108343.89999997616,108342.345,98339.959,98353.89999997616,98356.631,108359.014,,,
screen,html.Screen,0_2_1_1_0,2021-11-12T14:02:40.143Z,,,,,,,,,,,,,,,,54,,,,,,,,,,,,,,801.1859999284789,,response,,,100,,,,,,Space,keypress(Space),,,,,At --- ---- --- ------ ----- ------- ---- -- --- ------- --<br>------- ---------- ------ -- ----- -- ----- -- ---- ------<br>--- ----- --- --- ------ -------- ----- --- ------ ----- --<br>----- ----- ---------- --- --- ------ ------ ---- -- ------<br>------- --- ------ ----- --- ---- ------- -- ---- --- --<br>------- ------,109161,109160.19999992847,108342.345,108344.19999992847,108359.014,109176.177,,0,At
screen,html.Screen,0_2_1_1_1,2021-11-12T14:02:40.479Z,,,,,,,,,,,,,,,,54,,,,,,,,,,,,,,319.4229999046365,,response,,,100,,,,,,Space,keypress(Space),,,,,-- the ---- --- ------ ----- ------- ---- -- --- ------- --<br>------- ---------- ------ -- ----- -- ----- -- ---- ------<br>--- ----- --- --- ------ -------- ----- --- ------ ----- --<br>----- ----- ---------- --- --- ------ ------ ---- -- ------<br>------- --- ------ ----- --- ---- ------- -- ---- --- --<br>------- ------,109496.39999997616,109495.59999990463,109159.506,109161.39999997616,109176.177,109509.591,,1,the
screen,html.Screen,0_2_1_1_2,2021-11-12T14:02:40.807Z,,,,,,,,,,,,,,,,54,,,,,,,,,,,,,,313.90899999999965,,response,,,100,,,,,,Space,keypress(Space),,,,,-- --- time --- ------ ----- ------- ---- -- --- ------- --<br>------- ---------- ------ -- ----- -- ----- -- ---- ------<br>--- ----- --- --- ------ -------- ----- --- ------ ----- --<br>----- ----- ---------- --- --- ------ ------ ---- -- ------<br>------- --- ------ ----- --- ---- ------- -- ---- --- --<br>------- ------,109824.29999995232,109823.5,109492.92,109496.59999990463,109509.591,109826.312,,2,time
screen,html.Screen,0_2_1_1_3,2021-11-12T14:02:41.071Z,,,,,,,,,,,,,,,,54,,,,,,,,,,,,,,261.18799999999464,,response,,,100,,,,,,Space,keypress(Space),,,,,-- --- ---- the ------ ----- ------- ---- -- --- ------- --<br>------- ---------- ------ -- ----- -- ----- -- ---- ------<br>--- ----- --- --- ------ -------- ----- --- ------ ----- --<br>----- ----- ---------- --- --- ------ ------ ---- -- ------<br>------- --- ------ ----- --- ---- ------- -- ---- --- --<br>------- ------,110088.29999995232,110087.5,109809.642,109824.59999990463,109826.312,110093.052,,3,the
screen,html.Screen,0_2_1_1_4,2021-11-12T14:02:41.447Z,,,,,,,,,,,,,,,,54,,,,,,,,,,,,,,370.5479999046365,,response,,,100,,,,,,Space,keypress(Space),,,,,-- --- ---- --- French ----- ------- ---- -- --- ------- --<br>------- ---------- ------ -- ----- -- ----- -- ---- ------<br>--- ----- --- --- ------ -------- ----- --- ------ ----- --<br>----- ----- ---------- --- --- ------ ------ ---- -- ------<br>------- --- ------ ----- --- ---- ------- -- ---- --- --<br>------- ------,110464.29999995232,110463.59999990463,110076.382,110088.5,110093.052,110476.48,,4,French
screen,html.Screen,0_2_1_1_5,2021-11-12T14:02:41.703Z,,,,,,,,,,,,,,,,54,,,,,,,,,,,,,,243.11999990463664,,response,,,100,,,,,,Space,keypress(Space),,,,,-- --- ---- --- ------ crown ------- ---- -- --- ------- --<br>------- ---------- ------ -- ----- -- ----- -- ---- ------<br>--- ----- --- --- ------ -------- ----- --- ------ ----- --<br>----- ----- ---------- --- --- ------ ------ ---- -- ------<br>------- --- ------ ----- --- ---- ------- -- ---- --- --<br>------- ------,110720.5,110719.59999990463,110459.81,110464.59999990463,110476.48,110726.55,,5,crown
screen,html.Screen,0_2_1_1_6,2021-11-12T14:02:42.031Z,,,,,,,,,,,,,,,,54,,,,,,,,,,,,,,320.9499999999971,,response,,,100,,,,,,Space,keypress(Space),,,,,-- --- ---- --- ------ ----- secured ---- -- --- ------- --<br>------- ---------- ------ -- ----- -- ----- -- ---- ------<br>--- ----- --- --- ------ -------- ----- --- ------ ----- --<br>----- ----- ---------- --- --- ------ ------ ---- -- ------<br>------- --- ------ ----- --- ---- ------- -- ---- --- --<br>------- ------,111048.29999995232,111047.5,110709.88,110720.69999992847,110726.55,111059.957,,6,secured
screen,html.Screen,0_2_1_1_7,2021-11-12T14:02:42.287Z,,,,,,,,,,,,,,,,54,,,,,,,,,,,,,,243.54300000000512,,response,,,100,,,,,,Space,keypress(Space),,,,,-- --- ---- --- ------ ----- ------- much -- --- ------- --<br>------- ---------- ------ -- ----- -- ----- -- ---- ------<br>--- ----- --- --- ------ -------- ----- --- ------ ----- --<br>----- ----- ---------- --- --- ------ ------ ---- -- ------<br>------- --- ------ ----- --- ---- ------- -- ---- --- --<br>------- ------,111304.29999995232,111303.5,111043.287,111048.59999990463,111059.957,111310.11,,7,much
screen,html.Screen,0_2_1_1_8,2021-11-12T14:02:42.583Z,,,,,,,,,,,,,,,,54,,,,,,,,,,,,,,289.3899999999994,,response,,,100,,,,,,Space,keypress(Space),,,,,-- --- ---- --- ------ ----- ------- ---- of --- ------- --<br>------- ---------- ------ -- ----- -- ----- -- ---- ------<br>--- ----- --- --- ------ -------- ----- --- ------ ----- --<br>----- ----- ---------- --- --- ------ ------ ---- -- ------<br>------- --- ------ ----- --- ---- ------- -- ---- --- --<br>------- ------,111600.19999992847,111599.5,111293.438,111304.59999990463,111310.11,111610.11,,8,of
screen,html.Screen,0_2_1_1_9,2021-11-12T14:02:42.927Z,,,,,,,,,,,,,,,,54,,,,,,,,,,,,,,333.3899999999994,,response,,,100,,,,,,Space,keypress(Space),,,,,-- --- ---- --- ------ ----- ------- ---- -- its ------- --<br>------- ---------- ------ -- ----- -- ----- -- ---- ------<br>--- ----- --- --- ------ -------- ----- --- ------ ----- --<br>----- ----- ---------- --- --- ------ ------ ---- -- ------<br>------- --- ------ ----- --- ---- ------- -- ---- --- --<br>------- ------,111944.19999992847,111943.5,111593.44,111600.59999990463,111610.11,111960.242,,9,its
screen,html.Screen,0_2_1_1_10,2021-11-12T14:02:43.247Z,,,,,,,,,,,,,,,,54,,,,,,,,,,,,,,303.25800000000163,,response,,,100,,,,,,Space,keypress(Space),,,,,-- --- ---- --- ------ ----- ------- ---- -- --- revenue --<br>------- ---------- ------ -- ----- -- ----- -- ---- ------<br>--- ----- --- --- ------ -------- ----- --- ------ ----- --<br>----- ----- ---------- --- --- ------ ------ ---- -- ------<br>------- --- ------ ----- --- ---- ------- -- ---- --- --<br>------- ------,112264.29999995232,112263.5,111943.571,111944.59999990463,111960.242,112277.002,,10,revenue
screen,html.Screen,0_2_1_1_11,2021-11-12T14:02:43.535Z,,,,,,,,,,,,,,,,54,,,,,,,,,,,,,,274.397999976165,,response,,,100,,,,,,Space,keypress(Space),,,,,-- --- ---- --- ------ ----- ------- ---- -- --- ------- by<br>------- ---------- ------ -- ----- -- ----- -- ---- ------<br>--- ----- --- --- ------ -------- ----- --- ------ ----- --<br>----- ----- ---------- --- --- ------ ------ ---- -- ------<br>------- --- ------ ----- --- ---- ------- -- ---- --- --<br>------- ------,112552.19999992847,112551.39999997616,112260.331,112264.59999990463,112277.002,112560.406,,11,by
screen,html.Screen,0_2_1_1_12,2021-11-12T14:02:43.799Z,,,,,,,,,,,,,,,,54,,,,,,,,,,,,,,254.99399997615546,,response,,,100,,,,,,Space,keypress(Space),,,,,-- --- ---- --- ------ ----- ------- ---- -- --- ------- --<br>issuing ---------- ------ -- ----- -- ----- -- ---- ------<br>--- ----- --- --- ------ -------- ----- --- ------ ----- --<br>----- ----- ---------- --- --- ------ ------ ---- -- ------<br>------- --- ------ ----- --- ---- ------- -- ---- --- --<br>------- ------,112816.19999992847,112815.39999997616,112543.735,112552.5,112560.406,112827.109,,12,issuing
screen,html.Screen,0_2_1_1_13,2021-11-12T14:02:44.094Z,,,,,,,,,,,,,,,,54,,,,,,,,,,,,,,284.2909999761614,,response,,,100,,,,,,Space,keypress(Space),,,,,-- --- ---- --- ------ ----- ------- ---- -- --- ------- --<br>------- government ------ -- ----- -- ----- -- ---- ------<br>--- ----- --- --- ------ -------- ----- --- ------ ----- --<br>----- ----- ---------- --- --- ------ ------ ---- -- ------<br>------- --- ------ ----- --- ---- ------- -- ---- --- --<br>------- ------,113112.19999992847,113111.39999997616,112810.439,112816.5,112827.109,113127.225,,13,government
screen,html.Screen,0_2_1_1_14,2021-11-12T14:02:44.662Z,,,,,,,,,,,,,,,,54,,,,,,,,,,,,,,552.1749999761523,,response,,,100,,,,,,Space,keypress(Space),,,,,-- --- ---- --- ------ ----- ------- ---- -- --- ------- --<br>------- ---------- bonds. -- ----- -- ----- -- ---- ------<br>--- ----- --- --- ------ -------- ----- --- ------ ----- --<br>----- ----- ---------- --- --- ------ ------ ---- -- ------<br>------- --- ------ ----- --- ---- ------- -- ---- --- --<br>------- ------,113680.19999992847,113679.39999997616,113110.554,113112.39999997616,113127.225,113694.036,,14,bonds.
screen,html.Screen,0_2_1_1_15,2021-11-12T14:02:45.222Z,,,,,,,,,,,,,,,,54,,,,,,,,,,,,,,545.2639999523235,,response,,,100,,,,,,Space,keypress(Space),,,,,-- --- ---- --- ------ ----- ------- ---- -- --- ------- --<br>------- ---------- ------ In ----- -- ----- -- ---- ------<br>--- ----- --- --- ------ -------- ----- --- ------ ----- --<br>----- ----- ---------- --- --- ------ ------ ---- -- ------<br>------- --- ------ ----- --- ---- ------- -- ---- --- --<br>------- ------,114240.19999992847,114239.29999995232,113677.365,113680.39999997616,113694.036,114244.196,,15,In
screen,html.Screen,0_2_1_1_16,2021-11-12T14:02:45.550Z,,,,,,,,,,,,,,,,54,,,,,,,,,,,,,,323.20399997616187,,response,,,100,,,,,,Space,keypress(Space),,,,,"-- --- ---- --- ------ ----- ------- ---- -- --- ------- --<br>------- ---------- ------ -- 1727, -- ----- -- ---- ------<br>--- ----- --- --- ------ -------- ----- --- ------ ----- --<br>----- ----- ---------- --- --- ------ ------ ---- -- ------<br>------- --- ------ ----- --- ---- ------- -- ---- --- --<br>------- ------",114568.09999990463,114567.39999997616,114227.525,114240.39999997616,114244.196,114577.612,,16,"1727,"
screen,html.Screen,0_2_1_1_17,2021-11-12T14:02:46.486Z,,,,,,,,,,,,,,,,54,,,,,,,,,,,,,,925.6879999523226,,response,,,100,,,,,,Space,keypress(Space),,,,,-- --- ---- --- ------ ----- ------- ---- -- --- ------- --<br>------- ---------- ------ -- ----- in ----- -- ---- ------<br>--- ----- --- --- ------ -------- ----- --- ------ ----- --<br>----- ----- ---------- --- --- ------ ------ ---- -- ------<br>------- --- ------ ----- --- ---- ------- -- ---- --- --<br>------- ------,115504.19999992847,115503.29999995232,114560.941,114568.39999997616,114577.612,115511.121,,17,in
screen,html.Screen,0_2_1_1_18,2021-11-12T14:02:46.926Z,,,,,,,,,,,,,,,,54,,,,,,,,,,,,,,432.1789999523171,,response,,,100,,,,,,Space,keypress(Space),,,,,-- --- ---- --- ------ ----- ------- ---- -- --- ------- --<br>------- ---------- ------ -- ----- -- order -- ---- ------<br>--- ----- --- --- ------ -------- ----- --- ------ ----- --<br>----- ----- ---------- --- --- ------ ------ ---- -- ------<br>------- --- ------ ----- --- ---- ------- -- ---- --- --<br>------- ------,115944.09999990463,115943.29999995232,115494.451,115504.39999997616,115511.121,115961.304,,18,order
screen,html.Screen,0_2_1_1_19,2021-11-12T14:02:47.222Z,,,,,,,,,,,,,,,,54,,,,,,,,,,,,,,277.99599995231256,,response,,,100,,,,,,Space,keypress(Space),,,,,-- --- ---- --- ------ ----- ------- ---- -- --- ------- --<br>------- ---------- ------ -- ----- -- ----- to ---- ------<br>--- ----- --- --- ------ -------- ----- --- ------ ----- --<br>----- ----- ---------- --- --- ------ ------ ---- -- ------<br>------- --- ------ ----- --- ---- ------- -- ---- --- --<br>------- ------,116240.19999992847,116239.29999995232,115944.633,115944.29999995232,115961.304,116244.724,,19,to
screen,html.Screen,0_2_1_1_20,2021-11-12T14:02:47.502Z,,,,,,,,,,,,,,,,54,,,,,,,,,,,,,,274.5759999523143,,response,,,100,,,,,,Space,keypress(Space),,,,,-- --- ---- --- ------ ----- ------- ---- -- --- ------- --<br>------- ---------- ------ -- ----- -- ----- -- save ------<br>--- ----- --- --- ------ -------- ----- --- ------ ----- --<br>----- ----- ---------- --- --- ------ ------ ---- -- ------<br>------- --- ------ ----- --- ---- ------- -- ---- --- --<br>------- ------,116520.19999992847,116519.29999995232,116228.053,116240.29999995232,116244.724,116528.135,,20,save
screen,html.Screen,0_2_1_1_21,2021-11-12T14:02:47.838Z,,,,,,,,,,,,,,,,54,,,,,,,,,,,,,,327.06499992847966,,response,,,100,,,,,,Space,keypress(Space),,,,,"-- --- ---- --- ------ ----- ------- ---- -- --- ------- --<br>------- ---------- ------ -- ----- -- ----- -- ---- money,<br>--- ----- --- --- ------ -------- ----- --- ------ ----- --<br>----- ----- ---------- --- --- ------ ------ ---- -- ------<br>------- --- ------ ----- --- ---- ------- -- ---- --- --<br>------- ------",116856.09999990463,116855.19999992847,116511.464,116520.29999995232,116528.135,116861.568,,21,"money,"
screen,html.Screen,0_2_1_1_22,2021-11-12T14:02:48.174Z,,,,,,,,,,,,,,,,54,,,,,,,,,,,,,,329.731999952317,,response,,,100,,,,,,Space,keypress(Space),,,,,-- --- ---- --- ------ ----- ------- ---- -- --- ------- --<br>------- ---------- ------ -- ----- -- ----- -- ---- ------<br>the ----- --- --- ------ -------- ----- --- ------ ----- --<br>----- ----- ---------- --- --- ------ ------ ---- -- ------<br>------- --- ------ ----- --- ---- ------- -- ---- --- --<br>------- ------,117192.09999990463,117191.29999995232,116844.897,116856.29999995232,116861.568,117194.959,,22,the
screen,html.Screen,0_2_1_1_23,2021-11-12T14:02:48.446Z,,,,,,,,,,,,,,,,54,,,,,,,,,,,,,,268.24099992847187,,response,,,100,,,,,,Space,keypress(Space),,,,,-- --- ---- --- ------ ----- ------- ---- -- --- ------- --<br>------- ---------- ------ -- ----- -- ----- -- ---- ------<br>--- state --- --- ------ -------- ----- --- ------ ----- --<br>----- ----- ---------- --- --- ------ ------ ---- -- ------<br>------- --- ------ ----- --- ---- ------- -- ---- --- --<br>------- ------,117464,117463.19999992847,117178.289,117192.29999995232,117194.959,117478.394,,23,state
screen,html.Screen,0_2_1_1_24,2021-11-12T14:02:48.774Z,,,,,,,,,,,,,,,,54,,,,,,,,,,,,,,312.90599995231605,,response,,,100,,,,,,Space,keypress(Space),,,,,-- --- ---- --- ------ ----- ------- ---- -- --- ------- --<br>------- ---------- ------ -- ----- -- ----- -- ---- ------<br>--- ----- cut --- ------ -------- ----- --- ------ ----- --<br>----- ----- ---------- --- --- ------ ------ ---- -- ------<br>------- --- ------ ----- --- ---- ------- -- ---- --- --<br>------- ------,117792,117791.29999995232,117461.723,117464.19999992847,117478.394,117795.109,,24,cut
screen,html.Screen,0_2_1_1_25,2021-11-12T14:02:49.094Z,,,,,,,,,,,,,,,,54,,,,,,,,,,,,,,316.0909999284777,,response,,,100,,,,,,Space,keypress(Space),,,,,-- --- ---- --- ------ ----- ------- ---- -- --- ------- --<br>------- ---------- ------ -- ----- -- ----- -- ---- ------<br>--- ----- --- the ------ -------- ----- --- ------ ----- --<br>----- ----- ---------- --- --- ------ ------ ---- -- ------<br>------- --- ------ ----- --- ---- ------- -- ---- --- --<br>------- ------,118112.09999990463,118111.19999992847,117778.439,117792.29999995232,117795.109,118128.59,,25,the
screen,html.Screen,0_2_1_1_26,2021-11-12T14:02:49.574Z,,,,,,,,,,,,,,,,54,,,,,,,,,,,,,,462.6099999284779,,response,,,100,,,,,,Space,keypress(Space),,,,,-- --- ---- --- ------ ----- ------- ---- -- --- ------- --<br>------- ---------- ------ -- ----- -- ----- -- ---- ------<br>--- ----- --- --- bonds' -------- ----- --- ------ ----- --<br>----- ----- ---------- --- --- ------ ------ ---- -- ------<br>------- --- ------ ----- --- ---- ------- -- ---- --- --<br>------- ------,118592,118591.19999992847,118111.919,118112.29999995232,118128.59,118595.305,,26,bonds'
screen,html.Screen,0_2_1_1_27,2021-11-12T14:02:49.926Z,,,,,,,,,,,,,,,,54,,,,,,,,,,,,,,347.79499990463955,,response,,,100,,,,,,Space,keypress(Space),,,,,-- --- ---- --- ------ ----- ------- ---- -- --- ------- --<br>------- ---------- ------ -- ----- -- ----- -- ---- ------<br>--- ----- --- --- ------ interest ----- --- ------ ----- --<br>----- ----- ---------- --- --- ------ ------ ---- -- ------<br>------- --- ------ ----- --- ---- ------- -- ---- --- --<br>------- ------,118944,118943.09999990463,118578.635,118592.19999992847,118595.305,118945.395,,27,interest
screen,html.Screen,0_2_1_1_28,2021-11-12T14:02:50.335Z,,,,,,,,,,,,,,,,54,,,,,,,,,,,,,,406.2049999046285,,response,,,100,,,,,,Space,keypress(Space),,,,,-- --- ---- --- ------ ----- ------- ---- -- --- ------- --<br>------- ---------- ------ -- ----- -- ----- -- ---- ------<br>--- ----- --- --- ------ -------- rate. --- ------ ----- --<br>----- ----- ---------- --- --- ------ ------ ---- -- ------<br>------- --- ------ ----- --- ---- ------- -- ---- --- --<br>------- ------,119352.39999997616,119351.59999990463,118928.725,118944.19999992847,118945.395,119362.243,,28,rate.
screen,html.Screen,0_2_1_1_29,2021-11-12T14:02:50.733Z,,,,,,,,,,,,,,,,54,,,,,,,,,,,,,,388.35699990463036,,response,,,100,,,,,,Space,keypress(Space),,,,,-- --- ---- --- ------ ----- ------- ---- -- --- ------- --<br>------- ---------- ------ -- ----- -- ----- -- ---- ------<br>--- ----- --- --- ------ -------- ----- The ------ ----- --<br>----- ----- ---------- --- --- ------ ------ ---- -- ------<br>------- --- ------ ----- --- ---- ------- -- ---- --- --<br>------- ------,119751,119750.59999990463,119345.572,119352.59999990463,119362.243,119762.304,,29,The
screen,html.Screen,0_2_1_1_30,2021-11-12T14:02:51.190Z,,,,,,,,,,,,,,,,54,,,,,,,,,,,,,,444.8959999284707,,response,,,100,,,,,,Space,keypress(Space),,,,,-- --- ---- --- ------ ----- ------- ---- -- --- ------- --<br>------- ---------- ------ -- ----- -- ----- -- ---- ------<br>--- ----- --- --- ------ -------- ----- --- market ----- --<br>----- ----- ---------- --- --- ------ ------ ---- -- ------<br>------- --- ------ ----- --- ---- ------- -- ---- --- --<br>------- ------,120208,120207.19999992847,119745.634,119751.09999990463,119762.304,120212.429,,30,market
screen,html.Screen,0_2_1_1_31,2021-11-12T14:02:51.569Z,,,,,,,,,,,,,,,,54,,,,,,,,,,,,,,370.67099990462884,,response,,,100,,,,,,Space,keypress(Space),,,,,-- --- ---- --- ------ ----- ------- ---- -- --- ------- --<br>------- ---------- ------ -- ----- -- ----- -- ---- ------<br>--- ----- --- --- ------ -------- ----- --- ------ value --<br>----- ----- ---------- --- --- ------ ------ ---- -- ------<br>------- --- ------ ----- --- ---- ------- -- ---- --- --<br>------- ------,120584,120583.09999990463,120195.758,120208.19999992847,120212.429,120595.675,,31,value
screen,html.Screen,0_2_1_1_32,2021-11-12T14:02:51.881Z,,,,,,,,,,,,,,,,54,,,,,,,,,,,,,,299.42499990462966,,response,,,100,,,,,,Space,keypress(Space),,,,,-- --- ---- --- ------ ----- ------- ---- -- --- ------- --<br>------- ---------- ------ -- ----- -- ----- -- ---- ------<br>--- ----- --- --- ------ -------- ----- --- ------ ----- of<br>----- ----- ---------- --- --- ------ ------ ---- -- ------<br>------- --- ------ ----- --- ---- ------- -- ---- --- --<br>------- ------,120895.89999997616,120895.09999990463,120579.007,120584.19999992847,120595.675,120912.731,,32,of
screen,html.Screen,0_2_1_1_33,2021-11-12T14:02:52.209Z,,,,,,,,,,,,,,,,54,,,,,,,,,,,,,,310.3689999046328,,response,,,100,,,,,,Space,keypress(Space),,,,,-- --- ---- --- ------ ----- ------- ---- -- --- ------- --<br>------- ---------- ------ -- ----- -- ----- -- ---- ------<br>--- ----- --- --- ------ -------- ----- --- ------ ----- --<br>these ----- ---------- --- --- ------ ------ ---- -- ------<br>------- --- ------ ----- --- ---- ------- -- ---- --- --<br>------- ------,121223.79999995232,121223.09999990463,120896.058,120896.09999990463,120912.731,121229.408,,33,these
screen,html.Screen,0_2_1_1_34,2021-11-12T14:02:52.489Z,,,,,,,,,,,,,,,,54,,,,,,,,,,,,,,273.69199990463676,,response,,,100,,,,,,Space,keypress(Space),,,,,-- --- ---- --- ------ ----- ------- ---- -- --- ------- --<br>------- ---------- ------ -- ----- -- ----- -- ---- ------<br>--- ----- --- --- ------ -------- ----- --- ------ ----- --<br>----- bonds ---------- --- --- ------ ------ ---- -- ------<br>------- --- ------ ----- --- ---- ------- -- ---- --- --<br>------- ------,121503.79999995232,121503.09999990463,121212.737,121224.09999990463,121229.408,121512.764,,34,bonds
screen,html.Screen,0_2_1_1_35,2021-11-12T14:02:52.825Z,,,,,,,,,,,,,,,,54,,,,,,,,,,,,,,326.335999904637,,response,,,100,,,,,,Space,keypress(Space),,,,,"-- --- ---- --- ------ ----- ------- ---- -- --- ------- --<br>------- ---------- ------ -- ----- -- ----- -- ---- ------<br>--- ----- --- --- ------ -------- ----- --- ------ ----- --<br>----- ----- plummeted, --- --- ------ ------ ---- -- ------<br>------- --- ------ ----- --- ---- ------- -- ---- --- --<br>------- ------",121839.79999995232,121839.09999990463,121496.094,121504.09999990463,121512.764,121846.249,,35,"plummeted,"
screen,html.Screen,0_2_1_1_36,2021-11-12T14:02:53.097Z,,,,,,,,,,,,,,,,54,,,,,,,,,,,,,,264.75100000000384,,response,,,100,,,,,,Space,keypress(Space),,,,,-- --- ---- --- ------ ----- ------- ---- -- --- ------- --<br>------- ---------- ------ -- ----- -- ----- -- ---- ------<br>--- ----- --- --- ------ -------- ----- --- ------ ----- --<br>----- ----- ---------- and --- ------ ------ ---- -- ------<br>------- --- ------ ----- --- ---- ------- -- ---- --- --<br>------- ------,122111.69999992847,122111,121829.578,121840,121846.249,122112.951,,36,and
screen,html.Screen,0_2_1_1_37,2021-11-12T14:02:53.385Z,,,,,,,,,,,,,,,,54,,,,,,,,,,,,,,286.04899999999907,,response,,,100,,,,,,Space,keypress(Space),,,,,-- --- ---- --- ------ ----- ------- ---- -- --- ------- --<br>------- ---------- ------ -- ----- -- ----- -- ---- ------<br>--- ----- --- --- ------ -------- ----- --- ------ ----- --<br>----- ----- ---------- --- the ------ ------ ---- -- ------<br>------- --- ------ ----- --- ---- ------- -- ---- --- --<br>------- ------,122399.79999995232,122399,122096.281,122111.89999997616,122112.951,122413.051,,37,the
screen,html.Screen,0_2_1_1_38,2021-11-12T14:02:53.793Z,,,,,,,,,,,,,,,,54,,,,,,,,,,,,,,393.94899999999325,,response,,,100,,,,,,Space,keypress(Space),,,,,-- --- ---- --- ------ ----- ------- ---- -- --- ------- --<br>------- ---------- ------ -- ----- -- ----- -- ---- ------<br>--- ----- --- --- ------ -------- ----- --- ------ ----- --<br>----- ----- ---------- --- --- market ------ ---- -- ------<br>------- --- ------ ----- --- ---- ------- -- ---- --- --<br>------- ------,122807.79999995232,122807,122396.38,122400.09999990463,122413.051,122813.115,,38,market
screen,html.Screen,0_2_1_1_39,2021-11-12T14:02:54.073Z,,,,,,,,,,,,,,,,54,,,,,,,,,,,,,,273.88499999999476,,response,,,100,,,,,,Space,keypress(Space),,,,,-- --- ---- --- ------ ----- ------- ---- -- --- ------- --<br>------- ---------- ------ -- ----- -- ----- -- ---- ------<br>--- ----- --- --- ------ -------- ----- --- ------ ----- --<br>----- ----- ---------- --- --- ------ became ---- -- ------<br>------- --- ------ ----- --- ---- ------- -- ---- --- --<br>------- ------,123087.69999992847,123087,122796.445,122808.09999990463,122813.115,123096.583,,39,became
screen,html.Screen,0_2_1_1_40,2021-11-12T14:02:54.385Z,,,,,,,,,,,,,,,,54,,,,,,,,,,,,,,302.4170000000013,,response,,,100,,,,,,Space,keypress(Space),,,,,-- --- ---- --- ------ ----- ------- ---- -- --- ------- --<br>------- ---------- ------ -- ----- -- ----- -- ---- ------<br>--- ----- --- --- ------ -------- ----- --- ------ ----- --<br>----- ----- ---------- --- --- ------ ------ wary -- ------<br>------- --- ------ ----- --- ---- ------- -- ---- --- --<br>------- ------,123399.79999995232,123399,123079.912,123088,123096.583,123413.289,,40,wary
screen,html.Screen,0_2_1_1_41,2021-11-12T14:02:54.665Z,,,,,,,,,,,,,,,,54,,,,,,,,,,,,,,265.7109999999957,,response,,,100,,,,,,Space,keypress(Space),,,,,-- --- ---- --- ------ ----- ------- ---- -- --- ------- --<br>------- ---------- ------ -- ----- -- ----- -- ---- ------<br>--- ----- --- --- ------ -------- ----- --- ------ ----- --<br>----- ----- ---------- --- --- ------ ------ ---- of ------<br>------- --- ------ ----- --- ---- ------- -- ---- --- --<br>------- ------,123679.79999995232,123679,123396.619,123400,123413.289,123696.601,,41,of
screen,html.Screen,0_2_1_1_42,2021-11-12T14:02:54.937Z,,,,,,,,,,,,,,,,54,,,,,,,,,,,,,,254.19899995232117,,response,,,100,,,,,,Space,keypress(Space),,,,,-- --- ---- --- ------ ----- ------- ---- -- --- ------- --<br>------- ---------- ------ -- ----- -- ----- -- ---- ------<br>--- ----- --- --- ------ -------- ----- --- ------ ----- --<br>----- ----- ---------- --- --- ------ ------ ---- -- French<br>------- --- ------ ----- --- ---- ------- -- ---- --- --<br>------- ------,123951.69999992847,123950.79999995232,123679.933,123680.09999990463,123696.601,123963.535,,42,French
screen,html.Screen,0_2_1_1_43,2021-11-12T14:02:55.273Z,,,,,,,,,,,,,,,,54,,,,,,,,,,,,,,323.36499997615465,,response,,,100,,,,,,Space,keypress(Space),,,,,-- --- ---- --- ------ ----- ------- ---- -- --- ------- --<br>------- ---------- ------ -- ----- -- ----- -- ---- ------<br>--- ----- --- --- ------ -------- ----- --- ------ ----- --<br>----- ----- ---------- --- --- ------ ------ ---- -- ------<br>credit. --- ------ ----- --- ---- ------- -- ---- --- --<br>------- ------,124287.69999992847,124286.89999997616,123946.862,123951.89999997616,123963.535,124296.857,,43,credit.
screen,html.Screen,0_2_1_1_44,2021-11-12T14:02:55.593Z,,,,,,,,,,,,,,,,54,,,,,,,,,,,,,,309.9429999523127,,response,,,100,,,,,,Space,keypress(Space),,,,,-- --- ---- --- ------ ----- ------- ---- -- --- ------- --<br>------- ---------- ------ -- ----- -- ----- -- ---- ------<br>--- ----- --- --- ------ -------- ----- --- ------ ----- --<br>----- ----- ---------- --- --- ------ ------ ---- -- ------<br>------- The ------ ----- --- ---- ------- -- ---- --- --<br>------- ------,124607.69999992847,124606.79999995232,124280.187,124287.89999997616,124296.857,124613.697,,44,The
screen,html.Screen,0_2_1_1_45,2021-11-12T14:02:55.881Z,,,,,,,,,,,,,,,,54,,,,,,,,,,,,,,281.202999976158,,response,,,100,,,,,,Space,keypress(Space),,,,,-- --- ---- --- ------ ----- ------- ---- -- --- ------- --<br>------- ---------- ------ -- ----- -- ----- -- ---- ------<br>--- ----- --- --- ------ -------- ----- --- ------ ----- --<br>----- ----- ---------- --- --- ------ ------ ---- -- ------<br>------- --- French ----- --- ---- ------- -- ---- --- --<br>------- ------,124895.69999992847,124894.89999997616,124597.025,124607.89999997616,124613.697,124897.014,,45,French
screen,html.Screen,0_2_1_1_46,2021-11-12T14:02:56.385Z,,,,,,,,,,,,,,,,54,,,,,,,,,,,,,,501.7859999523207,,response,,,100,,,,,,Space,keypress(Space),,,,,-- --- ---- --- ------ ----- ------- ---- -- --- ------- --<br>------- ---------- ------ -- ----- -- ----- -- ---- ------<br>--- ----- --- --- ------ -------- ----- --- ------ ----- --<br>----- ----- ---------- --- --- ------ ------ ---- -- ------<br>------- --- ------ state --- ---- ------- -- ---- --- --<br>------- ------,125399.59999990463,125398.79999995232,124880.344,124895.89999997616,124897.014,125413.849,,46,state
screen,html.Screen,0_2_1_1_47,2021-11-12T14:02:56.681Z,,,,,,,,,,,,,,,,54,,,,,,,,,,,,,,280.9509999523143,,response,,,100,,,,,,Space,keypress(Space),,,,,-- --- ---- --- ------ ----- ------- ---- -- --- ------- --<br>------- ---------- ------ -- ----- -- ----- -- ---- ------<br>--- ----- --- --- ------ -------- ----- --- ------ ----- --<br>----- ----- ---------- --- --- ------ ------ ---- -- ------<br>------- --- ------ ----- was ---- ------- -- ---- --- --<br>------- ------,125695.69999992847,125694.79999995232,125397.178,125399.79999995232,125413.849,125697.2,,47,was
screen,html.Screen,0_2_1_1_48,2021-11-12T14:02:57.113Z,,,,,,,,,,,,,,,,54,,,,,,,,,,,,,,429.5999999523192,,response,,,100,,,,,,Space,keypress(Space),,,,,-- --- ---- --- ------ ----- ------- ---- -- --- ------- --<br>------- ---------- ------ -- ----- -- ----- -- ---- ------<br>--- ----- --- --- ------ -------- ----- --- ------ ----- --<br>----- ----- ---------- --- --- ------ ------ ---- -- ------<br>------- --- ------ ----- --- left ------- -- ---- --- --<br>------- ------,126127.69999992847,126126.79999995232,125680.53,125695.89999997616,125697.2,126130.79,,48,left
screen,html.Screen,0_2_1_1_49,2021-11-12T14:02:57.433Z,,,,,,,,,,,,,,,,54,,,,,,,,,,,,,,316.10999997616454,,response,,,100,,,,,,Space,keypress(Space),,,,,-- --- ---- --- ------ ----- ------- ---- -- --- ------- --<br>------- ---------- ------ -- ----- -- ----- -- ---- ------<br>--- ----- --- --- ------ -------- ----- --- ------ ----- --<br>----- ----- ---------- --- --- ------ ------ ---- -- ------<br>------- --- ------ ----- --- ---- without -- ---- --- --<br>------- ------,126447.59999990463,126446.89999997616,126114.118,126127.89999997616,126130.79,126463.98,,49,without
screen,html.Screen,0_2_1_1_50,2021-11-12T14:02:57.689Z,,,,,,,,,,,,,,,,54,,,,,,,,,,,,,,238.81999995232036,,response,,,100,,,,,,Space,keypress(Space),,,,,-- --- ---- --- ------ ----- ------- ---- -- --- ------- --<br>------- ---------- ------ -- ----- -- ----- -- ---- ------<br>--- ----- --- --- ------ -------- ----- --- ------ ----- --<br>----- ----- ---------- --- --- ------ ------ ---- -- ------<br>------- --- ------ ----- --- ---- ------- an ---- --- --<br>------- ------,126703.59999990463,126702.79999995232,126447.312,126447.89999997616,126463.98,126714.217,,50,an
screen,html.Screen,0_2_1_1_51,2021-11-12T14:02:58.113Z,,,,,,,,,,,,,,,,54,,,,,,,,,,,,,,412.5829999523121,,response,,,100,,,,,,Space,keypress(Space),,,,,-- --- ---- --- ------ ----- ------- ---- -- --- ------- --<br>------- ---------- ------ -- ----- -- ----- -- ---- ------<br>--- ----- --- --- ------ -------- ----- --- ------ ----- --<br>----- ----- ---------- --- --- ------ ------ ---- -- ------<br>------- --- ------ ----- --- ---- ------- -- easy --- --<br>------- ------,127127.59999990463,127126.79999995232,126697.546,126703.89999997616,126714.217,127130.979,,51,easy
screen,html.Screen,0_2_1_1_52,2021-11-12T14:02:58.401Z,,,,,,,,,,,,,,,,54,,,,,,,,,,,,,,283.9209999761515,,response,,,100,,,,,,Space,keypress(Space),,,,,-- --- ---- --- ------ ----- ------- ---- -- --- ------- --<br>------- ---------- ------ -- ----- -- ----- -- ---- ------<br>--- ----- --- --- ------ -------- ----- --- ------ ----- --<br>----- ----- ---------- --- --- ------ ------ ---- -- ------<br>------- --- ------ ----- --- ---- ------- -- ---- way --<br>------- ------,127415.59999990463,127414.89999997616,127114.308,127127.89999997616,127130.979,127431.072,,52,way
screen,html.Screen,0_2_1_1_53,2021-11-12T14:02:58.793Z,,,,,,,,,,,,,,,,54,,,,,,,,,,,,,,375.72799995231617,,response,,,100,,,,,,Space,keypress(Space),,,,,-- --- ---- --- ------ ----- ------- ---- -- --- ------- --<br>------- ---------- ------ -- ----- -- ----- -- ---- ------<br>--- ----- --- --- ------ -------- ----- --- ------ ----- --<br>----- ----- ---------- --- --- ------ ------ ---- -- ------<br>------- --- ------ ----- --- ---- ------- -- ---- --- of<br>------- ------,127807.59999990463,127806.79999995232,127414.401,127415.89999997616,127431.072,127814.501,,53,of
screen,html.Screen,0_2_1_1_54,2021-11-12T14:02:59.129Z,,,,,,,,,,,,,,,,54,,,,,,,,,,,,,,328.29899995231244,,response,,,100,,,,,,Space,keypress(Space),,,,,-- --- ---- --- ------ ----- ------- ---- -- --- ------- --<br>------- ---------- ------ -- ----- -- ----- -- ---- ------<br>--- ----- --- --- ------ -------- ----- --- ------ ----- --<br>----- ----- ---------- --- --- ------ ------ ---- -- ------<br>------- --- ------ ----- --- ---- ------- -- ---- --- --<br>raising ------,128143.59999990463,128142.79999995232,127797.83,127807.79999995232,127814.501,128147.892,,54,raising
screen,html.Screen,0_2_1_1_55,2021-11-12T14:02:59.545Z,,,,,,,,,,,,,,,,54,,,,,,,,,,,,,,410.9079999523092,,response,,,100,,,,,,Space,keypress(Space),,,,,-- --- ---- --- ------ ----- ------- ---- -- --- ------- --<br>------- ---------- ------ -- ----- -- ----- -- ---- ------<br>--- ----- --- --- ------ -------- ----- --- ------ ----- --<br>----- ----- ---------- --- --- ------ ------ ---- -- ------<br>------- --- ------ ----- --- ---- ------- -- ---- --- --<br>------- money.,128559.5,128558.79999995232,128131.222,128143.79999995232,128147.892,128564.708,,55,money.
Item 100,flow.Loop,0_2_1_1,2021-11-12T14:02:59.545Z,,,,,,,,,,,,,,,,,,,,,,,,,,,,,,20199.78599995232,,completion,,,,B,,,,,,,,,,silence,,128560,128558.79999995232,108342.345,108344.09999990463,108359.014,128564.708,,,
Question 1,html.Screen,0_2_1_2,2021-11-12T14:03:02.714Z,,,,,,,,,,,,,,,,,,,,,,,,,,,true,TRUE,,3162.5919999523176,,response,,,100,B,,,,,TRUE,click #choice-1,,,,silence,,131728.5,131727.29999995232,128548.037,128560.09999990463,128564.708,131732.249,,,
Question 2,html.Screen,0_2_1_3,2021-11-12T14:03:04.616Z,,,,,,,,,,,,,,,,,,,,,,,,,,,true,FALSE,,1897.8509999046219,,response,,,100,B,,,,,FALSE,click #choice-2,,,,silence,,133631.09999990463,133630.09999990463,131715.577,131728.79999995232,131732.249,133632.678,,,
Item 100,flow.Sequence,0_2_1,2021-11-12T14:03:04.616Z,,,,,,,,,,,,,,,,,,,,,,,,,,,,,,35273.46899990464,,completion,,,,,,,,,,,,,,,,133631.39999997616,133630.09999990463,98339.959,98353.79999995232,98356.631,133632.678,,,
End of Practice,html.Page,0_2_2,2021-11-12T14:03:09.001Z,,,,,,,,,,,,,,,,,,,,,,,,,,,,,,4383.02199992846,,form submission,,,,,,,,,,,,,,,,138016.29999995232,138015.69999992847,133616.008,133631.59999990463,133632.678,138017.372,,,
Practice,flow.Sequence,0_2,2021-11-12T14:03:09.002Z,,,,,,,,,,,,,,,,,,,,,,,,,,,,,,79269.79199992848,,completion,,,,,,,,,,,,,,,,138016.69999992847,138015.69999992847,58729.237,58731.699999928474,58745.908,138017.372,,,
Trap_instruction,html.Page,0_3_0,2021-11-12T14:03:13.010Z,,,,,,,,,,,,,,,,,,,,,,,,,,,,,,4006.8279999284714,,form submission,,,,,,,,,,,,,,,,142024.79999995232,142024.19999992847,138000.697,138016.89999997616,138017.372,142051.648,,,
trap_trial,html.Screen,0_3_1,2021-11-12T14:03:15.800Z,,,,,,,,,,,,,,,,,,,,,,,,,,,true,1,,2762.15199995233,,response,,,,,,,,,1,click #choice-1,,,,,,144815.09999990463,144813.79999995232,142018.306,142025.09999990463,142051.648,144818.826,,,
end of trap trial,html.Page,0_3_2,2021-11-12T14:03:17.617Z,,,,,,,,,,,,,,,,,,,,,,,,,,,,,,1812.4739999523154,,form submission,,,,,,,,,,,,,,,,146631.89999997616,146631.29999995232,144802.156,144815.39999997616,144818.826,146652.857,,,
Trap 1,flow.Sequence,0_3,2021-11-12T14:03:17.617Z,,,,,,,,,,,,,,,,,,,,,,,,,,,,,,8613.927999952313,,completion,,,,,,,,,,,,,,,,146632.39999997616,146631.29999995232,138000.697,138016.79999995232,138017.372,146652.857,,,
Standby,html.Page,0_4_0,2021-11-12T14:03:25.624Z,,,,,,,,,,,,,,,,,,,,,,,,,,,,,,8001.576000000001,,timeout,,,,,,,,,,,,,,,,154639.29999995232,154637.763,146636.186,146632.69999992847,146652.857,154654.433,,,
Holding screen,html.Screen,0_4_1_0_0,2021-11-12T14:03:32.626Z,,,,,,,,,,,,,,,,,,,,,,,,,,,,,,7002.439000000013,,timeout,,,,,,,,,,,,,,,,161641.19999992847,161640.201,154637.763,154639.69999992847,154654.433,161656.872,,,
screen,html.Screen,0_4_1_0_1_0,2021-11-12T14:03:33.496Z,,,,,,,,,,,,,,,,15,,,,,,,,,,,,,,852.8279999284714,,response,,,7,B,,,,,Space,keypress(Space),,,,lyrical,Greg --------- ---------- - --- ------- -- --- ------------<br>----- -- -------- ------- ---- ------ - -------- ---- -----<br>--- ------- ---- -- --- -------- --- - ----- ------ ---- --<br>-------- --- -------- -------- --- -------- ---- -- ----- -<br>-------- ---- --- ---------- --------- -- ------- ------ -<br>--------- ----- -----,162510.79999995232,162509.69999992847,161640.201,161641.59999990463,161656.872,162523.931,,0,Greg
screen,html.Screen,0_4_1_0_1_1,2021-11-12T14:03:33.839Z,,,,,,,,,,,,,,,,15,,,,,,,,,,,,,,329.268999928463,,response,,,7,B,,,,,Space,keypress(Space),,,,lyrical,"---- Anderson, ---------- - --- ------- -- --- ------------<br>----- -- -------- ------- ---- ------ - -------- ---- -----<br>--- ------- ---- -- --- -------- --- - ----- ------ ---- --<br>-------- --- -------- -------- --- -------- ---- -- ----- -<br>-------- ---- --- ---------- --------- -- ------- ------ -<br>--------- ----- -----",162854,162853.19999992847,162507.259,162511.09999990463,162523.931,162857.19,,1,"Anderson,"
screen,html.Screen,0_4_1_0_1_2,2021-11-12T14:03:34.127Z,,,,,,,,,,,,,,,,15,,,,,,,,,,,,,,284.0099999284721,,response,,,7,B,,,,,Space,keypress(Space),,,,lyrical,---- --------- considered - --- ------- -- --- ------------<br>----- -- -------- ------- ---- ------ - -------- ---- -----<br>--- ------- ---- -- --- -------- --- - ----- ------ ---- --<br>-------- --- -------- -------- --- -------- ---- -- ----- -<br>-------- ---- --- ---------- --------- -- ------- ------ -<br>--------- ----- -----,163142,163141.19999992847,162840.52,162854.29999995232,162857.19,163157.338,,2,considered
screen,html.Screen,0_4_1_0_1_3,2021-11-12T14:03:34.479Z,,,,,,,,,,,,,,,,15,,,,,,,,,,,,,,335.76199990464374,,response,,,7,B,,,,,Space,keypress(Space),,,,lyrical,---- --------- ---------- a --- ------- -- --- ------------<br>----- -- -------- ------- ---- ------ - -------- ---- -----<br>--- ------- ---- -- --- -------- --- - ----- ------ ---- --<br>-------- --- -------- -------- --- -------- ---- -- ----- -<br>-------- ---- --- ---------- --------- -- ------- ------ -<br>--------- ----- -----,163493.89999997616,163493.09999990463,163140.667,163142.29999995232,163157.338,163507.428,,3,a
screen,html.Screen,0_4_1_0_1_4,2021-11-12T14:03:34.751Z,,,,,,,,,,,,,,,,15,,,,,,,,,,,,,,257.77199992846,,response,,,7,B,,,,,Space,keypress(Space),,,,lyrical,---- --------- ---------- - key ------- -- --- ------------<br>----- -- -------- ------- ---- ------ - -------- ---- -----<br>--- ------- ---- -- --- -------- --- - ----- ------ ---- --<br>-------- --- -------- -------- --- -------- ---- -- ----- -<br>-------- ---- --- ---------- --------- -- ------- ------ -<br>--------- ----- -----,163766,163765.19999992847,163490.757,163494.19999992847,163507.428,163774.167,,4,key
screen,html.Screen,0_4_1_0_1_5,2021-11-12T14:03:35.143Z,,,,,,,,,,,,,,,,15,,,,,,,,,,,,,,383.0329999284877,,response,,,7,B,,,,,Space,keypress(Space),,,,lyrical,---- --------- ---------- - --- witness -- --- ------------<br>----- -- -------- ------- ---- ------ - -------- ---- -----<br>--- ------- ---- -- --- -------- --- - ----- ------ ---- --<br>-------- --- -------- -------- --- -------- ---- -- ----- -<br>-------- ---- --- ---------- --------- -- ------- ------ -<br>--------- ----- -----,164158.09999990463,164157.19999992847,163757.496,163766.19999992847,163774.167,164174.273,,5,witness
screen,html.Screen,0_4_1_0_1_6,2021-11-12T14:03:35.439Z,,,,,,,,,,,,,,,,15,,,,,,,,,,,,,,278.92699992848793,,response,,,7,B,,,,,Space,keypress(Space),,,,lyrical,---- --------- ---------- - --- ------- by --- ------------<br>----- -- -------- ------- ---- ------ - -------- ---- -----<br>--- ------- ---- -- --- -------- --- - ----- ------ ---- --<br>-------- --- -------- -------- --- -------- ---- -- ----- -<br>-------- ---- --- ---------- --------- -- ------- ------ -<br>--------- ----- -----,164453.89999997616,164453.19999992847,164157.602,164158.39999997616,164174.273,164457.682,,6,by
screen,html.Screen,0_4_1_0_1_7,2021-11-12T14:03:35.799Z,,,,,,,,,,,,,,,,15,,,,,,,,,,,,,,355.41799990463187,,response,,,7,B,,,,,Space,keypress(Space),,,,lyrical,---- --------- ---------- - --- ------- -- the ------------<br>----- -- -------- ------- ---- ------ - -------- ---- -----<br>--- ------- ---- -- --- -------- --- - ----- ------ ---- --<br>-------- --- -------- -------- --- -------- ---- -- ----- -<br>-------- ---- --- ---------- --------- -- ------- ------ -<br>--------- ----- -----,164814,164813.09999990463,164441.011,164454.09999990463,164457.682,164824.303,,7,the
screen,html.Screen,0_4_1_0_1_8,2021-11-12T14:03:36.135Z,,,,,,,,,,,,,,,,15,,,,,,,,,,,,,,324.79699990461813,,response,,,7,B,,,,,Space,keypress(Space),,,,lyrical,"---- --------- ---------- - --- ------- -- --- prosecution,<br>----- -- -------- ------- ---- ------ - -------- ---- -----<br>--- ------- ---- -- --- -------- --- - ----- ------ ---- --<br>-------- --- -------- -------- --- -------- ---- -- ----- -<br>-------- ---- --- ---------- --------- -- ------- ------ -<br>--------- ----- -----",165150.09999990463,165149.09999990463,164807.635,164814.19999992847,164824.303,165157.974,,8,"prosecution,"
screen,html.Screen,0_4_1_0_1_9,2021-11-12T14:03:36.567Z,,,,,,,,,,,,,,,,15,,,,,,,,,,,,,,423.12599990464514,,response,,,7,B,,,,,Space,keypress(Space),,,,lyrical,---- --------- ---------- - --- ------- -- --- ------------<br>vowed -- -------- ------- ---- ------ - -------- ---- -----<br>--- ------- ---- -- --- -------- --- - ----- ------ ---- --<br>-------- --- -------- -------- --- -------- ---- -- ----- -<br>-------- ---- --- ---------- --------- -- ------- ------ -<br>--------- ----- -----,165581.89999997616,165581.09999990463,165141.301,165150.29999995232,165157.974,165591.273,,9,vowed
screen,html.Screen,0_4_1_0_1_10,2021-11-12T14:03:36.975Z,,,,,,,,,,,,,,,,15,,,,,,,,,,,,,,397.8269999046461,,response,,,7,B,,,,,Space,keypress(Space),,,,lyrical,---- --------- ---------- - --- ------- -- --- ------------<br>----- he -------- ------- ---- ------ - -------- ---- -----<br>--- ------- ---- -- --- -------- --- - ----- ------ ---- --<br>-------- --- -------- -------- --- -------- ---- -- ----- -<br>-------- ---- --- ---------- --------- -- ------- ------ -<br>--------- ----- -----,165989.89999997616,165989.09999990463,165574.603,165582.09999990463,165591.273,165991.379,,10,he
screen,html.Screen,0_4_1_0_1_11,2021-11-12T14:03:37.471Z,,,,,,,,,,,,,,,,15,,,,,,,,,,,,,,493.92099995233,,response,,,7,B,,,,,Space,keypress(Space),,,,lyrical,---- --------- ---------- - --- ------- -- --- ------------<br>----- -- wouldn't ------- ---- ------ - -------- ---- -----<br>--- ------- ---- -- --- -------- --- - ----- ------ ---- --<br>-------- --- -------- -------- --- -------- ---- -- ----- -<br>-------- ---- --- ---------- --------- -- ------- ------ -<br>--------- ----- -----,166486.39999997616,166485.29999995232,165974.709,165990.09999990463,165991.379,166508.244,,11,wouldn't
screen,html.Screen,0_4_1_0_1_12,2021-11-12T14:03:37.951Z,,,,,,,,,,,,,,,,15,,,,,,,,,,,,,,456.8559999046265,,response,,,7,B,,,,,Space,keypress(Space),,,,lyrical,---- --------- ---------- - --- ------- -- --- ------------<br>----- -- -------- testify ---- ------ - -------- ---- -----<br>--- ------- ---- -- --- -------- --- - ----- ------ ---- --<br>-------- --- -------- -------- --- -------- ---- -- ----- -<br>-------- ---- --- ---------- --------- -- ------- ------ -<br>--------- ----- -----,166965.79999995232,166965.09999990463,166491.573,166486.5,166508.244,166975.02,,12,testify
screen,html.Screen,0_4_1_0_1_13,2021-11-12T14:03:38.295Z,,,,,,,,,,,,,,,,15,,,,,,,,,,,,,,334.07999990464305,,response,,,7,B,,,,,Space,keypress(Space),,,,lyrical,---- --------- ---------- - --- ------- -- --- ------------<br>----- -- -------- ------- when ------ - -------- ---- -----<br>--- ------- ---- -- --- -------- --- - ----- ------ ---- --<br>-------- --- -------- -------- --- -------- ---- -- ----- -<br>-------- ---- --- ---------- --------- -- ------- ------ -<br>--------- ----- -----,167309.89999997616,167309.09999990463,166958.349,166966.09999990463,166975.02,167325.133,,13,when
screen,html.Screen,0_4_1_0_1_14,2021-11-12T14:03:38.583Z,,,,,,,,,,,,,,,,15,,,,,,,,,,,,,,271.86699999999837,,response,,,7,B,,,,,Space,keypress(Space),,,,lyrical,---- --------- ---------- - --- ------- -- --- ------------<br>----- -- -------- ------- ---- served - -------- ---- -----<br>--- ------- ---- -- --- -------- --- - ----- ------ ---- --<br>-------- --- -------- -------- --- -------- ---- -- ----- -<br>-------- ---- --- ---------- --------- -- ------- ------ -<br>--------- ----- -----,167598,167597,167308.462,167310.19999992847,167325.133,167608.388,,14,served
screen,html.Screen,0_4_1_0_1_15,2021-11-12T14:03:38.911Z,,,,,,,,,,,,,,,,15,,,,,,,,,,,,,,316.6119999999937,,response,,,7,B,,,,,Space,keypress(Space),,,,lyrical,---- --------- ---------- - --- ------- -- --- ------------<br>----- -- -------- ------- ---- ------ a -------- ---- -----<br>--- ------- ---- -- --- -------- --- - ----- ------ ---- --<br>-------- --- -------- -------- --- -------- ---- -- ----- -<br>-------- ---- --- ---------- --------- -- ------- ------ -<br>--------- ----- -----,167925.79999995232,167925,167591.72,167598.29999995232,167608.388,167942.019,,15,a
screen,html.Screen,0_4_1_0_1_16,2021-11-12T14:03:39.191Z,,,,,,,,,,,,,,,,15,,,,,,,,,,,,,,263.08099990463234,,response,,,7,B,,,,,Space,keypress(Space),,,,lyrical,---- --------- ---------- - --- ------- -- --- ------------<br>----- -- -------- ------- ---- ------ - subpoena ---- -----<br>--- ------- ---- -- --- -------- --- - ----- ------ ---- --<br>-------- --- -------- -------- --- -------- ---- -- ----- -<br>-------- ---- --- ---------- --------- -- ------- ------ -<br>--------- ----- -----,168205.89999997616,168205.09999990463,167925.346,167926,167942.019,168208.64,,16,subpoena
screen,html.Screen,0_4_1_0_1_17,2021-11-12T14:03:39.583Z,,,,,,,,,,,,,,,,15,,,,,,,,,,,,,,388.35999999998603,,response,,,7,B,,,,,Space,keypress(Space),,,,lyrical,---- --------- ---------- - --- ------- -- --- ------------<br>----- -- -------- ------- ---- ------ - -------- last -----<br>--- ------- ---- -- --- -------- --- - ----- ------ ---- --<br>-------- --- -------- -------- --- -------- ---- -- ----- -<br>-------- ---- --- ---------- --------- -- ------- ------ -<br>--------- ----- -----,168597.79999995232,168597,168191.97,168206.19999992847,168208.64,168625.48,,17,last
screen,html.Screen,0_4_1_0_1_18,2021-11-12T14:03:39.879Z,,,,,,,,,,,,,,,,15,,,,,,,,,,,,,,267.3199999523058,,response,,,7,B,,,,,Space,keypress(Space),,,,lyrical,---- --------- ---------- - --- ------- -- --- ------------<br>----- -- -------- ------- ---- ------ - -------- ---- week.<br>--- ------- ---- -- --- -------- --- - ----- ------ ---- --<br>-------- --- -------- -------- --- -------- ---- -- ----- -<br>-------- ---- --- ---------- --------- -- ------- ------ -<br>--------- ----- -----,168893.69999992847,168892.79999995232,168608.809,168598,168625.48,168908.72,,18,week.
screen,html.Screen,0_4_1_0_1_19,2021-11-12T14:03:40.303Z,,,,,,,,,,,,,,,,15,,,,,,,,,,,,,,408.27999999999884,,response,,,7,B,,,,,Space,keypress(Space),,,,lyrical,---- --------- ---------- - --- ------- -- --- ------------<br>----- -- -------- ------- ---- ------ - -------- ---- -----<br>His ------- ---- -- --- -------- --- - ----- ------ ---- --<br>-------- --- -------- -------- --- -------- ---- -- ----- -<br>-------- ---- --- ---------- --------- -- ------- ------ -<br>--------- ----- -----,169317.69999992847,169317,168892.052,168894,168908.72,169325.609,,19,His
screen,html.Screen,0_4_1_0_1_20,2021-11-12T14:03:40.655Z,,,,,,,,,,,,,,,,15,,,,,,,,,,,,,,343.39100000000326,,response,,,7,B,,,,,Space,keypress(Space),,,,lyrical,---- --------- ---------- - --- ------- -- --- ------------<br>----- -- -------- ------- ---- ------ - -------- ---- -----<br>--- lawyers ---- -- --- -------- --- - ----- ------ ---- --<br>-------- --- -------- -------- --- -------- ---- -- ----- -<br>-------- ---- --- ---------- --------- -- ------- ------ -<br>--------- ----- -----,169669.69999992847,169669,169308.938,169317.89999997616,169325.609,169675.855,,20,lawyers
screen,html.Screen,0_4_1_0_1_21,2021-11-12T14:03:41.023Z,,,,,,,,,,,,,,,,15,,,,,,,,,,,,,,361.04499997614766,,response,,,7,B,,,,,Space,keypress(Space),,,,lyrical,---- --------- ---------- - --- ------- -- --- ------------<br>----- -- -------- ------- ---- ------ - -------- ---- -----<br>--- ------- said -- --- -------- --- - ----- ------ ---- --<br>-------- --- -------- -------- --- -------- ---- -- ----- -<br>-------- ---- --- ---------- --------- -- ------- ------ -<br>--------- ----- -----,170037.59999990463,170036.89999997616,169659.182,169669.89999997616,169675.855,170042.423,,21,said
screen,html.Screen,0_4_1_0_1_22,2021-11-12T14:03:41.311Z,,,,,,,,,,,,,,,,15,,,,,,,,,,,,,,282.5769999999902,,response,,,7,B,,,,,Space,keypress(Space),,,,lyrical,---- --------- ---------- - --- ------- -- --- ------------<br>----- -- -------- ------- ---- ------ - -------- ---- -----<br>--- ------- ---- he --- -------- --- - ----- ------ ---- --<br>-------- --- -------- -------- --- -------- ---- -- ----- -<br>-------- ---- --- ---------- --------- -- ------- ------ -<br>--------- ----- -----,170325.69999992847,170325,170025.754,170037.89999997616,170042.423,170342.594,,22,he
screen,html.Screen,0_4_1_0_1_23,2021-11-12T14:03:41.639Z,,,,,,,,,,,,,,,,15,,,,,,,,,,,,,,310.30599997614627,,response,,,7,B,,,,,Space,keypress(Space),,,,lyrical,---- --------- ---------- - --- ------- -- --- ------------<br>----- -- -------- ------- ---- ------ - -------- ---- -----<br>--- ------- ---- -- was -------- --- - ----- ------ ---- --<br>-------- --- -------- -------- --- -------- ---- -- ----- -<br>-------- ---- --- ---------- --------- -- ------- ------ -<br>--------- ----- -----,170653.59999990463,170652.89999997616,170325.923,170326,170342.594,170659.367,,23,was
screen,html.Screen,0_4_1_0_1_24,2021-11-12T14:03:41.951Z,,,,,,,,,,,,,,,,15,,,,,,,,,,,,,,305.5329999761598,,response,,,7,B,,,,,Space,keypress(Space),,,,lyrical,---- --------- ---------- - --- ------- -- --- ------------<br>----- -- -------- ------- ---- ------ - -------- ---- -----<br>--- ------- ---- -- --- prepared --- - ----- ------ ---- --<br>-------- --- -------- -------- --- -------- ---- -- ----- -<br>-------- ---- --- ---------- --------- -- ------- ------ -<br>--------- ----- -----,170965.69999992847,170964.89999997616,170642.696,170653.89999997616,170659.367,170976.077,,24,prepared
screen,html.Screen,0_4_1_0_1_25,2021-11-12T14:03:42.359Z,,,,,,,,,,,,,,,,15,,,,,,,,,,,,,,396.72299995232606,,response,,,7,B,,,,,Space,keypress(Space),,,,lyrical,---- --------- ---------- - --- ------- -- --- ------------<br>----- -- -------- ------- ---- ------ - -------- ---- -----<br>--- ------- ---- -- --- -------- for - ----- ------ ---- --<br>-------- --- -------- -------- --- -------- ---- -- ----- -<br>-------- ---- --- ---------- --------- -- ------- ------ -<br>--------- ----- -----,171373.59999990463,171372.79999995232,170959.407,170965.89999997616,170976.077,171376.049,,25,for
screen,html.Screen,0_4_1_0_1_26,2021-11-12T14:03:42.655Z,,,,,,,,,,,,,,,,15,,,,,,,,,,,,,,292.8509999761591,,response,,,7,B,,,,,Space,keypress(Space),,,,lyrical,---- --------- ---------- - --- ------- -- --- ------------<br>----- -- -------- ------- ---- ------ - -------- ---- -----<br>--- ------- ---- -- --- -------- --- a ----- ------ ---- --<br>-------- --- -------- -------- --- -------- ---- -- ----- -<br>-------- ---- --- ---------- --------- -- ------- ------ -<br>--------- ----- -----,171669.79999995232,171668.89999997616,171359.381,171373.79999995232,171376.049,171676.241,,26,a
screen,html.Screen,0_4_1_0_1_27,2021-11-12T14:03:42.975Z,,,,,,,,,,,,,,,,15,,,,,,,,,,,,,,312.65899997614906,,response,,,7,B,,,,,Space,keypress(Space),,,,lyrical,---- --------- ---------- - --- ------- -- --- ------------<br>----- -- -------- ------- ---- ------ - -------- ---- -----<br>--- ------- ---- -- --- -------- --- - third ------ ---- --<br>-------- --- -------- -------- --- -------- ---- -- ----- -<br>-------- ---- --- ---------- --------- -- ------- ------ -<br>--------- ----- -----,171989.59999990463,171988.89999997616,171659.57,171670,171676.241,171993.077,,27,third
screen,html.Screen,0_4_1_0_1_28,2021-11-12T14:03:43.303Z,,,,,,,,,,,,,,,,15,,,,,,,,,,,,,,323.8229999761679,,response,,,7,B,,,,,Space,keypress(Space),,,,lyrical,---- --------- ---------- - --- ------- -- --- ------------<br>----- -- -------- ------- ---- ------ - -------- ---- -----<br>--- ------- ---- -- --- -------- --- - ----- prison ---- --<br>-------- --- -------- -------- --- -------- ---- -- ----- -<br>-------- ---- --- ---------- --------- -- ------- ------ -<br>--------- ----- -----,172317.69999992847,172316.89999997616,171976.405,171989.79999995232,171993.077,172326.479,,28,prison
screen,html.Screen,0_4_1_0_1_29,2021-11-12T14:03:43.639Z,,,,,,,,,,,,,,,,15,,,,,,,,,,,,,,326.72099992848234,,response,,,7,B,,,,,Space,keypress(Space),,,,lyrical,---- --------- ---------- - --- ------- -- --- ------------<br>----- -- -------- ------- ---- ------ - -------- ---- -----<br>--- ------- ---- -- --- -------- --- - ----- ------ stay --<br>-------- --- -------- -------- --- -------- ---- -- ----- -<br>-------- ---- --- ---------- --------- -- ------- ------ -<br>--------- ----- -----,172653.89999997616,172653.19999992847,172309.808,172317.89999997616,172326.479,172659.86,,29,stay
screen,html.Screen,0_4_1_0_1_30,2021-11-12T14:03:44.063Z,,,,,,,,,,,,,,,,15,,,,,,,,,,,,,,417.0399999761721,,response,,,7,B,,,,,Space,keypress(Space),,,,lyrical,---- --------- ---------- - --- ------- -- --- ------------<br>----- -- -------- ------- ---- ------ - -------- ---- -----<br>--- ------- ---- -- --- -------- --- - ----- ------ ---- to<br>-------- --- -------- -------- --- -------- ---- -- ----- -<br>-------- ---- --- ---------- --------- -- ------- ------ -<br>--------- ----- -----,173077.69999992847,173076.89999997616,172643.19,172654.09999990463,172659.86,173093.159,,30,to
screen,html.Screen,0_4_1_0_1_31,2021-11-12T14:03:44.367Z,,,,,,,,,,,,,,,,15,,,,,,,,,,,,,,287.6409999523021,,response,,,7,B,,,,,Space,keypress(Space),,,,lyrical,---- --------- ---------- - --- ------- -- --- ------------<br>----- -- -------- ------- ---- ------ - -------- ---- -----<br>--- ------- ---- -- --- -------- --- - ----- ------ ---- --<br>maintain --- -------- -------- --- -------- ---- -- ----- -<br>-------- ---- --- ---------- --------- -- ------- ------ -<br>--------- ----- -----,173381.59999990463,173380.79999995232,173076.491,173078,173093.159,173393.409,,31,maintain
screen,html.Screen,0_4_1_0_1_32,2021-11-12T14:03:44.799Z,,,,,,,,,,,,,,,,15,,,,,,,,,,,,,,419.2909999284602,,response,,,7,B,,,,,Space,keypress(Space),,,,lyrical,---- --------- ---------- - --- ------- -- --- ------------<br>----- -- -------- ------- ---- ------ - -------- ---- -----<br>--- ------- ---- -- --- -------- --- - ----- ------ ---- --<br>-------- his -------- -------- --- -------- ---- -- ----- -<br>-------- ---- --- ---------- --------- -- ------- ------ -<br>--------- ----- -----,173813.5,173812.69999992847,173376.738,173381.79999995232,173393.409,173826.778,,32,his
screen,html.Screen,0_4_1_0_1_33,2021-11-12T14:03:45.119Z,,,,,,,,,,,,,,,,15,,,,,,,,,,,,,,305.9219999284833,,response,,,7,B,,,,,Space,keypress(Space),,,,lyrical,---- --------- ---------- - --- ------- -- --- ------------<br>----- -- -------- ------- ---- ------ - -------- ---- -----<br>--- ------- ---- -- --- -------- --- - ----- ------ ---- --<br>-------- --- silence. -------- --- -------- ---- -- ----- -<br>-------- ---- --- ---------- --------- -- ------- ------ -<br>--------- ----- -----,174133.5,174132.69999992847,173810.108,173813.79999995232,173826.778,174143.695,,33,silence.
screen,html.Screen,0_4_1_0_1_34,2021-11-12T14:03:45.567Z,,,,,,,,,,,,,,,,15,,,,,,,,,,,,,,437.00499992846744,,response,,,7,B,,,,,Space,keypress(Space),,,,lyrical,---- --------- ---------- - --- ------- -- --- ------------<br>----- -- -------- ------- ---- ------ - -------- ---- -----<br>--- ------- ---- -- --- -------- --- - ----- ------ ---- --<br>-------- --- -------- Anderson --- -------- ---- -- ----- -<br>-------- ---- --- ---------- --------- -- ------- ------ -<br>--------- ----- -----,174581.5,174580.69999992847,174127.022,174133.69999992847,174143.695,174593.739,,34,Anderson
screen,html.Screen,0_4_1_0_1_35,2021-11-12T14:03:46.031Z,,,,,,,,,,,,,,,,15,,,,,,,,,,,,,,450.96099992847303,,response,,,7,B,,,,,Space,keypress(Space),,,,lyrical,---- --------- ---------- - --- ------- -- --- ------------<br>----- -- -------- ------- ---- ------ - -------- ---- -----<br>--- ------- ---- -- --- -------- --- - ----- ------ ---- --<br>-------- --- -------- -------- was -------- ---- -- ----- -<br>-------- ---- --- ---------- --------- -- ------- ------ -<br>--------- ----- -----,175045.5,175044.69999992847,174577.068,174581.79999995232,174593.739,175060.531,,35,was
screen,html.Screen,0_4_1_0_1_36,2021-11-12T14:03:46.383Z,,,,,,,,,,,,,,,,15,,,,,,,,,,,,,,336.26899995232816,,response,,,7,B,,,,,Space,keypress(Space),,,,lyrical,---- --------- ---------- - --- ------- -- --- ------------<br>----- -- -------- ------- ---- ------ - -------- ---- -----<br>--- ------- ---- -- --- -------- --- - ----- ------ ---- --<br>-------- --- -------- -------- --- released ---- -- ----- -<br>-------- ---- --- ---------- --------- -- ------- ------ -<br>--------- ----- -----,175397.59999990463,175396.79999995232,175043.86,175045.69999992847,175060.531,175410.589,,36,released
screen,html.Screen,0_4_1_0_1_37,2021-11-12T14:03:46.775Z,,,,,,,,,,,,,,,,15,,,,,,,,,,,,,,378.1109999284672,,response,,,7,B,,,,,Space,keypress(Space),,,,lyrical,---- --------- ---------- - --- ------- -- --- ------------<br>----- -- -------- ------- ---- ------ - -------- ---- -----<br>--- ------- ---- -- --- -------- --- - ----- ------ ---- --<br>-------- --- -------- -------- --- -------- July -- ----- -<br>-------- ---- --- ---------- --------- -- ------- ------ -<br>--------- ----- -----,175789.5,175788.69999992847,175393.919,175397.79999995232,175410.589,175794.066,,37,July
screen,html.Screen,0_4_1_0_1_38,2021-11-12T14:03:47.127Z,,,,,,,,,,,,,,,,15,,,,,,,,,,,,,,346.6339999284828,,response,,,7,B,,,,,Space,keypress(Space),,,,lyrical,---- --------- ---------- - --- ------- -- --- ------------<br>----- -- -------- ------- ---- ------ - -------- ---- -----<br>--- ------- ---- -- --- -------- --- - ----- ------ ---- --<br>-------- --- -------- -------- --- -------- ---- 20 ----- -<br>-------- ---- --- ---------- --------- -- ------- ------ -<br>--------- ----- -----,176141.5,176140.69999992847,175777.395,175789.69999992847,175794.066,176144.154,,38,20
screen,html.Screen,0_4_1_0_1_39,2021-11-12T14:03:47.583Z,,,,,,,,,,,,,,,,15,,,,,,,,,,,,,,452.445999904623,,response,,,7,B,,,,,Space,keypress(Space),,,,lyrical,---- --------- ---------- - --- ------- -- --- ------------<br>----- -- -------- ------- ---- ------ - -------- ---- -----<br>--- ------- ---- -- --- -------- --- - ----- ------ ---- --<br>-------- --- -------- -------- --- -------- ---- -- after -<br>-------- ---- --- ---------- --------- -- ------- ------ -<br>--------- ----- -----,176597.39999997616,176596.59999990463,176127.483,176141.69999992847,176144.154,176610.955,,39,after
screen,html.Screen,0_4_1_0_1_40,2021-11-12T14:03:47.926Z,,,,,,,,,,,,,,,,15,,,,,,,,,,,,,,329.74499992848723,,response,,,7,B,,,,,Space,keypress(Space),,,,lyrical,---- --------- ---------- - --- ------- -- --- ------------<br>----- -- -------- ------- ---- ------ - -------- ---- -----<br>--- ------- ---- -- --- -------- --- - ----- ------ ---- --<br>-------- --- -------- -------- --- -------- ---- -- ----- a<br>-------- ---- --- ---------- --------- -- ------- ------ -<br>--------- ----- -----,176941.39999997616,176940.69999992847,176594.284,176597.69999992847,176610.955,176944.338,,40,a
screen,html.Screen,0_4_1_0_1_41,2021-11-12T14:03:48.287Z,,,,,,,,,,,,,,,,15,,,,,,,,,,,,,,356.26199990464374,,response,,,7,B,,,,,Space,keypress(Space),,,,lyrical,---- --------- ---------- - --- ------- -- --- ------------<br>----- -- -------- ------- ---- ------ - -------- ---- -----<br>--- ------- ---- -- --- -------- --- - ----- ------ ---- --<br>-------- --- -------- -------- --- -------- ---- -- ----- -<br>two-week ---- --- ---------- --------- -- ------- ------ -<br>--------- ----- -----,177301.39999997616,177300.59999990463,176927.668,176941.59999990463,176944.338,177311.145,,41,two-week
screen,html.Screen,0_4_1_0_1_42,2021-11-12T14:03:48.583Z,,,,,,,,,,,,,,,,15,,,,,,,,,,,,,,285.5549999284849,,response,,,7,B,,,,,Space,keypress(Space),,,,lyrical,---- --------- ---------- - --- ------- -- --- ------------<br>----- -- -------- ------- ---- ------ - -------- ---- -----<br>--- ------- ---- -- --- -------- --- - ----- ------ ---- --<br>-------- --- -------- -------- --- -------- ---- -- ----- -<br>-------- stay --- ---------- --------- -- ------- ------ -<br>--------- ----- -----,177597.5,177596.69999992847,177294.474,177301.69999992847,177311.145,177611.165,,42,stay
screen,html.Screen,0_4_1_0_1_43,2021-11-12T14:03:48.902Z,,,,,,,,,,,,,,,,15,,,,,,,,,,,,,,305.4349999046244,,response,,,7,B,,,,,Space,keypress(Space),,,,lyrical,---- --------- ---------- - --- ------- -- --- ------------<br>----- -- -------- ------- ---- ------ - -------- ---- -----<br>--- ------- ---- -- --- -------- --- - ----- ------ ---- --<br>-------- --- -------- -------- --- -------- ---- -- ----- -<br>-------- ---- for ---------- --------- -- ------- ------ -<br>--------- ----- -----,177917.39999997616,177916.59999990463,177594.495,177597.69999992847,177611.165,177927.968,,43,for
screen,html.Screen,0_4_1_0_1_44,2021-11-12T14:03:49.270Z,,,,,,,,,,,,,,,,15,,,,,,,,,,,,,,356.6319999046391,,response,,,7,B,,,,,Space,keypress(Space),,,,lyrical,---- --------- ---------- - --- ------- -- --- ------------<br>----- -- -------- ------- ---- ------ - -------- ---- -----<br>--- ------- ---- -- --- -------- --- - ----- ------ ---- --<br>-------- --- -------- -------- --- -------- ---- -- ----- -<br>-------- ---- --- previously --------- -- ------- ------ -<br>--------- ----- -----,178285.39999997616,178284.59999990463,177911.297,177917.59999990463,177927.968,178294.738,,44,previously
screen,html.Screen,0_4_1_0_1_45,2021-11-12T14:03:49.646Z,,,,,,,,,,,,,,,,15,,,,,,,,,,,,,,365.7619999999879,,response,,,7,B,,,,,Space,keypress(Space),,,,lyrical,---- --------- ---------- - --- ------- -- --- ------------<br>----- -- -------- ------- ---- ------ - -------- ---- -----<br>--- ------- ---- -- --- -------- --- - ----- ------ ---- --<br>-------- --- -------- -------- --- -------- ---- -- ----- -<br>-------- ---- --- ---------- declining -- ------- ------ -<br>--------- ----- -----,178661.39999997616,178660.5,178278.067,178285.59999990463,178294.738,178678.192,,45,declining
screen,html.Screen,0_4_1_0_1_46,2021-11-12T14:03:49.966Z,,,,,,,,,,,,,,,,15,,,,,,,,,,,,,,302.40799990462256,,response,,,7,B,,,,,Space,keypress(Space),,,,lyrical,---- --------- ---------- - --- ------- -- --- ------------<br>----- -- -------- ------- ---- ------ - -------- ---- -----<br>--- ------- ---- -- --- -------- --- - ----- ------ ---- --<br>-------- --- -------- -------- --- -------- ---- -- ----- -<br>-------- ---- --- ---------- --------- to ------- ------ -<br>--------- ----- -----,178981.29999995232,178980.59999990463,178661.521,178661.59999990463,178678.192,178994.887,,46,to
screen,html.Screen,0_4_1_0_1_47,2021-11-12T14:03:50.318Z,,,,,,,,,,,,,,,,15,,,,,,,,,,,,,,337.51299997617025,,response,,,7,B,,,,,Space,keypress(Space),,,,lyrical,---- --------- ---------- - --- ------- -- --- ------------<br>----- -- -------- ------- ---- ------ - -------- ---- -----<br>--- ------- ---- -- --- -------- --- - ----- ------ ---- --<br>-------- --- -------- -------- --- -------- ---- -- ----- -<br>-------- ---- --- ---------- --------- -- testify ------ -<br>--------- ----- -----,179333.29999995232,179332.39999997616,178978.217,178981.59999990463,178994.887,179344.983,,47,testify
screen,html.Screen,0_4_1_0_1_48,2021-11-12T14:03:50.598Z,,,,,,,,,,,,,,,,15,,,,,,,,,,,,,,267.4169999761507,,response,,,7,B,,,,,Space,keypress(Space),,,,lyrical,---- --------- ---------- - --- ------- -- --- ------------<br>----- -- -------- ------- ---- ------ - -------- ---- -----<br>--- ------- ---- -- --- -------- --- - ----- ------ ---- --<br>-------- --- -------- -------- --- -------- ---- -- ----- -<br>-------- ---- --- ---------- --------- -- ------- before -<br>--------- ----- -----,179613.29999995232,179612.39999997616,179328.313,179333.5,179344.983,179628.326,,48,before
screen,html.Screen,0_4_1_0_1_49,2021-11-12T14:03:50.862Z,,,,,,,,,,,,,,,,15,,,,,,,,,,,,,,248.17399999999907,,response,,,7,B,,,,,Space,keypress(Space),,,,lyrical,---- --------- ---------- - --- ------- -- --- ------------<br>----- -- -------- ------- ---- ------ - -------- ---- -----<br>--- ------- ---- -- --- -------- --- - ----- ------ ---- --<br>-------- --- -------- -------- --- -------- ---- -- ----- -<br>-------- ---- --- ---------- --------- -- ------- ------ a<br>--------- ----- -----,179877.29999995232,179876.5,179611.657,179613.5,179628.326,179878.423,,49,a
screen,html.Screen,0_4_1_0_1_50,2021-11-12T14:03:51.126Z,,,,,,,,,,,,,,,,15,,,,,,,,,,,,,,262.0769999999902,,response,,,7,B,,,,,Space,keypress(Space),,,,lyrical,---- --------- ---------- - --- ------- -- --- ------------<br>----- -- -------- ------- ---- ------ - -------- ---- -----<br>--- ------- ---- -- --- -------- --- - ----- ------ ---- --<br>-------- --- -------- -------- --- -------- ---- -- ----- -<br>-------- ---- --- ---------- --------- -- ------- ------ -<br>different ----- -----,180141.29999995232,180140.5,179861.753,179877.5,179878.423,180145.308,,50,different
screen,html.Screen,0_4_1_0_1_51,2021-11-12T14:03:51.430Z,,,,,,,,,,,,,,,,15,,,,,,,,,,,,,,299.19200000001,,response,,,7,B,,,,,Space,keypress(Space),,,,lyrical,---- --------- ---------- - --- ------- -- --- ------------<br>----- -- -------- ------- ---- ------ - -------- ---- -----<br>--- ------- ---- -- --- -------- --- - ----- ------ ---- --<br>-------- --- -------- -------- --- -------- ---- -- ----- -<br>-------- ---- --- ---------- --------- -- ------- ------ -<br>--------- grand -----,180445.19999992847,180444.5,180128.635,180141.5,180145.308,180461.815,,51,grand
screen,html.Screen,0_4_1_0_1_52,2021-11-12T14:03:51.833Z,,,,,,,,,,,,,,,,15,,,,,,,,,,,,,,390.5849999761558,,response,,,7,B,,,,,Space,keypress(Space),,,,lyrical,---- --------- ---------- - --- ------- -- --- ------------<br>----- -- -------- ------- ---- ------ - -------- ---- -----<br>--- ------- ---- -- --- -------- --- - ----- ------ ---- --<br>-------- --- -------- -------- --- -------- ---- -- ----- -<br>-------- ---- --- ---------- --------- -- ------- ------ -<br>--------- ----- jury.,180854.09999990463,180852.39999997616,180445.148,180445.5,180461.815,180862.198,,52,jury.
