sender,sender_type,sender_id,timestamp,meta,,Blues,Classical,Country,Dance,Electronic,Folk,Gospel,Hip-Hop,Jazz,Latin,Musical/Film,New-age,Pop,Provo_ID,R&B,Rap,Reggae,Religious,Rock,Soul,Swing,Traditional,age,artist_name,correct,correctResponse,distraction,duration,education,ended_on,familiarity,gender,item,list,music_frequency,offensiveness,pleasantness,preference,response,response_action,snippet_file,song_name,song_rating,sound,text,time_commit,time_end,time_render,time_run,time_show,time_switch,url,word,word_ID
Instructions,html.Page,0_0,2021-12-02T10:41:24.929Z,"{""labjs_version"":""20.2.3"",""labjs_build"":{""flavor"":""production"",""commit"":""7ea907d66ca8aeef8054924ca5d82ffbe11e34e5""},""location"":""https://run.pavlovia.org/mvasilev/lab_music_d/"",""userAgent"":""Mozilla/5.0 (Windows NT 6.1; Win64; x64) AppleWebKit/537.36 (KHTML, like Gecko) Chrome/96.0.4664.45 Safari/537.36"",""platform"":""Win32"",""language"":""en-US"",""locale"":""en-US"",""timeZone"":""Europe/London"",""timezoneOffset"":0,""screen_width"":1920,""screen_height"":1080,""scroll_width"":1920,""scroll_height"":959,""window_innerWidth"":1920,""window_innerHeight"":1007,""devicePixelRatio"":1}",,,,,,,,,,,,,,,,,,,,,,,,,,,,,31619.844999976158,,form submission,,,,,,,,,,,,,,,,39507.10000002384,39506.39999997616,7853.225,7869.300000011921,7886.555,39518.542,{},,
Headphones,html.Page,0_1,2021-12-02T10:41:27.863Z,,,,,,,,,,,,,,,,,,,,,,,,,,,,,,2922.0580000238406,,form submission,,,,,,,,,,,,,,,,42441,42440.60000002384,39501.877,39507.60000002384,39518.542,42452.04,,,
Holding screen,html.Screen,0_2_0_0,2021-12-02T10:41:37.861Z,,,,,,,,,,,,,,,,,,,,,,,,,,,,,,9999.735,,timeout,,,,,,,,,,,,,,,,52439.19999998808,52435.11,42435.375,42441.30000001192,42452.04,52451.775,,,
screen,html.Screen,0_2_0_1_0,2021-12-02T10:41:37.944Z,,,,,,,,,,,,,,,,53,,,,,,,,,,,,,,68.52500001191947,,response,,,99,,,,,,Space,keypress(Space),,,,,When -- ----- -- ------ - ------- --- ----------<br>------------- ------ ------ ---- ---- ------- ----- -- ----<br>-------- ------- -- ---------- --- - --- ----- ----- ----<br>---- --- --- ----- --- ---- ---- ------- ----- ---- -------<br>--- --- -- ----- -- --- ---- -- --- ---- -- ------ ------<br>--- ----- -- ----,52521.30000001192,52520.30000001192,52435.11,52439.60000002384,52451.775,52535.155,,0,When
screen,html.Screen,0_2_0_1_1,2021-12-02T10:41:39.215Z,,,,,,,,,,,,,,,,53,,,,,,,,,,,,,,1257.0449999880802,,response,,,99,,,,,,Space,keypress(Space),,,,,---- it ----- -- ------ - ------- --- ----------<br>------------- ------ ------ ---- ---- ------- ----- -- ----<br>-------- ------- -- ---------- --- - --- ----- ----- ----<br>---- --- --- ----- --- ---- ---- ------- ----- ---- -------<br>--- --- -- ----- -- --- ---- -- --- ---- -- ------ ------<br>--- ----- -- ----,53792.89999997616,53792.19999998808,52518.49,52521.60000002384,52535.155,53801.781,,1,it
screen,html.Screen,0_2_0_1_2,2021-12-02T10:41:39.775Z,,,,,,,,,,,,,,,,53,,,,,,,,,,,,,,550.4189999880764,,response,,,99,,,,,,Space,keypress(Space),,,,,---- -- comes -- ------ - ------- --- ----------<br>------------- ------ ------ ---- ---- ------- ----- -- ----<br>-------- ------- -- ---------- --- - --- ----- ----- ----<br>---- --- --- ----- --- ---- ---- ------- ----- ---- -------<br>--- --- -- ----- -- --- ---- -- --- ---- -- ------ ------<br>--- ----- -- ----,54353,54352.19999998808,53785.115,53793.10000002384,53801.781,54368.292,,2,comes
screen,html.Screen,0_2_0_1_3,2021-12-02T10:41:40.583Z,,,,,,,,,,,,,,,,53,,,,,,,,,,,,,,791.9079999880778,,response,,,99,,,,,,Space,keypress(Space),,,,,---- -- ----- to ------ - ------- --- ----------<br>------------- ------ ------ ---- ---- ------- ----- -- ----<br>-------- ------- -- ---------- --- - --- ----- ----- ----<br>---- --- --- ----- --- ---- ---- ------- ----- ---- -------<br>--- --- -- ----- -- --- ---- -- --- ---- -- ------ ------<br>--- ----- -- ----,55160.89999997616,55160.19999998808,54351.628,54353.19999998808,54368.292,55168.316,,3,to
screen,html.Screen,0_2_0_1_4,2021-12-02T10:41:40.999Z,,,,,,,,,,,,,,,,53,,,,,,,,,,,,,,407.8839999880802,,response,,,99,,,,,,Space,keypress(Space),,,,,---- -- ----- -- having - ------- --- ----------<br>------------- ------ ------ ---- ---- ------- ----- -- ----<br>-------- ------- -- ---------- --- - --- ----- ----- ----<br>---- --- --- ----- --- ---- ---- ------- ----- ---- -------<br>--- --- -- ----- -- --- ---- -- --- ---- -- ------ ------<br>--- ----- -- ----,55577.10000002384,55576.19999998808,55151.651,55161.30000001192,55168.316,55585.102,,4,having
screen,html.Screen,0_2_0_1_5,2021-12-02T10:41:41.399Z,,,,,,,,,,,,,,,,53,,,,,,,,,,,,,,390.9980000238429,,response,,,99,,,,,,Space,keypress(Space),,,,,---- -- ----- -- ------ a ------- --- ----------<br>------------- ------ ------ ---- ---- ------- ----- -- ----<br>-------- ------- -- ---------- --- - --- ----- ----- ----<br>---- --- --- ----- --- ---- ---- ------- ----- ---- -------<br>--- --- -- ----- -- --- ---- -- --- ---- -- ------ ------<br>--- ----- -- ----,55976.80000001192,55976.10000002384,55568.435,55577.30000001192,55585.102,55984.986,,5,a
screen,html.Screen,0_2_0_1_6,2021-12-02T10:41:41.895Z,,,,,,,,,,,,,,,,53,,,,,,,,,,,,,,487.1140000238447,,response,,,99,,,,,,Space,keypress(Space),,,,,---- -- ----- -- ------ - lasting --- ----------<br>------------- ------ ------ ---- ---- ------- ----- -- ----<br>-------- ------- -- ---------- --- - --- ----- ----- ----<br>---- --- --- ----- --- ---- ---- ------- ----- ---- -------<br>--- --- -- ----- -- --- ---- -- --- ---- -- ------ ------<br>--- ----- -- ----,56472.80000001192,56472.10000002384,55968.321,55977,55984.986,56485.025,,6,lasting
screen,html.Screen,0_2_0_1_7,2021-12-02T10:41:42.343Z,,,,,,,,,,,,,,,,53,,,,,,,,,,,,,,435.0750000238404,,response,,,99,,,,,,Space,keypress(Space),,,,,---- -- ----- -- ------ - ------- and ----------<br>------------- ------ ------ ---- ---- ------- ----- -- ----<br>-------- ------- -- ---------- --- - --- ----- ----- ----<br>---- --- --- ----- --- ---- ---- ------- ----- ---- -------<br>--- --- -- ----- -- --- ---- -- --- ---- -- ------ ------<br>--- ----- -- ----,56920.69999998808,56920.10000002384,56468.359,56473,56485.025,56934.983,,7,and
screen,html.Screen,0_2_0_1_8,2021-12-02T10:41:42.831Z,,,,,,,,,,,,,,,,53,,,,,,,,,,,,,,473.1170000238417,,response,,,99,,,,,,Space,keypress(Space),,,,,---- -- ----- -- ------ - ------- --- fulfilling<br>------------- ------ ------ ---- ---- ------- ----- -- ----<br>-------- ------- -- ---------- --- - --- ----- ----- ----<br>---- --- --- ----- --- ---- ---- ------- ----- ---- -------<br>--- --- -- ----- -- --- ---- -- --- ---- -- ------ ------<br>--- ----- -- ----,57408.89999997616,57408.10000002384,56918.318,56921,56934.983,57418.297,,8,fulfilling
screen,html.Screen,0_2_0_1_9,2021-12-02T10:41:43.311Z,,,,,,,,,,,,,,,,53,,,,,,,,,,,,,,469.8030000238432,,response,,,99,,,,,,Space,keypress(Space),,,,,"---- -- ----- -- ------ - ------- --- ----------<br>relationship, ------ ------ ---- ---- ------- ----- -- ----<br>-------- ------- -- ---------- --- - --- ----- ----- ----<br>---- --- --- ----- --- ---- ---- ------- ----- ---- -------<br>--- --- -- ----- -- --- ---- -- --- ---- -- ------ ------<br>--- ----- -- ----",57888.80000001192,57888.10000002384,57401.632,57409,57418.297,57901.61,,9,"relationship,"
screen,html.Screen,0_2_0_1_10,2021-12-02T10:41:43.687Z,,,,,,,,,,,,,,,,53,,,,,,,,,,,,,,362.3899999999994,,response,,,99,,,,,,Space,keypress(Space),,,,,---- -- ----- -- ------ - ------- --- ----------<br>------------- common ------ ---- ---- ------- ----- -- ----<br>-------- ------- -- ---------- --- - --- ----- ----- ----<br>---- --- --- ----- --- ---- ---- ------- ----- ---- -------<br>--- --- -- ----- -- --- ---- -- --- ---- -- ------ ------<br>--- ----- -- ----,58264.60000002384,58264,57884.945,57888.89999997616,57901.61,58268.233,,10,common
screen,html.Screen,0_2_0_1_11,2021-12-02T10:41:44.167Z,,,,,,,,,,,,,,,,53,,,,,,,,,,,,,,475.7669999999998,,response,,,99,,,,,,Space,keypress(Space),,,,,---- -- ----- -- ------ - ------- --- ----------<br>------------- ------ wisdom ---- ---- ------- ----- -- ----<br>-------- ------- -- ---------- --- - --- ----- ----- ----<br>---- --- --- ----- --- ---- ---- ------- ----- ---- -------<br>--- --- -- ----- -- --- ---- -- --- ---- -- ------ ------<br>--- ----- -- ----,58744.69999998808,58744,58251.568,58264.89999997616,58268.233,58751.554,,11,wisdom
screen,html.Screen,0_2_0_1_12,2021-12-02T10:41:45.031Z,,,,,,,,,,,,,,,,53,,,,,,,,,,,,,,856.4460000000036,,response,,,99,,,,,,Space,keypress(Space),,,,,---- -- ----- -- ------ - ------- --- ----------<br>------------- ------ ------ says ---- ------- ----- -- ----<br>-------- ------- -- ---------- --- - --- ----- ----- ----<br>---- --- --- ----- --- ---- ---- ------- ----- ---- -------<br>--- --- -- ----- -- --- ---- -- --- ---- -- ------ ------<br>--- ----- -- ----,59608.60000002384,59608,58734.889,58744.89999997616,58751.554,59618.23,,12,says
screen,html.Screen,0_2_0_1_13,2021-12-02T10:41:45.473Z,,,,,,,,,,,,,,,,53,,,,,,,,,,,,,,429.96999998807587,,response,,,99,,,,,,Space,keypress(Space),,,,,---- -- ----- -- ------ - ------- --- ----------<br>------------- ------ ------ ---- that ------- ----- -- ----<br>-------- ------- -- ---------- --- - --- ----- ----- ----<br>---- --- --- ----- --- ---- ---- ------- ----- ---- -------<br>--- --- -- ----- -- --- ---- -- --- ---- -- ------ ------<br>--- ----- -- ----,60048.80000001192,60048.19999998808,59601.564,59608.89999997616,59618.23,60051.503,,13,that
screen,html.Screen,0_2_0_1_14,2021-12-02T10:41:46.089Z,,,,,,,,,,,,,,,,53,,,,,,,,,,,,,,612.497000000003,,response,,,99,,,,,,Space,keypress(Space),,,,,---- -- ----- -- ------ - ------- --- ----------<br>------------- ------ ------ ---- ---- feeling ----- -- ----<br>-------- ------- -- ---------- --- - --- ----- ----- ----<br>---- --- --- ----- --- ---- ---- ------- ----- ---- -------<br>--- --- -- ----- -- --- ---- -- --- ---- -- ------ ------<br>--- ----- -- ----,60664.60000002384,60664,60034.838,60048.89999997616,60051.503,60668.19,,14,feeling
screen,html.Screen,0_2_0_1_15,2021-12-02T10:41:46.513Z,,,,,,,,,,,,,,,,53,,,,,,,,,,,,,,419.7099999761558,,response,,,99,,,,,,Space,keypress(Space),,,,,---- -- ----- -- ------ - ------- --- ----------<br>------------- ------ ------ ---- ---- ------- close -- ----<br>-------- ------- -- ---------- --- - --- ----- ----- ----<br>---- --- --- ----- --- ---- ---- ------- ----- ---- -------<br>--- --- -- ----- -- --- ---- -- --- ---- -- ------ ------<br>--- ----- -- ----,61088.5,61087.89999997616,60651.524,60664.80000001192,60668.19,61101.466,,15,close
screen,html.Screen,0_2_0_1_16,2021-12-02T10:41:46.809Z,,,,,,,,,,,,,,,,53,,,,,,,,,,,,,,282.4339999761578,,response,,,99,,,,,,Space,keypress(Space),,,,,---- -- ----- -- ------ - ------- --- ----------<br>------------- ------ ------ ---- ---- ------- ----- to ----<br>-------- ------- -- ---------- --- - --- ----- ----- ----<br>---- --- --- ----- --- ---- ---- ------- ----- ---- -------<br>--- --- -- ----- -- --- ---- -- --- ---- -- ------ ------<br>--- ----- -- ----,61384.5,61383.89999997616,61084.801,61088.69999998808,61101.466,61401.497,,16,to
screen,html.Screen,0_2_0_1_17,2021-12-02T10:41:47.160Z,,,,,,,,,,,,,,,,53,,,,,,,,,,,,,,334.4029999761551,,response,,,99,,,,,,Space,keypress(Space),,,,,---- -- ----- -- ------ - ------- --- ----------<br>------------- ------ ------ ---- ---- ------- ----- -- your<br>-------- ------- -- ---------- --- - --- ----- ----- ----<br>---- --- --- ----- --- ---- ---- ------- ----- ---- -------<br>--- --- -- ----- -- --- ---- -- --- ---- -- ------ ------<br>--- ----- -- ----,61736.5,61735.89999997616,61384.831,61384.60000002384,61401.497,61751.445,,17,your
screen,html.Screen,0_2_0_1_18,2021-12-02T10:41:47.712Z,,,,,,,,,,,,,,,,53,,,,,,,,,,,,,,536.4549999761584,,response,,,99,,,,,,Space,keypress(Space),,,,,---- -- ----- -- ------ - ------- --- ----------<br>------------- ------ ------ ---- ---- ------- ----- -- ----<br>romantic ------- -- ---------- --- - --- ----- ----- ----<br>---- --- --- ----- --- ---- ---- ------- ----- ---- -------<br>--- --- -- ----- -- --- ---- -- --- ---- -- ------ ------<br>--- ----- -- ----,62288.39999997616,62287.89999997616,61734.78,61736.60000002384,61751.445,62301.502,,18,romantic
screen,html.Screen,0_2_0_1_19,2021-12-02T10:41:48.056Z,,,,,,,,,,,,,,,,53,,,,,,,,,,,,,,330.39799997615773,,response,,,99,,,,,,Space,keypress(Space),,,,,---- -- ----- -- ------ - ------- --- ----------<br>------------- ------ ------ ---- ---- ------- ----- -- ----<br>-------- partner -- ---------- --- - --- ----- ----- ----<br>---- --- --- ----- --- ---- ---- ------- ----- ---- -------<br>--- --- -- ----- -- --- ---- -- --- ---- -- ------ ------<br>--- ----- -- ----,62632.39999997616,62631.89999997616,62284.835,62288.60000002384,62301.502,62634.679,,19,partner
screen,html.Screen,0_2_0_1_20,2021-12-02T10:41:48.424Z,,,,,,,,,,,,,,,,53,,,,,,,,,,,,,,365.1210000119245,,response,,,99,,,,,,Space,keypress(Space),,,,,---- -- ----- -- ------ - ------- --- ----------<br>------------- ------ ------ ---- ---- ------- ----- -- ----<br>-------- ------- is ---------- --- - --- ----- ----- ----<br>---- --- --- ----- --- ---- ---- ------- ----- ---- -------<br>--- --- -- ----- -- --- ---- -- --- ---- -- ------ ------<br>--- ----- -- ----,63000.39999997616,62999.80000001192,62618.015,62632.60000002384,62634.679,63001.434,,20,is
screen,html.Screen,0_2_0_1_21,2021-12-02T10:41:48.745Z,,,,,,,,,,,,,,,,53,,,,,,,,,,,,,,318.3660000119198,,response,,,99,,,,,,Space,keypress(Space),,,,,---- -- ----- -- ------ - ------- --- ----------<br>------------- ------ ------ ---- ---- ------- ----- -- ----<br>-------- ------- -- paramount. --- - --- ----- ----- ----<br>---- --- --- ----- --- ---- ---- ------- ----- ---- -------<br>--- --- -- ----- -- --- ---- -- --- ---- -- ------ ------<br>--- ----- -- ----,63320.5,63319.80000001192,62984.768,63000.60000002384,63001.434,63334.812,,21,paramount.
screen,html.Screen,0_2_0_1_22,2021-12-02T10:41:49.064Z,,,,,,,,,,,,,,,,53,,,,,,,,,,,,,,304.98800001192285,,response,,,99,,,,,,Space,keypress(Space),,,,,---- -- ----- -- ------ - ------- --- ----------<br>------------- ------ ------ ---- ---- ------- ----- -- ----<br>-------- ------- -- ---------- But - --- ----- ----- ----<br>---- --- --- ----- --- ---- ---- ------- ----- ---- -------<br>--- --- -- ----- -- --- ---- -- --- ---- -- ------ ------<br>--- ----- -- ----,63640.5,63639.80000001192,63318.145,63320.89999997616,63334.812,63651.341,,22,But
screen,html.Screen,0_2_0_1_23,2021-12-02T10:41:49.448Z,,,,,,,,,,,,,,,,53,,,,,,,,,,,,,,372.4590000119206,,response,,,99,,,,,,Space,keypress(Space),,,,,---- -- ----- -- ------ - ------- --- ----------<br>------------- ------ ------ ---- ---- ------- ----- -- ----<br>-------- ------- -- ---------- --- a --- ----- ----- ----<br>---- --- --- ----- --- ---- ---- ------- ----- ---- -------<br>--- --- -- ----- -- --- ---- -- --- ---- -- ------ ------<br>--- ----- -- ----,64024.39999997616,64023.80000001192,63634.677,63640.69999998808,63651.341,64034.802,,23,a
screen,html.Screen,0_2_0_1_24,2021-12-02T10:41:49.864Z,,,,,,,,,,,,,,,,53,,,,,,,,,,,,,,404.89799998807575,,response,,,99,,,,,,Space,keypress(Space),,,,,---- -- ----- -- ------ - ------- --- ----------<br>------------- ------ ------ ---- ---- ------- ----- -- ----<br>-------- ------- -- ---------- --- - new ----- ----- ----<br>---- --- --- ----- --- ---- ---- ------- ----- ---- -------<br>--- --- -- ----- -- --- ---- -- --- ---- -- ------ ------<br>--- ----- -- ----,64440.30000001192,64439.69999998808,64018.135,64024.5,64034.802,64451.288,,24,new
screen,html.Screen,0_2_0_1_25,2021-12-02T10:41:50.136Z,,,,,,,,,,,,,,,,53,,,,,,,,,,,,,,260.51200001192046,,response,,,99,,,,,,Space,keypress(Space),,,,,---- -- ----- -- ------ - ------- --- ----------<br>------------- ------ ------ ---- ---- ------- ----- -- ----<br>-------- ------- -- ---------- --- - --- study ----- ----<br>---- --- --- ----- --- ---- ---- ------- ----- ---- -------<br>--- --- -- ----- -- --- ---- -- --- ---- -- ------ ------<br>--- ----- -- ----,64712.30000001192,64711.80000001192,64434.624,64440.60000002384,64451.288,64718.105,,25,study
screen,html.Screen,0_2_0_1_26,2021-12-02T10:41:50.416Z,,,,,,,,,,,,,,,,53,,,,,,,,,,,,,,273.59499998807587,,response,,,99,,,,,,Space,keypress(Space),,,,,---- -- ----- -- ------ - ------- --- ----------<br>------------- ------ ------ ---- ---- ------- ----- -- ----<br>-------- ------- -- ---------- --- - --- ----- finds ----<br>---- --- --- ----- --- ---- ---- ------- ----- ---- -------<br>--- --- -- ----- -- --- ---- -- --- ---- -- ------ ------<br>--- ----- -- ----,64992.30000001192,64991.69999998808,64701.438,64712.5,64718.105,65001.307,,26,finds
screen,html.Screen,0_2_0_1_27,2021-12-02T10:41:50.752Z,,,,,,,,,,,,,,,,53,,,,,,,,,,,,,,326.49300001192023,,response,,,99,,,,,,Space,keypress(Space),,,,,---- -- ----- -- ------ - ------- --- ----------<br>------------- ------ ------ ---- ---- ------- ----- -- ----<br>-------- ------- -- ---------- --- - --- ----- ----- that<br>---- --- --- ----- --- ---- ---- ------- ----- ---- -------<br>--- --- -- ----- -- --- ---- -- --- ---- -- ------ ------<br>--- ----- -- ----,65328.30000001192,65327.80000001192,64984.643,64992.5,65001.307,65334.654,,27,that
screen,html.Screen,0_2_0_1_28,2021-12-02T10:41:51.160Z,,,,,,,,,,,,,,,,53,,,,,,,,,,,,,,401.0459999880768,,response,,,99,,,,,,Space,keypress(Space),,,,,---- -- ----- -- ------ - ------- --- ----------<br>------------- ------ ------ ---- ---- ------- ----- -- ----<br>-------- ------- -- ---------- --- - --- ----- ----- ----<br>it's --- --- ----- --- ---- ---- ------- ----- ---- -------<br>--- --- -- ----- -- --- ---- -- --- ---- -- ------ ------<br>--- ----- -- ----,65736.10000002384,65735.69999998808,65317.989,65328.5,65334.654,65751.298,,28,it's
screen,html.Screen,0_2_0_1_29,2021-12-02T10:41:51.552Z,,,,,,,,,,,,,,,,53,,,,,,,,,,,,,,376.40199998808384,,response,,,99,,,,,,Space,keypress(Space),,,,,---- -- ----- -- ------ - ------- --- ----------<br>------------- ------ ------ ---- ---- ------- ----- -- ----<br>-------- ------- -- ---------- --- - --- ----- ----- ----<br>---- not --- ----- --- ---- ---- ------- ----- ---- -------<br>--- --- -- ----- -- --- ---- -- --- ---- -- ------ ------<br>--- ----- -- ----,66128.19999998808,66127.69999998808,65734.633,65736.30000001192,65751.298,66134.69,,29,not
screen,html.Screen,0_2_0_1_30,2021-12-02T10:41:51.952Z,,,,,,,,,,,,,,,,53,,,,,,,,,,,,,,393.00999998807674,,response,,,99,,,,,,Space,keypress(Space),,,,,---- -- ----- -- ------ - ------- --- ----------<br>------------- ------ ------ ---- ---- ------- ----- -- ----<br>-------- ------- -- ---------- --- - --- ----- ----- ----<br>---- --- how ----- --- ---- ---- ------- ----- ---- -------<br>--- --- -- ----- -- --- ---- -- --- ---- -- ------ ------<br>--- ----- -- ----,66528.30000001192,66527.69999998808,66118.023,66128.39999997616,66134.69,66534.665,,30,how
screen,html.Screen,0_2_0_1_31,2021-12-02T10:41:52.280Z,,,,,,,,,,,,,,,,53,,,,,,,,,,,,,,321.0349999880855,,response,,,99,,,,,,Space,keypress(Space),,,,,---- -- ----- -- ------ - ------- --- ----------<br>------------- ------ ------ ---- ---- ------- ----- -- ----<br>-------- ------- -- ---------- --- - --- ----- ----- ----<br>---- --- --- close --- ---- ---- ------- ----- ---- -------<br>--- --- -- ----- -- --- ---- -- --- ---- -- ------ ------<br>--- ----- -- ----,66856.19999998808,66855.69999998808,66517.999,66528.5,66534.665,66867.956,,31,close
screen,html.Screen,0_2_0_1_32,2021-12-02T10:41:52.640Z,,,,,,,,,,,,,,,,53,,,,,,,,,,,,,,347.64400002383627,,response,,,99,,,,,,Space,keypress(Space),,,,,---- -- ----- -- ------ - ------- --- ----------<br>------------- ------ ------ ---- ---- ------- ----- -- ----<br>-------- ------- -- ---------- --- - --- ----- ----- ----<br>---- --- --- ----- you ---- ---- ------- ----- ---- -------<br>--- --- -- ----- -- --- ---- -- --- ---- -- ------ ------<br>--- ----- -- ----,67216.19999998808,67215.60000002384,66851.291,66856.39999997616,66867.956,67217.945,,32,you
screen,html.Screen,0_2_0_1_33,2021-12-02T10:41:52.960Z,,,,,,,,,,,,,,,,53,,,,,,,,,,,,,,317.6550000238349,,response,,,99,,,,,,Space,keypress(Space),,,,,---- -- ----- -- ------ - ------- --- ----------<br>------------- ------ ------ ---- ---- ------- ----- -- ----<br>-------- ------- -- ---------- --- - --- ----- ----- ----<br>---- --- --- ----- --- feel ---- ------- ----- ---- -------<br>--- --- -- ----- -- --- ---- -- --- ---- -- ------ ------<br>--- ----- -- ----,67536.30000001192,67535.60000002384,67201.28,67216.39999997616,67217.945,67551.299,,33,feel
screen,html.Screen,0_2_0_1_34,2021-12-02T10:41:53.232Z,,,,,,,,,,,,,,,,53,,,,,,,,,,,,,,256.3010000238428,,response,,,99,,,,,,Space,keypress(Space),,,,,---- -- ----- -- ------ - ------- --- ----------<br>------------- ------ ------ ---- ---- ------- ----- -- ----<br>-------- ------- -- ---------- --- - --- ----- ----- ----<br>---- --- --- ----- --- ---- that ------- ----- ---- -------<br>--- --- -- ----- -- --- ---- -- --- ---- -- ------ ------<br>--- ----- -- ----,67808.19999998808,67807.60000002384,67534.633,67536.5,67551.299,67817.925,,34,that
screen,html.Screen,0_2_0_1_35,2021-12-02T10:41:53.560Z,,,,,,,,,,,,,,,,53,,,,,,,,,,,,,,317.67500002383895,,response,,,99,,,,,,Space,keypress(Space),,,,,---- -- ----- -- ------ - ------- --- ----------<br>------------- ------ ------ ---- ---- ------- ----- -- ----<br>-------- ------- -- ---------- --- - --- ----- ----- ----<br>---- --- --- ----- --- ---- ---- matters ----- ---- -------<br>--- --- -- ----- -- --- ---- -- --- ---- -- ------ ------<br>--- ----- -- ----,68136.19999998808,68135.60000002384,67801.26,67808.39999997616,67817.925,68151.175,,35,matters
screen,html.Screen,0_2_0_1_36,2021-12-02T10:41:53.936Z,,,,,,,,,,,,,,,,53,,,,,,,,,,,,,,360.42500002383895,,response,,,99,,,,,,Space,keypress(Space),,,,,"---- -- ----- -- ------ - ------- --- ----------<br>------------- ------ ------ ---- ---- ------- ----- -- ----<br>-------- ------- -- ---------- --- - --- ----- ----- ----<br>---- --- --- ----- --- ---- ---- ------- most, ---- -------<br>--- --- -- ----- -- --- ---- -- --- ---- -- ------ ------<br>--- ----- -- ----",68512.19999998808,68511.60000002384,68134.511,68136.30000001192,68151.175,68517.94,,36,"most,"
screen,html.Screen,0_2_0_1_37,2021-12-02T10:41:54.280Z,,,,,,,,,,,,,,,,53,,,,,,,,,,,,,,337.75999998807674,,response,,,99,,,,,,Space,keypress(Space),,,,,---- -- ----- -- ------ - ------- --- ----------<br>------------- ------ ------ ---- ---- ------- ----- -- ----<br>-------- ------- -- ---------- --- - --- ----- ----- ----<br>---- --- --- ----- --- ---- ---- ------- ----- it's -------<br>--- --- -- ----- -- --- ---- -- --- ---- -- ------ ------<br>--- ----- -- ----,68856.19999998808,68855.69999998808,68501.273,68512.39999997616,68517.94,68867.812,,37,it's
screen,html.Screen,0_2_0_1_38,2021-12-02T10:41:54.648Z,,,,,,,,,,,,,,,,53,,,,,,,,,,,,,,355.7880000238365,,response,,,99,,,,,,Space,keypress(Space),,,,,---- -- ----- -- ------ - ------- --- ----------<br>------------- ------ ------ ---- ---- ------- ----- -- ----<br>-------- ------- -- ---------- --- - --- ----- ----- ----<br>---- --- --- ----- --- ---- ---- ------- ----- ---- whether<br>--- --- -- ----- -- --- ---- -- --- ---- -- ------ ------<br>--- ----- -- ----,69224.39999997616,69223.60000002384,68851.148,68856.30000001192,68867.812,69234.54,,38,whether
screen,html.Screen,0_2_0_1_39,2021-12-02T10:41:55.080Z,,,,,,,,,,,,,,,,53,,,,,,,,,,,,,,421.1599999880855,,response,,,99,,,,,,Space,keypress(Space),,,,,---- -- ----- -- ------ - ------- --- ----------<br>------------- ------ ------ ---- ---- ------- ----- -- ----<br>-------- ------- -- ---------- --- - --- ----- ----- ----<br>---- --- --- ----- --- ---- ---- ------- ----- ---- -------<br>you --- -- ----- -- --- ---- -- --- ---- -- ------ ------<br>--- ----- -- ----,69656.10000002384,69655.69999998808,69217.874,69224.5,69234.54,69667.916,,39,you
screen,html.Screen,0_2_0_1_40,2021-12-02T10:41:55.432Z,,,,,,,,,,,,,,,,53,,,,,,,,,,,,,,339.78399998808163,,response,,,99,,,,,,Space,keypress(Space),,,,,---- -- ----- -- ------ - ------- --- ----------<br>------------- ------ ------ ---- ---- ------- ----- -- ----<br>-------- ------- -- ---------- --- - --- ----- ----- ----<br>---- --- --- ----- --- ---- ---- ------- ----- ---- -------<br>--- are -- ----- -- --- ---- -- --- ---- -- ------ ------<br>--- ----- -- ----,70008.30000001192,70007.69999998808,69651.249,69656.30000001192,69667.916,70017.832,,40,are
screen,html.Screen,0_2_0_1_41,2021-12-02T10:41:55.744Z,,,,,,,,,,,,,,,,53,,,,,,,,,,,,,,301.8679999880842,,response,,,99,,,,,,Space,keypress(Space),,,,,---- -- ----- -- ------ - ------- --- ----------<br>------------- ------ ------ ---- ---- ------- ----- -- ----<br>-------- ------- -- ---------- --- - --- ----- ----- ----<br>---- --- --- ----- --- ---- ---- ------- ----- ---- -------<br>--- --- as ----- -- --- ---- -- --- ---- -- ------ ------<br>--- ----- -- ----,70320.39999997616,70319.69999998808,70001.167,70008.39999997616,70017.832,70334.524,,41,as
screen,html.Screen,0_2_0_1_42,2021-12-02T10:41:56.080Z,,,,,,,,,,,,,,,,53,,,,,,,,,,,,,,321.07600002383697,,response,,,99,,,,,,Space,keypress(Space),,,,,---- -- ----- -- ------ - ------- --- ----------<br>------------- ------ ------ ---- ---- ------- ----- -- ----<br>-------- ------- -- ---------- --- - --- ----- ----- ----<br>---- --- --- ----- --- ---- ---- ------- ----- ---- -------<br>--- --- -- close -- --- ---- -- --- ---- -- ------ ------<br>--- ----- -- ----,70656.19999998808,70655.60000002384,70317.858,70320.5,70334.524,70667.82,,42,close
screen,html.Screen,0_2_0_1_43,2021-12-02T10:41:56.400Z,,,,,,,,,,,,,,,,53,,,,,,,,,,,,,,307.679999999993,,response,,,99,,,,,,Space,keypress(Space),,,,,---- -- ----- -- ------ - ------- --- ----------<br>------------- ------ ------ ---- ---- ------- ----- -- ----<br>-------- ------- -- ---------- --- - --- ----- ----- ----<br>---- --- --- ----- --- ---- ---- ------- ----- ---- -------<br>--- --- -- ----- as --- ---- -- --- ---- -- ------ ------<br>--- ----- -- ----,70976.10000002384,70975.5,70651.155,70656.30000001192,70667.82,70984.473,,43,as
screen,html.Screen,0_2_0_1_44,2021-12-02T10:41:56.728Z,,,,,,,,,,,,,,,,53,,,,,,,,,,,,,,319.02700000000186,,response,,,99,,,,,,Space,keypress(Space),,,,,---- -- ----- -- ------ - ------- --- ----------<br>------------- ------ ------ ---- ---- ------- ----- -- ----<br>-------- ------- -- ---------- --- - --- ----- ----- ----<br>---- --- --- ----- --- ---- ---- ------- ----- ---- -------<br>--- --- -- ----- -- you ---- -- --- ---- -- ------ ------<br>--- ----- -- ----,71304.10000002384,71303.5,70967.808,70976.30000001192,70984.473,71317.736,,44,you
screen,html.Screen,0_2_0_1_45,2021-12-02T10:41:57.016Z,,,,,,,,,,,,,,,,53,,,,,,,,,,,,,,273.86400002383743,,response,,,99,,,,,,Space,keypress(Space),,,,,---- -- ----- -- ------ - ------- --- ----------<br>------------- ------ ------ ---- ---- ------- ----- -- ----<br>-------- ------- -- ---------- --- - --- ----- ----- ----<br>---- --- --- ----- --- ---- ---- ------- ----- ---- -------<br>--- --- -- ----- -- --- want -- --- ---- -- ------ ------<br>--- ----- -- ----,71592.10000002384,71591.60000002384,71301.072,71304.19999998808,71317.736,71601.166,,45,want
screen,html.Screen,0_2_0_1_46,2021-12-02T10:41:57.216Z,,,,,,,,,,,,,,,,53,,,,,,,,,,,,,,190.33400000000256,,response,,,99,,,,,,Space,keypress(Space),,,,,---- -- ----- -- ------ - ------- --- ----------<br>------------- ------ ------ ---- ---- ------- ----- -- ----<br>-------- ------- -- ---------- --- - --- ----- ----- ----<br>---- --- --- ----- --- ---- ---- ------- ----- ---- -------<br>--- --- -- ----- -- --- ---- to --- ---- -- ------ ------<br>--- ----- -- ----,71792.10000002384,71791.5,71584.499,71592.39999997616,71601.166,71801.069,,46,to
screen,html.Screen,0_2_0_1_47,2021-12-02T10:41:57.416Z,,,,,,,,,,,,,,,,53,,,,,,,,,,,,,,190.43099999999686,,response,,,99,,,,,,Space,keypress(Space),,,,,"---- -- ----- -- ------ - ------- --- ----------<br>------------- ------ ------ ---- ---- ------- ----- -- ----<br>-------- ------- -- ---------- --- - --- ----- ----- ----<br>---- --- --- ----- --- ---- ---- ------- ----- ---- -------<br>--- --- -- ----- -- --- ---- -- be, ---- -- ------ ------<br>--- ----- -- ----",71992,71991.5,71784.405,71792.19999998808,71801.069,72001.081,,47,"be,"
screen,html.Screen,0_2_0_1_48,2021-12-02T10:41:57.840Z,,,,,,,,,,,,,,,,53,,,,,,,,,,,,,,414.4189999999944,,response,,,99,,,,,,Space,keypress(Space),,,,,---- -- ----- -- ------ - ------- --- ----------<br>------------- ------ ------ ---- ---- ------- ----- -- ----<br>-------- ------- -- ---------- --- - --- ----- ----- ----<br>---- --- --- ----- --- ---- ---- ------- ----- ---- -------<br>--- --- -- ----- -- --- ---- -- --- even -- ------ ------<br>--- ----- -- ----,72416.10000002384,72415.5,71984.416,71992.30000001192,72001.081,72417.76,,48,even
screen,html.Screen,0_2_0_1_49,2021-12-02T10:41:58.136Z,,,,,,,,,,,,,,,,53,,,,,,,,,,,,,,293.74000000000524,,response,,,99,,,,,,Space,keypress(Space),,,,,---- -- ----- -- ------ - ------- --- ----------<br>------------- ------ ------ ---- ---- ------- ----- -- ----<br>-------- ------- -- ---------- --- - --- ----- ----- ----<br>---- --- --- ----- --- ---- ---- ------- ----- ---- -------<br>--- --- -- ----- -- --- ---- -- --- ---- if ------ ------<br>--- ----- -- ----,72712.10000002384,72711.5,72401.094,72416.30000001192,72417.76,72717.72,,49,if
screen,html.Screen,0_2_0_1_50,2021-12-02T10:41:58.344Z,,,,,,,,,,,,,,,,53,,,,,,,,,,,,,,201.77999999999884,,response,,,99,,,,,,Space,keypress(Space),,,,,---- -- ----- -- ------ - ------- --- ----------<br>------------- ------ ------ ---- ---- ------- ----- -- ----<br>-------- ------- -- ---------- --- - --- ----- ----- ----<br>---- --- --- ----- --- ---- ---- ------- ----- ---- -------<br>--- --- -- ----- -- --- ---- -- --- ---- -- that's ------<br>--- ----- -- ----,72920.10000002384,72919.5,72701.055,72712.19999998808,72717.72,72934.386,,50,that's
screen,html.Screen,0_2_0_1_51,2021-12-02T10:41:58.632Z,,,,,,,,,,,,,,,,53,,,,,,,,,,,,,,273.01399997615954,,response,,,99,,,,,,Space,keypress(Space),,,,,---- -- ----- -- ------ - ------- --- ----------<br>------------- ------ ------ ---- ---- ------- ----- -- ----<br>-------- ------- -- ---------- --- - --- ----- ----- ----<br>---- --- --- ----- --- ---- ---- ------- ----- ---- -------<br>--- --- -- ----- -- --- ---- -- --- ---- -- ------ really<br>--- ----- -- ----,73208,73207.39999997616,72917.721,72920.30000001192,72934.386,73217.705,,51,really
screen,html.Screen,0_2_0_1_52,2021-12-02T10:41:59.080Z,,,,,,,,,,,,,,,,53,,,,,,,,,,,,,,437.6949999761564,,response,,,99,,,,,,Space,keypress(Space),,,,,---- -- ----- -- ------ - ------- --- ----------<br>------------- ------ ------ ---- ---- ------- ----- -- ----<br>-------- ------- -- ---------- --- - --- ----- ----- ----<br>---- --- --- ----- --- ---- ---- ------- ----- ---- -------<br>--- --- -- ----- -- --- ---- -- --- ---- -- ------ ------<br>not ----- -- ----,73656,73655.39999997616,73201.04,73208.10000002384,73217.705,73667.752,,52,not
screen,html.Screen,0_2_0_1_53,2021-12-02T10:41:59.400Z,,,,,,,,,,,,,,,,53,,,,,,,,,,,,,,307.647999976165,,response,,,99,,,,,,Space,keypress(Space),,,,,---- -- ----- -- ------ - ------- --- ----------<br>------------- ------ ------ ---- ---- ------- ----- -- ----<br>-------- ------- -- ---------- --- - --- ----- ----- ----<br>---- --- --- ----- --- ---- ---- ------- ----- ---- -------<br>--- --- -- ----- -- --- ---- -- --- ---- -- ------ ------<br>--- close -- ----,73976,73975.39999997616,73651.085,73656.19999998808,73667.752,73984.287,,53,close
screen,html.Screen,0_2_0_1_54,2021-12-02T10:41:59.648Z,,,,,,,,,,,,,,,,53,,,,,,,,,,,,,,239.11299997616152,,response,,,99,,,,,,Space,keypress(Space),,,,,---- -- ----- -- ------ - ------- --- ----------<br>------------- ------ ------ ---- ---- ------- ----- -- ----<br>-------- ------- -- ---------- --- - --- ----- ----- ----<br>---- --- --- ----- --- ---- ---- ------- ----- ---- -------<br>--- --- -- ----- -- --- ---- -- --- ---- -- ------ ------<br>--- ----- at ----,74224,74223.39999997616,73967.623,73976.19999998808,73984.287,74234.334,,54,at
screen,html.Screen,0_2_0_1_55,2021-12-02T10:41:59.976Z,,,,,,,,,,,,,,,,53,,,,,,,,,,,,,,317.0659999761556,,response,,,99,,,,,,Space,keypress(Space),,,,,---- -- ----- -- ------ - ------- --- ----------<br>------------- ------ ------ ---- ---- ------- ----- -- ----<br>-------- ------- -- ---------- --- - --- ----- ----- ----<br>---- --- --- ----- --- ---- ---- ------- ----- ---- -------<br>--- --- -- ----- -- --- ---- -- --- ---- -- ------ ------<br>--- ----- -- all.,74552,74551.39999997616,74217.669,74224.19999998808,74234.334,74567.646,,55,all.
Item 99,flow.Loop,0_2_0_1,2021-12-02T10:41:59.979Z,,,,,,,,,,,,,,,,,,,,,,,,,,,,,,22099.624999976157,,completion,,,,D,,,,,,,,,,silence,,74554.80000001192,74551.39999997616,52435.11,52439.5,52451.775,74567.646,,,
Question 1,html.Screen,0_2_0_2,2021-12-02T10:42:03.403Z,,,,,,,,,,,,,,,,,,,,,,,,,,,false,FALSE,,3410.1540000119276,,response,,,99,D,,,,,TRUE,click #choice-1,,,,silence,,77978.80000001192,77977.80000001192,74550.981,74555,74567.646,77984.209,,,
Question 2,html.Screen,0_2_0_3,2021-12-02T10:42:14.676Z,,,,,,,,,,,,,,,,,,,,,,,,,,,true,TRUE,,11267.39100002384,,response,,,99,D,,,,,TRUE,click #choice-1,,,,silence,,89252.39999997616,89251.60000002384,77967.543,77979,77984.209,89267.087,,,
Item 99,flow.Sequence,0_2_0,2021-12-02T10:42:14.677Z,,,,,,,,,,,,,,,,,,,,,,,,,,,,,,46799.56000002384,,completion,,,,,,,,,,,,,,,,89252.69999998808,89251.60000002384,42435.375,42441.30000001192,42452.04,89267.087,,,
Holding screen,html.Screen,0_2_1_0,2021-12-02T10:42:24.675Z,,,,,,,,,,,,,,,,,,,,,,,,,,,,,,9999.584000000003,,timeout,,,,,,,,,,,,,,,,99250.89999997616,99250.006,89250.422,89252.89999997616,89267.087,99266.671,,,
screen,html.Screen,0_2_1_1_0,2021-12-02T10:42:25.568Z,,,,,,,,,,,,,,,,54,,,,,,,,,,,,,,876.1290000119188,,response,,,100,,,,,,Space,keypress(Space),,,,,At --- ---- --- ------ ----- ------- ---- -- --- ------- --<br>------- ---------- ------ -- ----- -- ----- -- ---- ------<br>--- ----- --- --- ------ -------- ----- --- ------ ----- --<br>----- ----- ---------- --- --- ------ ------ ---- -- ------<br>------- --- ------ ----- --- ---- ------- -- ---- --- --<br>------- ------,100143.5,100142.80000001192,99250.006,99251.10000002384,99266.671,100149.98,,0,At
screen,html.Screen,0_2_1_1_1,2021-12-02T10:42:25.983Z,,,,,,,,,,,,,,,,54,,,,,,,,,,,,,,408.4199999761622,,response,,,100,,,,,,Space,keypress(Space),,,,,-- the ---- --- ------ ----- ------- ---- -- --- ------- --<br>------- ---------- ------ -- ----- -- ----- -- ---- ------<br>--- ----- --- --- ------ -------- ----- --- ------ ----- --<br>----- ----- ---------- --- --- ------ ------ ---- -- ------<br>------- --- ------ ----- --- ---- ------- -- ---- --- --<br>------- ------,100559,100558.39999997616,100133.315,100143.69999998808,100149.98,100566.759,,1,the
screen,html.Screen,0_2_1_1_2,2021-12-02T10:42:26.319Z,,,,,,,,,,,,,,,,54,,,,,,,,,,,,,,327.64099997615267,,response,,,100,,,,,,Space,keypress(Space),,,,,-- --- time --- ------ ----- ------- ---- -- --- ------- --<br>------- ---------- ------ -- ----- -- ----- -- ---- ------<br>--- ----- --- --- ------ -------- ----- --- ------ ----- --<br>----- ----- ---------- --- --- ------ ------ ---- -- ------<br>------- --- ------ ----- --- ---- ------- -- ---- --- --<br>------- ------,100894.89999997616,100894.39999997616,100550.093,100559.19999998808,100566.759,100899.989,,2,time
screen,html.Screen,0_2_1_1_3,2021-12-02T10:42:26.511Z,,,,,,,,,,,,,,,,54,,,,,,,,,,,,,,186.41099997615675,,response,,,100,,,,,,Space,keypress(Space),,,,,-- --- ---- the ------ ----- ------- ---- -- --- ------- --<br>------- ---------- ------ -- ----- -- ----- -- ---- ------<br>--- ----- --- --- ------ -------- ----- --- ------ ----- --<br>----- ----- ---------- --- --- ------ ------ ---- -- ------<br>------- --- ------ ----- --- ---- ------- -- ---- --- --<br>------- ------,101087,101086.39999997616,100883.324,100895.10000002384,100899.989,101100.082,,3,the
screen,html.Screen,0_2_1_1_4,2021-12-02T10:42:27.087Z,,,,,,,,,,,,,,,,54,,,,,,,,,,,,,,562.3179999761633,,response,,,100,,,,,,Space,keypress(Space),,,,,-- --- ---- --- French ----- ------- ---- -- --- ------- --<br>------- ---------- ------ -- ----- -- ----- -- ---- ------<br>--- ----- --- --- ------ -------- ----- --- ------ ----- --<br>----- ----- ---------- --- --- ------ ------ ---- -- ------<br>------- --- ------ ----- --- ---- ------- -- ---- --- --<br>------- ------,101663.10000002384,101662.39999997616,101083.415,101087.19999998808,101100.082,101666.577,,4,French
screen,html.Screen,0_2_1_1_5,2021-12-02T10:42:27.431Z,,,,,,,,,,,,,,,,54,,,,,,,,,,,,,,339.82299997615337,,response,,,100,,,,,,Space,keypress(Space),,,,,-- --- ---- --- ------ crown ------- ---- -- --- ------- --<br>------- ---------- ------ -- ----- -- ----- -- ---- ------<br>--- ----- --- --- ------ -------- ----- --- ------ ----- --<br>----- ----- ---------- --- --- ------ ------ ---- -- ------<br>------- --- ------ ----- --- ---- ------- -- ---- --- --<br>------- ------,102006.89999997616,102006.39999997616,101649.913,101663.19999998808,101666.577,102016.654,,5,crown
screen,html.Screen,0_2_1_1_6,2021-12-02T10:42:27.743Z,,,,,,,,,,,,,,,,54,,,,,,,,,,,,,,301.74599997616315,,response,,,100,,,,,,Space,keypress(Space),,,,,-- --- ---- --- ------ ----- secured ---- -- --- ------- --<br>------- ---------- ------ -- ----- -- ----- -- ---- ------<br>--- ----- --- --- ------ -------- ----- --- ------ ----- --<br>----- ----- ---------- --- --- ------ ------ ---- -- ------<br>------- --- ------ ----- --- ---- ------- -- ---- --- --<br>------- ------,102319.10000002384,102318.39999997616,101999.988,102007.19999998808,102016.654,102333.328,,6,secured
screen,html.Screen,0_2_1_1_7,2021-12-02T10:42:27.983Z,,,,,,,,,,,,,,,,54,,,,,,,,,,,,,,225.07199997616408,,response,,,100,,,,,,Space,keypress(Space),,,,,-- --- ---- --- ------ ----- ------- much -- --- ------- --<br>------- ---------- ------ -- ----- -- ----- -- ---- ------<br>--- ----- --- --- ------ -------- ----- --- ------ ----- --<br>----- ----- ---------- --- --- ------ ------ ---- -- ------<br>------- --- ------ ----- --- ---- ------- -- ---- --- --<br>------- ------,102558.89999997616,102558.39999997616,102316.662,102319.30000001192,102333.328,102566.583,,7,much
screen,html.Screen,0_2_1_1_8,2021-12-02T10:42:28.367Z,,,,,,,,,,,,,,,,54,,,,,,,,,,,,,,375.8169999761594,,response,,,100,,,,,,Space,keypress(Space),,,,,-- --- ---- --- ------ ----- ------- ---- of --- ------- --<br>------- ---------- ------ -- ----- -- ----- -- ---- ------<br>--- ----- --- --- ------ -------- ----- --- ------ ----- --<br>----- ----- ---------- --- --- ------ ------ ---- -- ------<br>------- --- ------ ----- --- ---- ------- -- ---- --- --<br>------- ------,102942.89999997616,102942.39999997616,102549.919,102559.10000002384,102566.583,102949.855,,8,of
screen,html.Screen,0_2_1_1_9,2021-12-02T10:42:28.631Z,,,,,,,,,,,,,,,,54,,,,,,,,,,,,,,256.445000011925,,response,,,100,,,,,,Space,keypress(Space),,,,,-- --- ---- --- ------ ----- ------- ---- -- its ------- --<br>------- ---------- ------ -- ----- -- ----- -- ---- ------<br>--- ----- --- --- ------ -------- ----- --- ------ ----- --<br>----- ----- ---------- --- --- ------ ------ ---- -- ------<br>------- --- ------ ----- --- ---- ------- -- ---- --- --<br>------- ------,103206.89999997616,103206.30000001192,102933.191,102943,102949.855,103216.69,,9,its
screen,html.Screen,0_2_1_1_10,2021-12-02T10:42:28.879Z,,,,,,,,,,,,,,,,54,,,,,,,,,,,,,,237.6100000119186,,response,,,100,,,,,,Space,keypress(Space),,,,,-- --- ---- --- ------ ----- ------- ---- -- --- revenue --<br>------- ---------- ------ -- ----- -- ----- -- ---- ------<br>--- ----- --- --- ------ -------- ----- --- ------ ----- --<br>----- ----- ---------- --- --- ------ ------ ---- -- ------<br>------- --- ------ ----- --- ---- ------- -- ---- --- --<br>------- ------,103454.80000001192,103454.30000001192,103200.022,103207.10000002384,103216.69,103466.573,,10,revenue
screen,html.Screen,0_2_1_1_11,2021-12-02T10:42:29.255Z,,,,,,,,,,,,,,,,54,,,,,,,,,,,,,,363.8269999761542,,response,,,100,,,,,,Space,keypress(Space),,,,,-- --- ---- --- ------ ----- ------- ---- -- --- ------- by<br>------- ---------- ------ -- ----- -- ----- -- ---- ------<br>--- ----- --- --- ------ -------- ----- --- ------ ----- --<br>----- ----- ---------- --- --- ------ ------ ---- -- ------<br>------- --- ------ ----- --- ---- ------- -- ---- --- --<br>------- ------,103831,103830.39999997616,103449.908,103455,103466.573,103833.26,,11,by
screen,html.Screen,0_2_1_1_12,2021-12-02T10:42:29.615Z,,,,,,,,,,,,,,,,54,,,,,,,,,,,,,,357.04000001192617,,response,,,100,,,,,,Space,keypress(Space),,,,,-- --- ---- --- ------ ----- ------- ---- -- --- ------- --<br>issuing ---------- ------ -- ----- -- ----- -- ---- ------<br>--- ----- --- --- ------ -------- ----- --- ------ ----- --<br>----- ----- ---------- --- --- ------ ------ ---- -- ------<br>------- --- ------ ----- --- ---- ------- -- ---- --- --<br>------- ------,104190.89999997616,104190.30000001192,103816.594,103831.30000001192,103833.26,104199.882,,12,issuing
screen,html.Screen,0_2_1_1_13,2021-12-02T10:42:29.943Z,,,,,,,,,,,,,,,,54,,,,,,,,,,,,,,318.41800001192314,,response,,,100,,,,,,Space,keypress(Space),,,,,-- --- ---- --- ------ ----- ------- ---- -- --- ------- --<br>------- government ------ -- ----- -- ----- -- ---- ------<br>--- ----- --- --- ------ -------- ----- --- ------ ----- --<br>----- ----- ---------- --- --- ------ ------ ---- -- ------<br>------- --- ------ ----- --- ---- ------- -- ---- --- --<br>------- ------,104518.89999997616,104518.30000001192,104183.217,104191.19999998808,104199.882,104533.261,,13,government
screen,html.Screen,0_2_1_1_14,2021-12-02T10:42:30.199Z,,,,,,,,,,,,,,,,54,,,,,,,,,,,,,,241.03900001192233,,response,,,100,,,,,,Space,keypress(Space),,,,,-- --- ---- --- ------ ----- ------- ---- -- --- ------- --<br>------- ---------- bonds. -- ----- -- ----- -- ---- ------<br>--- ----- --- --- ------ -------- ----- --- ------ ----- --<br>----- ----- ---------- --- --- ------ ------ ---- -- ------<br>------- --- ------ ----- --- ---- ------- -- ---- --- --<br>------- ------,104775,104774.30000001192,104516.595,104519.19999998808,104533.261,104783.156,,14,bonds.
screen,html.Screen,0_2_1_1_15,2021-12-02T10:42:30.503Z,,,,,,,,,,,,,,,,54,,,,,,,,,,,,,,295.14400001191825,,response,,,100,,,,,,Space,keypress(Space),,,,,-- --- ---- --- ------ ----- ------- ---- -- --- ------- --<br>------- ---------- ------ In ----- -- ----- -- ---- ------<br>--- ----- --- --- ------ -------- ----- --- ------ ----- --<br>----- ----- ---------- --- --- ------ ------ ---- -- ------<br>------- --- ------ ----- --- ---- ------- -- ---- --- --<br>------- ------,105078.80000001192,105078.30000001192,104766.492,104775.19999998808,104783.156,105083.238,,15,In
screen,html.Screen,0_2_1_1_16,2021-12-02T10:42:30.767Z,,,,,,,,,,,,,,,,54,,,,,,,,,,,,,,259.0620000119234,,response,,,100,,,,,,Space,keypress(Space),,,,,"-- --- ---- --- ------ ----- ------- ---- -- --- ------- --<br>------- ---------- ------ -- 1727, -- ----- -- ---- ------<br>--- ----- --- --- ------ -------- ----- --- ------ ----- --<br>----- ----- ---------- --- --- ------ ------ ---- -- ------<br>------- --- ------ ----- --- ---- ------- -- ---- --- --<br>------- ------",105343,105342.30000001192,105066.571,105079.10000002384,105083.238,105349.881,,16,"1727,"
screen,html.Screen,0_2_1_1_17,2021-12-02T10:42:31.031Z,,,,,,,,,,,,,,,,54,,,,,,,,,,,,,,256.419000011927,,response,,,100,,,,,,Space,keypress(Space),,,,,-- --- ---- --- ------ ----- ------- ---- -- --- ------- --<br>------- ---------- ------ -- ----- in ----- -- ---- ------<br>--- ----- --- --- ------ -------- ----- --- ------ ----- --<br>----- ----- ---------- --- --- ------ ------ ---- -- ------<br>------- --- ------ ----- --- ---- ------- -- ---- --- --<br>------- ------,105606.89999997616,105606.30000001192,105333.215,105343.10000002384,105349.881,105616.505,,17,in
screen,html.Screen,0_2_1_1_18,2021-12-02T10:42:31.415Z,,,,,,,,,,,,,,,,54,,,,,,,,,,,,,,373.7950000119163,,response,,,100,,,,,,Space,keypress(Space),,,,,-- --- ---- --- ------ ----- ------- ---- -- --- ------- --<br>------- ---------- ------ -- ----- -- order -- ---- ------<br>--- ----- --- --- ------ -------- ----- --- ------ ----- --<br>----- ----- ---------- --- --- ------ ------ ---- -- ------<br>------- --- ------ ----- --- ---- ------- -- ---- --- --<br>------- ------,105990.80000001192,105990.30000001192,105599.84,105607,105616.505,105999.772,,18,order
screen,html.Screen,0_2_1_1_19,2021-12-02T10:42:31.935Z,,,,,,,,,,,,,,,,54,,,,,,,,,,,,,,510.42799998808187,,response,,,100,,,,,,Space,keypress(Space),,,,,-- --- ---- --- ------ ----- ------- ---- -- --- ------- --<br>------- ---------- ------ -- ----- -- ----- to ---- ------<br>--- ----- --- --- ------ -------- ----- --- ------ ----- --<br>----- ----- ---------- --- --- ------ ------ ---- -- ------<br>------- --- ------ ----- --- ---- ------- -- ---- --- --<br>------- ------,106510.89999997616,106510.19999998808,105983.108,105990.89999997616,105999.772,106516.494,,19,to
screen,html.Screen,0_2_1_1_20,2021-12-02T10:42:32.239Z,,,,,,,,,,,,,,,,54,,,,,,,,,,,,,,297.705999988073,,response,,,100,,,,,,Space,keypress(Space),,,,,-- --- ---- --- ------ ----- ------- ---- -- --- ------- --<br>------- ---------- ------ -- ----- -- ----- -- save ------<br>--- ----- --- --- ------ -------- ----- --- ------ ----- --<br>----- ----- ---------- --- --- ------ ------ ---- -- ------<br>------- --- ------ ----- --- ---- ------- -- ---- --- --<br>------- ------,106814.89999997616,106814.19999998808,106499.828,106511.10000002384,106516.494,106816.435,,20,save
screen,html.Screen,0_2_1_1_21,2021-12-02T10:42:32.511Z,,,,,,,,,,,,,,,,54,,,,,,,,,,,,,,269.7649999880814,,response,,,100,,,,,,Space,keypress(Space),,,,,"-- --- ---- --- ------ ----- ------- ---- -- --- ------- --<br>------- ---------- ------ -- ----- -- ----- -- ---- money,<br>--- ----- --- --- ------ -------- ----- --- ------ ----- --<br>----- ----- ---------- --- --- ------ ------ ---- -- ------<br>------- --- ------ ----- --- ---- ------- -- ---- --- --<br>------- ------",107086.80000001192,107086.19999998808,106799.77,106815.10000002384,106816.435,107099.803,,21,"money,"
screen,html.Screen,0_2_1_1_22,2021-12-02T10:42:33.207Z,,,,,,,,,,,,,,,,54,,,,,,,,,,,,,,682.497000011921,,response,,,100,,,,,,Space,keypress(Space),,,,,-- --- ---- --- ------ ----- ------- ---- -- --- ------- --<br>------- ---------- ------ -- ----- -- ----- -- ---- ------<br>the ----- --- --- ------ -------- ----- --- ------ ----- --<br>----- ----- ---------- --- --- ------ ------ ---- -- ------<br>------- --- ------ ----- --- ---- ------- -- ---- --- --<br>------- ------,107782.80000001192,107782.30000001192,107083.137,107087,107099.803,107799.727,,22,the
screen,html.Screen,0_2_1_1_23,2021-12-02T10:42:33.671Z,,,,,,,,,,,,,,,,54,,,,,,,,,,,,,,446.3730000238429,,response,,,100,,,,,,Space,keypress(Space),,,,,-- --- ---- --- ------ ----- ------- ---- -- --- ------- --<br>------- ---------- ------ -- ----- -- ----- -- ---- ------<br>--- state --- --- ------ -------- ----- --- ------ ----- --<br>----- ----- ---------- --- --- ------ ------ ---- -- ------<br>------- --- ------ ----- --- ---- ------- -- ---- --- --<br>------- ------,108246.69999998808,108246.10000002384,107783.062,107783.10000002384,107799.727,108249.7,,23,state
screen,html.Screen,0_2_1_1_24,2021-12-02T10:42:33.895Z,,,,,,,,,,,,,,,,54,,,,,,,,,,,,,,220.40000002384477,,response,,,100,,,,,,Space,keypress(Space),,,,,-- --- ---- --- ------ ----- ------- ---- -- --- ------- --<br>------- ---------- ------ -- ----- -- ----- -- ---- ------<br>--- ----- cut --- ------ -------- ----- --- ------ ----- --<br>----- ----- ---------- --- --- ------ ------ ---- -- ------<br>------- --- ------ ----- --- ---- ------- -- ---- --- --<br>------- ------,108470.69999998808,108470.10000002384,108233.035,108246.89999997616,108249.7,108483.119,,24,cut
screen,html.Screen,0_2_1_1_25,2021-12-02T10:42:34.143Z,,,,,,,,,,,,,,,,54,,,,,,,,,,,,,,234.9810000238358,,response,,,100,,,,,,Space,keypress(Space),,,,,-- --- ---- --- ------ ----- ------- ---- -- --- ------- --<br>------- ---------- ------ -- ----- -- ----- -- ---- ------<br>--- ----- --- the ------ -------- ----- --- ------ ----- --<br>----- ----- ---------- --- --- ------ ------ ---- -- ------<br>------- --- ------ ----- --- ---- ------- -- ---- --- --<br>------- ------,108718.69999998808,108718.10000002384,108466.453,108470.89999997616,108483.119,108733.018,,25,the
screen,html.Screen,0_2_1_1_26,2021-12-02T10:42:34.375Z,,,,,,,,,,,,,,,,54,,,,,,,,,,,,,,217.18199998808268,,response,,,100,,,,,,Space,keypress(Space),,,,,-- --- ---- --- ------ ----- ------- ---- -- --- ------- --<br>------- ---------- ------ -- ----- -- ----- -- ---- ------<br>--- ----- --- --- bonds' -------- ----- --- ------ ----- --<br>----- ----- ---------- --- --- ------ ------ ---- -- ------<br>------- --- ------ ----- --- ---- ------- -- ---- --- --<br>------- ------,108950.69999998808,108950.19999998808,108716.354,108718.89999997616,108733.018,108966.454,,26,bonds'
screen,html.Screen,0_2_1_1_27,2021-12-02T10:42:34.839Z,,,,,,,,,,,,,,,,54,,,,,,,,,,,,,,447.74599998808117,,response,,,100,,,,,,Space,keypress(Space),,,,,-- --- ---- --- ------ ----- ------- ---- -- --- ------- --<br>------- ---------- ------ -- ----- -- ----- -- ---- ------<br>--- ----- --- --- ------ interest ----- --- ------ ----- --<br>----- ----- ---------- --- --- ------ ------ ---- -- ------<br>------- --- ------ ----- --- ---- ------- -- ---- --- --<br>------- ------,109414.69999998808,109414.19999998808,108949.786,108950.89999997616,108966.454,109416.373,,27,interest
screen,html.Screen,0_2_1_1_28,2021-12-02T10:42:35.119Z,,,,,,,,,,,,,,,,54,,,,,,,,,,,,,,277.727000023835,,response,,,100,,,,,,Space,keypress(Space),,,,,-- --- ---- --- ------ ----- ------- ---- -- --- ------- --<br>------- ---------- ------ -- ----- -- ----- -- ---- ------<br>--- ----- --- --- ------ -------- rate. --- ------ ----- --<br>----- ----- ---------- --- --- ------ ------ ---- -- ------<br>------- --- ------ ----- --- ---- ------- -- ---- --- --<br>------- ------,109694.60000002384,109694.10000002384,109399.708,109414.89999997616,109416.373,109699.7,,28,rate.
screen,html.Screen,0_2_1_1_29,2021-12-02T10:42:35.591Z,,,,,,,,,,,,,,,,54,,,,,,,,,,,,,,466.60000001192384,,response,,,100,,,,,,Space,keypress(Space),,,,,-- --- ---- --- ------ ----- ------- ---- -- --- ------- --<br>------- ---------- ------ -- ----- -- ----- -- ---- ------<br>--- ----- --- --- ------ -------- ----- The ------ ----- --<br>----- ----- ---------- --- --- ------ ------ ---- -- ------<br>------- --- ------ ----- --- ---- ------- -- ---- --- --<br>------- ------,110166.89999997616,110166.30000001192,109683.035,109694.89999997616,109699.7,110183.006,,29,The
screen,html.Screen,0_2_1_1_30,2021-12-02T10:42:35.783Z,,,,,,,,,,,,,,,,54,,,,,,,,,,,,,,175.19399998808512,,response,,,100,,,,,,Space,keypress(Space),,,,,-- --- ---- --- ------ ----- ------- ---- -- --- ------- --<br>------- ---------- ------ -- ----- -- ----- -- ---- ------<br>--- ----- --- --- ------ -------- ----- --- market ----- --<br>----- ----- ---------- --- --- ------ ------ ---- -- ------<br>------- --- ------ ----- --- ---- ------- -- ---- --- --<br>------- ------,110358.80000001192,110358.19999998808,110166.341,110167.10000002384,110183.006,110366.268,,30,market
screen,html.Screen,0_2_1_1_31,2021-12-02T10:42:36.143Z,,,,,,,,,,,,,,,,54,,,,,,,,,,,,,,351.7320000000036,,response,,,100,,,,,,Space,keypress(Space),,,,,-- --- ---- --- ------ ----- ------- ---- -- --- ------- --<br>------- ---------- ------ -- ----- -- ----- -- ---- ------<br>--- ----- --- --- ------ -------- ----- --- ------ value --<br>----- ----- ---------- --- --- ------ ------ ---- -- ------<br>------- --- ------ ----- --- ---- ------- -- ---- --- --<br>------- ------,110718.69999998808,110718,110349.604,110359.10000002384,110366.268,110733.023,,31,value
screen,html.Screen,0_2_1_1_32,2021-12-02T10:42:36.407Z,,,,,,,,,,,,,,,,54,,,,,,,,,,,,,,248.97699999999895,,response,,,100,,,,,,Space,keypress(Space),,,,,-- --- ---- --- ------ ----- ------- ---- -- --- ------- --<br>------- ---------- ------ -- ----- -- ----- -- ---- ------<br>--- ----- --- --- ------ -------- ----- --- ------ ----- of<br>----- ----- ---------- --- --- ------ ------ ---- -- ------<br>------- --- ------ ----- --- ---- ------- -- ---- --- --<br>------- ------,110982.60000002384,110982,110716.356,110718.80000001192,110733.023,110999.565,,32,of
screen,html.Screen,0_2_1_1_33,2021-12-02T10:42:36.847Z,,,,,,,,,,,,,,,,54,,,,,,,,,,,,,,422.4349999999977,,response,,,100,,,,,,Space,keypress(Space),,,,,-- --- ---- --- ------ ----- ------- ---- -- --- ------- --<br>------- ---------- ------ -- ----- -- ----- -- ---- ------<br>--- ----- --- --- ------ -------- ----- --- ------ ----- --<br>these ----- ---------- --- --- ------ ------ ---- -- ------<br>------- --- ------ ----- --- ---- ------- -- ---- --- --<br>------- ------,111422.60000002384,111422,110982.902,110982.69999998808,110999.565,111433.029,,33,these
screen,html.Screen,0_2_1_1_34,2021-12-02T10:42:37.103Z,,,,,,,,,,,,,,,,54,,,,,,,,,,,,,,244.971000000005,,response,,,100,,,,,,Space,keypress(Space),,,,,-- --- ---- --- ------ ----- ------- ---- -- --- ------- --<br>------- ---------- ------ -- ----- -- ----- -- ---- ------<br>--- ----- --- --- ------ -------- ----- --- ------ ----- --<br>----- bonds ---------- --- --- ------ ------ ---- -- ------<br>------- --- ------ ----- --- ---- ------- -- ---- --- --<br>------- ------,111678.60000002384,111678,111416.362,111422.80000001192,111433.029,111682.966,,34,bonds
screen,html.Screen,0_2_1_1_35,2021-12-02T10:42:37.367Z,,,,,,,,,,,,,,,,54,,,,,,,,,,,,,,259.03399999999965,,response,,,100,,,,,,Space,keypress(Space),,,,,"-- --- ---- --- ------ ----- ------- ---- -- --- ------- --<br>------- ---------- ------ -- ----- -- ----- -- ---- ------<br>--- ----- --- --- ------ -------- ----- --- ------ ----- --<br>----- ----- plummeted, --- --- ------ ------ ---- -- ------<br>------- --- ------ ----- --- ---- ------- -- ---- --- --<br>------- ------",111942.5,111942,111666.301,111678.80000001192,111682.966,111949.645,,35,"plummeted,"
screen,html.Screen,0_2_1_1_36,2021-12-02T10:42:37.799Z,,,,,,,,,,,,,,,,54,,,,,,,,,,,,,,424.3549999999959,,response,,,100,,,,,,Space,keypress(Space),,,,,-- --- ---- --- ------ ----- ------- ---- -- --- ------- --<br>------- ---------- ------ -- ----- -- ----- -- ---- ------<br>--- ----- --- --- ------ -------- ----- --- ------ ----- --<br>----- ----- ---------- and --- ------ ------ ---- -- ------<br>------- --- ------ ----- --- ---- ------- -- ---- --- --<br>------- ------,112374.69999998808,112374,111932.979,111942.69999998808,111949.645,112382.964,,36,and
screen,html.Screen,0_2_1_1_37,2021-12-02T10:42:38.119Z,,,,,,,,,,,,,,,,54,,,,,,,,,,,,,,311.0359999999928,,response,,,100,,,,,,Space,keypress(Space),,,,,-- --- ---- --- ------ ----- ------- ---- -- --- ------- --<br>------- ---------- ------ -- ----- -- ----- -- ---- ------<br>--- ----- --- --- ------ -------- ----- --- ------ ----- --<br>----- ----- ---------- --- the ------ ------ ---- -- ------<br>------- --- ------ ----- --- ---- ------- -- ---- --- --<br>------- ------,112694.5,112694,112366.298,112374.89999997616,112382.964,112699.48,,37,the
screen,html.Screen,0_2_1_1_38,2021-12-02T10:42:38.383Z,,,,,,,,,,,,,,,,54,,,,,,,,,,,,,,258.5200000000041,,response,,,100,,,,,,Space,keypress(Space),,,,,-- --- ---- --- ------ ----- ------- ---- -- --- ------- --<br>------- ---------- ------ -- ----- -- ----- -- ---- ------<br>--- ----- --- --- ------ -------- ----- --- ------ ----- --<br>----- ----- ---------- --- --- market ------ ---- -- ------<br>------- --- ------ ----- --- ---- ------- -- ---- --- --<br>------- ------,112958.5,112958,112682.817,112694.69999998808,112699.48,112966.301,,38,market
screen,html.Screen,0_2_1_1_39,2021-12-02T10:42:38.502Z,,,,,,,,,,,,,,,,54,,,,,,,,,,,,,,111.59899997615139,,response,,,100,,,,,,Space,keypress(Space),,,,,-- --- ---- --- ------ ----- ------- ---- -- --- ------- --<br>------- ---------- ------ -- ----- -- ----- -- ---- ------<br>--- ----- --- --- ------ -------- ----- --- ------ ----- --<br>----- ----- ---------- --- --- ------ became ---- -- ------<br>------- --- ------ ----- --- ---- ------- -- ---- --- --<br>------- ------,113078.5,113077.89999997616,112949.634,112958.69999998808,112966.301,113082.872,,39,became
screen,html.Screen,0_2_1_1_40,2021-12-02T10:42:39.023Z,,,,,,,,,,,,,,,,54,,,,,,,,,,,,,,515.127999999997,,response,,,100,,,,,,Space,keypress(Space),,,,,-- --- ---- --- ------ ----- ------- ---- -- --- ------- --<br>------- ---------- ------ -- ----- -- ----- -- ---- ------<br>--- ----- --- --- ------ -------- ----- --- ------ ----- --<br>----- ----- ---------- --- --- ------ ------ wary -- ------<br>------- --- ------ ----- --- ---- ------- -- ---- --- --<br>------- ------,113598.5,113598,113066.208,113078.60000002384,113082.872,113599.663,,40,wary
screen,html.Screen,0_2_1_1_41,2021-12-02T10:42:39.254Z,,,,,,,,,,,,,,,,54,,,,,,,,,,,,,,230.33699999999953,,response,,,100,,,,,,Space,keypress(Space),,,,,-- --- ---- --- ------ ----- ------- ---- -- --- ------- --<br>------- ---------- ------ -- ----- -- ----- -- ---- ------<br>--- ----- --- --- ------ -------- ----- --- ------ ----- --<br>----- ----- ---------- --- --- ------ ------ ---- of ------<br>------- --- ------ ----- --- ---- ------- -- ---- --- --<br>------- ------,113830.5,113830,113582.995,113598.69999998808,113599.663,113832.836,,41,of
screen,html.Screen,0_2_1_1_42,2021-12-02T10:42:39.542Z,,,,,,,,,,,,,,,,54,,,,,,,,,,,,,,285.06399997616245,,response,,,100,,,,,,Space,keypress(Space),,,,,-- --- ---- --- ------ ----- ------- ---- -- --- ------- --<br>------- ---------- ------ -- ----- -- ----- -- ---- ------<br>--- ----- --- --- ------ -------- ----- --- ------ ----- --<br>----- ----- ---------- --- --- ------ ------ ---- -- French<br>------- --- ------ ----- --- ---- ------- -- ---- --- --<br>------- ------,114118.39999997616,114117.89999997616,113816.172,113830.69999998808,113832.836,114132.843,,42,French
screen,html.Screen,0_2_1_1_43,2021-12-02T10:42:40.015Z,,,,,,,,,,,,,,,,54,,,,,,,,,,,,,,457.05699997616466,,response,,,100,,,,,,Space,keypress(Space),,,,,-- --- ---- --- ------ ----- ------- ---- -- --- ------- --<br>------- ---------- ------ -- ----- -- ----- -- ---- ------<br>--- ----- --- --- ------ -------- ----- --- ------ ----- --<br>----- ----- ---------- --- --- ------ ------ ---- -- ------<br>credit. --- ------ ----- --- ---- ------- -- ---- --- --<br>------- ------,114590.5,114589.89999997616,114116.178,114118.60000002384,114132.843,114599.571,,43,credit.
screen,html.Screen,0_2_1_1_44,2021-12-02T10:42:40.311Z,,,,,,,,,,,,,,,,54,,,,,,,,,,,,,,286.32899997616187,,response,,,100,,,,,,Space,keypress(Space),,,,,-- --- ---- --- ------ ----- ------- ---- -- --- ------- --<br>------- ---------- ------ -- ----- -- ----- -- ---- ------<br>--- ----- --- --- ------ -------- ----- --- ------ ----- --<br>----- ----- ---------- --- --- ------ ------ ---- -- ------<br>------- The ------ ----- --- ---- ------- -- ---- --- --<br>------- ------,114886.60000002384,114885.89999997616,114582.904,114590.80000001192,114599.571,114899.51,,44,The
screen,html.Screen,0_2_1_1_45,2021-12-02T10:42:40.598Z,,,,,,,,,,,,,,,,54,,,,,,,,,,,,,,274.3899999761634,,response,,,100,,,,,,Space,keypress(Space),,,,,-- --- ---- --- ------ ----- ------- ---- -- --- ------- --<br>------- ---------- ------ -- ----- -- ----- -- ---- ------<br>--- ----- --- --- ------ -------- ----- --- ------ ----- --<br>----- ----- ---------- --- --- ------ ------ ---- -- ------<br>------- --- French ----- --- ---- ------- -- ---- --- --<br>------- ------,115174.5,115173.89999997616,114882.845,114886.80000001192,114899.51,115182.776,,45,French
screen,html.Screen,0_2_1_1_46,2021-12-02T10:42:40.863Z,,,,,,,,,,,,,,,,54,,,,,,,,,,,,,,255.12399997616012,,response,,,100,,,,,,Space,keypress(Space),,,,,-- --- ---- --- ------ ----- ------- ---- -- --- ------- --<br>------- ---------- ------ -- ----- -- ----- -- ---- ------<br>--- ----- --- --- ------ -------- ----- --- ------ ----- --<br>----- ----- ---------- --- --- ------ ------ ---- -- ------<br>------- --- ------ state --- ---- ------- -- ---- --- --<br>------- ------,115438.60000002384,115437.89999997616,115166.112,115174.60000002384,115182.776,115449.466,,46,state
screen,html.Screen,0_2_1_1_47,2021-12-02T10:42:41.102Z,,,,,,,,,,,,,,,,54,,,,,,,,,,,,,,228.4339999761578,,response,,,100,,,,,,Space,keypress(Space),,,,,-- --- ---- --- ------ ----- ------- ---- -- --- ------- --<br>------- ---------- ------ -- ----- -- ----- -- ---- ------<br>--- ----- --- --- ------ -------- ----- --- ------ ----- --<br>----- ----- ---------- --- --- ------ ------ ---- -- ------<br>------- --- ------ ----- was ---- ------- -- ---- --- --<br>------- ------,115678.39999997616,115677.89999997616,115432.801,115438.69999998808,115449.466,115682.859,,47,was
screen,html.Screen,0_2_1_1_48,2021-12-02T10:42:41.487Z,,,,,,,,,,,,,,,,54,,,,,,,,,,,,,,379.0409999761614,,response,,,100,,,,,,Space,keypress(Space),,,,,-- --- ---- --- ------ ----- ------- ---- -- --- ------- --<br>------- ---------- ------ -- ----- -- ----- -- ---- ------<br>--- ----- --- --- ------ -------- ----- --- ------ ----- --<br>----- ----- ---------- --- --- ------ ------ ---- -- ------<br>------- --- ------ ----- --- left ------- -- ---- --- --<br>------- ------,116062.5,116061.89999997616,115666.192,115678.60000002384,115682.859,116065.967,,48,left
screen,html.Screen,0_2_1_1_49,2021-12-02T10:42:41.798Z,,,,,,,,,,,,,,,,54,,,,,,,,,,,,,,307.93299997615395,,response,,,100,,,,,,Space,keypress(Space),,,,,-- --- ---- --- ------ ----- ------- ---- -- --- ------- --<br>------- ---------- ------ -- ----- -- ----- -- ---- ------<br>--- ----- --- --- ------ -------- ----- --- ------ ----- --<br>----- ----- ---------- --- --- ------ ------ ---- -- ------<br>------- --- ------ ----- --- ---- without -- ---- --- --<br>------- ------,116374.39999997616,116373.89999997616,116049.305,116062.69999998808,116065.967,116382.861,,49,without
screen,html.Screen,0_2_1_1_50,2021-12-02T10:42:42.078Z,,,,,,,,,,,,,,,,54,,,,,,,,,,,,,,270.9390000119165,,response,,,100,,,,,,Space,keypress(Space),,,,,-- --- ---- --- ------ ----- ------- ---- -- --- ------- --<br>------- ---------- ------ -- ----- -- ----- -- ---- ------<br>--- ----- --- --- ------ -------- ----- --- ------ ----- --<br>----- ----- ---------- --- --- ------ ------ ---- -- ------<br>------- --- ------ ----- --- ---- ------- an ---- --- --<br>------- ------,116654.39999997616,116653.80000001192,116366.192,116374.60000002384,116382.861,116666.141,,50,an
screen,html.Screen,0_2_1_1_51,2021-12-02T10:42:42.326Z,,,,,,,,,,,,,,,,54,,,,,,,,,,,,,,235.65900001191767,,response,,,100,,,,,,Space,keypress(Space),,,,,-- --- ---- --- ------ ----- ------- ---- -- --- ------- --<br>------- ---------- ------ -- ----- -- ----- -- ---- ------<br>--- ----- --- --- ------ -------- ----- --- ------ ----- --<br>----- ----- ---------- --- --- ------ ------ ---- -- ------<br>------- --- ------ ----- --- ---- ------- -- easy --- --<br>------- ------,116902.39999997616,116901.80000001192,116649.475,116654.5,116666.141,116916.101,,51,easy
screen,html.Screen,0_2_1_1_52,2021-12-02T10:42:42.590Z,,,,,,,,,,,,,,,,54,,,,,,,,,,,,,,249.69900001192582,,response,,,100,,,,,,Space,keypress(Space),,,,,-- --- ---- --- ------ ----- ------- ---- -- --- ------- --<br>------- ---------- ------ -- ----- -- ----- -- ---- ------<br>--- ----- --- --- ------ -------- ----- --- ------ ----- --<br>----- ----- ---------- --- --- ------ ------ ---- -- ------<br>------- --- ------ ----- --- ---- ------- -- ---- way --<br>------- ------,117166.39999997616,117165.80000001192,116899.436,116902.5,116916.101,117182.793,,52,way
screen,html.Screen,0_2_1_1_53,2021-12-02T10:42:42.758Z,,,,,,,,,,,,,,,,54,,,,,,,,,,,,,,151.0070000119158,,response,,,100,,,,,,Space,keypress(Space),,,,,-- --- ---- --- ------ ----- ------- ---- -- --- ------- --<br>------- ---------- ------ -- ----- -- ----- -- ---- ------<br>--- ----- --- --- ------ -------- ----- --- ------ ----- --<br>----- ----- ---------- --- --- ------ ------ ---- -- ------<br>------- --- ------ ----- --- ---- ------- -- ---- --- of<br>------- ------,117334.39999997616,117333.80000001192,117166.127,117166.5,117182.793,117349.376,,53,of
screen,html.Screen,0_2_1_1_54,2021-12-02T10:42:43.022Z,,,,,,,,,,,,,,,,54,,,,,,,,,,,,,,248.5239999761543,,response,,,100,,,,,,Space,keypress(Space),,,,,-- --- ---- --- ------ ----- ------- ---- -- --- ------- --<br>------- ---------- ------ -- ----- -- ----- -- ---- ------<br>--- ----- --- --- ------ -------- ----- --- ------ ----- --<br>----- ----- ---------- --- --- ------ ------ ---- -- ------<br>------- --- ------ ----- --- ---- ------- -- ---- --- --<br>raising ------,117598.39999997616,117597.89999997616,117332.712,117334.5,117349.376,117599.393,,54,raising
screen,html.Screen,0_2_1_1_55,2021-12-02T10:42:43.895Z,,,,,,,,,,,,,,,,54,,,,,,,,,,,,,,870.5069999761618,,response,,,100,,,,,,Space,keypress(Space),,,,,-- --- ---- --- ------ ----- ------- ---- -- --- ------- --<br>------- ---------- ------ -- ----- -- ----- -- ---- ------<br>--- ----- --- --- ------ -------- ----- --- ------ ----- --<br>----- ----- ---------- --- --- ------ ------ ---- -- ------<br>------- --- ------ ----- --- ---- ------- -- ---- --- --<br>------- money.,118470.5,118469.89999997616,117582.728,117598.60000002384,117599.393,118482.562,,55,money.
Item 100,flow.Loop,0_2_1_1,2021-12-02T10:42:43.895Z,,,,,,,,,,,,,,,,,,,,,,,,,,,,,,19203.228999976156,,completion,,,,D,,,,,,,,,,silence,,118470.80000001192,118469.89999997616,99250.006,99251.10000002384,99266.671,118482.562,,,
Question 1,html.Screen,0_2_1_2,2021-12-02T10:42:46.940Z,,,,,,,,,,,,,,,,,,,,,,,,,,,true,TRUE,,3031.2380000119156,,response,,,100,D,,,,,TRUE,click #choice-1,,,,silence,,121514.69999998808,121513.80000001192,118465.898,118471,118482.562,121532.62,,,
Question 2,html.Screen,0_2_1_3,2021-12-02T10:42:49.161Z,,,,,,,,,,,,,,,,,,,,,,,,,,,true,FALSE,,2201.5799999880837,,response,,,100,D,,,,,FALSE,click #choice-2,,,,silence,,123735.10000002384,123734.19999998808,121515.954,121514.89999997616,121532.62,123749.337,,,
Item 100,flow.Sequence,0_2_1,2021-12-02T10:42:49.161Z,,,,,,,,,,,,,,,,,,,,,,,,,,,,,,34467.11299998808,,completion,,,,,,,,,,,,,,,,123735.39999997616,123734.19999998808,89250.422,89252.80000001192,89267.087,123749.337,,,
End of Practice,html.Page,0_2_2,2021-12-02T10:42:54.790Z,,,,,,,,,,,,,,,,,,,,,,,,,,,,,,5614.263000023842,,form submission,,,,,,,,,,,,,,,,129363.89999997616,129363.60000002384,123732.663,123735.5,123749.337,129365.434,,,
Practice,flow.Sequence,0_2,2021-12-02T10:42:54.790Z,,,,,,,,,,,,,,,,,,,,,,,,,,,,,,86911.56000002383,,completion,,,,,,,,,,,,,,,,129364.19999998808,129363.60000002384,42435.375,42441.19999998808,42452.04,129365.434,,,
Trap_instruction,html.Page,0_3_0,2021-12-02T10:42:59.156Z,,,,,,,,,,,,,,,,,,,,,,,,,,,,,,4364.465999976164,,form submission,,,,,,,,,,,,,,,,133730.19999998808,133729.89999997616,129348.769,129364.39999997616,129365.434,133748.512,,,
trap_trial,html.Screen,0_3_1,2021-12-02T10:43:02.042Z,,,,,,,,,,,,,,,,,,,,,,,,,,,true,1,,2867.187999988091,,response,,,,,,,,,1,click #choice-1,,,,,,136616.69999998808,136615.69999998808,133715.182,133730.39999997616,133748.512,136631.858,,,
end of trap trial,html.Page,0_3_2,2021-12-02T10:43:04.063Z,,,,,,,,,,,,,,,,,,,,,,,,,,,,,,2005.2420000238344,,form submission,,,,,,,,,,,,,,,,138637.5,138637.10000002384,136615.193,136616.89999997616,136631.858,138648.547,,,
Trap 1,flow.Sequence,0_3,2021-12-02T10:43:04.063Z,,,,,,,,,,,,,,,,,,,,,,,,,,,,,,9271.666000023848,,completion,,,,,,,,,,,,,,,,138637.69999998808,138637.10000002384,129348.769,129364.30000001192,129365.434,138648.547,,,
Standby,html.Page,0_4_0,2021-12-02T10:43:12.059Z,,,,,,,,,,,,,,,,,,,,,,,,,,,,,,7999.741000000009,,timeout,,,,,,,,,,,,,,,,146633.30000001192,146631.622,138631.882,138637.89999997616,138648.547,146648.288,,,
Holding screen,html.Screen,0_4_1_0_0,2021-12-02T10:43:19.058Z,,,,,,,,,,,,,,,,,,,,,,,,,,,,,,6999.725000000006,,timeout,,,,,,,,,,,,,,,,153632.39999997616,153631.348,146631.622,146633.5,146648.288,153648.013,,,
screen,html.Screen,0_4_1_0_1_0,2021-12-02T10:43:20.999Z,,,,,,,,,,,,,,,,11,,,,,,,,,,,,,,1924.6869999880728,,response,,,4,D,,,,,Space,keypress(Space),,,,silence,Known -- ---- --- -- --- -------- ------------ ---------- --<br>- ------- ------ --------- -- ------------ -- --- ---- -----<br>------ ---- ---- ------ ------ ------- --- ----- ---------<br>---- --- -------- -------- --- --- -- ------- --- --- -----<br>-- --- ------ ------- --- --- -------- ---- --------- --<br>---------- -- -------- ----------------,155573.5,155572.69999998808,153631.348,153632.60000002384,153648.013,155581.201,,0,Known
screen,html.Screen,0_4_1_0_1_1,2021-12-02T10:43:21.503Z,,,,,,,,,,,,,,,,11,,,,,,,,,,,,,,495.1989999761572,,response,,,4,D,,,,,Space,keypress(Space),,,,silence,----- as ---- --- -- --- -------- ------------ ---------- --<br>- ------- ------ --------- -- ------------ -- --- ---- -----<br>------ ---- ---- ------ ------ ------- --- ----- ---------<br>---- --- -------- -------- --- --- -- ------- --- --- -----<br>-- --- ------ ------- --- --- -------- ---- --------- --<br>---------- -- -------- ----------------,156077.10000002384,156076.39999997616,155564.536,155573.80000001192,155581.201,156081.249,,1,as
screen,html.Screen,0_4_1_0_1_2,2021-12-02T10:43:21.927Z,,,,,,,,,,,,,,,,11,,,,,,,,,,,,,,419.15099997614743,,response,,,4,D,,,,,Space,keypress(Space),,,,silence,----- -- Rapa --- -- --- -------- ------------ ---------- --<br>- ------- ------ --------- -- ------------ -- --- ---- -----<br>------ ---- ---- ------ ------ ------- --- ----- ---------<br>---- --- -------- -------- --- --- -- ------- --- --- -----<br>-- --- ------ ------- --- --- -------- ---- --------- --<br>---------- -- -------- ----------------,156501,156500.39999997616,156064.584,156077.10000002384,156081.249,156514.657,,2,Rapa
screen,html.Screen,0_4_1_0_1_3,2021-12-02T10:43:22.423Z,,,,,,,,,,,,,,,,11,,,,,,,,,,,,,,481.7429999761516,,response,,,4,D,,,,,Space,keypress(Space),,,,silence,----- -- ---- Nui -- --- -------- ------------ ---------- --<br>- ------- ------ --------- -- ------------ -- --- ---- -----<br>------ ---- ---- ------ ------ ------- --- ----- ---------<br>---- --- -------- -------- --- --- -- ------- --- --- -----<br>-- --- ------ ------- --- --- -------- ---- --------- --<br>---------- -- -------- ----------------,156997,156996.39999997616,156497.991,156501.10000002384,156514.657,156997.924,,3,Nui
screen,html.Screen,0_4_1_0_1_4,2021-12-02T10:43:22.871Z,,,,,,,,,,,,,,,,11,,,,,,,,,,,,,,446.37600001192186,,response,,,4,D,,,,,Space,keypress(Space),,,,silence,----- -- ---- --- to --- -------- ------------ ---------- --<br>- ------- ------ --------- -- ------------ -- --- ---- -----<br>------ ---- ---- ------ ------ ------- --- ----- ---------<br>---- --- -------- -------- --- --- -- ------- --- --- -----<br>-- --- ------ ------- --- --- -------- ---- --------- --<br>---------- -- -------- ----------------,157444.89999997616,157444.30000001192,156981.259,156997.19999998808,156997.924,157447.917,,4,to
screen,html.Screen,0_4_1_0_1_5,2021-12-02T10:43:23.135Z,,,,,,,,,,,,,,,,11,,,,,,,,,,,,,,260.3830000119342,,response,,,4,D,,,,,Space,keypress(Space),,,,silence,----- -- ---- --- -- the -------- ------------ ---------- --<br>- ------- ------ --------- -- ------------ -- --- ---- -----<br>------ ---- ---- ------ ------ ------- --- ----- ---------<br>---- --- -------- -------- --- --- -- ------- --- --- -----<br>-- --- ------ ------- --- --- -------- ---- --------- --<br>---------- -- -------- ----------------,157708.80000001192,157708.30000001192,157431.252,157445,157447.917,157714.617,,5,the
screen,html.Screen,0_4_1_0_1_6,2021-12-02T10:43:23.359Z,,,,,,,,,,,,,,,,11,,,,,,,,,,,,,,217.68300001192256,,response,,,4,D,,,,,Space,keypress(Space),,,,silence,----- -- ---- --- -- --- island's ------------ ---------- --<br>- ------- ------ --------- -- ------------ -- --- ---- -----<br>------ ---- ---- ------ ------ ------- --- ----- ---------<br>---- --- -------- -------- --- --- -- ------- --- --- -----<br>-- --- ------ ------- --- --- -------- ---- --------- --<br>---------- -- -------- ----------------,157932.89999997616,157932.30000001192,157697.951,157709,157714.617,157947.859,,6,island's
screen,html.Screen,0_4_1_0_1_7,2021-12-02T10:43:23.678Z,,,,,,,,,,,,,,,,11,,,,,,,,,,,,,,304.4410000119242,,response,,,4,D,,,,,Space,keypress(Space),,,,silence,"----- -- ---- --- -- --- -------- inhabitants, ---------- --<br>- ------- ------ --------- -- ------------ -- --- ---- -----<br>------ ---- ---- ------ ------ ------- --- ----- ---------<br>---- --- -------- -------- --- --- -- ------- --- --- -----<br>-- --- ------ ------- --- --- -------- ---- --------- --<br>---------- -- -------- ----------------",158252.80000001192,158252.30000001192,157931.195,157933,157947.859,158264.566,,7,"inhabitants,"
screen,html.Screen,0_4_1_0_1_8,2021-12-02T10:43:24.127Z,,,,,,,,,,,,,,,,11,,,,,,,,,,,,,,435.7340000119293,,response,,,4,D,,,,,Space,keypress(Space),,,,silence,----- -- ---- --- -- --- -------- ------------ Rongorongo --<br>- ------- ------ --------- -- ------------ -- --- ---- -----<br>------ ---- ---- ------ ------ ------- --- ----- ---------<br>---- --- -------- -------- --- --- -- ------- --- --- -----<br>-- --- ------ ------- --- --- -------- ---- --------- --<br>---------- -- -------- ----------------,158700.89999997616,158700.30000001192,158247.9,158253,158264.566,158714.507,,8,Rongorongo
screen,html.Screen,0_4_1_0_1_9,2021-12-02T10:43:24.807Z,,,,,,,,,,,,,,,,11,,,,,,,,,,,,,,665.7930000119086,,response,,,4,D,,,,,Space,keypress(Space),,,,silence,----- -- ---- --- -- --- -------- ------------ ---------- is<br>- ------- ------ --------- -- ------------ -- --- ---- -----<br>------ ---- ---- ------ ------ ------- --- ----- ---------<br>---- --- -------- -------- --- --- -- ------- --- --- -----<br>-- --- ------ ------- --- --- -------- ---- --------- --<br>---------- -- -------- ----------------,159380.89999997616,159380.30000001192,158697.842,158701,158714.507,159397.936,,9,is
screen,html.Screen,0_4_1_0_1_10,2021-12-02T10:43:25.215Z,,,,,,,,,,,,,,,,11,,,,,,,,,,,,,,390.36400001193397,,response,,,4,D,,,,,Space,keypress(Space),,,,silence,----- -- ---- --- -- --- -------- ------------ ---------- --<br>a ------- ------ --------- -- ------------ -- --- ---- -----<br>------ ---- ---- ------ ------ ------- --- ----- ---------<br>---- --- -------- -------- --- --- -- ------- --- --- -----<br>-- --- ------ ------- --- --- -------- ---- --------- --<br>---------- -- -------- ----------------,159788.89999997616,159788.30000001192,159381.269,159381.10000002384,159397.936,159797.799,,10,a
screen,html.Screen,0_4_1_0_1_11,2021-12-02T10:43:25.599Z,,,,,,,,,,,,,,,,11,,,,,,,,,,,,,,374.40099998808,,response,,,4,D,,,,,Space,keypress(Space),,,,silence,----- -- ---- --- -- --- -------- ------------ ---------- --<br>- writing ------ --------- -- ------------ -- --- ---- -----<br>------ ---- ---- ------ ------ ------- --- ----- ---------<br>---- --- -------- -------- --- --- -- ------- --- --- -----<br>-- --- ------ ------- --- --- -------- ---- --------- --<br>---------- -- -------- ----------------,160172.89999997616,160172.19999998808,159781.134,159789.10000002384,159797.799,160181.195,,11,writing
screen,html.Screen,0_4_1_0_1_12,2021-12-02T10:43:25.926Z,,,,,,,,,,,,,,,,11,,,,,,,,,,,,,,319.0049999880721,,response,,,4,D,,,,,Space,keypress(Space),,,,silence,----- -- ---- --- -- --- -------- ------------ ---------- --<br>- ------- system --------- -- ------------ -- --- ---- -----<br>------ ---- ---- ------ ------ ------- --- ----- ---------<br>---- --- -------- -------- --- --- -- ------- --- --- -----<br>-- --- ------ ------- --- --- -------- ---- --------- --<br>---------- -- -------- ----------------,160500.80000001192,160500.19999998808,160164.529,160173.10000002384,160181.195,160514.406,,12,system
screen,html.Screen,0_4_1_0_1_13,2021-12-02T10:43:26.262Z,,,,,,,,,,,,,,,,11,,,,,,,,,,,,,,321.79399998809095,,response,,,4,D,,,,,Space,keypress(Space),,,,silence,----- -- ---- --- -- --- -------- ------------ ---------- --<br>- ------- ------ comprised -- ------------ -- --- ---- -----<br>------ ---- ---- ------ ------ ------- --- ----- ---------<br>---- --- -------- -------- --- --- -- ------- --- --- -----<br>-- --- ------ ------- --- --- -------- ---- --------- --<br>---------- -- -------- ----------------,160836.80000001192,160836.19999998808,160497.742,160500.89999997616,160514.406,160847.871,,13,comprised
screen,html.Screen,0_4_1_0_1_14,2021-12-02T10:43:26.727Z,,,,,,,,,,,,,,,,11,,,,,,,,,,,,,,452.32899998806533,,response,,,4,D,,,,,Space,keypress(Space),,,,silence,----- -- ---- --- -- --- -------- ------------ ---------- --<br>- ------- ------ --------- of ------------ -- --- ---- -----<br>------ ---- ---- ------ ------ ------- --- ----- ---------<br>---- --- -------- -------- --- --- -- ------- --- --- -----<br>-- --- ------ ------- --- --- -------- ---- --------- --<br>---------- -- -------- ----------------,161300.89999997616,161300.19999998808,160831.204,160836.89999997616,160847.871,161314.377,,14,of
screen,html.Screen,0_4_1_0_1_15,2021-12-02T10:43:27.022Z,,,,,,,,,,,,,,,,11,,,,,,,,,,,,,,281.8229999880714,,response,,,4,D,,,,,Space,keypress(Space),,,,silence,----- -- ---- --- -- --- -------- ------------ ---------- --<br>- ------- ------ --------- -- pictographs. -- --- ---- -----<br>------ ---- ---- ------ ------ ------- --- ----- ---------<br>---- --- -------- -------- --- --- -- ------- --- --- -----<br>-- --- ------ ------- --- --- -------- ---- --------- --<br>---------- -- -------- ----------------,161596.80000001192,161596.19999998808,161297.713,161301.10000002384,161314.377,161597.737,,15,pictographs.
screen,html.Screen,0_4_1_0_1_16,2021-12-02T10:43:27.662Z,,,,,,,,,,,,,,,,11,,,,,,,,,,,,,,638.4629999880854,,response,,,4,D,,,,,Space,keypress(Space),,,,silence,----- -- ---- --- -- --- -------- ------------ ---------- --<br>- ------- ------ --------- -- ------------ It --- ---- -----<br>------ ---- ---- ------ ------ ------- --- ----- ---------<br>---- --- -------- -------- --- --- -- ------- --- --- -----<br>-- --- ------ ------- --- --- -------- ---- --------- --<br>---------- -- -------- ----------------,162236.80000001192,162236.19999998808,161581.072,161597,161597.737,162247.753,,16,It
screen,html.Screen,0_4_1_0_1_17,2021-12-02T10:43:27.982Z,,,,,,,,,,,,,,,,11,,,,,,,,,,,,,,308.4469999880821,,response,,,4,D,,,,,Space,keypress(Space),,,,silence,----- -- ---- --- -- --- -------- ------------ ---------- --<br>- ------- ------ --------- -- ------------ -- has ---- -----<br>------ ---- ---- ------ ------ ------- --- ----- ---------<br>---- --- -------- -------- --- --- -- ------- --- --- -----<br>-- --- ------ ------- --- --- -------- ---- --------- --<br>---------- -- -------- ----------------,162556.69999998808,162556.19999998808,162231.087,162236.89999997616,162247.753,162564.311,,17,has
screen,html.Screen,0_4_1_0_1_18,2021-12-02T10:43:28.414Z,,,,,,,,,,,,,,,,11,,,,,,,,,,,,,,423.7890000238549,,response,,,4,D,,,,,Space,keypress(Space),,,,silence,----- -- ---- --- -- --- -------- ------------ ---------- --<br>- ------- ------ --------- -- ------------ -- --- been -----<br>------ ---- ---- ------ ------ ------- --- ----- ---------<br>---- --- -------- -------- --- --- -- ------- --- --- -----<br>-- --- ------ ------- --- --- -------- ---- --------- --<br>---------- -- -------- ----------------,162988.69999998808,162988.10000002384,162547.647,162556.89999997616,162564.311,162997.722,,18,been
screen,html.Screen,0_4_1_0_1_19,2021-12-02T10:43:28.766Z,,,,,,,,,,,,,,,,11,,,,,,,,,,,,,,342.4779999880702,,response,,,4,D,,,,,Space,keypress(Space),,,,silence,----- -- ---- --- -- --- -------- ------------ ---------- --<br>- ------- ------ --------- -- ------------ -- --- ---- found<br>------ ---- ---- ------ ------ ------- --- ----- ---------<br>---- --- -------- -------- --- --- -- ------- --- --- -----<br>-- --- ------ ------- --- --- -------- ---- --------- --<br>---------- -- -------- ----------------,163340.69999998808,163340.19999998808,162981.056,162988.89999997616,162997.722,163347.785,,19,found
screen,html.Screen,0_4_1_0_1_20,2021-12-02T10:43:29.206Z,,,,,,,,,,,,,,,,11,,,,,,,,,,,,,,432.31500002383837,,response,,,4,D,,,,,Space,keypress(Space),,,,silence,----- -- ---- --- -- --- -------- ------------ ---------- --<br>- ------- ------ --------- -- ------------ -- --- ---- -----<br>carved ---- ---- ------ ------ ------- --- ----- ---------<br>---- --- -------- -------- --- --- -- ------- --- --- -----<br>-- --- ------ ------- --- --- -------- ---- --------- --<br>---------- -- -------- ----------------,163780.80000001192,163780.10000002384,163331.118,163340.89999997616,163347.785,163797.61,,20,carved
screen,html.Screen,0_4_1_0_1_21,2021-12-02T10:43:29.694Z,,,,,,,,,,,,,,,,11,,,,,,,,,,,,,,470.4900000238558,,response,,,4,D,,,,,Space,keypress(Space),,,,silence,----- -- ---- --- -- --- -------- ------------ ---------- --<br>- ------- ------ --------- -- ------------ -- --- ---- -----<br>------ into ---- ------ ------ ------- --- ----- ---------<br>---- --- -------- -------- --- --- -- ------- --- --- -----<br>-- --- ------ ------- --- --- -------- ---- --------- --<br>---------- -- -------- ----------------,164268.69999998808,164268.10000002384,163780.946,163780.89999997616,163797.61,164281.025,,21,into
screen,html.Screen,0_4_1_0_1_22,2021-12-02T10:43:30.430Z,,,,,,,,,,,,,,,,11,,,,,,,,,,,,,,723.0750000238477,,response,,,4,D,,,,,Space,keypress(Space),,,,silence,----- -- ---- --- -- --- -------- ------------ ---------- --<br>- ------- ------ --------- -- ------------ -- --- ---- -----<br>------ ---- many ------ ------ ------- --- ----- ---------<br>---- --- -------- -------- --- --- -- ------- --- --- -----<br>-- --- ------ ------- --- --- -------- ---- --------- --<br>---------- -- -------- ----------------,165004.80000001192,165004.10000002384,164264.359,164268.80000001192,164281.025,165014.343,,22,many
screen,html.Screen,0_4_1_0_1_23,2021-12-02T10:43:31.239Z,,,,,,,,,,,,,,,,11,,,,,,,,,,,,,,797.9570000119274,,response,,,4,D,,,,,Space,keypress(Space),,,,silence,----- -- ---- --- -- --- -------- ------------ ---------- --<br>- ------- ------ --------- -- ------------ -- --- ---- -----<br>------ ---- ---- oblong ------ ------- --- ----- ---------<br>---- --- -------- -------- --- --- -- ------- --- --- -----<br>-- --- ------ ------- --- --- -------- ---- --------- --<br>---------- -- -------- ----------------,165812.80000001192,165812.30000001192,164997.677,165005,165014.343,165814.247,,23,oblong
screen,html.Screen,0_4_1_0_1_24,2021-12-02T10:43:31.638Z,,,,,,,,,,,,,,,,11,,,,,,,,,,,,,,397.752999999997,,response,,,4,D,,,,,Space,keypress(Space),,,,silence,----- -- ---- --- -- --- -------- ------------ ---------- --<br>- ------- ------ --------- -- ------------ -- --- ---- -----<br>------ ---- ---- ------ wooden ------- --- ----- ---------<br>---- --- -------- -------- --- --- -- ------- --- --- -----<br>-- --- ------ ------- --- --- -------- ---- --------- --<br>---------- -- -------- ----------------,166212.60000002384,166212,165797.582,165813,165814.247,166214.223,,24,wooden
screen,html.Screen,0_4_1_0_1_25,2021-12-02T10:43:31.998Z,,,,,,,,,,,,,,,,11,,,,,,,,,,,,,,357.67699997616,,response,,,4,D,,,,,Space,keypress(Space),,,,silence,----- -- ---- --- -- --- -------- ------------ ---------- --<br>- ------- ------ --------- -- ------------ -- --- ---- -----<br>------ ---- ---- ------ ------ tablets --- ----- ---------<br>---- --- -------- -------- --- --- -- ------- --- --- -----<br>-- --- ------ ------- --- --- -------- ---- --------- --<br>---------- -- -------- ----------------,166572.60000002384,166571.89999997616,166197.558,166212.69999998808,166214.223,166580.899,,25,tablets
screen,html.Screen,0_4_1_0_1_26,2021-12-02T10:43:32.422Z,,,,,,,,,,,,,,,,11,,,,,,,,,,,,,,415.1009999999951,,response,,,4,D,,,,,Space,keypress(Space),,,,silence,----- -- ---- --- -- --- -------- ------------ ---------- --<br>- ------- ------ --------- -- ------------ -- --- ---- -----<br>------ ---- ---- ------ ------ ------- and ----- ---------<br>---- --- -------- -------- --- --- -- ------- --- --- -----<br>-- --- ------ ------- --- --- -------- ---- --------- --<br>---------- -- -------- ----------------,166996.5,166996,166564.234,166572.80000001192,166580.899,166997.547,,26,and
screen,html.Screen,0_4_1_0_1_27,2021-12-02T10:43:32.702Z,,,,,,,,,,,,,,,,11,,,,,,,,,,,,,,278.35299997616676,,response,,,4,D,,,,,Space,keypress(Space),,,,silence,----- -- ---- --- -- --- -------- ------------ ---------- --<br>- ------- ------ --------- -- ------------ -- --- ---- -----<br>------ ---- ---- ------ ------ ------- --- other ---------<br>---- --- -------- -------- --- --- -- ------- --- --- -----<br>-- --- ------ ------- --- --- -------- ---- --------- --<br>---------- -- -------- ----------------,167276.5,167275.89999997616,166980.882,166996.69999998808,166997.547,167280.937,,27,other
screen,html.Screen,0_4_1_0_1_28,2021-12-02T10:43:32.934Z,,,,,,,,,,,,,,,,11,,,,,,,,,,,,,,226.9629999761528,,response,,,4,D,,,,,Space,keypress(Space),,,,silence,----- -- ---- --- -- --- -------- ------------ ---------- --<br>- ------- ------ --------- -- ------------ -- --- ---- -----<br>------ ---- ---- ------ ------ ------- --- ----- artifacts<br>---- --- -------- -------- --- --- -- ------- --- --- -----<br>-- --- ------ ------- --- --- -------- ---- --------- --<br>---------- -- -------- ----------------,167508.5,167507.89999997616,167264.271,167276.69999998808,167280.937,167514.173,,28,artifacts
screen,html.Screen,0_4_1_0_1_29,2021-12-02T10:43:33.566Z,,,,,,,,,,,,,,,,11,,,,,,,,,,,,,,625.8269999999902,,response,,,4,D,,,,,Space,keypress(Space),,,,silence,----- -- ---- --- -- --- -------- ------------ ---------- --<br>- ------- ------ --------- -- ------------ -- --- ---- -----<br>------ ---- ---- ------ ------ ------- --- ----- ---------<br>from --- -------- -------- --- --- -- ------- --- --- -----<br>-- --- ------ ------- --- --- -------- ---- --------- --<br>---------- -- -------- ----------------,168140.60000002384,168140,167497.509,167508.69999998808,167514.173,168147.579,,29,from
screen,html.Screen,0_4_1_0_1_30,2021-12-02T10:43:33.894Z,,,,,,,,,,,,,,,,11,,,,,,,,,,,,,,320.32099997616024,,response,,,4,D,,,,,Space,keypress(Space),,,,silence,----- -- ---- --- -- --- -------- ------------ ---------- --<br>- ------- ------ --------- -- ------------ -- --- ---- -----<br>------ ---- ---- ------ ------ ------- --- ----- ---------<br>---- the -------- -------- --- --- -- ------- --- --- -----<br>-- --- ------ ------- --- --- -------- ---- --------- --<br>---------- -- -------- ----------------,168468.5,168467.89999997616,168130.912,168140.69999998808,168147.579,168480.761,,30,the
screen,html.Screen,0_4_1_0_1_31,2021-12-02T10:43:34.166Z,,,,,,,,,,,,,,,,11,,,,,,,,,,,,,,259.13899997615954,,response,,,4,D,,,,,Space,keypress(Space),,,,silence,----- -- ---- --- -- --- -------- ------------ ---------- --<br>- ------- ------ --------- -- ------------ -- --- ---- -----<br>------ ---- ---- ------ ------ ------- --- ----- ---------<br>---- --- island's -------- --- --- -- ------- --- --- -----<br>-- --- ------ ------- --- --- -------- ---- --------- --<br>---------- -- -------- ----------------,168740.39999997616,168739.89999997616,168464.097,168468.69999998808,168480.761,168747.485,,31,island's
screen,html.Screen,0_4_1_0_1_32,2021-12-02T10:43:34.558Z,,,,,,,,,,,,,,,,11,,,,,,,,,,,,,,384.4149999761721,,response,,,4,D,,,,,Space,keypress(Space),,,,silence,----- -- ---- --- -- --- -------- ------------ ---------- --<br>- ------- ------ --------- -- ------------ -- --- ---- -----<br>------ ---- ---- ------ ------ ------- --- ----- ---------<br>---- --- -------- history. --- --- -- ------- --- --- -----<br>-- --- ------ ------- --- --- -------- ---- --------- --<br>---------- -- -------- ----------------,169132.5,169131.89999997616,168730.82,168740.60000002384,168747.485,169147.441,,32,history.
screen,html.Screen,0_4_1_0_1_33,2021-12-02T10:43:34.854Z,,,,,,,,,,,,,,,,11,,,,,,,,,,,,,,280.4589999761665,,response,,,4,D,,,,,Space,keypress(Space),,,,silence,----- -- ---- --- -- --- -------- ------------ ---------- --<br>- ------- ------ --------- -- ------------ -- --- ---- -----<br>------ ---- ---- ------ ------ ------- --- ----- ---------<br>---- --- -------- -------- The --- -- ------- --- --- -----<br>-- --- ------ ------- --- --- -------- ---- --------- --<br>---------- -- -------- ----------------,169428.39999997616,169427.89999997616,169130.776,169132.60000002384,169147.441,169430.829,,33,The
screen,html.Screen,0_4_1_0_1_34,2021-12-02T10:43:35.150Z,,,,,,,,,,,,,,,,11,,,,,,,,,,,,,,292.971000011923,,response,,,4,D,,,,,Space,keypress(Space),,,,silence,----- -- ---- --- -- --- -------- ------------ ---------- --<br>- ------- ------ --------- -- ------------ -- --- ---- -----<br>------ ---- ---- ------ ------ ------- --- ----- ---------<br>---- --- -------- -------- --- art -- ------- --- --- -----<br>-- --- ------ ------- --- --- -------- ---- --------- --<br>---------- -- -------- ----------------,169724.39999997616,169723.80000001192,169414.163,169428.60000002384,169430.829,169730.78,,34,art
screen,html.Screen,0_4_1_0_1_35,2021-12-02T10:43:35.390Z,,,,,,,,,,,,,,,,11,,,,,,,,,,,,,,233.1199999761593,,response,,,4,D,,,,,Space,keypress(Space),,,,silence,----- -- ---- --- -- --- -------- ------------ ---------- --<br>- ------- ------ --------- -- ------------ -- --- ---- -----<br>------ ---- ---- ------ ------ ------- --- ----- ---------<br>---- --- -------- -------- --- --- of ------- --- --- -----<br>-- --- ------ ------- --- --- -------- ---- --------- --<br>---------- -- -------- ----------------,169964.5,169963.89999997616,169714.115,169724.60000002384,169730.78,169980.806,,35,of
screen,html.Screen,0_4_1_0_1_36,2021-12-02T10:43:35.494Z,,,,,,,,,,,,,,,,11,,,,,,,,,,,,,,86.99400001190952,,response,,,4,D,,,,,Space,keypress(Space),,,,silence,----- -- ---- --- -- --- -------- ------------ ---------- --<br>- ------- ------ --------- -- ------------ -- --- ---- -----<br>------ ---- ---- ------ ------ ------- --- ----- ---------<br>---- --- -------- -------- --- --- -- writing --- --- -----<br>-- --- ------ ------- --- --- -------- ---- --------- --<br>---------- -- -------- ----------------,170068.39999997616,170067.80000001192,169964.14,169964.60000002384,169980.806,170080.837,,36,writing
screen,html.Screen,0_4_1_0_1_37,2021-12-02T10:43:35.950Z,,,,,,,,,,,,,,,,11,,,,,,,,,,,,,,443.0629999761586,,response,,,4,D,,,,,Space,keypress(Space),,,,silence,----- -- ---- --- -- --- -------- ------------ ---------- --<br>- ------- ------ --------- -- ------------ -- --- ---- -----<br>------ ---- ---- ------ ------ ------- --- ----- ---------<br>---- --- -------- -------- --- --- -- ------- was --- -----<br>-- --- ------ ------- --- --- -------- ---- --------- --<br>---------- -- -------- ----------------,170524.5,170523.89999997616,170064.17,170068.60000002384,170080.837,170530.804,,37,was
screen,html.Screen,0_4_1_0_1_38,2021-12-02T10:43:36.278Z,,,,,,,,,,,,,,,,11,,,,,,,,,,,,,,320.9960000119172,,response,,,4,D,,,,,Space,keypress(Space),,,,silence,----- -- ---- --- -- --- -------- ------------ ---------- --<br>- ------- ------ --------- -- ------------ -- --- ---- -----<br>------ ---- ---- ------ ------ ------- --- ----- ---------<br>---- --- -------- -------- --- --- -- ------- --- not -----<br>-- --- ------ ------- --- --- -------- ---- --------- --<br>---------- -- -------- ----------------,170852.30000001192,170851.80000001192,170514.138,170524.69999998808,170530.804,170864.08,,38,not
screen,html.Screen,0_4_1_0_1_39,2021-12-02T10:43:36.630Z,,,,,,,,,,,,,,,,11,,,,,,,,,,,,,,339.72000001193373,,response,,,4,D,,,,,Space,keypress(Space),,,,silence,----- -- ---- --- -- --- -------- ------------ ---------- --<br>- ------- ------ --------- -- ------------ -- --- ---- -----<br>------ ---- ---- ------ ------ ------- --- ----- ---------<br>---- --- -------- -------- --- --- -- ------- --- --- known<br>-- --- ------ ------- --- --- -------- ---- --------- --<br>---------- -- -------- ----------------,171204.30000001192,171203.80000001192,170847.415,170852.60000002384,170864.08,171214.106,,39,known
screen,html.Screen,0_4_1_0_1_40,2021-12-02T10:43:37.118Z,,,,,,,,,,,,,,,,11,,,,,,,,,,,,,,477.69400001192116,,response,,,4,D,,,,,Space,keypress(Space),,,,silence,----- -- ---- --- -- --- -------- ------------ ---------- --<br>- ------- ------ --------- -- ------------ -- --- ---- -----<br>------ ---- ---- ------ ------ ------- --- ----- ---------<br>---- --- -------- -------- --- --- -- ------- --- --- -----<br>in --- ------ ------- --- --- -------- ---- --------- --<br>---------- -- -------- ----------------,171692.5,171691.80000001192,171197.44,171204.60000002384,171214.106,171697.315,,40,in
screen,html.Screen,0_4_1_0_1_41,2021-12-02T10:43:37.534Z,,,,,,,,,,,,,,,,11,,,,,,,,,,,,,,410.4850000119186,,response,,,4,D,,,,,Space,keypress(Space),,,,silence,----- -- ---- --- -- --- -------- ------------ ---------- --<br>- ------- ------ --------- -- ------------ -- --- ---- -----<br>------ ---- ---- ------ ------ ------- --- ----- ---------<br>---- --- -------- -------- --- --- -- ------- --- --- -----<br>-- any ------ ------- --- --- -------- ---- --------- --<br>---------- -- -------- ----------------,172108.30000001192,172107.80000001192,171680.651,171692.69999998808,171697.315,172114.021,,41,any
screen,html.Screen,0_4_1_0_1_42,2021-12-02T10:43:37.750Z,,,,,,,,,,,,,,,,11,,,,,,,,,,,,,,209.779000011913,,response,,,4,D,,,,,Space,keypress(Space),,,,silence,----- -- ---- --- -- --- -------- ------------ ---------- --<br>- ------- ------ --------- -- ------------ -- --- ---- -----<br>------ ---- ---- ------ ------ ------- --- ----- ---------<br>---- --- -------- -------- --- --- -- ------- --- --- -----<br>-- --- nearby ------- --- --- -------- ---- --------- --<br>---------- -- -------- ----------------,172324.39999997616,172323.80000001192,172097.356,172108.5,172114.021,172330.687,,42,nearby
screen,html.Screen,0_4_1_0_1_43,2021-12-02T10:43:37.982Z,,,,,,,,,,,,,,,,11,,,,,,,,,,,,,,225.01299998807372,,response,,,4,D,,,,,Space,keypress(Space),,,,silence,----- -- ---- --- -- --- -------- ------------ ---------- --<br>- ------- ------ --------- -- ------------ -- --- ---- -----<br>------ ---- ---- ------ ------ ------- --- ----- ---------<br>---- --- -------- -------- --- --- -- ------- --- --- -----<br>-- --- ------ islands --- --- -------- ---- --------- --<br>---------- -- -------- ----------------,172556.30000001192,172555.69999998808,172314.022,172324.60000002384,172330.687,172564.081,,43,islands
screen,html.Screen,0_4_1_0_1_44,2021-12-02T10:43:38.230Z,,,,,,,,,,,,,,,,11,,,,,,,,,,,,,,239.61899998807348,,response,,,4,D,,,,,Space,keypress(Space),,,,silence,----- -- ---- --- -- --- -------- ------------ ---------- --<br>- ------- ------ --------- -- ------------ -- --- ---- -----<br>------ ---- ---- ------ ------ ------- --- ----- ---------<br>---- --- -------- -------- --- --- -- ------- --- --- -----<br>-- --- ------ ------- and --- -------- ---- --------- --<br>---------- -- -------- ----------------,172804.30000001192,172803.69999998808,172547.414,172556.39999997616,172564.081,172814.038,,44,and
screen,html.Screen,0_4_1_0_1_45,2021-12-02T10:43:38.702Z,,,,,,,,,,,,,,,,11,,,,,,,,,,,,,,461.6619999880786,,response,,,4,D,,,,,Space,keypress(Space),,,,silence,----- -- ---- --- -- --- -------- ------------ ---------- --<br>- ------- ------ --------- -- ------------ -- --- ---- -----<br>------ ---- ---- ------ ------ ------- --- ----- ---------<br>---- --- -------- -------- --- --- -- ------- --- --- -----<br>-- --- ------ ------- --- the -------- ---- --------- --<br>---------- -- -------- ----------------,173276.30000001192,173275.69999998808,172797.372,172804.39999997616,172814.038,173280.561,,45,the
screen,html.Screen,0_4_1_0_1_46,2021-12-02T10:43:38.806Z,,,,,,,,,,,,,,,,11,,,,,,,,,,,,,,99.13899998809211,,response,,,4,D,,,,,Space,keypress(Space),,,,silence,----- -- ---- --- -- --- -------- ------------ ---------- --<br>- ------- ------ --------- -- ------------ -- --- ---- -----<br>------ ---- ---- ------ ------ ------- --- ----- ---------<br>---- --- -------- -------- --- --- -- ------- --- --- -----<br>-- --- ------ ------- --- --- script's ---- --------- --<br>---------- -- -------- ----------------,173380.30000001192,173379.69999998808,173263.898,173276.39999997616,173280.561,173397.376,,46,script's
screen,html.Screen,0_4_1_0_1_47,2021-12-02T10:43:40.142Z,,,,,,,,,,,,,,,,11,,,,,,,,,,,,,,1318.4240000119316,,response,,,4,D,,,,,Space,keypress(Space),,,,silence,----- -- ---- --- -- --- -------- ------------ ---------- --<br>- ------- ------ --------- -- ------------ -- --- ---- -----<br>------ ---- ---- ------ ------ ------- --- ----- ---------<br>---- --- -------- -------- --- --- -- ------- --- --- -----<br>-- --- ------ ------- --- --- -------- mere --------- --<br>---------- -- -------- ----------------,174716.39999997616,174715.80000001192,173380.709,173380.5,173397.376,174730.645,,47,mere
screen,html.Screen,0_4_1_0_1_48,2021-12-02T10:43:40.878Z,,,,,,,,,,,,,,,,11,,,,,,,,,,,,,,721.0549999880895,,response,,,4,D,,,,,Space,keypress(Space),,,,silence,----- -- ---- --- -- --- -------- ------------ ---------- --<br>- ------- ------ --------- -- ------------ -- --- ---- -----<br>------ ---- ---- ------ ------ ------- --- ----- ---------<br>---- --- -------- -------- --- --- -- ------- --- --- -----<br>-- --- ------ ------- --- --- -------- ---- existence --<br>---------- -- -------- ----------------,175452.39999997616,175451.69999998808,174713.979,174716.5,174730.645,175463.342,,48,existence
screen,html.Screen,0_4_1_0_1_49,2021-12-02T10:43:41.246Z,,,,,,,,,,,,,,,,11,,,,,,,,,,,,,,356.55799997615395,,response,,,4,D,,,,,Space,keypress(Space),,,,silence,----- -- ---- --- -- --- -------- ------------ ---------- --<br>- ------- ------ --------- -- ------------ -- --- ---- -----<br>------ ---- ---- ------ ------ ------- --- ----- ---------<br>---- --- -------- -------- --- --- -- ------- --- --- -----<br>-- --- ------ ------- --- --- -------- ---- --------- is<br>---------- -- -------- ----------------,175820.39999997616,175819.89999997616,175446.681,175452.69999998808,175463.342,175830.603,,49,is
screen,html.Screen,0_4_1_0_1_50,2021-12-02T10:43:41.614Z,,,,,,,,,,,,,,,,11,,,,,,,,,,,,,,356.99700002383906,,response,,,4,D,,,,,Space,keypress(Space),,,,silence,----- -- ---- --- -- --- -------- ------------ ---------- --<br>- ------- ------ --------- -- ------------ -- --- ---- -----<br>------ ---- ---- ------ ------ ------- --- ----- ---------<br>---- --- -------- -------- --- --- -- ------- --- --- -----<br>-- --- ------ ------- --- --- -------- ---- --------- --<br>sufficient -- -------- ----------------,176188.30000001192,176187.60000002384,175813.937,175820.60000002384,175830.603,176197.207,,50,sufficient
