sender,sender_type,sender_id,timestamp,meta,,Blues,Classical,Country,Dance,Electronic,Folk,Gospel,Hip-Hop,Jazz,Latin,Musical/Film,New-age,Pop,Provo_ID,R&B,Rap,Reggae,Religious,Rock,Soul,Swing,Traditional,age,artist_name,correct,correctResponse,distraction,duration,education,ended_on,familiarity,gender,item,list,music_frequency,offensiveness,pleasantness,preference,response,response_action,snippet_file,song_name,song_rating,sound,text,time_commit,time_end,time_render,time_run,time_show,time_switch,url,word,word_ID
Instructions,html.Page,0_0,2021-11-26T13:18:13.550Z,"{""labjs_version"":""20.2.3"",""labjs_build"":{""flavor"":""production"",""commit"":""7ea907d66ca8aeef8054924ca5d82ffbe11e34e5""},""location"":""https://run.pavlovia.org/mvasilev/lab_music_e/"",""userAgent"":""Mozilla/5.0 (Windows NT 6.1; Win64; x64) AppleWebKit/537.36 (KHTML, like Gecko) Chrome/96.0.4664.45 Safari/537.36"",""platform"":""Win32"",""language"":""en-US"",""locale"":""en-US"",""timeZone"":""Europe/London"",""timezoneOffset"":0,""screen_width"":1920,""screen_height"":1080,""scroll_width"":1920,""scroll_height"":959,""window_innerWidth"":1920,""window_innerHeight"":1007,""devicePixelRatio"":1}",,,,,,,,,,,,,,,,,,,,,,,,,,,,,17733.231999999625,,form submission,,,,,,,,,,,,,,,,25391.400000000373,25390.599999999627,7640.703,7653.299999998882,7657.368,25388.88,{},,
Headphones,html.Page,0_1,2021-11-26T13:18:16.734Z,,,,,,,,,,,,,,,,,,,,,,,,,,,,,,3186.9199999988814,,form submission,,,,,,,,,,,,,,,,28576.099999999627,28575.799999998882,25372.195,25391.900000000373,25388.88,28589.694,,,
Holding screen,html.Screen,0_2_0_0,2021-11-26T13:18:26.735Z,,,,,,,,,,,,,,,,,,,,,,,,,,,,,,9999.636999999999,,timeout,,,,,,,,,,,,,,,,38576.699999999255,38572.666,28573.029,28576.5,28589.694,38589.331,,,
screen,html.Screen,0_2_0_1_0,2021-11-26T13:18:27.919Z,,,,,,,,,,,,,,,,53,,,,,,,,,,,,,,1170.8689999992566,,response,,,99,,,,,,Space,keypress(Space),,,,,When -- ----- -- ------ - ------- --- ----------<br>------------- ------ ------ ---- ---- ------- ----- -- ----<br>-------- ------- -- ---------- --- - --- ----- ----- ----<br>---- --- --- ----- --- ---- ---- ------- ----- ---- -------<br>--- --- -- ----- -- --- ---- -- --- ---- -- ------ ------<br>--- ----- -- ----,39761.199999999255,39760.199999999255,38572.666,38577,38589.331,39772.579,,0,When
screen,html.Screen,0_2_0_1_1,2021-11-26T13:18:28.311Z,,,,,,,,,,,,,,,,53,,,,,,,,,,,,,,379.2209999988845,,response,,,99,,,,,,Space,keypress(Space),,,,,---- it ----- -- ------ - ------- --- ----------<br>------------- ------ ------ ---- ---- ------- ----- -- ----<br>-------- ------- -- ---------- --- - --- ----- ----- ----<br>---- --- --- ----- --- ---- ---- ------- ----- ---- -------<br>--- --- -- ----- -- --- ---- -- --- ---- -- ------ ------<br>--- ----- -- ----,40152.59999999963,40151.79999999888,39755.914,39761.5,39772.579,40155.962,,1,it
screen,html.Screen,0_2_0_1_2,2021-11-26T13:18:28.671Z,,,,,,,,,,,,,,,,53,,,,,,,,,,,,,,355.938000000373,,response,,,99,,,,,,Space,keypress(Space),,,,,---- -- comes -- ------ - ------- --- ----------<br>------------- ------ ------ ---- ---- ------- ----- -- ----<br>-------- ------- -- ---------- --- - --- ----- ----- ----<br>---- --- --- ----- --- ---- ---- ------- ----- ---- -------<br>--- --- -- ----- -- --- ---- -- --- ---- -- ------ ------<br>--- ----- -- ----,40512.59999999963,40511.90000000037,40139.297,40152.699999999255,40155.962,40522.598,,2,comes
screen,html.Screen,0_2_0_1_3,2021-11-26T13:18:29.079Z,,,,,,,,,,,,,,,,53,,,,,,,,,,,,,,397.3020000003744,,response,,,99,,,,,,Space,keypress(Space),,,,,---- -- ----- to ------ - ------- --- ----------<br>------------- ------ ------ ---- ---- ------- ----- -- ----<br>-------- ------- -- ---------- --- - --- ----- ----- ----<br>---- --- --- ----- --- ---- ---- ------- ----- ---- -------<br>--- --- -- ----- -- --- ---- -- --- ---- -- ------ ------<br>--- ----- -- ----,40920.5,40919.90000000037,40505.933,40512.79999999888,40522.598,40922.588,,3,to
screen,html.Screen,0_2_0_1_4,2021-11-26T13:18:29.415Z,,,,,,,,,,,,,,,,53,,,,,,,,,,,,,,333.21199999887904,,response,,,99,,,,,,Space,keypress(Space),,,,,---- -- ----- -- having - ------- --- ----------<br>------------- ------ ------ ---- ---- ------- ----- -- ----<br>-------- ------- -- ---------- --- - --- ----- ----- ----<br>---- --- --- ----- --- ---- ---- ------- ----- ---- -------<br>--- --- -- ----- -- --- ---- -- --- ---- -- ------ ------<br>--- ----- -- ----,41256.699999999255,41255.79999999888,40905.923,40920.90000000037,40922.588,41272.566,,4,having
screen,html.Screen,0_2_0_1_5,2021-11-26T13:18:29.807Z,,,,,,,,,,,,,,,,53,,,,,,,,,,,,,,375.33400000037363,,response,,,99,,,,,,Space,keypress(Space),,,,,---- -- ----- -- ------ a ------- --- ----------<br>------------- ------ ------ ---- ---- ------- ----- -- ----<br>-------- ------- -- ---------- --- - --- ----- ----- ----<br>---- --- --- ----- --- ---- ---- ------- ----- ---- -------<br>--- --- -- ----- -- --- ---- -- --- ---- -- ------ ------<br>--- ----- -- ----,41648.59999999963,41647.90000000037,41255.901,41256.90000000037,41272.566,41655.875,,5,a
screen,html.Screen,0_2_0_1_6,2021-11-26T13:18:30.423Z,,,,,,,,,,,,,,,,53,,,,,,,,,,,,,,607.9249999988824,,response,,,99,,,,,,Space,keypress(Space),,,,,---- -- ----- -- ------ - lasting --- ----------<br>------------- ------ ------ ---- ---- ------- ----- -- ----<br>-------- ------- -- ---------- --- - --- ----- ----- ----<br>---- --- --- ----- --- ---- ---- ------- ----- ---- -------<br>--- --- -- ----- -- --- ---- -- --- ---- -- ------ ------<br>--- ----- -- ----,42264.5,42263.79999999888,41639.21,41649,41655.875,42272.497,,6,lasting
screen,html.Screen,0_2_0_1_7,2021-11-26T13:18:30.839Z,,,,,,,,,,,,,,,,53,,,,,,,,,,,,,,407.3029999988794,,response,,,99,,,,,,Space,keypress(Space),,,,,---- -- ----- -- ------ - ------- and ----------<br>------------- ------ ------ ---- ---- ------- ----- -- ----<br>-------- ------- -- ---------- --- - --- ----- ----- ----<br>---- --- --- ----- --- ---- ---- ------- ----- ---- -------<br>--- --- -- ----- -- --- ---- -- --- ---- -- ------ ------<br>--- ----- -- ----,42680.59999999963,42679.79999999888,42255.832,42264.79999999888,42272.497,42689.166,,7,and
screen,html.Screen,0_2_0_1_8,2021-11-26T13:18:31.287Z,,,,,,,,,,,,,,,,53,,,,,,,,,,,,,,438.5339999992575,,response,,,99,,,,,,Space,keypress(Space),,,,,---- -- ----- -- ------ - ------- --- fulfilling<br>------------- ------ ------ ---- ---- ------- ----- -- ----<br>-------- ------- -- ---------- --- - --- ----- ----- ----<br>---- --- --- ----- --- ---- ---- ------- ----- ---- -------<br>--- --- -- ----- -- --- ---- -- --- ---- -- ------ ------<br>--- ----- -- ----,43128.59999999963,43127.699999999255,42672.501,42680.699999999255,42689.166,43139.145,,8,fulfilling
screen,html.Screen,0_2_0_1_9,2021-11-26T13:18:32.319Z,,,,,,,,,,,,,,,,53,,,,,,,,,,,,,,1020.6549999988856,,response,,,99,,,,,,Space,keypress(Space),,,,,"---- -- ----- -- ------ - ------- --- ----------<br>relationship, ------ ------ ---- ---- ------- ----- -- ----<br>-------- ------- -- ---------- --- - --- ----- ----- ----<br>---- --- --- ----- --- ---- ---- ------- ----- ---- -------<br>--- --- -- ----- -- --- ---- -- --- ---- -- ------ ------<br>--- ----- -- ----",44160.5,44159.79999999888,43122.48,43128.79999999888,43139.145,44172.151,,9,"relationship,"
screen,html.Screen,0_2_0_1_10,2021-11-26T13:18:32.743Z,,,,,,,,,,,,,,,,53,,,,,,,,,,,,,,411.5489999992569,,response,,,99,,,,,,Space,keypress(Space),,,,,---- -- ----- -- ------ - ------- --- ----------<br>------------- common ------ ---- ---- ------- ----- -- ----<br>-------- ------- -- ---------- --- - --- ----- ----- ----<br>---- --- --- ----- --- ---- ---- ------- ----- ---- -------<br>--- --- -- ----- -- --- ---- -- --- ---- -- ------ ------<br>--- ----- -- ----,44584.5,44583.699999999255,44155.488,44160.699999999255,44172.151,44589.126,,10,common
screen,html.Screen,0_2_0_1_11,2021-11-26T13:18:33.142Z,,,,,,,,,,,,,,,,53,,,,,,,,,,,,,,394.5739999992584,,response,,,99,,,,,,Space,keypress(Space),,,,,---- -- ----- -- ------ - ------- --- ----------<br>------------- ------ wisdom ---- ---- ------- ----- -- ----<br>-------- ------- -- ---------- --- - --- ----- ----- ----<br>---- --- --- ----- --- ---- ---- ------- ----- ---- -------<br>--- --- -- ----- -- --- ---- -- --- ---- -- ------ ------<br>--- ----- -- ----,44984.40000000037,44983.699999999255,44572.46,44584.59999999963,44589.126,44989.015,,11,wisdom
screen,html.Screen,0_2_0_1_12,2021-11-26T13:18:33.566Z,,,,,,,,,,,,,,,,53,,,,,,,,,,,,,,418.6849999992555,,response,,,99,,,,,,Space,keypress(Space),,,,,---- -- ----- -- ------ - ------- --- ----------<br>------------- ------ ------ says ---- ------- ----- -- ----<br>-------- ------- -- ---------- --- - --- ----- ----- ----<br>---- --- --- ----- --- ---- ---- ------- ----- ---- -------<br>--- --- -- ----- -- --- ---- -- --- ---- -- ------ ------<br>--- ----- -- ----,45408.29999999888,45407.699999999255,44972.35,44984.59999999963,44989.015,45422.451,,12,says
screen,html.Screen,0_2_0_1_13,2021-11-26T13:18:33.974Z,,,,,,,,,,,,,,,,53,,,,,,,,,,,,,,393.14899999962654,,response,,,99,,,,,,Space,keypress(Space),,,,,---- -- ----- -- ------ - ------- --- ----------<br>------------- ------ ------ ---- that ------- ----- -- ----<br>-------- ------- -- ---------- --- - --- ----- ----- ----<br>---- --- --- ----- --- ---- ---- ------- ----- ---- -------<br>--- --- -- ----- -- --- ---- -- --- ---- -- ------ ------<br>--- ----- -- ----,45816.29999999888,45815.59999999963,45405.784,45408.5,45422.451,45822.344,,13,that
screen,html.Screen,0_2_0_1_14,2021-11-26T13:18:34.302Z,,,,,,,,,,,,,,,,53,,,,,,,,,,,,,,321.25599999963015,,response,,,99,,,,,,Space,keypress(Space),,,,,---- -- ----- -- ------ - ------- --- ----------<br>------------- ------ ------ ---- ---- feeling ----- -- ----<br>-------- ------- -- ---------- --- - --- ----- ----- ----<br>---- --- --- ----- --- ---- ---- ------- ----- ---- -------<br>--- --- -- ----- -- --- ---- -- --- ---- -- ------ ------<br>--- ----- -- ----,46144.199999999255,46143.59999999963,45805.679,45816.5,45822.344,46155.595,,14,feeling
screen,html.Screen,0_2_0_1_15,2021-11-26T13:18:34.566Z,,,,,,,,,,,,,,,,53,,,,,,,,,,,,,,252.0049999996263,,response,,,99,,,,,,Space,keypress(Space),,,,,---- -- ----- -- ------ - ------- --- ----------<br>------------- ------ ------ ---- ---- ------- close -- ----<br>-------- ------- -- ---------- --- - --- ----- ----- ----<br>---- --- --- ----- --- ---- ---- ------- ----- ---- -------<br>--- --- -- ----- -- --- ---- -- --- ---- -- ------ ------<br>--- ----- -- ----,46408.09999999963,46407.59999999963,46138.931,46144.29999999888,46155.595,46422.291,,15,close
screen,html.Screen,0_2_0_1_16,2021-11-26T13:18:34.998Z,,,,,,,,,,,,,,,,53,,,,,,,,,,,,,,417.30899999963003,,response,,,99,,,,,,Space,keypress(Space),,,,,---- -- ----- -- ------ - ------- --- ----------<br>------------- ------ ------ ---- ---- ------- ----- to ----<br>-------- ------- -- ---------- --- - --- ----- ----- ----<br>---- --- --- ----- --- ---- ---- ------- ----- ---- -------<br>--- --- -- ----- -- --- ---- -- --- ---- -- ------ ------<br>--- ----- -- ----,46840.199999999255,46839.59999999963,46405.626,46408.40000000037,46422.291,46855.664,,16,to
screen,html.Screen,0_2_0_1_17,2021-11-26T13:18:35.462Z,,,,,,,,,,,,,,,,53,,,,,,,,,,,,,,447.93599999963044,,response,,,99,,,,,,Space,keypress(Space),,,,,---- -- ----- -- ------ - ------- --- ----------<br>------------- ------ ------ ---- ---- ------- ----- -- your<br>-------- ------- -- ---------- --- - --- ----- ----- ----<br>---- --- --- ----- --- ---- ---- ------- ----- ---- -------<br>--- --- -- ----- -- --- ---- -- --- ---- -- ------ ------<br>--- ----- -- ----,47304.09999999963,47303.59999999963,46838.998,46840.29999999888,46855.664,47305.466,,17,your
screen,html.Screen,0_2_0_1_18,2021-11-26T13:18:36.006Z,,,,,,,,,,,,,,,,53,,,,,,,,,,,,,,542.0339999999997,,response,,,99,,,,,,Space,keypress(Space),,,,,---- -- ----- -- ------ - ------- --- ----------<br>------------- ------ ------ ---- ---- ------- ----- -- ----<br>romantic ------- -- ---------- --- - --- ----- ----- ----<br>---- --- --- ----- --- ---- ---- ------- ----- ---- -------<br>--- --- -- ----- -- --- ---- -- --- ---- -- ------ ------<br>--- ----- -- ----,47848.09999999963,47847.5,47288.803,47304.29999999888,47305.466,47855.619,,18,romantic
screen,html.Screen,0_2_0_1_19,2021-11-26T13:18:36.414Z,,,,,,,,,,,,,,,,53,,,,,,,,,,,,,,399.78100000037375,,response,,,99,,,,,,Space,keypress(Space),,,,,---- -- ----- -- ------ - ------- --- ----------<br>------------- ------ ------ ---- ---- ------- ----- -- ----<br>-------- partner -- ---------- --- - --- ----- ----- ----<br>---- --- --- ----- --- ---- ---- ------- ----- ---- -------<br>--- --- -- ----- -- --- ---- -- --- ---- -- ------ ------<br>--- ----- -- ----,48256.09999999963,48255.40000000037,47838.953,47848.29999999888,47855.619,48272.196,,19,partner
screen,html.Screen,0_2_0_1_20,2021-11-26T13:18:36.830Z,,,,,,,,,,,,,,,,53,,,,,,,,,,,,,,399.30399999999645,,response,,,99,,,,,,Space,keypress(Space),,,,,---- -- ----- -- ------ - ------- --- ----------<br>------------- ------ ------ ---- ---- ------- ----- -- ----<br>-------- ------- is ---------- --- - --- ----- ----- ----<br>---- --- --- ----- --- ---- ---- ------- ----- ---- -------<br>--- --- -- ----- -- --- ---- -- --- ---- -- ------ ------<br>--- ----- -- ----,48672.09999999963,48671.5,48255.531,48256.199999999255,48272.196,48688.853,,20,is
screen,html.Screen,0_2_0_1_21,2021-11-26T13:18:37.238Z,,,,,,,,,,,,,,,,53,,,,,,,,,,,,,,390.6469999999972,,response,,,99,,,,,,Space,keypress(Space),,,,,---- -- ----- -- ------ - ------- --- ----------<br>------------- ------ ------ ---- ---- ------- ----- -- ----<br>-------- ------- -- paramount. --- - --- ----- ----- ----<br>---- --- --- ----- --- ---- ---- ------- ----- ---- -------<br>--- --- -- ----- -- --- ---- -- --- ---- -- ------ ------<br>--- ----- -- ----,49080,49079.5,48672.188,48672.29999999888,48688.853,49088.696,,21,paramount.
screen,html.Screen,0_2_0_1_22,2021-11-26T13:18:38.023Z,,,,,,,,,,,,,,,,53,,,,,,,,,,,,,,774.9039999996239,,response,,,99,,,,,,Space,keypress(Space),,,,,---- -- ----- -- ------ - ------- --- ----------<br>------------- ------ ------ ---- ---- ------- ----- -- ----<br>-------- ------- -- ---------- But - --- ----- ----- ----<br>---- --- --- ----- --- ---- ---- ------- ----- ---- -------<br>--- --- -- ----- -- --- ---- -- --- ---- -- ------ ------<br>--- ----- -- ----,49864.40000000037,49863.59999999963,49072.033,49080.40000000037,49088.696,49872.168,,22,But
screen,html.Screen,0_2_0_1_23,2021-11-26T13:18:38.398Z,,,,,,,,,,,,,,,,53,,,,,,,,,,,,,,367.13199999888457,,response,,,99,,,,,,Space,keypress(Space),,,,,---- -- ----- -- ------ - ------- --- ----------<br>------------- ------ ------ ---- ---- ------- ----- -- ----<br>-------- ------- -- ---------- --- a --- ----- ----- ----<br>---- --- --- ----- --- ---- ---- ------- ----- ---- -------<br>--- --- -- ----- -- --- ---- -- --- ---- -- ------ ------<br>--- ----- -- ----,50239.90000000037,50239.29999999888,49855.502,49864.59999999963,49872.168,50255.422,,23,a
screen,html.Screen,0_2_0_1_24,2021-11-26T13:18:38.934Z,,,,,,,,,,,,,,,,53,,,,,,,,,,,,,,519.8779999988838,,response,,,99,,,,,,Space,keypress(Space),,,,,---- -- ----- -- ------ - ------- --- ----------<br>------------- ------ ------ ---- ---- ------- ----- -- ----<br>-------- ------- -- ---------- --- - new ----- ----- ----<br>---- --- --- ----- --- ---- ---- ------- ----- ---- -------<br>--- --- -- ----- -- --- ---- -- --- ---- -- ------ ------<br>--- ----- -- ----,50775.90000000037,50775.29999999888,50238.757,50240.09999999963,50255.422,50788.794,,24,new
screen,html.Screen,0_2_0_1_25,2021-11-26T13:18:39.342Z,,,,,,,,,,,,,,,,53,,,,,,,,,,,,,,394.5059999988807,,response,,,99,,,,,,Space,keypress(Space),,,,,---- -- ----- -- ------ - ------- --- ----------<br>------------- ------ ------ ---- ---- ------- ----- -- ----<br>-------- ------- -- ---------- --- - --- study ----- ----<br>---- --- --- ----- --- ---- ---- ------- ----- ---- -------<br>--- --- -- ----- -- --- ---- -- --- ---- -- ------ ------<br>--- ----- -- ----,51183.90000000037,51183.29999999888,50772.128,50776.09999999963,50788.794,51188.569,,25,study
screen,html.Screen,0_2_0_1_26,2021-11-26T13:18:39.710Z,,,,,,,,,,,,,,,,53,,,,,,,,,,,,,,362.8310000003694,,response,,,99,,,,,,Space,keypress(Space),,,,,---- -- ----- -- ------ - ------- --- ----------<br>------------- ------ ------ ---- ---- ------- ----- -- ----<br>-------- ------- -- ---------- --- - --- ----- finds ----<br>---- --- --- ----- --- ---- ---- ------- ----- ---- -------<br>--- --- -- ----- -- --- ---- -- --- ---- -- ------ ------<br>--- ----- -- ----,51552,51551.40000000037,51171.906,51184,51188.569,51555.407,,26,finds
screen,html.Screen,0_2_0_1_27,2021-11-26T13:18:40.118Z,,,,,,,,,,,,,,,,53,,,,,,,,,,,,,,403.89299999888317,,response,,,99,,,,,,Space,keypress(Space),,,,,---- -- ----- -- ------ - ------- --- ----------<br>------------- ------ ------ ---- ---- ------- ----- -- ----<br>-------- ------- -- ---------- --- - --- ----- ----- that<br>---- --- --- ----- --- ---- ---- ------- ----- ---- -------<br>--- --- -- ----- -- --- ---- -- --- ---- -- ------ ------<br>--- ----- -- ----,51959.90000000037,51959.29999999888,51538.741,51552.199999999255,51555.407,51972.017,,27,that
screen,html.Screen,0_2_0_1_28,2021-11-26T13:18:40.462Z,,,,,,,,,,,,,,,,53,,,,,,,,,,,,,,331.1829999992551,,response,,,99,,,,,,Space,keypress(Space),,,,,---- -- ----- -- ------ - ------- --- ----------<br>------------- ------ ------ ---- ---- ------- ----- -- ----<br>-------- ------- -- ---------- --- - --- ----- ----- ----<br>it's --- --- ----- --- ---- ---- ------- ----- ---- -------<br>--- --- -- ----- -- --- ---- -- --- ---- -- ------ ------<br>--- ----- -- ----,52303.79999999888,52303.199999999255,51955.352,51960.09999999963,51972.017,52305.345,,28,it's
screen,html.Screen,0_2_0_1_29,2021-11-26T13:18:40.886Z,,,,,,,,,,,,,,,,53,,,,,,,,,,,,,,421.95499999888125,,response,,,99,,,,,,Space,keypress(Space),,,,,---- -- ----- -- ------ - ------- --- ----------<br>------------- ------ ------ ---- ---- ------- ----- -- ----<br>-------- ------- -- ---------- --- - --- ----- ----- ----<br>---- not --- ----- --- ---- ---- ------- ----- ---- -------<br>--- --- -- ----- -- --- ---- -- --- ---- -- ------ ------<br>--- ----- -- ----,52727.90000000037,52727.29999999888,52288.68,52303.90000000037,52305.345,52738.706,,29,not
screen,html.Screen,0_2_0_1_30,2021-11-26T13:18:41.374Z,,,,,,,,,,,,,,,,53,,,,,,,,,,,,,,476.5939999988841,,response,,,99,,,,,,Space,keypress(Space),,,,,---- -- ----- -- ------ - ------- --- ----------<br>------------- ------ ------ ---- ---- ------- ----- -- ----<br>-------- ------- -- ---------- --- - --- ----- ----- ----<br>---- --- how ----- --- ---- ---- ------- ----- ---- -------<br>--- --- -- ----- -- --- ---- -- --- ---- -- ------ ------<br>--- ----- -- ----,53215.79999999888,53215.29999999888,52722.04,52728,52738.706,53221.871,,30,how
screen,html.Screen,0_2_0_1_31,2021-11-26T13:18:41.838Z,,,,,,,,,,,,,,,,53,,,,,,,,,,,,,,457.4289999988832,,response,,,99,,,,,,Space,keypress(Space),,,,,---- -- ----- -- ------ - ------- --- ----------<br>------------- ------ ------ ---- ---- ------- ----- -- ----<br>-------- ------- -- ---------- --- - --- ----- ----- ----<br>---- --- --- close --- ---- ---- ------- ----- ---- -------<br>--- --- -- ----- -- --- ---- -- --- ---- -- ------ ------<br>--- ----- -- ----,53679.90000000037,53679.29999999888,53205.207,53216,53221.871,53688.596,,31,close
screen,html.Screen,0_2_0_1_32,2021-11-26T13:18:42.270Z,,,,,,,,,,,,,,,,53,,,,,,,,,,,,,,422.6039999992572,,response,,,99,,,,,,Space,keypress(Space),,,,,---- -- ----- -- ------ - ------- --- ----------<br>------------- ------ ------ ---- ---- ------- ----- -- ----<br>-------- ------- -- ---------- --- - --- ----- ----- ----<br>---- --- --- ----- you ---- ---- ------- ----- ---- -------<br>--- --- -- ----- -- --- ---- -- --- ---- -- ------ ------<br>--- ----- -- ----,54111.79999999888,54111.199999999255,53671.931,53680.09999999963,53688.596,54121.974,,32,you
screen,html.Screen,0_2_0_1_33,2021-11-26T13:18:42.774Z,,,,,,,,,,,,,,,,53,,,,,,,,,,,,,,493.22599999925296,,response,,,99,,,,,,Space,keypress(Space),,,,,---- -- ----- -- ------ - ------- --- ----------<br>------------- ------ ------ ---- ---- ------- ----- -- ----<br>-------- ------- -- ---------- --- - --- ----- ----- ----<br>---- --- --- ----- --- feel ---- ------- ----- ---- -------<br>--- --- -- ----- -- --- ---- -- --- ---- -- ------ ------<br>--- ----- -- ----,54615.79999999888,54615.199999999255,54105.308,54112,54121.974,54621.83,,33,feel
screen,html.Screen,0_2_0_1_34,2021-11-26T13:18:43.214Z,,,,,,,,,,,,,,,,53,,,,,,,,,,,,,,433.3699999992532,,response,,,99,,,,,,Space,keypress(Space),,,,,---- -- ----- -- ------ - ------- --- ----------<br>------------- ------ ------ ---- ---- ------- ----- -- ----<br>-------- ------- -- ---------- --- - --- ----- ----- ----<br>---- --- --- ----- --- ---- that ------- ----- ---- -------<br>--- --- -- ----- -- --- ---- -- --- ---- -- ------ ------<br>--- ----- -- ----,55055.79999999888,55055.199999999255,54605.166,54616,54621.83,55071.944,,34,that
screen,html.Screen,0_2_0_1_35,2021-11-26T13:18:43.686Z,,,,,,,,,,,,,,,,53,,,,,,,,,,,,,,455.1559999996243,,response,,,99,,,,,,Space,keypress(Space),,,,,---- -- ----- -- ------ - ------- --- ----------<br>------------- ------ ------ ---- ---- ------- ----- -- ----<br>-------- ------- -- ---------- --- - --- ----- ----- ----<br>---- --- --- ----- --- ---- ---- matters ----- ---- -------<br>--- --- -- ----- -- --- ---- -- --- ---- -- ------ ------<br>--- ----- -- ----,55527.79999999888,55527.09999999963,55055.278,55055.90000000037,55071.944,55538.521,,35,matters
screen,html.Screen,0_2_0_1_36,2021-11-26T13:18:44.606Z,,,,,,,,,,,,,,,,53,,,,,,,,,,,,,,908.5789999996268,,response,,,99,,,,,,Space,keypress(Space),,,,,"---- -- ----- -- ------ - ------- --- ----------<br>------------- ------ ------ ---- ---- ------- ----- -- ----<br>-------- ------- -- ---------- --- - --- ----- ----- ----<br>---- --- --- ----- --- ---- ---- ------- most, ---- -------<br>--- --- -- ----- -- --- ---- -- --- ---- -- ------ ------<br>--- ----- -- ----",56447.699999999255,56447.09999999963,55521.856,55527.90000000037,55538.521,56455.017,,36,"most,"
screen,html.Screen,0_2_0_1_37,2021-11-26T13:18:44.990Z,,,,,,,,,,,,,,,,53,,,,,,,,,,,,,,375.9830000000002,,response,,,99,,,,,,Space,keypress(Space),,,,,---- -- ----- -- ------ - ------- --- ----------<br>------------- ------ ------ ---- ---- ------- ----- -- ----<br>-------- ------- -- ---------- --- - --- ----- ----- ----<br>---- --- --- ----- --- ---- ---- ------- ----- it's -------<br>--- --- -- ----- -- --- ---- -- --- ---- -- ------ ------<br>--- ----- -- ----,56831.699999999255,56831,56438.353,56447.90000000037,56455.017,56838.429,,37,it's
screen,html.Screen,0_2_0_1_38,2021-11-26T13:18:45.454Z,,,,,,,,,,,,,,,,53,,,,,,,,,,,,,,456.57100000000355,,response,,,99,,,,,,Space,keypress(Space),,,,,---- -- ----- -- ------ - ------- --- ----------<br>------------- ------ ------ ---- ---- ------- ----- -- ----<br>-------- ------- -- ---------- --- - --- ----- ----- ----<br>---- --- --- ----- --- ---- ---- ------- ----- ---- whether<br>--- --- -- ----- -- --- ---- -- --- ---- -- ------ ------<br>--- ----- -- ----,57295.699999999255,57295,56821.764,56831.79999999888,56838.429,57305.143,,38,whether
screen,html.Screen,0_2_0_1_39,2021-11-26T13:18:45.886Z,,,,,,,,,,,,,,,,53,,,,,,,,,,,,,,421.8570000000036,,response,,,99,,,,,,Space,keypress(Space),,,,,---- -- ----- -- ------ - ------- --- ----------<br>------------- ------ ------ ---- ---- ------- ----- -- ----<br>-------- ------- -- ---------- --- - --- ----- ----- ----<br>---- --- --- ----- --- ---- ---- ------- ----- ---- -------<br>you --- -- ----- -- --- ---- -- --- ---- -- ------ ------<br>--- ----- -- ----,57727.59999999963,57727,57288.477,57295.90000000037,57305.143,57738.34,,39,you
screen,html.Screen,0_2_0_1_40,2021-11-26T13:18:46.286Z,,,,,,,,,,,,,,,,53,,,,,,,,,,,,,,388.6600000000035,,response,,,99,,,,,,Space,keypress(Space),,,,,---- -- ----- -- ------ - ------- --- ----------<br>------------- ------ ------ ---- ---- ------- ----- -- ----<br>-------- ------- -- ---------- --- - --- ----- ----- ----<br>---- --- --- ----- --- ---- ---- ------- ----- ---- -------<br>--- are -- ----- -- --- ---- -- --- ---- -- ------ ------<br>--- ----- -- ----,58127.59999999963,58127,57721.676,57727.699999999255,57738.34,58138.44,,40,are
screen,html.Screen,0_2_0_1_41,2021-11-26T13:18:46.798Z,,,,,,,,,,,,,,,,53,,,,,,,,,,,,,,500.5599999999977,,response,,,99,,,,,,Space,keypress(Space),,,,,---- -- ----- -- ------ - ------- --- ----------<br>------------- ------ ------ ---- ---- ------- ----- -- ----<br>-------- ------- -- ---------- --- - --- ----- ----- ----<br>---- --- --- ----- --- ---- ---- ------- ----- ---- -------<br>--- --- as ----- -- --- ---- -- --- ---- -- ------ ------<br>--- ----- -- ----,58639.79999999888,58639,58121.774,58127.79999999888,58138.44,58654.874,,41,as
screen,html.Screen,0_2_0_1_42,2021-11-26T13:18:47.262Z,,,,,,,,,,,,,,,,53,,,,,,,,,,,,,,448.0260000003691,,response,,,99,,,,,,Space,keypress(Space),,,,,---- -- ----- -- ------ - ------- --- ----------<br>------------- ------ ------ ---- ---- ------- ----- -- ----<br>-------- ------- -- ---------- --- - --- ----- ----- ----<br>---- --- --- ----- --- ---- ---- ------- ----- ---- -------<br>--- --- -- close -- --- ---- -- --- ---- -- ------ ------<br>--- ----- -- ----,59103.5,59102.90000000037,58638.211,58640,58654.874,59104.968,,42,close
screen,html.Screen,0_2_0_1_43,2021-11-26T13:18:47.670Z,,,,,,,,,,,,,,,,53,,,,,,,,,,,,,,406.03199999999924,,response,,,99,,,,,,Space,keypress(Space),,,,,---- -- ----- -- ------ - ------- --- ----------<br>------------- ------ ------ ---- ---- ------- ----- -- ----<br>-------- ------- -- ---------- --- - --- ----- ----- ----<br>---- --- --- ----- --- ---- ---- ------- ----- ---- -------<br>--- --- -- ----- as --- ---- -- --- ---- -- ------ ------<br>--- ----- -- ----,59511.59999999963,59511,59088.303,59103.699999999255,59104.968,59521.759,,43,as
screen,html.Screen,0_2_0_1_44,2021-11-26T13:18:48.086Z,,,,,,,,,,,,,,,,53,,,,,,,,,,,,,,405.3409999996293,,response,,,99,,,,,,Space,keypress(Space),,,,,---- -- ----- -- ------ - ------- --- ----------<br>------------- ------ ------ ---- ---- ------- ----- -- ----<br>-------- ------- -- ---------- --- - --- ----- ----- ----<br>---- --- --- ----- --- ---- ---- ------- ----- ---- -------<br>--- --- -- ----- -- you ---- -- --- ---- -- ------ ------<br>--- ----- -- ----,59927.699999999255,59927.09999999963,59505.092,59511.699999999255,59521.759,59938.305,,44,you
screen,html.Screen,0_2_0_1_45,2021-11-26T13:18:48.520Z,,,,,,,,,,,,,,,,53,,,,,,,,,,,,,,420.59500000037224,,response,,,99,,,,,,Space,keypress(Space),,,,,---- -- ----- -- ------ - ------- --- ----------<br>------------- ------ ------ ---- ---- ------- ----- -- ----<br>-------- ------- -- ---------- --- - --- ----- ----- ----<br>---- --- --- ----- --- ---- ---- ------- ----- ---- -------<br>--- --- -- ----- -- --- want -- --- ---- -- ------ ------<br>--- ----- -- ----,60359.5,60358.90000000037,59921.64,59927.90000000037,59938.305,60371.632,,45,want
screen,html.Screen,0_2_0_1_46,2021-11-26T13:18:48.864Z,,,,,,,,,,,,,,,,53,,,,,,,,,,,,,,331.26800000037474,,response,,,99,,,,,,Space,keypress(Space),,,,,---- -- ----- -- ------ - ------- --- ----------<br>------------- ------ ------ ---- ---- ------- ----- -- ----<br>-------- ------- -- ---------- --- - --- ----- ----- ----<br>---- --- --- ----- --- ---- ---- ------- ----- ---- -------<br>--- --- -- ----- -- --- ---- to --- ---- -- ------ ------<br>--- ----- -- ----,60703.5,60702.90000000037,60354.967,60359.699999999255,60371.632,60704.958,,46,to
screen,html.Screen,0_2_0_1_47,2021-11-26T13:18:49.224Z,,,,,,,,,,,,,,,,53,,,,,,,,,,,,,,357.9420000003738,,response,,,99,,,,,,Space,keypress(Space),,,,,"---- -- ----- -- ------ - ------- --- ----------<br>------------- ------ ------ ---- ---- ------- ----- -- ----<br>-------- ------- -- ---------- --- - --- ----- ----- ----<br>---- --- --- ----- --- ---- ---- ------- ----- ---- -------<br>--- --- -- ----- -- --- ---- -- be, ---- -- ------ ------<br>--- ----- -- ----",61063.5,61062.90000000037,60688.293,60703.59999999963,60704.958,61071.579,,47,"be,"
screen,html.Screen,0_2_0_1_48,2021-11-26T13:18:49.872Z,,,,,,,,,,,,,,,,53,,,,,,,,,,,,,,639.3210000003746,,response,,,99,,,,,,Space,keypress(Space),,,,,---- -- ----- -- ------ - ------- --- ----------<br>------------- ------ ------ ---- ---- ------- ----- -- ----<br>-------- ------- -- ---------- --- - --- ----- ----- ----<br>---- --- --- ----- --- ---- ---- ------- ----- ---- -------<br>--- --- -- ----- -- --- ---- -- --- even -- ------ ------<br>--- ----- -- ----,61711.59999999963,61710.90000000037,61054.914,61063.90000000037,61071.579,61721.538,,48,even
screen,html.Screen,0_2_0_1_49,2021-11-26T13:18:50.232Z,,,,,,,,,,,,,,,,53,,,,,,,,,,,,,,349.26199999888195,,response,,,99,,,,,,Space,keypress(Space),,,,,---- -- ----- -- ------ - ------- --- ----------<br>------------- ------ ------ ---- ---- ------- ----- -- ----<br>-------- ------- -- ---------- --- - --- ----- ----- ----<br>---- --- --- ----- --- ---- ---- ------- ----- ---- -------<br>--- --- -- ----- -- --- ---- -- --- ---- if ------ ------<br>--- ----- -- ----,62071.40000000037,62070.79999999888,61704.873,61711.79999999888,61721.538,62088.252,,49,if
screen,html.Screen,0_2_0_1_50,2021-11-26T13:18:50.608Z,,,,,,,,,,,,,,,,53,,,,,,,,,,,,,,358.6480000003721,,response,,,99,,,,,,Space,keypress(Space),,,,,---- -- ----- -- ------ - ------- --- ----------<br>------------- ------ ------ ---- ---- ------- ----- -- ----<br>-------- ------- -- ---------- --- - --- ----- ----- ----<br>---- --- --- ----- --- ---- ---- ------- ----- ---- -------<br>--- --- -- ----- -- --- ---- -- --- ---- -- that's ------<br>--- ----- -- ----,62447.5,62446.90000000037,62071.586,62071.5,62088.252,62454.793,,50,that's
screen,html.Screen,0_2_0_1_51,2021-11-26T13:18:51.040Z,,,,,,,,,,,,,,,,53,,,,,,,,,,,,,,424.00699999888457,,response,,,99,,,,,,Space,keypress(Space),,,,,---- -- ----- -- ------ - ------- --- ----------<br>------------- ------ ------ ---- ---- ------- ----- -- ----<br>-------- ------- -- ---------- --- - --- ----- ----- ----<br>---- --- --- ----- --- ---- ---- ------- ----- ---- -------<br>--- --- -- ----- -- --- ---- -- --- ---- -- ------ really<br>--- ----- -- ----,62879.40000000037,62878.79999999888,62438.129,62447.699999999255,62454.793,62888.146,,51,really
screen,html.Screen,0_2_0_1_52,2021-11-26T13:18:51.488Z,,,,,,,,,,,,,,,,53,,,,,,,,,,,,,,438.5539999992543,,response,,,99,,,,,,Space,keypress(Space),,,,,---- -- ----- -- ------ - ------- --- ----------<br>------------- ------ ------ ---- ---- ------- ----- -- ----<br>-------- ------- -- ---------- --- - --- ----- ----- ----<br>---- --- --- ----- --- ---- ---- ------- ----- ---- -------<br>--- --- -- ----- -- --- ---- -- --- ---- -- ------ ------<br>not ----- -- ----,63327.29999999888,63326.699999999255,62871.481,62879.5,62888.146,63338.168,,52,not
screen,html.Screen,0_2_0_1_53,2021-11-26T13:18:51.832Z,,,,,,,,,,,,,,,,53,,,,,,,,,,,,,,332.63199999888457,,response,,,99,,,,,,Space,keypress(Space),,,,,---- -- ----- -- ------ - ------- --- ----------<br>------------- ------ ------ ---- ---- ------- ----- -- ----<br>-------- ------- -- ---------- --- - --- ----- ----- ----<br>---- --- --- ----- --- ---- ---- ------- ----- ---- -------<br>--- --- -- ----- -- --- ---- -- --- ---- -- ------ ------<br>--- close -- ----,63671.29999999888,63670.79999999888,63321.502,63327.5,63338.168,63688.118,,53,close
screen,html.Screen,0_2_0_1_54,2021-11-26T13:18:52.240Z,,,,,,,,,,,,,,,,53,,,,,,,,,,,,,,390.6819999988802,,response,,,99,,,,,,Space,keypress(Space),,,,,---- -- ----- -- ------ - ------- --- ----------<br>------------- ------ ------ ---- ---- ------- ----- -- ----<br>-------- ------- -- ---------- --- - --- ----- ----- ----<br>---- --- --- ----- --- ---- ---- ------- ----- ---- -------<br>--- --- -- ----- -- --- ---- -- --- ---- -- ------ ------<br>--- ----- at ----,64079.40000000037,64078.79999999888,63671.453,63671.5,63688.118,64088.044,,54,at
screen,html.Screen,0_2_0_1_55,2021-11-26T13:18:52.696Z,,,,,,,,,,,,,,,,53,,,,,,,,,,,,,,446.7559999988807,,response,,,99,,,,,,Space,keypress(Space),,,,,---- -- ----- -- ------ - ------- --- ----------<br>------------- ------ ------ ---- ---- ------- ----- -- ----<br>-------- ------- -- ---------- --- - --- ----- ----- ----<br>---- --- --- ----- --- ---- ---- ------- ----- ---- -------<br>--- --- -- ----- -- --- ---- -- --- ---- -- ------ ------<br>--- ----- -- all.,64535.29999999888,64534.79999999888,64071.38,64079.5,64088.044,64554.733,,55,all.
Item 99,flow.Loop,0_2_0_1,2021-11-26T13:18:52.699Z,,,,,,,,,,,,,,,,,,,,,,,,,,,,,,25945.468999998884,,completion,,,,E,,,,,,,,,,silence,,64538.199999999255,64534.79999999888,38572.666,38576.90000000037,38589.331,64554.733,,,
Question 1,html.Screen,0_2_0_2,2021-11-26T13:18:56.514Z,,,,,,,,,,,,,,,,,,,,,,,,,,,true,FALSE,,3798.3669999996273,,response,,,99,E,,,,,FALSE,click #choice-2,,,,silence,,68354,68353.09999999963,64538.068,64538.5,64554.733,68371.244,,,
Question 2,html.Screen,0_2_0_3,2021-11-26T13:19:00.930Z,,,,,,,,,,,,,,,,,,,,,,,,,,,true,TRUE,,4397.755999999994,,response,,,99,E,,,,,TRUE,click #choice-1,,,,silence,,72769.79999999888,72769,68354.578,68354.09999999963,68371.244,72770.997,,,
Item 99,flow.Sequence,0_2_0,2021-11-26T13:19:00.930Z,,,,,,,,,,,,,,,,,,,,,,,,,,,,,,44179.306,,completion,,,,,,,,,,,,,,,,72770.09999999963,72769,28573.029,28576.5,28589.694,72770.997,,,
Holding screen,html.Screen,0_2_1_0,2021-11-26T13:19:10.915Z,,,,,,,,,,,,,,,,,,,,,,,,,,,,,,9999.573999999993,,timeout,,,,,,,,,,,,,,,,82754.59999999963,82753.905,72754.332,72770.29999999888,72770.997,82770.571,,,
screen,html.Screen,0_2_1_1_0,2021-11-26T13:19:11.775Z,,,,,,,,,,,,,,,,54,,,,,,,,,,,,,,843.4290000000037,,response,,,100,,,,,,Space,keypress(Space),,,,,At --- ---- --- ------ ----- ------- ---- -- --- ------- --<br>------- ---------- ------ -- ----- -- ----- -- ---- ------<br>--- ----- --- --- ------ -------- ----- --- ------ ----- --<br>----- ----- ---------- --- --- ------ ------ ---- -- ------<br>------- --- ------ ----- --- ---- ------- -- ---- --- --<br>------- ------,83614.69999999925,83614,82753.905,82754.90000000037,82770.571,83620.437,,0,At
screen,html.Screen,0_2_1_1_1,2021-11-26T13:19:12.167Z,,,,,,,,,,,,,,,,54,,,,,,,,,,,,,,385.2629999992496,,response,,,100,,,,,,Space,keypress(Space),,,,,-- the ---- --- ------ ----- ------- ---- -- --- ------- --<br>------- ---------- ------ -- ----- -- ----- -- ---- ------<br>--- ----- --- --- ------ -------- ----- --- ------ ----- --<br>----- ----- ---------- --- --- ------ ------ ---- -- ------<br>------- --- ------ ----- --- ---- ------- -- ---- --- --<br>------- ------,84006.29999999888,84005.69999999925,83603.772,83614.90000000037,83620.437,84020.461,,1,the
screen,html.Screen,0_2_1_1_2,2021-11-26T13:19:12.607Z,,,,,,,,,,,,,,,,54,,,,,,,,,,,,,,425.23899999925925,,response,,,100,,,,,,Space,keypress(Space),,,,,-- --- time --- ------ ----- ------- ---- -- --- ------- --<br>------- ---------- ------ -- ----- -- ----- -- ---- ------<br>--- ----- --- --- ------ -------- ----- --- ------ ----- --<br>----- ----- ---------- --- --- ------ ------ ---- -- ------<br>------- --- ------ ----- --- ---- ------- -- ---- --- --<br>------- ------,84446.29999999888,84445.69999999925,84003.796,84006.5,84020.461,84453.739,,2,time
screen,html.Screen,0_2_1_1_3,2021-11-26T13:19:12.991Z,,,,,,,,,,,,,,,,54,,,,,,,,,,,,,,375.96099999925354,,response,,,100,,,,,,Space,keypress(Space),,,,,-- --- ---- the ------ ----- ------- ---- -- --- ------- --<br>------- ---------- ------ -- ----- -- ----- -- ---- ------<br>--- ----- --- --- ------ -------- ----- --- ------ ----- --<br>----- ----- ---------- --- --- ------ ------ ---- -- ------<br>------- --- ------ ----- --- ---- ------- -- ---- --- --<br>------- ------,84830.19999999925,84829.69999999925,84437.074,84446.40000000037,84453.739,84837.129,,3,the
screen,html.Screen,0_2_1_1_4,2021-11-26T13:19:13.423Z,,,,,,,,,,,,,,,,54,,,,,,,,,,,,,,424.5709999992541,,response,,,100,,,,,,Space,keypress(Space),,,,,-- --- ---- --- French ----- ------- ---- -- --- ------- --<br>------- ---------- ------ -- ----- -- ----- -- ---- ------<br>--- ----- --- --- ------ -------- ----- --- ------ ----- --<br>----- ----- ---------- --- --- ------ ------ ---- -- ------<br>------- --- ------ ----- --- ---- ------- -- ---- --- --<br>------- ------,85262.29999999888,85261.69999999925,84820.463,84830.40000000037,84837.129,85270.256,,4,French
screen,html.Screen,0_2_1_1_5,2021-11-26T13:19:13.791Z,,,,,,,,,,,,,,,,54,,,,,,,,,,,,,,359.3439999996335,,response,,,100,,,,,,Space,keypress(Space),,,,,-- --- ---- --- ------ crown ------- ---- -- --- ------- --<br>------- ---------- ------ -- ----- -- ----- -- ---- ------<br>--- ----- --- --- ------ -------- ----- --- ------ ----- --<br>----- ----- ---------- --- --- ------ ------ ---- -- ------<br>------- --- ------ ----- --- ---- ------- -- ---- --- --<br>------- ------,85630.09999999963,85629.59999999963,85253.593,85262.40000000037,85270.256,85637.064,,5,crown
screen,html.Screen,0_2_1_1_6,2021-11-26T13:19:14.207Z,,,,,,,,,,,,,,,,54,,,,,,,,,,,,,,408.535999999629,,response,,,100,,,,,,Space,keypress(Space),,,,,-- --- ---- --- ------ ----- secured ---- -- --- ------- --<br>------- ---------- ------ -- ----- -- ----- -- ---- ------<br>--- ----- --- --- ------ -------- ----- --- ------ ----- --<br>----- ----- ---------- --- --- ------ ------ ---- -- ------<br>------- --- ------ ----- --- ---- ------- -- ---- --- --<br>------- ------,86046.19999999925,86045.59999999963,85620.398,85630.40000000037,85637.064,86053.719,,6,secured
screen,html.Screen,0_2_1_1_7,2021-11-26T13:19:14.591Z,,,,,,,,,,,,,,,,54,,,,,,,,,,,,,,375.88099999963015,,response,,,100,,,,,,Space,keypress(Space),,,,,-- --- ---- --- ------ ----- ------- much -- --- ------- --<br>------- ---------- ------ -- ----- -- ----- -- ---- ------<br>--- ----- --- --- ------ -------- ----- --- ------ ----- --<br>----- ----- ---------- --- --- ------ ------ ---- -- ------<br>------- --- ------ ----- --- ---- ------- -- ---- --- --<br>------- ------,86430.09999999963,86429.59999999963,86037.053,86046.29999999888,86053.719,86436.942,,7,much
screen,html.Screen,0_2_1_1_8,2021-11-26T13:19:14.918Z,,,,,,,,,,,,,,,,54,,,,,,,,,,,,,,320.657999999632,,response,,,100,,,,,,Space,keypress(Space),,,,,-- --- ---- --- ------ ----- ------- ---- of --- ------- --<br>------- ---------- ------ -- ----- -- ----- -- ---- ------<br>--- ----- --- --- ------ -------- ----- --- ------ ----- --<br>----- ----- ---------- --- --- ------ ------ ---- -- ------<br>------- --- ------ ----- --- ---- ------- -- ---- --- --<br>------- ------,86758.09999999963,86757.59999999963,86420.278,86430.29999999888,86436.942,86770.375,,8,of
screen,html.Screen,0_2_1_1_9,2021-11-26T13:19:15.191Z,,,,,,,,,,,,,,,,54,,,,,,,,,,,,,,259.22499999962747,,response,,,100,,,,,,Space,keypress(Space),,,,,-- --- ---- --- ------ ----- ------- ---- -- its ------- --<br>------- ---------- ------ -- ----- -- ----- -- ---- ------<br>--- ----- --- --- ------ -------- ----- --- ------ ----- --<br>----- ----- ---------- --- --- ------ ------ ---- -- ------<br>------- --- ------ ----- --- ---- ------- -- ---- --- --<br>------- ------,87030.09999999963,87029.59999999963,86753.709,86758.29999999888,86770.375,87036.907,,9,its
screen,html.Screen,0_2_1_1_10,2021-11-26T13:19:15.615Z,,,,,,,,,,,,,,,,54,,,,,,,,,,,,,,416.7929999992484,,response,,,100,,,,,,Space,keypress(Space),,,,,-- --- ---- --- ------ ----- ------- ---- -- --- revenue --<br>------- ---------- ------ -- ----- -- ----- -- ---- ------<br>--- ----- --- --- ------ -------- ----- --- ------ ----- --<br>----- ----- ---------- --- --- ------ ------ ---- -- ------<br>------- --- ------ ----- --- ---- ------- -- ---- --- --<br>------- ------,87454.40000000037,87453.69999999925,87020.243,87030.29999999888,87036.907,87470.322,,10,revenue
screen,html.Screen,0_2_1_1_11,2021-11-26T13:19:16.246Z,,,,,,,,,,,,,,,,54,,,,,,,,,,,,,,615.1779999999999,,response,,,100,,,,,,Space,keypress(Space),,,,,-- --- ---- --- ------ ----- ------- ---- -- --- ------- by<br>------- ---------- ------ -- ----- -- ----- -- ---- ------<br>--- ----- --- --- ------ -------- ----- --- ------ ----- --<br>----- ----- ---------- --- --- ------ ------ ---- -- ------<br>------- --- ------ ----- --- ---- ------- -- ---- --- --<br>------- ------,88086.09999999963,88085.5,87453.656,87454.5,87470.322,88086.913,,11,by
screen,html.Screen,0_2_1_1_12,2021-11-26T13:19:16.686Z,,,,,,,,,,,,,,,,54,,,,,,,,,,,,,,438.58699999999953,,response,,,100,,,,,,Space,keypress(Space),,,,,-- --- ---- --- ------ ----- ------- ---- -- --- ------- --<br>issuing ---------- ------ -- ----- -- ----- -- ---- ------<br>--- ----- --- --- ------ -------- ----- --- ------ ----- --<br>----- ----- ---------- --- --- ------ ------ ---- -- ------<br>------- --- ------ ----- --- ---- ------- -- ---- --- --<br>------- ------,88526.09999999963,88525.5,88070.248,88086.29999999888,88086.913,88536.888,,12,issuing
screen,html.Screen,0_2_1_1_13,2021-11-26T13:19:17.087Z,,,,,,,,,,,,,,,,54,,,,,,,,,,,,,,388.6119999999937,,response,,,100,,,,,,Space,keypress(Space),,,,,-- --- ---- --- ------ ----- ------- ---- -- --- ------- --<br>------- government ------ -- ----- -- ----- -- ---- ------<br>--- ----- --- --- ------ -------- ----- --- ------ ----- --<br>----- ----- ---------- --- --- ------ ------ ---- -- ------<br>------- --- ------ ----- --- ---- ------- -- ---- --- --<br>------- ------,88926.09999999963,88925.5,88520.223,88526.29999999888,88536.888,88936.854,,13,government
screen,html.Screen,0_2_1_1_14,2021-11-26T13:19:18.446Z,,,,,,,,,,,,,,,,54,,,,,,,,,,,,,,1348.6459999999934,,response,,,100,,,,,,Space,keypress(Space),,,,,-- --- ---- --- ------ ----- ------- ---- -- --- ------- --<br>------- ---------- bonds. -- ----- -- ----- -- ---- ------<br>--- ----- --- --- ------ -------- ----- --- ------ ----- --<br>----- ----- ---------- --- --- ------ ------ ---- -- ------<br>------- --- ------ ----- --- ---- ------- -- ---- --- --<br>------- ------,90286,90285.5,88920.189,88926.29999999888,88936.854,90286.728,,14,bonds.
screen,html.Screen,0_2_1_1_15,2021-11-26T13:19:18.814Z,,,,,,,,,,,,,,,,54,,,,,,,,,,,,,,366.67200000036974,,response,,,100,,,,,,Space,keypress(Space),,,,,-- --- ---- --- ------ ----- ------- ---- -- --- ------- --<br>------- ---------- ------ In ----- -- ----- -- ---- ------<br>--- ----- --- --- ------ -------- ----- --- ------ ----- --<br>----- ----- ---------- --- --- ------ ------ ---- -- ------<br>------- --- ------ ----- --- ---- ------- -- ---- --- --<br>------- ------,90654,90653.40000000037,90270.063,90286.19999999925,90286.728,90670.111,,15,In
screen,html.Screen,0_2_1_1_16,2021-11-26T13:19:20.486Z,,,,,,,,,,,,,,,,54,,,,,,,,,,,,,,1655.289000000368,,response,,,100,,,,,,Space,keypress(Space),,,,,"-- --- ---- --- ------ ----- ------- ---- -- --- ------- --<br>------- ---------- ------ -- 1727, -- ----- -- ---- ------<br>--- ----- --- --- ------ -------- ----- --- ------ ----- --<br>----- ----- ---------- --- --- ------ ------ ---- -- ------<br>------- --- ------ ----- --- ---- ------- -- ---- --- --<br>------- ------",92326.09999999963,92325.40000000037,90653.446,90654.09999999963,90670.111,92336.654,,16,"1727,"
screen,html.Screen,0_2_1_1_17,2021-11-26T13:19:20.950Z,,,,,,,,,,,,,,,,54,,,,,,,,,,,,,,452.6459999988874,,response,,,100,,,,,,Space,keypress(Space),,,,,-- --- ---- --- ------ ----- ------- ---- -- --- ------- --<br>------- ---------- ------ -- ----- in ----- -- ---- ------<br>--- ----- --- --- ------ -------- ----- --- ------ ----- --<br>----- ----- ---------- --- --- ------ ------ ---- -- ------<br>------- --- ------ ----- --- ---- ------- -- ---- --- --<br>------- ------,92789.79999999888,92789.29999999888,92319.989,92326.19999999925,92336.654,92803.37,,17,in
screen,html.Screen,0_2_1_1_18,2021-11-26T13:19:21.326Z,,,,,,,,,,,,,,,,54,,,,,,,,,,,,,,361.92999999888707,,response,,,100,,,,,,Space,keypress(Space),,,,,-- --- ---- --- ------ ----- ------- ---- -- --- ------- --<br>------- ---------- ------ -- ----- -- order -- ---- ------<br>--- ----- --- --- ------ -------- ----- --- ------ ----- --<br>----- ----- ---------- --- --- ------ ------ ---- -- ------<br>------- --- ------ ----- --- ---- ------- -- ---- --- --<br>------- ------,93165.79999999888,93165.29999999888,92786.705,92790,92803.37,93170.013,,18,order
screen,html.Screen,0_2_1_1_19,2021-11-26T13:19:21.686Z,,,,,,,,,,,,,,,,54,,,,,,,,,,,,,,355.2869999988761,,response,,,100,,,,,,Space,keypress(Space),,,,,-- --- ---- --- ------ ----- ------- ---- -- --- ------- --<br>------- ---------- ------ -- ----- -- ----- to ---- ------<br>--- ----- --- --- ------ -------- ----- --- ------ ----- --<br>----- ----- ---------- --- --- ------ ------ ---- -- ------<br>------- --- ------ ----- --- ---- ------- -- ---- --- --<br>------- ------,93525.90000000037,93525.29999999888,93153.348,93166,93170.013,93536.641,,19,to
screen,html.Screen,0_2_1_1_20,2021-11-26T13:19:21.990Z,,,,,,,,,,,,,,,,54,,,,,,,,,,,,,,292.75900000036927,,response,,,100,,,,,,Space,keypress(Space),,,,,-- --- ---- --- ------ ----- ------- ---- -- --- ------- --<br>------- ---------- ------ -- ----- -- ----- -- save ------<br>--- ----- --- --- ------ -------- ----- --- ------ ----- --<br>----- ----- ---------- --- --- ------ ------ ---- -- ------<br>------- --- ------ ----- --- ---- ------- -- ---- --- --<br>------- ------,93829.90000000037,93829.40000000037,93519.976,93526.09999999963,93536.641,93836.59,,20,save
screen,html.Screen,0_2_1_1_21,2021-11-26T13:19:22.478Z,,,,,,,,,,,,,,,,54,,,,,,,,,,,,,,480.60999999925843,,response,,,100,,,,,,Space,keypress(Space),,,,,"-- --- ---- --- ------ ----- ------- ---- -- --- ------- --<br>------- ---------- ------ -- ----- -- ----- -- ---- money,<br>--- ----- --- --- ------ -------- ----- --- ------ ----- --<br>----- ----- ---------- --- --- ------ ------ ---- -- ------<br>------- --- ------ ----- --- ---- ------- -- ---- --- --<br>------- ------",94317.79999999888,94317.19999999925,93819.926,93830.19999999925,93836.59,94319.921,,21,"money,"
screen,html.Screen,0_2_1_1_22,2021-11-26T13:19:23.086Z,,,,,,,,,,,,,,,,54,,,,,,,,,,,,,,605.2789999992528,,response,,,100,,,,,,Space,keypress(Space),,,,,-- --- ---- --- ------ ----- ------- ---- -- --- ------- --<br>------- ---------- ------ -- ----- -- ----- -- ---- ------<br>the ----- --- --- ------ -------- ----- --- ------ ----- --<br>----- ----- ---------- --- --- ------ ------ ---- -- ------<br>------- --- ------ ----- --- ---- ------- -- ---- --- --<br>------- ------,94925.79999999888,94925.19999999925,94303.256,94317.90000000037,94319.921,94936.548,,22,the
screen,html.Screen,0_2_1_1_23,2021-11-26T13:19:23.478Z,,,,,,,,,,,,,,,,54,,,,,,,,,,,,,,380.55199999963224,,response,,,100,,,,,,Space,keypress(Space),,,,,-- --- ---- --- ------ ----- ------- ---- -- --- ------- --<br>------- ---------- ------ -- ----- -- ----- -- ---- ------<br>--- state --- --- ------ -------- ----- --- ------ ----- --<br>----- ----- ---------- --- --- ------ ------ ---- -- ------<br>------- --- ------ ----- --- ---- ------- -- ---- --- --<br>------- ------,95317.69999999925,95317.09999999963,94919.883,94926,94936.548,95319.873,,23,state
screen,html.Screen,0_2_1_1_24,2021-11-26T13:19:23.894Z,,,,,,,,,,,,,,,,54,,,,,,,,,,,,,,413.3269999992481,,response,,,100,,,,,,Space,keypress(Space),,,,,-- --- ---- --- ------ ----- ------- ---- -- --- ------- --<br>------- ---------- ------ -- ----- -- ----- -- ---- ------<br>--- ----- cut --- ------ -------- ----- --- ------ ----- --<br>----- ----- ---------- --- --- ------ ------ ---- -- ------<br>------- --- ------ ----- --- ---- ------- -- ---- --- --<br>------- ------,95733.90000000037,95733.19999999925,95303.208,95317.90000000037,95319.873,95736.52,,24,cut
screen,html.Screen,0_2_1_1_25,2021-11-26T13:19:24.302Z,,,,,,,,,,,,,,,,54,,,,,,,,,,,,,,404.67999999925087,,response,,,100,,,,,,Space,keypress(Space),,,,,-- --- ---- --- ------ ----- ------- ---- -- --- ------- --<br>------- ---------- ------ -- ----- -- ----- -- ---- ------<br>--- ----- --- the ------ -------- ----- --- ------ ----- --<br>----- ----- ---------- --- --- ------ ------ ---- -- ------<br>------- --- ------ ----- --- ---- ------- -- ---- --- --<br>------- ------,96141.69999999925,96141.19999999925,95719.855,95734,95736.52,96153.218,,25,the
screen,html.Screen,0_2_1_1_26,2021-11-26T13:19:24.670Z,,,,,,,,,,,,,,,,54,,,,,,,,,,,,,,355.881999999634,,response,,,100,,,,,,Space,keypress(Space),,,,,-- --- ---- --- ------ ----- ------- ---- -- --- ------- --<br>------- ---------- ------ -- ----- -- ----- -- ---- ------<br>--- ----- --- --- bonds' -------- ----- --- ------ ----- --<br>----- ----- ---------- --- --- ------ ------ ---- -- ------<br>------- --- ------ ----- --- ---- ------- -- ---- --- --<br>------- ------,96509.69999999925,96509.09999999963,96136.552,96141.90000000037,96153.218,96519.81,,26,bonds'
screen,html.Screen,0_2_1_1_27,2021-11-26T13:19:25.094Z,,,,,,,,,,,,,,,,54,,,,,,,,,,,,,,413.2899999996298,,response,,,100,,,,,,Space,keypress(Space),,,,,-- --- ---- --- ------ ----- ------- ---- -- --- ------- --<br>------- ---------- ------ -- ----- -- ----- -- ---- ------<br>--- ----- --- --- ------ interest ----- --- ------ ----- --<br>----- ----- ---------- --- --- ------ ------ ---- -- ------<br>------- --- ------ ----- --- ---- ------- -- ---- --- --<br>------- ------,96933.59999999963,96933.09999999963,96503.145,96509.90000000037,96519.81,96936.525,,27,interest
screen,html.Screen,0_2_1_1_28,2021-11-26T13:19:25.542Z,,,,,,,,,,,,,,,,54,,,,,,,,,,,,,,444.5749999996333,,response,,,100,,,,,,Space,keypress(Space),,,,,-- --- ---- --- ------ ----- ------- ---- -- --- ------- --<br>------- ---------- ------ -- ----- -- ----- -- ---- ------<br>--- ----- --- --- ------ -------- rate. --- ------ ----- --<br>----- ----- ---------- --- --- ------ ------ ---- -- ------<br>------- --- ------ ----- --- ---- ------- -- ---- --- --<br>------- ------,97381.59999999963,97381.09999999963,96919.859,96933.90000000037,96936.525,97386.469,,28,rate.
screen,html.Screen,0_2_1_1_29,2021-11-26T13:19:26.150Z,,,,,,,,,,,,,,,,54,,,,,,,,,,,,,,602.5310000000027,,response,,,100,,,,,,Space,keypress(Space),,,,,-- --- ---- --- ------ ----- ------- ---- -- --- ------- --<br>------- ---------- ------ -- ----- -- ----- -- ---- ------<br>--- ----- --- --- ------ -------- ----- The ------ ----- --<br>----- ----- ---------- --- --- ------ ------ ---- -- ------<br>------- --- ------ ----- --- ---- ------- -- ---- --- --<br>------- ------,97989.59999999963,97989,97369.804,97381.79999999888,97386.469,98003.004,,29,The
screen,html.Screen,0_2_1_1_30,2021-11-26T13:19:26.534Z,,,,,,,,,,,,,,,,54,,,,,,,,,,,,,,369.9959999999992,,response,,,100,,,,,,Space,keypress(Space),,,,,-- --- ---- --- ------ ----- ------- ---- -- --- ------- --<br>------- ---------- ------ -- ----- -- ----- -- ---- ------<br>--- ----- --- --- ------ -------- ----- --- market ----- --<br>----- ----- ---------- --- --- ------ ------ ---- -- ------<br>------- --- ------ ----- --- ---- ------- -- ---- --- --<br>------- ------,98373.59999999963,98373,97986.34,97989.69999999925,98003.004,98386.388,,30,market
screen,html.Screen,0_2_1_1_31,2021-11-26T13:19:26.966Z,,,,,,,,,,,,,,,,54,,,,,,,,,,,,,,418.7119999996212,,response,,,100,,,,,,Space,keypress(Space),,,,,-- --- ---- --- ------ ----- ------- ---- -- --- ------- --<br>------- ---------- ------ -- ----- -- ----- -- ---- ------<br>--- ----- --- --- ------ -------- ----- --- ------ value --<br>----- ----- ---------- --- --- ------ ------ ---- -- ------<br>------- --- ------ ----- --- ---- ------- -- ---- --- --<br>------- ------,98805.69999999925,98805.09999999963,98369.723,98373.79999999888,98386.388,98819.631,,31,value
screen,html.Screen,0_2_1_1_32,2021-11-26T13:19:27.382Z,,,,,,,,,,,,,,,,54,,,,,,,,,,,,,,401.2690000003786,,response,,,100,,,,,,Space,keypress(Space),,,,,-- --- ---- --- ------ ----- ------- ---- -- --- ------- --<br>------- ---------- ------ -- ----- -- ----- -- ---- ------<br>--- ----- --- --- ------ -------- ----- --- ------ ----- of<br>----- ----- ---------- --- --- ------ ------ ---- -- ------<br>------- --- ------ ----- --- ---- ------- -- ---- --- --<br>------- ------,99221.59999999963,99220.90000000037,98802.967,98805.90000000037,98819.631,99236.435,,32,of
screen,html.Screen,0_2_1_1_33,2021-11-26T13:19:27.814Z,,,,,,,,,,,,,,,,54,,,,,,,,,,,,,,416.5650000000023,,response,,,100,,,,,,Space,keypress(Space),,,,,-- --- ---- --- ------ ----- ------- ---- -- --- ------- --<br>------- ---------- ------ -- ----- -- ----- -- ---- ------<br>--- ----- --- --- ------ -------- ----- --- ------ ----- --<br>these ----- ---------- --- --- ------ ------ ---- -- ------<br>------- --- ------ ----- --- ---- ------- -- ---- --- --<br>------- ------,99653.59999999963,99653,99219.768,99221.79999999888,99236.435,99669.728,,33,these
screen,html.Screen,0_2_1_1_34,2021-11-26T13:19:28.166Z,,,,,,,,,,,,,,,,54,,,,,,,,,,,,,,335.17200000036974,,response,,,100,,,,,,Space,keypress(Space),,,,,-- --- ---- --- ------ ----- ------- ---- -- --- ------- --<br>------- ---------- ------ -- ----- -- ----- -- ---- ------<br>--- ----- --- --- ------ -------- ----- --- ------ ----- --<br>----- bonds ---------- --- --- ------ ------ ---- -- ------<br>------- --- ------ ----- --- ---- ------- -- ---- --- --<br>------- ------,100005.59999999963,100004.90000000037,99653.062,99653.79999999888,99669.728,100019.601,,34,bonds
screen,html.Screen,0_2_1_1_35,2021-11-26T13:19:29.102Z,,,,,,,,,,,,,,,,54,,,,,,,,,,,,,,921.2990000003774,,response,,,100,,,,,,Space,keypress(Space),,,,,"-- --- ---- --- ------ ----- ------- ---- -- --- ------- --<br>------- ---------- ------ -- ----- -- ----- -- ---- ------<br>--- ----- --- --- ------ -------- ----- --- ------ ----- --<br>----- ----- plummeted, --- --- ------ ------ ---- -- ------<br>------- --- ------ ----- --- ---- ------- -- ---- --- --<br>------- ------",100941.59999999963,100940.90000000037,100002.937,100005.79999999888,100019.601,100952.998,,35,"plummeted,"
screen,html.Screen,0_2_1_1_36,2021-11-26T13:19:29.526Z,,,,,,,,,,,,,,,,54,,,,,,,,,,,,,,411.80199999887554,,response,,,100,,,,,,Space,keypress(Space),,,,,-- --- ---- --- ------ ----- ------- ---- -- --- ------- --<br>------- ---------- ------ -- ----- -- ----- -- ---- ------<br>--- ----- --- --- ------ -------- ----- --- ------ ----- --<br>----- ----- ---------- and --- ------ ------ ---- -- ------<br>------- --- ------ ----- --- ---- ------- -- ---- --- --<br>------- ------,101365.40000000037,101364.79999999888,100936.332,100941.79999999888,100952.998,101369.585,,36,and
screen,html.Screen,0_2_1_1_37,2021-11-26T13:19:29.926Z,,,,,,,,,,,,,,,,54,,,,,,,,,,,,,,395.214999998876,,response,,,100,,,,,,Space,keypress(Space),,,,,-- --- ---- --- ------ ----- ------- ---- -- --- ------- --<br>------- ---------- ------ -- ----- -- ----- -- ---- ------<br>--- ----- --- --- ------ -------- ----- --- ------ ----- --<br>----- ----- ---------- --- the ------ ------ ---- -- ------<br>------- --- ------ ----- --- ---- ------- -- ---- --- --<br>------- ------,101765.29999999888,101764.79999999888,101352.92,101365.59999999963,101369.585,101769.593,,37,the
screen,html.Screen,0_2_1_1_38,2021-11-26T13:19:30.494Z,,,,,,,,,,,,,,,,54,,,,,,,,,,,,,,563.2069999988889,,response,,,100,,,,,,Space,keypress(Space),,,,,-- --- ---- --- ------ ----- ------- ---- -- --- ------- --<br>------- ---------- ------ -- ----- -- ----- -- ---- ------<br>--- ----- --- --- ------ -------- ----- --- ------ ----- --<br>----- ----- ---------- --- --- market ------ ---- -- ------<br>------- --- ------ ----- --- ---- ------- -- ---- --- --<br>------- ------,102333.40000000037,102332.79999999888,101752.928,101765.59999999963,101769.593,102336.212,,38,market
screen,html.Screen,0_2_1_1_39,2021-11-26T13:19:30.966Z,,,,,,,,,,,,,,,,54,,,,,,,,,,,,,,468.5879999988829,,response,,,100,,,,,,Space,keypress(Space),,,,,-- --- ---- --- ------ ----- ------- ---- -- --- ------- --<br>------- ---------- ------ -- ----- -- ----- -- ---- ------<br>--- ----- --- --- ------ -------- ----- --- ------ ----- --<br>----- ----- ---------- --- --- ------ became ---- -- ------<br>------- --- ------ ----- --- ---- ------- -- ---- --- --<br>------- ------,102805.5,102804.79999999888,102319.547,102333.69999999925,102336.212,102819.539,,39,became
screen,html.Screen,0_2_1_1_40,2021-11-26T13:19:31.462Z,,,,,,,,,,,,,,,,54,,,,,,,,,,,,,,481.16099999925063,,response,,,100,,,,,,Space,keypress(Space),,,,,-- --- ---- --- ------ ----- ------- ---- -- --- ------- --<br>------- ---------- ------ -- ----- -- ----- -- ---- ------<br>--- ----- --- --- ------ -------- ----- --- ------ ----- --<br>----- ----- ---------- --- --- ------ ------ wary -- ------<br>------- --- ------ ----- --- ---- ------- -- ---- --- --<br>------- ------,103301.40000000037,103300.69999999925,102802.874,102805.69999999925,102819.539,103302.763,,40,wary
screen,html.Screen,0_2_1_1_41,2021-11-26T13:19:31.854Z,,,,,,,,,,,,,,,,54,,,,,,,,,,,,,,390.0369999988761,,response,,,100,,,,,,Space,keypress(Space),,,,,-- --- ---- --- ------ ----- ------- ---- -- --- ------- --<br>------- ---------- ------ -- ----- -- ----- -- ---- ------<br>--- ----- --- --- ------ -------- ----- --- ------ ----- --<br>----- ----- ---------- --- --- ------ ------ ---- of ------<br>------- --- ------ ----- --- ---- ------- -- ---- --- --<br>------- ------,103693.29999999888,103692.79999999888,103286.099,103301.5,103302.763,103702.865,,41,of
screen,html.Screen,0_2_1_1_42,2021-11-26T13:19:32.302Z,,,,,,,,,,,,,,,,54,,,,,,,,,,,,,,438.0350000003673,,response,,,100,,,,,,Space,keypress(Space),,,,,-- --- ---- --- ------ ----- ------- ---- -- --- ------- --<br>------- ---------- ------ -- ----- -- ----- -- ---- ------<br>--- ----- --- --- ------ -------- ----- --- ------ ----- --<br>----- ----- ---------- --- --- ------ ------ ---- -- French<br>------- --- ------ ----- --- ---- ------- -- ---- --- --<br>------- ------,104141.59999999963,104140.90000000037,103686.199,103693.5,103702.865,104152.793,,42,French
screen,html.Screen,0_2_1_1_43,2021-11-26T13:19:33.102Z,,,,,,,,,,,,,,,,54,,,,,,,,,,,,,,787.9069999992498,,response,,,100,,,,,,Space,keypress(Space),,,,,-- --- ---- --- ------ ----- ------- ---- -- --- ------- --<br>------- ---------- ------ -- ----- -- ----- -- ---- ------<br>--- ----- --- --- ------ -------- ----- --- ------ ----- --<br>----- ----- ---------- --- --- ------ ------ ---- -- ------<br>credit. --- ------ ----- --- ---- ------- -- ---- --- --<br>------- ------,104941.29999999888,104940.69999999925,104136.128,104141.79999999888,104152.793,104952.746,,43,credit.
screen,html.Screen,0_2_1_1_44,2021-11-26T13:19:33.486Z,,,,,,,,,,,,,,,,54,,,,,,,,,,,,,,371.95399999925576,,response,,,100,,,,,,Space,keypress(Space),,,,,-- --- ---- --- ------ ----- ------- ---- -- --- ------- --<br>------- ---------- ------ -- ----- -- ----- -- ---- ------<br>--- ----- --- --- ------ -------- ----- --- ------ ----- --<br>----- ----- ---------- --- --- ------ ------ ---- -- ------<br>------- The ------ ----- --- ---- ------- -- ---- --- --<br>------- ------,105325.19999999925,105324.69999999925,104936.081,104941.40000000037,104952.746,105336.068,,44,The
screen,html.Screen,0_2_1_1_45,2021-11-26T13:19:33.902Z,,,,,,,,,,,,,,,,54,,,,,,,,,,,,,,404.7319999988831,,response,,,100,,,,,,Space,keypress(Space),,,,,-- --- ---- --- ------ ----- ------- ---- -- --- ------- --<br>------- ---------- ------ -- ----- -- ----- -- ---- ------<br>--- ----- --- --- ------ -------- ----- --- ------ ----- --<br>----- ----- ---------- --- --- ------ ------ ---- -- ------<br>------- --- French ----- --- ---- ------- -- ---- --- --<br>------- ------,105741.29999999888,105740.79999999888,105319.403,105325.5,105336.068,105752.711,,45,French
screen,html.Screen,0_2_1_1_46,2021-11-26T13:19:34.566Z,,,,,,,,,,,,,,,,54,,,,,,,,,,,,,,651.8889999996318,,response,,,100,,,,,,Space,keypress(Space),,,,,-- --- ---- --- ------ ----- ------- ---- -- --- ------- --<br>------- ---------- ------ -- ----- -- ----- -- ---- ------<br>--- ----- --- --- ------ -------- ----- --- ------ ----- --<br>----- ----- ---------- --- --- ------ ------ ---- -- ------<br>------- --- ------ state --- ---- ------- -- ---- --- --<br>------- ------,106405.29999999888,106404.59999999963,105736.046,105741.5,105752.711,106419.245,,46,state
screen,html.Screen,0_2_1_1_47,2021-11-26T13:19:35.054Z,,,,,,,,,,,,,,,,54,,,,,,,,,,,,,,473.3549999996321,,response,,,100,,,,,,Space,keypress(Space),,,,,-- --- ---- --- ------ ----- ------- ---- -- --- ------- --<br>------- ---------- ------ -- ----- -- ----- -- ---- ------<br>--- ----- --- --- ------ -------- ----- --- ------ ----- --<br>----- ----- ---------- --- --- ------ ------ ---- -- ------<br>------- --- ------ ----- was ---- ------- -- ---- --- --<br>------- ------,106893.09999999963,106892.59999999963,106402.581,106405.5,106419.245,106902.71,,47,was
screen,html.Screen,0_2_1_1_48,2021-11-26T13:19:35.573Z,,,,,,,,,,,,,,,,54,,,,,,,,,,,,,,509.88999999962107,,response,,,100,,,,,,Space,keypress(Space),,,,,-- --- ---- --- ------ ----- ------- ---- -- --- ------- --<br>------- ---------- ------ -- ----- -- ----- -- ---- ------<br>--- ----- --- --- ------ -------- ----- --- ------ ----- --<br>----- ----- ---------- --- --- ------ ------ ---- -- ------<br>------- --- ------ ----- --- left ------- -- ---- --- --<br>------- ------,107413.09999999963,107412.59999999963,106886.044,106893.29999999888,106902.71,107419.193,,48,left
screen,html.Screen,0_2_1_1_49,2021-11-26T13:19:36.053Z,,,,,,,,,,,,,,,,54,,,,,,,,,,,,,,473.3070000000007,,response,,,100,,,,,,Space,keypress(Space),,,,,-- --- ---- --- ------ ----- ------- ---- -- --- ------- --<br>------- ---------- ------ -- ----- -- ----- -- ---- ------<br>--- ----- --- --- ------ -------- ----- --- ------ ----- --<br>----- ----- ---------- --- --- ------ ------ ---- -- ------<br>------- --- ------ ----- --- ---- without -- ---- --- --<br>------- ------,107893.09999999963,107892.5,107402.529,107413.29999999888,107419.193,107902.696,,49,without
screen,html.Screen,0_2_1_1_50,2021-11-26T13:19:36.469Z,,,,,,,,,,,,,,,,54,,,,,,,,,,,,,,405.8040000000037,,response,,,100,,,,,,Space,keypress(Space),,,,,-- --- ---- --- ------ ----- ------- ---- -- --- ------- --<br>------- ---------- ------ -- ----- -- ----- -- ---- ------<br>--- ----- --- --- ------ -------- ----- --- ------ ----- --<br>----- ----- ---------- --- --- ------ ------ ---- -- ------<br>------- --- ------ ----- --- ---- ------- an ---- --- --<br>------- ------,108309.09999999963,108308.5,107886.029,107893.29999999888,107902.696,108319.253,,50,an
screen,html.Screen,0_2_1_1_51,2021-11-26T13:19:37.030Z,,,,,,,,,,,,,,,,54,,,,,,,,,,,,,,549.3469999996305,,response,,,100,,,,,,Space,keypress(Space),,,,,-- --- ---- --- ------ ----- ------- ---- -- --- ------- --<br>------- ---------- ------ -- ----- -- ----- -- ---- ------<br>--- ----- --- --- ------ -------- ----- --- ------ ----- --<br>----- ----- ---------- --- --- ------ ------ ---- -- ------<br>------- --- ------ ----- --- ---- ------- -- easy --- --<br>------- ------,108869.19999999925,108868.59999999963,108302.588,108309.19999999925,108319.253,108885.894,,51,easy
screen,html.Screen,0_2_1_1_52,2021-11-26T13:19:37.429Z,,,,,,,,,,,,,,,,54,,,,,,,,,,,,,,382.60599999999977,,response,,,100,,,,,,Space,keypress(Space),,,,,-- --- ---- --- ------ ----- ------- ---- -- --- ------- --<br>------- ---------- ------ -- ----- -- ----- -- ---- ------<br>--- ----- --- --- ------ -------- ----- --- ------ ----- --<br>----- ----- ---------- --- --- ------ ------ ---- -- ------<br>------- --- ------ ----- --- ---- ------- -- ---- way --<br>------- ------,109269,109268.5,108869.229,108869.29999999888,108885.894,109285.867,,52,way
screen,html.Screen,0_2_1_1_53,2021-11-26T13:19:37.877Z,,,,,,,,,,,,,,,,54,,,,,,,,,,,,,,430.63300000000163,,response,,,100,,,,,,Space,keypress(Space),,,,,-- --- ---- --- ------ ----- ------- ---- -- --- ------- --<br>------- ---------- ------ -- ----- -- ----- -- ---- ------<br>--- ----- --- --- ------ -------- ----- --- ------ ----- --<br>----- ----- ---------- --- --- ------ ------ ---- -- ------<br>------- --- ------ ----- --- ---- ------- -- ---- --- of<br>------- ------,109717.09999999963,109716.5,109269.202,109269.09999999963,109285.867,109719.158,,53,of
screen,html.Screen,0_2_1_1_54,2021-11-26T13:19:38.429Z,,,,,,,,,,,,,,,,54,,,,,,,,,,,,,,549.2420000003767,,response,,,100,,,,,,Space,keypress(Space),,,,,-- --- ---- --- ------ ----- ------- ---- -- --- ------- --<br>------- ---------- ------ -- ----- -- ----- -- ---- ------<br>--- ----- --- --- ------ -------- ----- --- ------ ----- --<br>----- ----- ---------- --- --- ------ ------ ---- -- ------<br>------- --- ------ ----- --- ---- ------- -- ---- --- --<br>raising ------,110269,110268.40000000037,109702.493,109717.29999999888,109719.158,110285.793,,54,raising
screen,html.Screen,0_2_1_1_55,2021-11-26T13:19:39.253Z,,,,,,,,,,,,,,,,54,,,,,,,,,,,,,,806.6070000003674,,response,,,100,,,,,,Space,keypress(Space),,,,,-- --- ---- --- ------ ----- ------- ---- -- --- ------- --<br>------- ---------- ------ -- ----- -- ----- -- ---- ------<br>--- ----- --- --- ------ -------- ----- --- ------ ----- --<br>----- ----- ---------- --- --- ------ ------ ---- -- ------<br>------- --- ------ ----- --- ---- ------- -- ---- --- --<br>------- money.,111093,111092.40000000037,110269.128,110269.09999999963,110285.793,111102.418,,55,money.
Item 100,flow.Loop,0_2_1_1,2021-11-26T13:19:39.254Z,,,,,,,,,,,,,,,,,,,,,,,,,,,,,,28321.829000000376,,completion,,,,E,,,,,,,,,,silence,,111093.29999999888,111092.40000000037,82753.905,82754.79999999888,82770.571,111102.418,,,
Question 1,html.Screen,0_2_1_2,2021-11-26T13:19:42.343Z,,,,,,,,,,,,,,,,,,,,,,,,,,,true,TRUE,,3079.28199999925,,response,,,100,E,,,,,TRUE,click #choice-1,,,,silence,,114182.5,114181.69999999925,111085.753,111093.5,111102.418,114185.618,,,
Question 2,html.Screen,0_2_1_3,2021-11-26T13:19:44.180Z,,,,,,,,,,,,,,,,,,,,,,,,,,,true,FALSE,,1832.9819999996253,,response,,,100,E,,,,,FALSE,click #choice-2,,,,silence,,116019.40000000037,116018.59999999963,114168.953,114182.59999999963,114185.618,116035.533,,,
Item 100,flow.Sequence,0_2_1,2021-11-26T13:19:44.180Z,,,,,,,,,,,,,,,,,,,,,,,,,,,,,,43247.602999999624,,completion,,,,,,,,,,,,,,,,116019.69999999925,116018.59999999963,72754.332,72770.29999999888,72770.997,116035.533,,,
End of Practice,html.Page,0_2_2,2021-11-26T13:19:47.684Z,,,,,,,,,,,,,,,,,,,,,,,,,,,,,,3487.5669999996317,,form submission,,,,,,,,,,,,,,,,119523.5,119523.09999999963,116018.868,116019.79999999888,116035.533,119535.424,,,
Practice,flow.Sequence,0_2,2021-11-26T13:19:47.684Z,,,,,,,,,,,,,,,,,,,,,,,,,,,,,,90933.40599999962,,completion,,,,,,,,,,,,,,,,119523.69999999925,119523.09999999963,28573.029,28576.299999998882,28589.694,119535.424,,,
Trap_instruction,html.Page,0_3_0,2021-11-26T13:19:51.744Z,,,,,,,,,,,,,,,,,,,,,,,,,,,,,,4044.775999999256,,form submission,,,,,,,,,,,,,,,,123580.59999999963,123580.19999999925,119518.758,119524,119535.424,123601.636,,,
trap_trial,html.Screen,0_3_1,2021-11-26T13:19:54.464Z,,,,,,,,,,,,,,,,,,,,,,,,,,,true,1,,2698.3640000000014,,response,,,,,,,,,1,click #choice-1,,,,,,126300.79999999888,126300,123568.306,123580.79999999888,123601.636,126301.544,,,
end of trap trial,html.Page,0_3_2,2021-11-26T13:19:56.805Z,,,,,,,,,,,,,,,,,,,,,,,,,,,,,,2339.4560000000056,,form submission,,,,,,,,,,,,,,,,128641.29999999888,128641,126284.879,126300.90000000037,126301.544,128651.488,,,
Trap 1,flow.Sequence,0_3,2021-11-26T13:19:56.805Z,,,,,,,,,,,,,,,,,,,,,,,,,,,,,,9105.576000000001,,completion,,,,,,,,,,,,,,,,128641.59999999963,128641,119518.758,119523.90000000037,119535.424,128651.488,,,
Standby,html.Page,0_4_0,2021-11-26T13:20:04.799Z,,,,,,,,,,,,,,,,,,,,,,,,,,,,,,7999.827999999994,,timeout,,,,,,,,,,,,,,,,136635.69999999925,136634.65,128634.823,128641.79999999888,128651.488,136651.316,,,
Holding screen,html.Screen,0_4_1_0_0,2021-11-26T13:20:11.799Z,,,,,,,,,,,,,,,,,,,,,,,,,,,,,,6999.470000000001,,timeout,,,,,,,,,,,,,,,,143635.59999999963,143634.121,136634.65,136635.90000000037,136651.316,143650.786,,,
screen,html.Screen,0_4_1_0_1_0,2021-11-26T13:20:12.631Z,,,,,,,,,,,,,,,,15,,,,,,,,,,,,,,816.3139999996347,,response,,,7,E,,,,,Space,keypress(Space),,,,lyrical,Greg --------- ---------- - --- ------- -- --- ------------<br>----- -- -------- ------- ---- ------ - -------- ---- -----<br>--- ------- ---- -- --- -------- --- - ----- ------ ---- --<br>-------- --- -------- -------- --- -------- ---- -- ----- -<br>-------- ---- --- ---------- --------- -- ------- ------ -<br>--------- ----- -----,144467.79999999888,144467.09999999963,143634.121,143635.90000000037,143650.786,144484.089,,0,Greg
screen,html.Screen,0_4_1_0_1_1,2021-11-26T13:20:13.214Z,,,,,,,,,,,,,,,,15,,,,,,,,,,,,,,566.5109999996203,,response,,,7,E,,,,,Space,keypress(Space),,,,lyrical,"---- Anderson, ---------- - --- ------- -- --- ------------<br>----- -- -------- ------- ---- ------ - -------- ---- -----<br>--- ------- ---- -- --- -------- --- - ----- ------ ---- --<br>-------- --- -------- -------- --- -------- ---- -- ----- -<br>-------- ---- --- ---------- --------- -- ------- ------ -<br>--------- ----- -----",145051.19999999925,145050.59999999963,144467.424,144467.90000000037,144484.089,145067.37,,1,"Anderson,"
screen,html.Screen,0_4_1_0_1_2,2021-11-26T13:20:13.703Z,,,,,,,,,,,,,,,,15,,,,,,,,,,,,,,471.3299999992596,,response,,,7,E,,,,,Space,keypress(Space),,,,lyrical,---- --------- considered - --- ------- -- --- ------------<br>----- -- -------- ------- ---- ------ - -------- ---- -----<br>--- ------- ---- -- --- -------- --- - ----- ------ ---- --<br>-------- --- -------- -------- --- -------- ---- -- ----- -<br>-------- ---- --- ---------- --------- -- ------- ------ -<br>--------- ----- -----,145539.40000000037,145538.69999999925,145050.705,145051.40000000037,145067.37,145550.804,,2,considered
screen,html.Screen,0_4_1_0_1_3,2021-11-26T13:20:14.095Z,,,,,,,,,,,,,,,,15,,,,,,,,,,,,,,379.8959999992512,,response,,,7,E,,,,,Space,keypress(Space),,,,lyrical,---- --------- ---------- a --- ------- -- --- ------------<br>----- -- -------- ------- ---- ------ - -------- ---- -----<br>--- ------- ---- -- --- -------- --- - ----- ------ ---- --<br>-------- --- -------- -------- --- -------- ---- -- ----- -<br>-------- ---- --- ---------- --------- -- ------- ------ -<br>--------- ----- -----,145931.29999999888,145930.69999999925,145534.138,145539.5,145550.804,145934.043,,3,a
screen,html.Screen,0_4_1_0_1_4,2021-11-26T13:20:14.478Z,,,,,,,,,,,,,,,,15,,,,,,,,,,,,,,380.55699999962235,,response,,,7,E,,,,,Space,keypress(Space),,,,lyrical,---- --------- ---------- - key ------- -- --- ------------<br>----- -- -------- ------- ---- ------ - -------- ---- -----<br>--- ------- ---- -- --- -------- --- - ----- ------ ---- --<br>-------- --- -------- -------- --- -------- ---- -- ----- -<br>-------- ---- --- ---------- --------- -- ------- ------ -<br>--------- ----- -----,146315.19999999925,146314.59999999963,145917.378,145931.40000000037,145934.043,146317.364,,4,key
screen,html.Screen,0_4_1_0_1_5,2021-11-26T13:20:14.943Z,,,,,,,,,,,,,,,,15,,,,,,,,,,,,,,461.33599999925354,,response,,,7,E,,,,,Space,keypress(Space),,,,lyrical,---- --------- ---------- - --- witness -- --- ------------<br>----- -- -------- ------- ---- ------ - -------- ---- -----<br>--- ------- ---- -- --- -------- --- - ----- ------ ---- --<br>-------- --- -------- -------- --- -------- ---- -- ----- -<br>-------- ---- --- ---------- --------- -- ------- ------ -<br>--------- ----- -----,146779.29999999888,146778.69999999925,146300.699,146315.29999999888,146317.364,146784.012,,5,witness
screen,html.Screen,0_4_1_0_1_6,2021-11-26T13:20:15.582Z,,,,,,,,,,,,,,,,15,,,,,,,,,,,,,,634.5879999996396,,response,,,7,E,,,,,Space,keypress(Space),,,,lyrical,---- --------- ---------- - --- ------- by --- ------------<br>----- -- -------- ------- ---- ------ - -------- ---- -----<br>--- ------- ---- -- --- -------- --- - ----- ------ ---- --<br>-------- --- -------- -------- --- -------- ---- -- ----- -<br>-------- ---- --- ---------- --------- -- ------- ------ -<br>--------- ----- -----,147419.19999999925,147418.59999999963,146767.347,146779.5,146784.012,147434.058,,6,by
screen,html.Screen,0_4_1_0_1_7,2021-11-26T13:20:15.958Z,,,,,,,,,,,,,,,,15,,,,,,,,,,,,,,360.44200000001,,response,,,7,E,,,,,Space,keypress(Space),,,,lyrical,---- --------- ---------- - --- ------- -- the ------------<br>----- -- -------- ------- ---- ------ - -------- ---- -----<br>--- ------- ---- -- --- -------- --- - ----- ------ ---- --<br>-------- --- -------- -------- --- -------- ---- -- ----- -<br>-------- ---- --- ---------- --------- -- ------- ------ -<br>--------- ----- -----,147795,147794.5,147417.392,147419.40000000037,147434.058,147800.563,,7,the
screen,html.Screen,0_4_1_0_1_8,2021-11-26T13:20:16.662Z,,,,,,,,,,,,,,,,15,,,,,,,,,,,,,,697.9370000000054,,response,,,7,E,,,,,Space,keypress(Space),,,,lyrical,"---- --------- ---------- - --- ------- -- --- prosecution,<br>----- -- -------- ------- ---- ------ - -------- ---- -----<br>--- ------- ---- -- --- -------- --- - ----- ------ ---- --<br>-------- --- -------- -------- --- -------- ---- -- ----- -<br>-------- ---- --- ---------- --------- -- ------- ------ -<br>--------- ----- -----",148499.19999999925,148498.5,147783.899,147795.19999999925,147800.563,148500.575,,8,"prosecution,"
screen,html.Screen,0_4_1_0_1_9,2021-11-26T13:20:17.214Z,,,,,,,,,,,,,,,,15,,,,,,,,,,,,,,550.0249999996158,,response,,,7,E,,,,,Space,keypress(Space),,,,lyrical,---- --------- ---------- - --- ------- -- --- ------------<br>vowed -- -------- ------- ---- ------ - -------- ---- -----<br>--- ------- ---- -- --- -------- --- - ----- ------ ---- --<br>-------- --- -------- -------- --- -------- ---- -- ----- -<br>-------- ---- --- ---------- --------- -- ------- ------ -<br>--------- ----- -----,149051.19999999925,149050.59999999963,148483.91,148499.29999999888,148500.575,149067.306,,9,vowed
screen,html.Screen,0_4_1_0_1_10,2021-11-26T13:20:17.582Z,,,,,,,,,,,,,,,,15,,,,,,,,,,,,,,351.1939999999886,,response,,,7,E,,,,,Space,keypress(Space),,,,lyrical,---- --------- ---------- - --- ------- -- --- ------------<br>----- he -------- ------- ---- ------ - -------- ---- -----<br>--- ------- ---- -- --- -------- --- - ----- ------ ---- --<br>-------- --- -------- -------- --- -------- ---- -- ----- -<br>-------- ---- --- ---------- --------- -- ------- ------ -<br>--------- ----- -----,149419.09999999963,149418.5,149050.64,149051.29999999888,149067.306,149433.896,,10,he
screen,html.Screen,0_4_1_0_1_11,2021-11-26T13:20:18.054Z,,,,,,,,,,,,,,,,15,,,,,,,,,,,,,,456.5040000003646,,response,,,7,E,,,,,Space,keypress(Space),,,,lyrical,---- --------- ---------- - --- ------- -- --- ------------<br>----- -- wouldn't ------- ---- ------ - -------- ---- -----<br>--- ------- ---- -- --- -------- --- - ----- ------ ---- --<br>-------- --- -------- -------- --- -------- ---- -- ----- -<br>-------- ---- --- ---------- --------- -- ------- ------ -<br>--------- ----- -----,149891.09999999963,149890.40000000037,149417.231,149419.19999999925,149433.896,149900.548,,11,wouldn't
screen,html.Screen,0_4_1_0_1_12,2021-11-26T13:20:18.526Z,,,,,,,,,,,,,,,,15,,,,,,,,,,,,,,461.9519999999902,,response,,,7,E,,,,,Space,keypress(Space),,,,lyrical,---- --------- ---------- - --- ------- -- --- ------------<br>----- -- -------- testify ---- ------ - -------- ---- -----<br>--- ------- ---- -- --- -------- --- - ----- ------ ---- --<br>-------- --- -------- -------- --- -------- ---- -- ----- -<br>-------- ---- --- ---------- --------- -- ------- ------ -<br>--------- ----- -----,150363,150362.5,149883.883,149891.19999999925,149900.548,150367.17,,12,testify
screen,html.Screen,0_4_1_0_1_13,2021-11-26T13:20:18.974Z,,,,,,,,,,,,,,,,15,,,,,,,,,,,,,,443.2300000003597,,response,,,7,E,,,,,Space,keypress(Space),,,,lyrical,---- --------- ---------- - --- ------- -- --- ------------<br>----- -- -------- ------- when ------ - -------- ---- -----<br>--- ------- ---- -- --- -------- --- - ----- ------ ---- --<br>-------- --- -------- -------- --- -------- ---- -- ----- -<br>-------- ---- --- ---------- --------- -- ------- ------ -<br>--------- ----- -----,150811.09999999963,150810.40000000037,150350.505,150363.19999999925,150367.17,150817.158,,13,when
screen,html.Screen,0_4_1_0_1_14,2021-11-26T13:20:19.374Z,,,,,,,,,,,,,,,,15,,,,,,,,,,,,,,393.2420000003767,,response,,,7,E,,,,,Space,keypress(Space),,,,lyrical,---- --------- ---------- - --- ------- -- --- ------------<br>----- -- -------- ------- ---- served - -------- ---- -----<br>--- ------- ---- -- --- -------- --- - ----- ------ ---- --<br>-------- --- -------- -------- --- -------- ---- -- ----- -<br>-------- ---- --- ---------- --------- -- ------- ------ -<br>--------- ----- -----,151211.09999999963,151210.40000000037,150800.493,150811.40000000037,150817.158,151217.142,,14,served
screen,html.Screen,0_4_1_0_1_15,2021-11-26T13:20:19.750Z,,,,,,,,,,,,,,,,15,,,,,,,,,,,,,,369.35800000000745,,response,,,7,E,,,,,Space,keypress(Space),,,,lyrical,---- --------- ---------- - --- ------- -- --- ------------<br>----- -- -------- ------- ---- ------ a -------- ---- -----<br>--- ------- ---- -- --- -------- --- - ----- ------ ---- --<br>-------- --- -------- -------- --- -------- ---- -- ----- -<br>-------- ---- --- ---------- --------- -- ------- ------ -<br>--------- ----- -----,151587.09999999963,151586.5,151200.477,151211.19999999925,151217.142,151600.458,,15,a
screen,html.Screen,0_4_1_0_1_16,2021-11-26T13:20:20.526Z,,,,,,,,,,,,,,,,15,,,,,,,,,,,,,,761.9420000003593,,response,,,7,E,,,,,Space,keypress(Space),,,,lyrical,---- --------- ---------- - --- ------- -- --- ------------<br>----- -- -------- ------- ---- ------ - subpoena ---- -----<br>--- ------- ---- -- --- -------- --- - ----- ------ ---- --<br>-------- --- -------- -------- --- -------- ---- -- ----- -<br>-------- ---- --- ---------- --------- -- ------- ------ -<br>--------- ----- -----,152362.90000000037,152362.40000000037,151583.793,151587.29999999888,151600.458,152367.048,,16,subpoena
screen,html.Screen,0_4_1_0_1_17,2021-11-26T13:20:20.942Z,,,,,,,,,,,,,,,,15,,,,,,,,,,,,,,411.35200000036275,,response,,,7,E,,,,,Space,keypress(Space),,,,lyrical,---- --------- ---------- - --- ------- -- --- ------------<br>----- -- -------- ------- ---- ------ - -------- last -----<br>--- ------- ---- -- --- -------- --- - ----- ------ ---- --<br>-------- --- -------- -------- --- -------- ---- -- ----- -<br>-------- ---- --- ---------- --------- -- ------- ------ -<br>--------- ----- -----,152778.90000000037,152778.40000000037,152350.383,152363.19999999925,152367.048,152783.764,,17,last
screen,html.Screen,0_4_1_0_1_18,2021-11-26T13:20:21.470Z,,,,,,,,,,,,,,,,15,,,,,,,,,,,,,,522.636000000377,,response,,,7,E,,,,,Space,keypress(Space),,,,lyrical,---- --------- ---------- - --- ------- -- --- ------------<br>----- -- -------- ------- ---- ------ - -------- ---- week.<br>--- ------- ---- -- --- -------- --- - ----- ------ ---- --<br>-------- --- -------- -------- --- -------- ---- -- ----- -<br>-------- ---- --- ---------- --------- -- ------- ------ -<br>--------- ----- -----,153306.90000000037,153306.40000000037,152767.098,152779.09999999963,152783.764,153317.022,,18,week.
screen,html.Screen,0_4_1_0_1_19,2021-11-26T13:20:22.006Z,,,,,,,,,,,,,,,,15,,,,,,,,,,,,,,525.2779999988852,,response,,,7,E,,,,,Space,keypress(Space),,,,lyrical,---- --------- ---------- - --- ------- -- --- ------------<br>----- -- -------- ------- ---- ------ - -------- ---- -----<br>His ------- ---- -- --- -------- --- - ----- ------ ---- --<br>-------- --- -------- -------- --- -------- ---- -- ----- -<br>-------- ---- --- ---------- --------- -- ------- ------ -<br>--------- ----- -----,153843,153842.29999999888,153300.357,153307.09999999963,153317.022,153850.376,,19,His
screen,html.Screen,0_4_1_0_1_20,2021-11-26T13:20:22.574Z,,,,,,,,,,,,,,,,15,,,,,,,,,,,,,,560.0240000003832,,response,,,7,E,,,,,Space,keypress(Space),,,,lyrical,---- --------- ---------- - --- ------- -- --- ------------<br>----- -- -------- ------- ---- ------ - -------- ---- -----<br>--- lawyers ---- -- --- -------- --- - ----- ------ ---- --<br>-------- --- -------- -------- --- -------- ---- -- ----- -<br>-------- ---- --- ---------- --------- -- ------- ------ -<br>--------- ----- -----,154411,154410.40000000037,153833.71,153843.09999999963,153850.376,154416.975,,20,lawyers
screen,html.Screen,0_4_1_0_1_21,2021-11-26T13:20:23.086Z,,,,,,,,,,,,,,,,15,,,,,,,,,,,,,,505.5249999999942,,response,,,7,E,,,,,Space,keypress(Space),,,,lyrical,---- --------- ---------- - --- ------- -- --- ------------<br>----- -- -------- ------- ---- ------ - -------- ---- -----<br>--- ------- said -- --- -------- --- - ----- ------ ---- --<br>-------- --- -------- -------- --- -------- ---- -- ----- -<br>-------- ---- --- ---------- --------- -- ------- ------ -<br>--------- ----- -----,154923.09999999963,154922.5,154400.31,154411.09999999963,154416.975,154933.618,,21,said
screen,html.Screen,0_4_1_0_1_22,2021-11-26T13:20:23.518Z,,,,,,,,,,,,,,,,15,,,,,,,,,,,,,,420.68199999889475,,response,,,7,E,,,,,Space,keypress(Space),,,,lyrical,---- --------- ---------- - --- ------- -- --- ------------<br>----- -- -------- ------- ---- ------ - -------- ---- -----<br>--- ------- ---- he --- -------- --- - ----- ------ ---- --<br>-------- --- -------- -------- --- -------- ---- -- ----- -<br>-------- ---- --- ---------- --------- -- ------- ------ -<br>--------- ----- -----,155354.90000000037,155354.29999999888,154916.953,154923.19999999925,154933.618,155366.934,,22,he
screen,html.Screen,0_4_1_0_1_23,2021-11-26T13:20:23.958Z,,,,,,,,,,,,,,,,15,,,,,,,,,,,,,,427.26599999924656,,response,,,7,E,,,,,Space,keypress(Space),,,,lyrical,---- --------- ---------- - --- ------- -- --- ------------<br>----- -- -------- ------- ---- ------ - -------- ---- -----<br>--- ------- ---- -- was -------- --- - ----- ------ ---- --<br>-------- --- -------- -------- --- -------- ---- -- ----- -<br>-------- ---- --- ---------- --------- -- ------- ------ -<br>--------- ----- -----,155794.79999999888,155794.19999999925,155350.269,155355,155366.934,155800.247,,23,was
screen,html.Screen,0_4_1_0_1_24,2021-11-26T13:20:24.606Z,,,,,,,,,,,,,,,,15,,,,,,,,,,,,,,641.9529999992519,,response,,,7,E,,,,,Space,keypress(Space),,,,lyrical,---- --------- ---------- - --- ------- -- --- ------------<br>----- -- -------- ------- ---- ------ - -------- ---- -----<br>--- ------- ---- -- --- prepared --- - ----- ------ ---- --<br>-------- --- -------- -------- --- -------- ---- -- ----- -<br>-------- ---- --- ---------- --------- -- ------- ------ -<br>--------- ----- -----,156442.79999999888,156442.19999999925,155783.582,155794.90000000037,155800.247,156450.2,,24,prepared
screen,html.Screen,0_4_1_0_1_25,2021-11-26T13:20:25.030Z,,,,,,,,,,,,,,,,15,,,,,,,,,,,,,,415.89999999961583,,response,,,7,E,,,,,Space,keypress(Space),,,,lyrical,---- --------- ---------- - --- ------- -- --- ------------<br>----- -- -------- ------- ---- ------ - -------- ---- -----<br>--- ------- ---- -- --- -------- for - ----- ------ ---- --<br>-------- --- -------- -------- --- -------- ---- -- ----- -<br>-------- ---- --- ---------- --------- -- ------- ------ -<br>--------- ----- -----,156866.69999999925,156866.09999999963,156433.535,156443,156450.2,156883.389,,25,for
screen,html.Screen,0_4_1_0_1_26,2021-11-26T13:20:25.406Z,,,,,,,,,,,,,,,,15,,,,,,,,,,,,,,358.7109999996319,,response,,,7,E,,,,,Space,keypress(Space),,,,lyrical,---- --------- ---------- - --- ------- -- --- ------------<br>----- -- -------- ------- ---- ------ - -------- ---- -----<br>--- ------- ---- -- --- -------- --- a ----- ------ ---- --<br>-------- --- -------- -------- --- -------- ---- -- ----- -<br>-------- ---- --- ---------- --------- -- ------- ------ -<br>--------- ----- -----,157242.69999999925,157242.09999999963,156866.725,156866.90000000037,156883.389,157250.128,,26,a
screen,html.Screen,0_4_1_0_1_27,2021-11-26T13:20:25.806Z,,,,,,,,,,,,,,,,15,,,,,,,,,,,,,,391.9719999996305,,response,,,7,E,,,,,Space,keypress(Space),,,,lyrical,---- --------- ---------- - --- ------- -- --- ------------<br>----- -- -------- ------- ---- ------ - -------- ---- -----<br>--- ------- ---- -- --- -------- --- - third ------ ---- --<br>-------- --- -------- -------- --- -------- ---- -- ----- -<br>-------- ---- --- ---------- --------- -- ------- ------ -<br>--------- ----- -----,157642.69999999925,157642.09999999963,157233.463,157242.79999999888,157250.128,157650.185,,27,third
screen,html.Screen,0_4_1_0_1_28,2021-11-26T13:20:26.238Z,,,,,,,,,,,,,,,,15,,,,,,,,,,,,,,423.9149999996298,,response,,,7,E,,,,,Space,keypress(Space),,,,lyrical,---- --------- ---------- - --- ------- -- --- ------------<br>----- -- -------- ------- ---- ------ - -------- ---- -----<br>--- ------- ---- -- --- -------- --- - ----- prison ---- --<br>-------- --- -------- -------- --- -------- ---- -- ----- -<br>-------- ---- --- ---------- --------- -- ------- ------ -<br>--------- ----- -----,158074.69999999925,158074.09999999963,157633.519,157642.90000000037,157650.185,158083.493,,28,prison
screen,html.Screen,0_4_1_0_1_29,2021-11-26T13:20:26.598Z,,,,,,,,,,,,,,,,15,,,,,,,,,,,,,,350.50700000001234,,response,,,7,E,,,,,Space,keypress(Space),,,,lyrical,---- --------- ---------- - --- ------- -- --- ------------<br>----- -- -------- ------- ---- ------ - -------- ---- -----<br>--- ------- ---- -- --- -------- --- - ----- ------ stay --<br>-------- --- -------- -------- --- -------- ---- -- ----- -<br>-------- ---- --- ---------- --------- -- ------- ------ -<br>--------- ----- -----,158434.59999999963,158434,158066.827,158074.90000000037,158083.493,158450.167,,29,stay
screen,html.Screen,0_4_1_0_1_30,2021-11-26T13:20:27.030Z,,,,,,,,,,,,,,,,15,,,,,,,,,,,,,,415.93299999964074,,response,,,7,E,,,,,Space,keypress(Space),,,,lyrical,---- --------- ---------- - --- ------- -- --- ------------<br>----- -- -------- ------- ---- ------ - -------- ---- -----<br>--- ------- ---- -- --- -------- --- - ----- ------ ---- to<br>-------- --- -------- -------- --- -------- ---- -- ----- -<br>-------- ---- --- ---------- --------- -- ------- ------ -<br>--------- ----- -----,158866.69999999925,158866.09999999963,158433.501,158434.79999999888,158450.167,158883.373,,30,to
screen,html.Screen,0_4_1_0_1_31,2021-11-26T13:20:27.606Z,,,,,,,,,,,,,,,,15,,,,,,,,,,,,,,558.6270000000077,,response,,,7,E,,,,,Space,keypress(Space),,,,lyrical,---- --------- ---------- - --- ------- -- --- ------------<br>----- -- -------- ------- ---- ------ - -------- ---- -----<br>--- ------- ---- -- --- -------- --- - ----- ------ ---- --<br>maintain --- -------- -------- --- -------- ---- -- ----- -<br>-------- ---- --- ---------- --------- -- ------- ------ -<br>--------- ----- -----,159442.69999999925,159442,158866.709,158866.90000000037,158883.373,159450.09,,31,maintain
screen,html.Screen,0_4_1_0_1_32,2021-11-26T13:20:28.214Z,,,,,,,,,,,,,,,,15,,,,,,,,,,,,,,599.9100000000035,,response,,,7,E,,,,,Space,keypress(Space),,,,lyrical,---- --------- ---------- - --- ------- -- --- ------------<br>----- -- -------- ------- ---- ------ - -------- ---- -----<br>--- ------- ---- -- --- -------- --- - ----- ------ ---- --<br>-------- his -------- -------- --- -------- ---- -- ----- -<br>-------- ---- --- ---------- --------- -- ------- ------ -<br>--------- ----- -----,160050.69999999925,160050,159433.424,159442.79999999888,159450.09,160066.68,,32,his
screen,html.Screen,0_4_1_0_1_33,2021-11-26T13:20:28.758Z,,,,,,,,,,,,,,,,15,,,,,,,,,,,,,,527.320000000007,,response,,,7,E,,,,,Space,keypress(Space),,,,lyrical,---- --------- ---------- - --- ------- -- --- ------------<br>----- -- -------- ------- ---- ------ - -------- ---- -----<br>--- ------- ---- -- --- -------- --- - ----- ------ ---- --<br>-------- --- silence. -------- --- -------- ---- -- ----- -<br>-------- ---- --- ---------- --------- -- ------- ------ -<br>--------- ----- -----,160594.69999999925,160594,160050.015,160050.79999999888,160066.68,160599.982,,33,silence.
screen,html.Screen,0_4_1_0_1_34,2021-11-26T13:20:29.646Z,,,,,,,,,,,,,,,,15,,,,,,,,,,,,,,882.0180000000109,,response,,,7,E,,,,,Space,keypress(Space),,,,lyrical,---- --------- ---------- - --- ------- -- --- ------------<br>----- -- -------- ------- ---- ------ - -------- ---- -----<br>--- ------- ---- -- --- -------- --- - ----- ------ ---- --<br>-------- --- -------- Anderson --- -------- ---- -- ----- -<br>-------- ---- --- ---------- --------- -- ------- ------ -<br>--------- ----- -----,161482.59999999963,161482,160583.317,160594.79999999888,160599.982,161500.014,,34,Anderson
screen,html.Screen,0_4_1_0_1_35,2021-11-26T13:20:30.174Z,,,,,,,,,,,,,,,,15,,,,,,,,,,,,,,509.88600000037695,,response,,,7,E,,,,,Space,keypress(Space),,,,lyrical,---- --------- ---------- - --- ------- -- --- ------------<br>----- -- -------- ------- ---- ------ - -------- ---- -----<br>--- ------- ---- -- --- -------- --- - ----- ------ ---- --<br>-------- --- -------- -------- was -------- ---- -- ----- -<br>-------- ---- --- ---------- --------- -- ------- ------ -<br>--------- ----- -----,162010.5,162009.90000000037,161483.348,161482.69999999925,161500.014,162016.433,,35,was
screen,html.Screen,0_4_1_0_1_36,2021-11-26T13:20:31.030Z,,,,,,,,,,,,,,,,15,,,,,,,,,,,,,,849.4670000003825,,response,,,7,E,,,,,Space,keypress(Space),,,,lyrical,---- --------- ---------- - --- ------- -- --- ------------<br>----- -- -------- ------- ---- ------ - -------- ---- -----<br>--- ------- ---- -- --- -------- --- - ----- ------ ---- --<br>-------- --- -------- -------- --- released ---- -- ----- -<br>-------- ---- --- ---------- --------- -- ------- ------ -<br>--------- ----- -----,162866.5,162865.90000000037,161999.769,162010.59999999963,162016.433,162883.183,,36,released
screen,html.Screen,0_4_1_0_1_37,2021-11-26T13:20:31.734Z,,,,,,,,,,,,,,,,15,,,,,,,,,,,,,,686.6169999988924,,response,,,7,E,,,,,Space,keypress(Space),,,,lyrical,---- --------- ---------- - --- ------- -- --- ------------<br>----- -- -------- ------- ---- ------ - -------- ---- -----<br>--- ------- ---- -- --- -------- --- - ----- ------ ---- --<br>-------- --- -------- -------- --- -------- July -- ----- -<br>-------- ---- --- ---------- --------- -- ------- ------ -<br>--------- ----- -----,163570.40000000037,163569.79999999888,162866.518,162866.69999999925,162883.183,163583.23,,37,July
screen,html.Screen,0_4_1_0_1_38,2021-11-26T13:20:32.062Z,,,,,,,,,,,,,,,,15,,,,,,,,,,,,,,314.56999999887194,,response,,,7,E,,,,,Space,keypress(Space),,,,lyrical,---- --------- ---------- - --- ------- -- --- ------------<br>----- -- -------- ------- ---- ------ - -------- ---- -----<br>--- ------- ---- -- --- -------- --- - ----- ------ ---- --<br>-------- --- -------- -------- --- -------- ---- 20 ----- -<br>-------- ---- --- ---------- --------- -- ------- ------ -<br>--------- ----- -----,163898.29999999888,163897.79999999888,163566.564,163570.59999999963,163583.23,163899.83,,38,20
screen,html.Screen,0_4_1_0_1_39,2021-11-26T13:20:32.742Z,,,,,,,,,,,,,,,,15,,,,,,,,,,,,,,677.9699999988952,,response,,,7,E,,,,,Space,keypress(Space),,,,lyrical,---- --------- ---------- - --- ------- -- --- ------------<br>----- -- -------- ------- ---- ------ - -------- ---- -----<br>--- ------- ---- -- --- -------- --- - ----- ------ ---- --<br>-------- --- -------- -------- --- -------- ---- -- after -<br>-------- ---- --- ---------- --------- -- ------- ------ -<br>--------- ----- -----,164578.40000000037,164577.79999999888,163883.165,163898.5,163899.83,164583.118,,39,after
screen,html.Screen,0_4_1_0_1_40,2021-11-26T13:20:33.222Z,,,,,,,,,,,,,,,,15,,,,,,,,,,,,,,474.88200000001234,,response,,,7,E,,,,,Space,keypress(Space),,,,lyrical,---- --------- ---------- - --- ------- -- --- ------------<br>----- -- -------- ------- ---- ------ - -------- ---- -----<br>--- ------- ---- -- --- -------- --- - ----- ------ ---- --<br>-------- --- -------- -------- --- -------- ---- -- ----- a<br>-------- ---- --- ---------- --------- -- ------- ------ -<br>--------- ----- -----,165058.69999999925,165058,164566.453,164578.59999999963,164583.118,165066.45,,40,a
screen,html.Screen,0_4_1_0_1_41,2021-11-26T13:20:33.805Z,,,,,,,,,,,,,,,,15,,,,,,,,,,,,,,575.2499999992433,,response,,,7,E,,,,,Space,keypress(Space),,,,lyrical,---- --------- ---------- - --- ------- -- --- ------------<br>----- -- -------- ------- ---- ------ - -------- ---- -----<br>--- ------- ---- -- --- -------- --- - ----- ------ ---- --<br>-------- --- -------- -------- --- -------- ---- -- ----- -<br>two-week ---- --- ---------- --------- -- ------- ------ -<br>--------- ----- -----,165642.19999999925,165641.69999999925,165049.785,165058.79999999888,165066.45,165649.76,,41,two-week
screen,html.Screen,0_4_1_0_1_42,2021-11-26T13:20:34.278Z,,,,,,,,,,,,,,,,15,,,,,,,,,,,,,,463.93999999924563,,response,,,7,E,,,,,Space,keypress(Space),,,,lyrical,---- --------- ---------- - --- ------- -- --- ------------<br>----- -- -------- ------- ---- ------ - -------- ---- -----<br>--- ------- ---- -- --- -------- --- - ----- ------ ---- --<br>-------- --- -------- -------- --- -------- ---- -- ----- -<br>-------- stay --- ---------- --------- -- ------- ------ -<br>--------- ----- -----,166114.29999999888,166113.69999999925,165633.095,165642.29999999888,165649.76,166116.419,,42,stay
screen,html.Screen,0_4_1_0_1_43,2021-11-26T13:20:34.870Z,,,,,,,,,,,,,,,,15,,,,,,,,,,,,,,589.2809999992605,,response,,,7,E,,,,,Space,keypress(Space),,,,lyrical,---- --------- ---------- - --- ------- -- --- ------------<br>----- -- -------- ------- ---- ------ - -------- ---- -----<br>--- ------- ---- -- --- -------- --- - ----- ------ ---- --<br>-------- --- -------- -------- --- -------- ---- -- ----- -<br>-------- ---- for ---------- --------- -- ------- ------ -<br>--------- ----- -----,166706.40000000037,166705.69999999925,166099.754,166114.40000000037,166116.419,166716.293,,43,for
screen,html.Screen,0_4_1_0_1_44,2021-11-26T13:20:35.326Z,,,,,,,,,,,,,,,,15,,,,,,,,,,,,,,445.30699999962235,,response,,,7,E,,,,,Space,keypress(Space),,,,lyrical,---- --------- ---------- - --- ------- -- --- ------------<br>----- -- -------- ------- ---- ------ - -------- ---- -----<br>--- ------- ---- -- --- -------- --- - ----- ------ ---- --<br>-------- --- -------- -------- --- -------- ---- -- ----- -<br>-------- ---- --- previously --------- -- ------- ------ -<br>--------- ----- -----,167162.29999999888,167161.59999999963,166699.629,166706.5,166716.293,167166.402,,44,previously
screen,html.Screen,0_4_1_0_1_45,2021-11-26T13:20:35.790Z,,,,,,,,,,,,,,,,15,,,,,,,,,,,,,,459.1979999996256,,response,,,7,E,,,,,Space,keypress(Space),,,,lyrical,---- --------- ---------- - --- ------- -- --- ------------<br>----- -- -------- ------- ---- ------ - -------- ---- -----<br>--- ------- ---- -- --- -------- --- - ----- ------ ---- --<br>-------- --- -------- -------- --- -------- ---- -- ----- -<br>-------- ---- --- ---------- declining -- ------- ------ -<br>--------- ----- -----,167626.29999999888,167625.59999999963,167149.736,167162.40000000037,167166.402,167632.968,,45,declining
screen,html.Screen,0_4_1_0_1_46,2021-11-26T13:20:36.205Z,,,,,,,,,,,,,,,,15,,,,,,,,,,,,,,408.5320000000065,,response,,,7,E,,,,,Space,keypress(Space),,,,lyrical,---- --------- ---------- - --- ------- -- --- ------------<br>----- -- -------- ------- ---- ------ - -------- ---- -----<br>--- ------- ---- -- --- -------- --- - ----- ------ ---- --<br>-------- --- -------- -------- --- -------- ---- -- ----- -<br>-------- ---- --- ---------- --------- to ------- ------ -<br>--------- ----- -----,168042.19999999925,168041.5,167616.303,167626.5,167632.968,168049.694,,46,to
screen,html.Screen,0_4_1_0_1_47,2021-11-26T13:20:36.597Z,,,,,,,,,,,,,,,,15,,,,,,,,,,,,,,383.9059999996389,,response,,,7,E,,,,,Space,keypress(Space),,,,lyrical,---- --------- ---------- - --- ------- -- --- ------------<br>----- -- -------- ------- ---- ------ - -------- ---- -----<br>--- ------- ---- -- --- -------- --- - ----- ------ ---- --<br>-------- --- -------- -------- --- -------- ---- -- ----- -<br>-------- ---- --- ---------- --------- -- testify ------ -<br>--------- ----- -----,168434.19999999925,168433.59999999963,168033.028,168042.40000000037,168049.694,168449.554,,47,testify
screen,html.Screen,0_4_1_0_1_48,2021-11-26T13:20:37.222Z,,,,,,,,,,,,,,,,15,,,,,,,,,,,,,,608.0459999996237,,response,,,7,E,,,,,Space,keypress(Space),,,,lyrical,---- --------- ---------- - --- ------- -- --- ------------<br>----- -- -------- ------- ---- ------ - -------- ---- -----<br>--- ------- ---- -- --- -------- --- - ----- ------ ---- --<br>-------- --- -------- -------- --- -------- ---- -- ----- -<br>-------- ---- --- ---------- --------- -- ------- before -<br>--------- ----- -----,169058.19999999925,169057.59999999963,168432.89,168434.40000000037,168449.554,169066.142,,48,before
screen,html.Screen,0_4_1_0_1_49,2021-11-26T13:20:37.869Z,,,,,,,,,,,,,,,,15,,,,,,,,,,,,,,639.4579999996349,,response,,,7,E,,,,,Space,keypress(Space),,,,lyrical,---- --------- ---------- - --- ------- -- --- ------------<br>----- -- -------- ------- ---- ------ - -------- ---- -----<br>--- ------- ---- -- --- -------- --- - ----- ------ ---- --<br>-------- --- -------- -------- --- -------- ---- -- ----- -<br>-------- ---- --- ---------- --------- -- ------- ------ a<br>--------- ----- -----,169706.19999999925,169705.59999999963,169049.478,169058.40000000037,169066.142,169716.308,,49,a
screen,html.Screen,0_4_1_0_1_50,2021-11-26T13:20:38.389Z,,,,,,,,,,,,,,,,15,,,,,,,,,,,,,,509.19200000001,,response,,,7,E,,,,,Space,keypress(Space),,,,lyrical,---- --------- ---------- - --- ------- -- --- ------------<br>----- -- -------- ------- ---- ------ - -------- ---- -----<br>--- ------- ---- -- --- -------- --- - ----- ------ ---- --<br>-------- --- -------- -------- --- -------- ---- -- ----- -<br>-------- ---- --- ---------- --------- -- ------- ------ -<br>different ----- -----,170226.09999999963,170225.5,169699.641,169706.40000000037,169716.308,170232.903,,50,different
screen,html.Screen,0_4_1_0_1_51,2021-11-26T13:20:38.869Z,,,,,,,,,,,,,,,,15,,,,,,,,,,,,,,472.59700000000885,,response,,,7,E,,,,,Space,keypress(Space),,,,lyrical,---- --------- ---------- - --- ------- -- --- ------------<br>----- -- -------- ------- ---- ------ - -------- ---- -----<br>--- ------- ---- -- --- -------- --- - ----- ------ ---- --<br>-------- --- -------- -------- --- -------- ---- -- ----- -<br>-------- ---- --- ---------- --------- -- ------- ------ -<br>--------- grand -----,170706.19999999925,170705.5,170216.237,170226.19999999925,170232.903,170716.176,,51,grand
screen,html.Screen,0_4_1_0_1_52,2021-11-26T13:20:40.429Z,,,,,,,,,,,,,,,,15,,,,,,,,,,,,,,1549.2240000003658,,response,,,7,E,,,,,Space,keypress(Space),,,,lyrical,---- --------- ---------- - --- ------- -- --- ------------<br>----- -- -------- ------- ---- ------ - -------- ---- -----<br>--- ------- ---- -- --- -------- --- - ----- ------ ---- --<br>-------- --- -------- -------- --- -------- ---- -- ----- -<br>-------- ---- --- ---------- --------- -- ------- ------ -<br>--------- ----- jury.,172266,172265.40000000037,170699.511,170706.29999999888,170716.176,172282.582,,52,jury.
Item 7,flow.Loop,0_4_1_0_1,2021-11-26T13:20:40.430Z,,,,,,,,,,,,,,,,,,,,,,,,,,,,,,28614.61400000038,,completion,,,,,,,,,,,,,,,,172266.29999999888,172265.40000000037,143634.121,143635.79999999888,143650.786,172282.582,,,
