sender,sender_type,sender_id,timestamp,meta,,Blues,Classical,Country,Dance,Electronic,Folk,Gospel,Hip-Hop,Jazz,Latin,Musical/Film,New-age,Pop,Provo_ID,R&B,Rap,Reggae,Religious,Rock,Soul,Swing,Traditional,age,artist_name,correct,correctResponse,distraction,duration,education,ended_on,familiarity,gender,item,list,music_frequency,offensiveness,pleasantness,preference,response,response_action,snippet_file,song_name,song_rating,sound,text,time_commit,time_end,time_render,time_run,time_show,time_switch,url,word,word_ID
Instructions,html.Page,0_0,2021-11-19T15:28:06.227Z,"{""labjs_version"":""20.2.3"",""labjs_build"":{""flavor"":""production"",""commit"":""7ea907d66ca8aeef8054924ca5d82ffbe11e34e5""},""location"":""https://run.pavlovia.org/mvasilev/lab_music_f/"",""userAgent"":""Mozilla/5.0 (Windows NT 6.1; Win64; x64) AppleWebKit/537.36 (KHTML, like Gecko) Chrome/96.0.4664.45 Safari/537.36"",""platform"":""Win32"",""language"":""en-US"",""locale"":""en-US"",""timeZone"":""Europe/London"",""timezoneOffset"":0,""screen_width"":1920,""screen_height"":1080,""scroll_width"":1920,""scroll_height"":959,""window_innerWidth"":1920,""window_innerHeight"":1007,""devicePixelRatio"":1}",,,,,,,,,,,,,,,,,,,,,,,,,,,,,26319.04800009537,,form submission,,,,,,,,,,,,,,,,37632.59999990463,37631.40000009537,11279.012,11295.900000095367,11312.352,37636.277,{},,
Headphones,html.Page,0_1,2021-11-19T15:28:10.321Z,,,,,,,,,,,,,,,,,,,,,,,,,,,,,,4089.923000047682,,form submission,,,,,,,,,,,,,,,,41726.59999990463,41726.200000047684,37619.604,37633.299999952316,37636.277,41736.854,,,
Holding screen,html.Screen,0_2_0_0,2021-11-19T15:28:20.324Z,,,,,,,,,,,,,,,,,,,,,,,,,,,,,,10002.741999999998,,timeout,,,,,,,,,,,,,,,,51729.59999990463,51722.927,41720.185,41727.299999952316,41736.854,51739.596,,,
screen,html.Screen,0_2_0_1_0,2021-11-19T15:28:21.046Z,,,,,,,,,,,,,,,,53,,,,,,,,,,,,,,711.0039999046348,,response,,,99,,,,,,Space,keypress(Space),,,,,When -- ----- -- ------ - ------- --- ----------<br>------------- ------ ------ ---- ---- ------- ----- -- ----<br>-------- ------- -- ---------- --- - --- ----- ----- ----<br>---- --- --- ----- --- ---- ---- ------- ----- ---- -------<br>--- --- -- ----- -- --- ---- -- --- ---- -- ------ ------<br>--- ----- -- ----,52452,52450.59999990463,51722.927,51730,51739.596,52456.722,,0,When
screen,html.Screen,0_2_0_1_1,2021-11-19T15:28:21.469Z,,,,,,,,,,,,,,,,53,,,,,,,,,,,,,,417.2779999999984,,response,,,99,,,,,,Space,keypress(Space),,,,,---- it ----- -- ------ - ------- --- ----------<br>------------- ------ ------ ---- ---- ------- ----- -- ----<br>-------- ------- -- ---------- --- - --- ----- ----- ----<br>---- --- --- ----- --- ---- ---- ------- ----- ---- -------<br>--- --- -- ----- -- --- ---- -- --- ---- -- ------ ------<br>--- ----- -- ----,52875,52874,52440.051,52452.40000009537,52456.722,52890.145,,1,it
screen,html.Screen,0_2_0_1_2,2021-11-19T15:28:22.029Z,,,,,,,,,,,,,,,,53,,,,,,,,,,,,,,543.8550000000032,,response,,,99,,,,,,Space,keypress(Space),,,,,---- -- comes -- ------ - ------- --- ----------<br>------------- ------ ------ ---- ---- ------- ----- -- ----<br>-------- ------- -- ---------- --- - --- ----- ----- ----<br>---- --- --- ----- --- ---- ---- ------- ----- ---- -------<br>--- --- -- ----- -- --- ---- -- --- ---- -- ------ ------<br>--- ----- -- ----,53434.90000009537,53434,52873.475,52875.299999952316,52890.145,53440.285,,2,comes
screen,html.Screen,0_2_0_1_3,2021-11-19T15:28:22.429Z,,,,,,,,,,,,,,,,53,,,,,,,,,,,,,,393.7149999999965,,response,,,99,,,,,,Space,keypress(Space),,,,,---- -- ----- to ------ - ------- --- ----------<br>------------- ------ ------ ---- ---- ------- ----- -- ----<br>-------- ------- -- ---------- --- - --- ----- ----- ----<br>---- --- --- ----- --- ---- ---- ------- ----- ---- -------<br>--- --- -- ----- -- --- ---- -- --- ---- -- ------ ------<br>--- ----- -- ----,53834.90000009537,53834,53423.615,53435.09999990463,53440.285,53840.401,,3,to
screen,html.Screen,0_2_0_1_4,2021-11-19T15:28:22.877Z,,,,,,,,,,,,,,,,53,,,,,,,,,,,,,,441.599000000002,,response,,,99,,,,,,Space,keypress(Space),,,,,---- -- ----- -- having - ------- --- ----------<br>------------- ------ ------ ---- ---- ------- ----- -- ----<br>-------- ------- -- ---------- --- - --- ----- ----- ----<br>---- --- --- ----- --- ---- ---- ------- ----- ---- -------<br>--- --- -- ----- -- --- ---- -- --- ---- -- ------ ------<br>--- ----- -- ----,54283.200000047684,54282,53823.731,53835.40000009537,53840.401,54290.437,,4,having
screen,html.Screen,0_2_0_1_5,2021-11-19T15:28:23.237Z,,,,,,,,,,,,,,,,53,,,,,,,,,,,,,,351.46300009536935,,response,,,99,,,,,,Space,keypress(Space),,,,,---- -- ----- -- ------ a ------- --- ----------<br>------------- ------ ------ ---- ---- ------- ----- -- ----<br>-------- ------- -- ---------- --- - --- ----- ----- ----<br>---- --- --- ----- --- ---- ---- ------- ----- ---- -------<br>--- --- -- ----- -- --- ---- -- --- ---- -- ------ ------<br>--- ----- -- ----,54642.90000009537,54641.90000009537,54273.768,54283.5,54290.437,54657.347,,5,a
screen,html.Screen,0_2_0_1_6,2021-11-19T15:28:23.637Z,,,,,,,,,,,,,,,,53,,,,,,,,,,,,,,384.55300009536586,,response,,,99,,,,,,Space,keypress(Space),,,,,---- -- ----- -- ------ - lasting --- ----------<br>------------- ------ ------ ---- ---- ------- ----- -- ----<br>-------- ------- -- ---------- --- - --- ----- ----- ----<br>---- --- --- ----- --- ---- ---- ------- ----- ---- -------<br>--- --- -- ----- -- --- ---- -- --- ---- -- ------ ------<br>--- ----- -- ----,55042.90000009537,55041.90000009537,54640.675,54643.40000009537,54657.347,55057.415,,6,lasting
screen,html.Screen,0_2_0_1_7,2021-11-19T15:28:24.021Z,,,,,,,,,,,,,,,,53,,,,,,,,,,,,,,368.48500009536656,,response,,,99,,,,,,Space,keypress(Space),,,,,---- -- ----- -- ------ - ------- and ----------<br>------------- ------ ------ ---- ---- ------- ----- -- ----<br>-------- ------- -- ---------- --- - --- ----- ----- ----<br>---- --- --- ----- --- ---- ---- ------- ----- ---- -------<br>--- --- -- ----- -- --- ---- -- --- ---- -- ------ ------<br>--- ----- -- ----,55426.799999952316,55425.90000009537,55040.744,55043.09999990463,55057.415,55440.817,,7,and
screen,html.Screen,0_2_0_1_8,2021-11-19T15:28:24.429Z,,,,,,,,,,,,,,,,53,,,,,,,,,,,,,,393.0830000953647,,response,,,99,,,,,,Space,keypress(Space),,,,,---- -- ----- -- ------ - ------- --- fulfilling<br>------------- ------ ------ ---- ---- ------- ----- -- ----<br>-------- ------- -- ---------- --- - --- ----- ----- ----<br>---- --- --- ----- --- ---- ---- ------- ----- ---- -------<br>--- --- -- ----- -- --- ---- -- --- ---- -- ------ ------<br>--- ----- -- ----,55834.90000009537,55833.90000009537,55424.147,55427.200000047684,55440.817,55840.923,,8,fulfilling
screen,html.Screen,0_2_0_1_9,2021-11-19T15:28:24.845Z,,,,,,,,,,,,,,,,53,,,,,,,,,,,,,,408.8769999523138,,response,,,99,,,,,,Space,keypress(Space),,,,,"---- -- ----- -- ------ - ------- --- ----------<br>relationship, ------ ------ ---- ---- ------- ----- -- ----<br>-------- ------- -- ---------- --- - --- ----- ----- ----<br>---- --- --- ----- --- ---- ---- ------- ----- ---- -------<br>--- --- -- ----- -- --- ---- -- --- ---- -- ------ ------<br>--- ----- -- ----",56250.799999952316,56249.799999952316,55824.253,55835.299999952316,55840.923,56257.675,,9,"relationship,"
screen,html.Screen,0_2_0_1_10,2021-11-19T15:28:25.277Z,,,,,,,,,,,,,,,,53,,,,,,,,,,,,,,424.1249999523134,,response,,,99,,,,,,Space,keypress(Space),,,,,---- -- ----- -- ------ - ------- --- ----------<br>------------- common ------ ---- ---- ------- ----- -- ----<br>-------- ------- -- ---------- --- - --- ----- ----- ----<br>---- --- --- ----- --- ---- ---- ------- ----- ---- -------<br>--- --- -- ----- -- --- ---- -- --- ---- -- ------ ------<br>--- ----- -- ----,56682.700000047684,56681.799999952316,56241.005,56251,56257.675,56691.137,,10,common
screen,html.Screen,0_2_0_1_11,2021-11-19T15:28:25.653Z,,,,,,,,,,,,,,,,53,,,,,,,,,,,,,,366.56300004768127,,response,,,99,,,,,,Space,keypress(Space),,,,,---- -- ----- -- ------ - ------- --- ----------<br>------------- ------ wisdom ---- ---- ------- ----- -- ----<br>-------- ------- -- ---------- --- - --- ----- ----- ----<br>---- --- --- ----- --- ---- ---- ------- ----- ---- -------<br>--- --- -- ----- -- --- ---- -- --- ---- -- ------ ------<br>--- ----- -- ----,57058.700000047684,57057.700000047684,56674.467,56683.09999990463,56691.137,57074.573,,11,wisdom
screen,html.Screen,0_2_0_1_12,2021-11-19T15:28:26.045Z,,,,,,,,,,,,,,,,53,,,,,,,,,,,,,,375.2269999523196,,response,,,99,,,,,,Space,keypress(Space),,,,,---- -- ----- -- ------ - ------- --- ----------<br>------------- ------ ------ says ---- ------- ----- -- ----<br>-------- ------- -- ---------- --- - --- ----- ----- ----<br>---- --- --- ----- --- ---- ---- ------- ----- ---- -------<br>--- --- -- ----- -- --- ---- -- --- ---- -- ------ ------<br>--- ----- -- ----,57450.5,57449.799999952316,57057.903,57059,57074.573,57458.006,,12,says
screen,html.Screen,0_2_0_1_13,2021-11-19T15:28:26.429Z,,,,,,,,,,,,,,,,53,,,,,,,,,,,,,,375.6940000476825,,response,,,99,,,,,,Space,keypress(Space),,,,,---- -- ----- -- ------ - ------- --- ----------<br>------------- ------ ------ ---- that ------- ----- -- ----<br>-------- ------- -- ---------- --- - --- ----- ----- ----<br>---- --- --- ----- --- ---- ---- ------- ----- ---- -------<br>--- --- -- ----- -- --- ---- -- --- ---- -- ------ ------<br>--- ----- -- ----,57834.90000009537,57833.700000047684,57441.336,57450.799999952316,57458.006,57841.422,,13,that
screen,html.Screen,0_2_0_1_14,2021-11-19T15:28:26.837Z,,,,,,,,,,,,,,,,53,,,,,,,,,,,,,,400.27800004768505,,response,,,99,,,,,,Space,keypress(Space),,,,,---- -- ----- -- ------ - ------- --- ----------<br>------------- ------ ------ ---- ---- feeling ----- -- ----<br>-------- ------- -- ---------- --- - --- ----- ----- ----<br>---- --- --- ----- --- ---- ---- ------- ----- ---- -------<br>--- --- -- ----- -- --- ---- -- --- ---- -- ------ ------<br>--- ----- -- ----,58242.5,58241.700000047684,57824.752,57835.09999990463,57841.422,58258.188,,14,feeling
screen,html.Screen,0_2_0_1_15,2021-11-19T15:28:27.205Z,,,,,,,,,,,,,,,,53,,,,,,,,,,,,,,351.5120000476818,,response,,,99,,,,,,Space,keypress(Space),,,,,---- -- ----- -- ------ - ------- --- ----------<br>------------- ------ ------ ---- ---- ------- close -- ----<br>-------- ------- -- ---------- --- - --- ----- ----- ----<br>---- --- --- ----- --- ---- ---- ------- ----- ---- -------<br>--- --- -- ----- -- --- ---- -- --- ---- -- ------ ------<br>--- ----- -- ----,58610.5,58609.700000047684,58241.518,58242.799999952316,58258.188,58624.963,,15,close
screen,html.Screen,0_2_0_1_16,2021-11-19T15:28:27.605Z,,,,,,,,,,,,,,,,53,,,,,,,,,,,,,,384.73700004768034,,response,,,99,,,,,,Space,keypress(Space),,,,,---- -- ----- -- ------ - ------- --- ----------<br>------------- ------ ------ ---- ---- ------- ----- to ----<br>-------- ------- -- ---------- --- - --- ----- ----- ----<br>---- --- --- ----- --- ---- ---- ------- ----- ---- -------<br>--- --- -- ----- -- --- ---- -- --- ---- -- ------ ------<br>--- ----- -- ----,59010.40000009537,59009.700000047684,58608.293,58610.700000047684,58624.963,59025.068,,16,to
screen,html.Screen,0_2_0_1_17,2021-11-19T15:28:28.013Z,,,,,,,,,,,,,,,,53,,,,,,,,,,,,,,392.6320000476844,,response,,,99,,,,,,Space,keypress(Space),,,,,---- -- ----- -- ------ - ------- --- ----------<br>------------- ------ ------ ---- ---- ------- ----- -- your<br>-------- ------- -- ---------- --- - --- ----- ----- ----<br>---- --- --- ----- --- ---- ---- ------- ----- ---- -------<br>--- --- -- ----- -- --- ---- -- --- ---- -- ------ ------<br>--- ----- -- ----,59418.40000009537,59417.700000047684,59008.398,59010.700000047684,59025.068,59425.081,,17,your
screen,html.Screen,0_2_0_1_18,2021-11-19T15:28:28.444Z,,,,,,,,,,,,,,,,53,,,,,,,,,,,,,,424.6190000476854,,response,,,99,,,,,,Space,keypress(Space),,,,,---- -- ----- -- ------ - ------- --- ----------<br>------------- ------ ------ ---- ---- ------- ----- -- ----<br>romantic ------- -- ---------- --- - --- ----- ----- ----<br>---- --- --- ----- --- ---- ---- ------- ----- ---- -------<br>--- --- -- ----- -- --- ---- -- --- ---- -- ------ ------<br>--- ----- -- ----,59850.40000009537,59849.700000047684,59408.412,59418.700000047684,59425.081,59858.638,,18,romantic
screen,html.Screen,0_2_0_1_19,2021-11-19T15:28:28.895Z,,,,,,,,,,,,,,,,53,,,,,,,,,,,,,,438.96199990463356,,response,,,99,,,,,,Space,keypress(Space),,,,,---- -- ----- -- ------ - ------- --- ----------<br>------------- ------ ------ ---- ---- ------- ----- -- ----<br>-------- partner -- ---------- --- - --- ----- ----- ----<br>---- --- --- ----- --- ---- ---- ------- ----- ---- -------<br>--- --- -- ----- -- --- ---- -- --- ---- -- ------ ------<br>--- ----- -- ----,60298.40000009537,60297.59999990463,59841.967,59850.59999990463,59858.638,60308.769,,19,partner
screen,html.Screen,0_2_0_1_20,2021-11-19T15:28:29.415Z,,,,,,,,,,,,,,,,53,,,,,,,,,,,,,,508.83099990463234,,response,,,99,,,,,,Space,keypress(Space),,,,,---- -- ----- -- ------ - ------- --- ----------<br>------------- ------ ------ ---- ---- ------- ----- -- ----<br>-------- ------- is ---------- --- - --- ----- ----- ----<br>---- --- --- ----- --- ---- ---- ------- ----- ---- -------<br>--- --- -- ----- -- --- ---- -- --- ---- -- ------ ------<br>--- ----- -- ----,60818.40000009537,60817.59999990463,60292.098,60298.700000047684,60308.769,60825.52,,20,is
screen,html.Screen,0_2_0_1_21,2021-11-19T15:28:29.895Z,,,,,,,,,,,,,,,,53,,,,,,,,,,,,,,471.9800000000032,,response,,,99,,,,,,Space,keypress(Space),,,,,---- -- ----- -- ------ - ------- --- ----------<br>------------- ------ ------ ---- ---- ------- ----- -- ----<br>-------- ------- -- paramount. --- - --- ----- ----- ----<br>---- --- --- ----- --- ---- ---- ------- ----- ---- -------<br>--- --- -- ----- -- --- ---- -- --- ---- -- ------ ------<br>--- ----- -- ----,61298.299999952316,61297.5,60808.85,60818.59999990463,60825.52,61308.972,,21,paramount.
screen,html.Screen,0_2_0_1_22,2021-11-19T15:28:30.303Z,,,,,,,,,,,,,,,,53,,,,,,,,,,,,,,396.5279999999984,,response,,,99,,,,,,Space,keypress(Space),,,,,---- -- ----- -- ------ - ------- --- ----------<br>------------- ------ ------ ---- ---- ------- ----- -- ----<br>-------- ------- -- ---------- But - --- ----- ----- ----<br>---- --- --- ----- --- ---- ---- ------- ----- ---- -------<br>--- --- -- ----- -- --- ---- -- --- ---- -- ------ ------<br>--- ----- -- ----,61706.299999952316,61705.5,61292.302,61298.799999952316,61308.972,61709.128,,22,But
screen,html.Screen,0_2_0_1_23,2021-11-19T15:28:30.719Z,,,,,,,,,,,,,,,,53,,,,,,,,,,,,,,412.372000000003,,response,,,99,,,,,,Space,keypress(Space),,,,,---- -- ----- -- ------ - ------- --- ----------<br>------------- ------ ------ ---- ---- ------- ----- -- ----<br>-------- ------- -- ---------- --- a --- ----- ----- ----<br>---- --- --- ----- --- ---- ---- ------- ----- ---- -------<br>--- --- -- ----- -- --- ---- -- --- ---- -- ------ ------<br>--- ----- -- ----,62122.299999952316,62121.5,61692.457,61706.59999990463,61709.128,62125.755,,23,a
screen,html.Screen,0_2_0_1_24,2021-11-19T15:28:31.120Z,,,,,,,,,,,,,,,,53,,,,,,,,,,,,,,396.0449999523189,,response,,,99,,,,,,Space,keypress(Space),,,,,---- -- ----- -- ------ - ------- --- ----------<br>------------- ------ ------ ---- ---- ------- ----- -- ----<br>-------- ------- -- ---------- --- - new ----- ----- ----<br>---- --- --- ----- --- ---- ---- ------- ----- ---- -------<br>--- --- -- ----- -- --- ---- -- --- ---- -- ------ ------<br>--- ----- -- ----,62522.59999990463,62521.799999952316,62109.086,62122.59999990463,62125.755,62526.055,,24,new
screen,html.Screen,0_2_0_1_25,2021-11-19T15:28:31.551Z,,,,,,,,,,,,,,,,53,,,,,,,,,,,,,,427.34500009536714,,response,,,99,,,,,,Space,keypress(Space),,,,,---- -- ----- -- ------ - ------- --- ----------<br>------------- ------ ------ ---- ---- ------- ----- -- ----<br>-------- ------- -- ---------- --- - --- study ----- ----<br>---- --- --- ----- --- ---- ---- ------- ----- ---- -------<br>--- --- -- ----- -- --- ---- -- --- ---- -- ------ ------<br>--- ----- -- ----,62954.200000047684,62953.40000009537,62509.383,62522.90000009537,62526.055,62959.451,,25,study
screen,html.Screen,0_2_0_1_26,2021-11-19T15:28:31.983Z,,,,,,,,,,,,,,,,53,,,,,,,,,,,,,,425.9490000953665,,response,,,99,,,,,,Space,keypress(Space),,,,,---- -- ----- -- ------ - ------- --- ----------<br>------------- ------ ------ ---- ---- ------- ----- -- ----<br>-------- ------- -- ---------- --- - --- ----- finds ----<br>---- --- --- ----- --- ---- ---- ------- ----- ---- -------<br>--- --- -- ----- -- --- ---- -- --- ---- -- ------ ------<br>--- ----- -- ----,63386.40000009537,63385.40000009537,62942.78,62954.5,62959.451,63392.848,,26,finds
screen,html.Screen,0_2_0_1_27,2021-11-19T15:28:32.447Z,,,,,,,,,,,,,,,,53,,,,,,,,,,,,,,456.5520000953693,,response,,,99,,,,,,Space,keypress(Space),,,,,---- -- ----- -- ------ - ------- --- ----------<br>------------- ------ ------ ---- ---- ------- ----- -- ----<br>-------- ------- -- ---------- --- - --- ----- ----- that<br>---- --- --- ----- --- ---- ---- ------- ----- ---- -------<br>--- --- -- ----- -- --- ---- -- --- ---- -- ------ ------<br>--- ----- -- ----,63850.40000009537,63849.40000009537,63376.178,63386.59999990463,63392.848,63859.528,,27,that
screen,html.Screen,0_2_0_1_28,2021-11-19T15:28:32.887Z,,,,,,,,,,,,,,,,53,,,,,,,,,,,,,,429.77199995231786,,response,,,99,,,,,,Space,keypress(Space),,,,,---- -- ----- -- ------ - ------- --- ----------<br>------------- ------ ------ ---- ---- ------- ----- -- ----<br>-------- ------- -- ---------- --- - --- ----- ----- ----<br>it's --- --- ----- --- ---- ---- ------- ----- ---- -------<br>--- --- -- ----- -- --- ---- -- --- ---- -- ------ ------<br>--- ----- -- ----,64290,64289.299999952316,63842.859,63850.59999990463,63859.528,64293.177,,28,it's
screen,html.Screen,0_2_0_1_29,2021-11-19T15:28:33.295Z,,,,,,,,,,,,,,,,53,,,,,,,,,,,,,,404.12299995231297,,response,,,99,,,,,,Space,keypress(Space),,,,,---- -- ----- -- ------ - ------- --- ----------<br>------------- ------ ------ ---- ---- ------- ----- -- ----<br>-------- ------- -- ---------- --- - --- ----- ----- ----<br>---- not --- ----- --- ---- ---- ------- ----- ---- -------<br>--- --- -- ----- -- --- ---- -- --- ---- -- ------ ------<br>--- ----- -- ----,64698.09999990463,64697.299999952316,64276.505,64290.299999952316,64293.177,64709.759,,29,not
screen,html.Screen,0_2_0_1_30,2021-11-19T15:28:33.695Z,,,,,,,,,,,,,,,,53,,,,,,,,,,,,,,387.5409999523181,,response,,,99,,,,,,Space,keypress(Space),,,,,---- -- ----- -- ------ - ------- --- ----------<br>------------- ------ ------ ---- ---- ------- ----- -- ----<br>-------- ------- -- ---------- --- - --- ----- ----- ----<br>---- --- how ----- --- ---- ---- ------- ----- ---- -------<br>--- --- -- ----- -- --- ---- -- --- ---- -- ------ ------<br>--- ----- -- ----,65098.09999990463,65097.299999952316,64693.09,64698.40000009537,64709.759,65110.039,,30,how
screen,html.Screen,0_2_0_1_31,2021-11-19T15:28:34.110Z,,,,,,,,,,,,,,,,53,,,,,,,,,,,,,,402.76099995231925,,response,,,99,,,,,,Space,keypress(Space),,,,,---- -- ----- -- ------ - ------- --- ----------<br>------------- ------ ------ ---- ---- ------- ----- -- ----<br>-------- ------- -- ---------- --- - --- ----- ----- ----<br>---- --- --- close --- ---- ---- ------- ----- ---- -------<br>--- --- -- ----- -- --- ---- -- --- ---- -- ------ ------<br>--- ----- -- ----,65513.200000047684,65512.799999952316,65093.367,65098.40000009537,65110.039,65526.791,,31,close
screen,html.Screen,0_2_0_1_32,2021-11-19T15:28:34.495Z,,,,,,,,,,,,,,,,53,,,,,,,,,,,,,,370.4090000476863,,response,,,99,,,,,,Space,keypress(Space),,,,,---- -- ----- -- ------ - ------- --- ----------<br>------------- ------ ------ ---- ---- ------- ----- -- ----<br>-------- ------- -- ---------- --- - --- ----- ----- ----<br>---- --- --- ----- you ---- ---- ------- ----- ---- -------<br>--- --- -- ----- -- --- ---- -- --- ---- -- ------ ------<br>--- ----- -- ----,65898,65897.20000004768,65510.12,65513.200000047684,65526.791,65910.043,,32,you
screen,html.Screen,0_2_0_1_33,2021-11-19T15:28:34.863Z,,,,,,,,,,,,,,,,53,,,,,,,,,,,,,,355.25699995231116,,response,,,99,,,,,,Space,keypress(Space),,,,,---- -- ----- -- ------ - ------- --- ----------<br>------------- ------ ------ ---- ---- ------- ----- -- ----<br>-------- ------- -- ---------- --- - --- ----- ----- ----<br>---- --- --- ----- --- feel ---- ------- ----- ---- -------<br>--- --- -- ----- -- --- ---- -- --- ---- -- ------ ------<br>--- ----- -- ----,66266.20000004768,66265.29999995232,65893.375,65898.20000004768,65910.043,66276.835,,33,feel
screen,html.Screen,0_2_0_1_34,2021-11-19T15:28:35.303Z,,,,,,,,,,,,,,,,53,,,,,,,,,,,,,,428.3650000476773,,response,,,99,,,,,,Space,keypress(Space),,,,,---- -- ----- -- ------ - ------- --- ----------<br>------------- ------ ------ ---- ---- ------- ----- -- ----<br>-------- ------- -- ---------- --- - --- ----- ----- ----<br>---- --- --- ----- --- ---- that ------- ----- ---- -------<br>--- --- -- ----- -- --- ---- -- --- ---- -- ------ ------<br>--- ----- -- ----,66706.09999990463,66705.20000004768,66260.166,66266.40000009537,66276.835,66710.515,,34,that
screen,html.Screen,0_2_0_1_35,2021-11-19T15:28:35.703Z,,,,,,,,,,,,,,,,53,,,,,,,,,,,,,,394.6850000476843,,response,,,99,,,,,,Space,keypress(Space),,,,,---- -- ----- -- ------ - ------- --- ----------<br>------------- ------ ------ ---- ---- ------- ----- -- ----<br>-------- ------- -- ---------- --- - --- ----- ----- ----<br>---- --- --- ----- --- ---- ---- matters ----- ---- -------<br>--- --- -- ----- -- --- ---- -- --- ---- -- ------ ------<br>--- ----- -- ----,67106,67105.20000004768,66693.842,66706.29999995232,66710.515,67110.485,,35,matters
screen,html.Screen,0_2_0_1_36,2021-11-19T15:28:36.127Z,,,,,,,,,,,,,,,,53,,,,,,,,,,,,,,418.71500004768313,,response,,,99,,,,,,Space,keypress(Space),,,,,"---- -- ----- -- ------ - ------- --- ----------<br>------------- ------ ------ ---- ---- ------- ----- -- ----<br>-------- ------- -- ---------- --- - --- ----- ----- ----<br>---- --- --- ----- --- ---- ---- ------- most, ---- -------<br>--- --- -- ----- -- --- ---- -- --- ---- -- ------ ------<br>--- ----- -- ----",67530.29999995232,67529.20000004768,67093.815,67106.20000004768,67110.485,67543.817,,36,"most,"
screen,html.Screen,0_2_0_1_37,2021-11-19T15:28:36.543Z,,,,,,,,,,,,,,,,53,,,,,,,,,,,,,,401.2829999046371,,response,,,99,,,,,,Space,keypress(Space),,,,,---- -- ----- -- ------ - ------- --- ----------<br>------------- ------ ------ ---- ---- ------- ----- -- ----<br>-------- ------- -- ---------- --- - --- ----- ----- ----<br>---- --- --- ----- --- ---- ---- ------- ----- it's -------<br>--- --- -- ----- -- --- ---- -- --- ---- -- ------ ------<br>--- ----- -- ----,67946,67945.09999990463,67527.148,67530.5,67543.817,67960.726,,37,it's
screen,html.Screen,0_2_0_1_38,2021-11-19T15:28:36.919Z,,,,,,,,,,,,,,,,53,,,,,,,,,,,,,,360.37399990463746,,response,,,99,,,,,,Space,keypress(Space),,,,,---- -- ----- -- ------ - ------- --- ----------<br>------------- ------ ------ ---- ---- ------- ----- -- ----<br>-------- ------- -- ---------- --- - --- ----- ----- ----<br>---- --- --- ----- --- ---- ---- ------- ----- ---- whether<br>--- --- -- ----- -- --- ---- -- --- ---- -- ------ ------<br>--- ----- -- ----,68322,68321.09999990463,67944.055,67946.09999990463,67960.726,68327.51,,38,whether
screen,html.Screen,0_2_0_1_39,2021-11-19T15:28:37.311Z,,,,,,,,,,,,,,,,53,,,,,,,,,,,,,,385.5899999046378,,response,,,99,,,,,,Space,keypress(Space),,,,,---- -- ----- -- ------ - ------- --- ----------<br>------------- ------ ------ ---- ---- ------- ----- -- ----<br>-------- ------- -- ---------- --- - --- ----- ----- ----<br>---- --- --- ----- --- ---- ---- ------- ----- ---- -------<br>you --- -- ----- -- --- ---- -- --- ---- -- ------ ------<br>--- ----- -- ----,68713.79999995232,68713.09999990463,68310.839,68322.29999995232,68327.51,68727.573,,39,you
screen,html.Screen,0_2_0_1_40,2021-11-19T15:28:37.671Z,,,,,,,,,,,,,,,,53,,,,,,,,,,,,,,345.5269999046286,,response,,,99,,,,,,Space,keypress(Space),,,,,---- -- ----- -- ------ - ------- --- ----------<br>------------- ------ ------ ---- ---- ------- ----- -- ----<br>-------- ------- -- ---------- --- - --- ----- ----- ----<br>---- --- --- ----- --- ---- ---- ------- ----- ---- -------<br>--- are -- ----- -- --- ---- -- --- ---- -- ------ ------<br>--- ----- -- ----,69073.90000009537,69073.09999990463,68710.903,68714.09999990463,68727.573,69077.639,,40,are
screen,html.Screen,0_2_0_1_41,2021-11-19T15:28:38.063Z,,,,,,,,,,,,,,,,53,,,,,,,,,,,,,,387.460999904637,,response,,,99,,,,,,Space,keypress(Space),,,,,---- -- ----- -- ------ - ------- --- ----------<br>------------- ------ ------ ---- ---- ------- ----- -- ----<br>-------- ------- -- ---------- --- - --- ----- ----- ----<br>---- --- --- ----- --- ---- ---- ------- ----- ---- -------<br>--- --- as ----- -- --- ---- -- --- ---- -- ------ ------<br>--- ----- -- ----,69465.79999995232,69465.09999990463,69060.969,69074.20000004768,69077.639,69477.789,,41,as
screen,html.Screen,0_2_0_1_42,2021-11-19T15:28:38.431Z,,,,,,,,,,,,,,,,53,,,,,,,,,,,,,,355.2109999999957,,response,,,99,,,,,,Space,keypress(Space),,,,,---- -- ----- -- ------ - ------- --- ----------<br>------------- ------ ------ ---- ---- ------- ----- -- ----<br>-------- ------- -- ---------- --- - --- ----- ----- ----<br>---- --- --- ----- --- ---- ---- ------- ----- ---- -------<br>--- --- -- close -- --- ---- -- --- ---- -- ------ ------<br>--- ----- -- ----,69833.90000009537,69833,69461.118,69466.09999990463,69477.789,69844.511,,42,close
screen,html.Screen,0_2_0_1_43,2021-11-19T15:28:38.815Z,,,,,,,,,,,,,,,,53,,,,,,,,,,,,,,372.4890000000014,,response,,,99,,,,,,Space,keypress(Space),,,,,---- -- ----- -- ------ - ------- --- ----------<br>------------- ------ ------ ---- ---- ------- ----- -- ----<br>-------- ------- -- ---------- --- - --- ----- ----- ----<br>---- --- --- ----- --- ---- ---- ------- ----- ---- -------<br>--- --- -- ----- as --- ---- -- --- ---- -- ------ ------<br>--- ----- -- ----,70217.79999995232,70217,69827.841,69834.09999990463,69844.511,70227.931,,43,as
screen,html.Screen,0_2_0_1_44,2021-11-19T15:28:39.183Z,,,,,,,,,,,,,,,,53,,,,,,,,,,,,,,357.1689999046357,,response,,,99,,,,,,Space,keypress(Space),,,,,---- -- ----- -- ------ - ------- --- ----------<br>------------- ------ ------ ---- ---- ------- ----- -- ----<br>-------- ------- -- ---------- --- - --- ----- ----- ----<br>---- --- --- ----- --- ---- ---- ------- ----- ---- -------<br>--- --- -- ----- -- you ---- -- --- ---- -- ------ ------<br>--- ----- -- ----,70585.90000009537,70585.09999990463,70211.261,70218.09999990463,70227.931,70594.71,,44,you
screen,html.Screen,0_2_0_1_45,2021-11-19T15:28:39.567Z,,,,,,,,,,,,,,,,53,,,,,,,,,,,,,,374.2899999999936,,response,,,99,,,,,,Space,keypress(Space),,,,,---- -- ----- -- ------ - ------- --- ----------<br>------------- ------ ------ ---- ---- ------- ----- -- ----<br>-------- ------- -- ---------- --- - --- ----- ----- ----<br>---- --- --- ----- --- ---- ---- ------- ----- ---- -------<br>--- --- -- ----- -- --- want -- --- ---- -- ------ ------<br>--- ----- -- ----,70969.90000009537,70969,70578.04,70586.09999990463,70594.71,70978.116,,45,want
screen,html.Screen,0_2_0_1_46,2021-11-19T15:28:39.959Z,,,,,,,,,,,,,,,,53,,,,,,,,,,,,,,382.88400000000547,,response,,,99,,,,,,Space,keypress(Space),,,,,---- -- ----- -- ------ - ------- --- ----------<br>------------- ------ ------ ---- ---- ------- ----- -- ----<br>-------- ------- -- ---------- --- - --- ----- ----- ----<br>---- --- --- ----- --- ---- ---- ------- ----- ---- -------<br>--- --- -- ----- -- --- ---- to --- ---- -- ------ ------<br>--- ----- -- ----,71361.79999995232,71361,70961.446,70970.09999990463,70978.116,71378.28,,46,to
screen,html.Screen,0_2_0_1_47,2021-11-19T15:28:40.351Z,,,,,,,,,,,,,,,,53,,,,,,,,,,,,,,374.72000000000116,,response,,,99,,,,,,Space,keypress(Space),,,,,"---- -- ----- -- ------ - ------- --- ----------<br>------------- ------ ------ ---- ---- ------- ----- -- ----<br>-------- ------- -- ---------- --- - --- ----- ----- ----<br>---- --- --- ----- --- ---- ---- ------- ----- ---- -------<br>--- --- -- ----- -- --- ---- -- be, ---- -- ------ ------<br>--- ----- -- ----",71753.70000004768,71753,71361.609,71362,71378.28,71761.687,,47,"be,"
screen,html.Screen,0_2_0_1_48,2021-11-19T15:28:40.727Z,,,,,,,,,,,,,,,,53,,,,,,,,,,,,,,367.2130000953621,,response,,,99,,,,,,Space,keypress(Space),,,,,---- -- ----- -- ------ - ------- --- ----------<br>------------- ------ ------ ---- ---- ------- ----- -- ----<br>-------- ------- -- ---------- --- - --- ----- ----- ----<br>---- --- --- ----- --- ---- ---- ------- ----- ---- -------<br>--- --- -- ----- -- --- ---- -- --- even -- ------ ------<br>--- ----- -- ----,72129.70000004768,72128.90000009537,71745.017,71754,71761.687,72145.089,,48,even
screen,html.Screen,0_2_0_1_49,2021-11-19T15:28:41.103Z,,,,,,,,,,,,,,,,53,,,,,,,,,,,,,,359.8110000953602,,response,,,99,,,,,,Space,keypress(Space),,,,,---- -- ----- -- ------ - ------- --- ----------<br>------------- ------ ------ ---- ---- ------- ----- -- ----<br>-------- ------- -- ---------- --- - --- ----- ----- ----<br>---- --- --- ----- --- ---- ---- ------- ----- ---- -------<br>--- --- -- ----- -- --- ---- -- --- ---- if ------ ------<br>--- ----- -- ----,72505.70000004768,72504.90000009537,72128.419,72130,72145.089,72511.872,,49,if
screen,html.Screen,0_2_0_1_50,2021-11-19T15:28:41.471Z,,,,,,,,,,,,,,,,53,,,,,,,,,,,,,,361.5280000953644,,response,,,99,,,,,,Space,keypress(Space),,,,,---- -- ----- -- ------ - ------- --- ----------<br>------------- ------ ------ ---- ---- ------- ----- -- ----<br>-------- ------- -- ---------- --- - --- ----- ----- ----<br>---- --- --- ----- --- ---- ---- ------- ----- ---- -------<br>--- --- -- ----- -- --- ---- -- --- ---- -- that's ------<br>--- ----- -- ----,72874.20000004768,72873.40000009537,72495.202,72505.90000009537,72511.872,72878.607,,50,that's
screen,html.Screen,0_2_0_1_51,2021-11-19T15:28:41.879Z,,,,,,,,,,,,,,,,53,,,,,,,,,,,,,,402.2930000953638,,response,,,99,,,,,,Space,keypress(Space),,,,,---- -- ----- -- ------ - ------- --- ----------<br>------------- ------ ------ ---- ---- ------- ----- -- ----<br>-------- ------- -- ---------- --- - --- ----- ----- ----<br>---- --- --- ----- --- ---- ---- ------- ----- ---- -------<br>--- --- -- ----- -- --- ---- -- --- ---- -- ------ really<br>--- ----- -- ----,73281.70000004768,73280.90000009537,72861.937,72874.5,72878.607,73295.446,,51,really
screen,html.Screen,0_2_0_1_52,2021-11-19T15:28:42.255Z,,,,,,,,,,,,,,,,53,,,,,,,,,,,,,,361.35399995232,,response,,,99,,,,,,Space,keypress(Space),,,,,---- -- ----- -- ------ - ------- --- ----------<br>------------- ------ ------ ---- ---- ------- ----- -- ----<br>-------- ------- -- ---------- --- - --- ----- ----- ----<br>---- --- --- ----- --- ---- ---- ------- ----- ---- -------<br>--- --- -- ----- -- --- ---- -- --- ---- -- ------ ------<br>not ----- -- ----,73657.59999990463,73656.79999995232,73278.775,73281.90000009537,73295.446,73662.161,,52,not
screen,html.Screen,0_2_0_1_53,2021-11-19T15:28:42.631Z,,,,,,,,,,,,,,,,53,,,,,,,,,,,,,,370.73900009537465,,response,,,99,,,,,,Space,keypress(Space),,,,,---- -- ----- -- ------ - ------- --- ----------<br>------------- ------ ------ ---- ---- ------- ----- -- ----<br>-------- ------- -- ---------- --- - --- ----- ----- ----<br>---- --- --- ----- --- ---- ---- ------- ----- ---- -------<br>--- --- -- ----- -- --- ---- -- --- ---- -- ------ ------<br>--- close -- ----,74033.70000004768,74032.90000009537,73645.491,73657.79999995232,73662.161,74045.638,,53,close
screen,html.Screen,0_2_0_1_54,2021-11-19T15:28:43.014Z,,,,,,,,,,,,,,,,53,,,,,,,,,,,,,,371.26200009536115,,response,,,99,,,,,,Space,keypress(Space),,,,,---- -- ----- -- ------ - ------- --- ----------<br>------------- ------ ------ ---- ---- ------- ----- -- ----<br>-------- ------- -- ---------- --- - --- ----- ----- ----<br>---- --- --- ----- --- ---- ---- ------- ----- ---- -------<br>--- --- -- ----- -- --- ---- -- --- ---- -- ------ ------<br>--- ----- at ----,74417.59999990463,74416.90000009537,74028.967,74033.79999995232,74045.638,74428.894,,54,at
screen,html.Screen,0_2_0_1_55,2021-11-19T15:28:43.446Z,,,,,,,,,,,,,,,,53,,,,,,,,,,,,,,419.90599995231605,,response,,,99,,,,,,Space,keypress(Space),,,,,---- -- ----- -- ------ - ------- --- ----------<br>------------- ------ ------ ---- ---- ------- ----- -- ----<br>-------- ------- -- ---------- --- - --- ----- ----- ----<br>---- --- --- ----- --- ---- ---- ------- ----- ---- -------<br>--- --- -- ----- -- --- ---- -- --- ---- -- ------ ------<br>--- ----- -- all.,74849.5,74848.79999995232,74412.226,74417.79999995232,74428.894,74862.576,,55,all.
Item 99,flow.Loop,0_2_0_1,2021-11-19T15:28:43.451Z,,,,,,,,,,,,,,,,,,,,,,,,,,,,,,23109.20399995232,,completion,,,,F,,,,,,,,,,silence,,74854.09999990463,74848.79999995232,51722.927,51729.90000009537,51739.596,74862.576,,,
Question 1,html.Screen,0_2_0_2,2021-11-19T15:28:51.968Z,,,,,,,,,,,,,,,,,,,,,,,,,,,true,FALSE,,8506.523999904632,,response,,,99,F,,,,,FALSE,click #choice-2,,,,silence,,83370.70000004768,83369.09999990463,74845.904,74854.5,74862.576,83381.129,,,
Question 2,html.Screen,0_2_0_3,2021-11-19T15:28:56.786Z,,,,,,,,,,,,,,,,,,,,,,,,,,,true,TRUE,,4807.1709999523155,,response,,,99,F,,,,,TRUE,click #choice-1,,,,silence,,88189.5,88188.29999995232,83364.46,83371.09999990463,83381.129,88198.906,,,
Item 99,flow.Sequence,0_2_0,2021-11-19T15:28:56.787Z,,,,,,,,,,,,,,,,,,,,,,,,,,,,,,46451.44599995232,,completion,,,,,,,,,,,,,,,,88189.90000009537,88188.29999995232,41720.185,41727.09999990463,41736.854,88198.906,,,
Holding screen,html.Screen,0_2_1_0,2021-11-19T15:29:06.783Z,,,,,,,,,,,,,,,,,,,,,,,,,,,,,,10002.756999999998,,timeout,,,,,,,,,,,,,,,,98186.5,98184.993,88182.238,88190.29999995232,88198.906,98201.663,,,
screen,html.Screen,0_2_1_1_0,2021-11-19T15:29:07.622Z,,,,,,,,,,,,,,,,54,,,,,,,,,,,,,,822.237000095367,,response,,,100,,,,,,Space,keypress(Space),,,,,At --- ---- --- ------ ----- ------- ---- -- --- ------- --<br>------- ---------- ------ -- ----- -- ----- -- ---- ------<br>--- ----- --- --- ------ -------- ----- --- ------ ----- --<br>----- ----- ---------- --- --- ------ ------ ---- -- ------<br>------- --- ------ ----- --- ---- ------- -- ---- --- --<br>------- ------,99024.79999995232,99023.90000009537,98184.993,98186.79999995232,98201.663,99035.432,,0,At
screen,html.Screen,0_2_1_1_1,2021-11-19T15:29:08.069Z,,,,,,,,,,,,,,,,54,,,,,,,,,,,,,,435.96800009536673,,response,,,100,,,,,,Space,keypress(Space),,,,,-- the ---- --- ------ ----- ------- ---- -- --- ------- --<br>------- ---------- ------ -- ----- -- ----- -- ---- ------<br>--- ----- --- --- ------ -------- ----- --- ------ ----- --<br>----- ----- ---------- --- --- ------ ------ ---- -- ------<br>------- --- ------ ----- --- ---- ------- -- ---- --- --<br>------- ------,99472.09999990463,99471.40000009537,99018.761,99025.09999990463,99035.432,99485.446,,1,the
screen,html.Screen,0_2_1_1_2,2021-11-19T15:29:08.693Z,,,,,,,,,,,,,,,,54,,,,,,,,,,,,,,609.85399995232,,response,,,100,,,,,,Space,keypress(Space),,,,,-- --- time --- ------ ----- ------- ---- -- --- ------- --<br>------- ---------- ------ -- ----- -- ----- -- ---- ------<br>--- ----- --- --- ------ -------- ----- --- ------ ----- --<br>----- ----- ---------- --- --- ------ ------ ---- -- ------<br>------- --- ------ ----- --- ---- ------- -- ---- --- --<br>------- ------,100096.09999990463,100095.29999995232,99468.776,99472.40000009537,99485.446,100102.34,,2,time
screen,html.Screen,0_2_1_1_3,2021-11-19T15:29:09.309Z,,,,,,,,,,,,,,,,54,,,,,,,,,,,,,,609.0600000953709,,response,,,100,,,,,,Space,keypress(Space),,,,,-- --- ---- the ------ ----- ------- ---- -- --- ------- --<br>------- ---------- ------ -- ----- -- ----- -- ---- ------<br>--- ----- --- --- ------ -------- ----- --- ------ ----- --<br>----- ----- ---------- --- --- ------ ------ ---- -- ------<br>------- --- ------ ----- --- ---- ------- -- ---- --- --<br>------- ------,100712.20000004768,100711.40000009537,100085.669,100096.40000009537,100102.34,100719.106,,3,the
screen,html.Screen,0_2_1_1_4,2021-11-19T15:29:09.821Z,,,,,,,,,,,,,,,,54,,,,,,,,,,,,,,504.09400004768395,,response,,,100,,,,,,Space,keypress(Space),,,,,-- --- ---- --- French ----- ------- ---- -- --- ------- --<br>------- ---------- ------ -- ----- -- ----- -- ---- ------<br>--- ----- --- --- ------ -------- ----- --- ------ ----- --<br>----- ----- ---------- --- --- ------ ------ ---- -- ------<br>------- --- ------ ----- --- ---- ------- -- ---- --- --<br>------- ------,101224.09999990463,101223.20000004768,100702.436,100712.29999995232,100719.106,101235.903,,4,French
screen,html.Screen,0_2_1_1_5,2021-11-19T15:29:10.349Z,,,,,,,,,,,,,,,,54,,,,,,,,,,,,,,515.3969999523106,,response,,,100,,,,,,Space,keypress(Space),,,,,-- --- ---- --- ------ crown ------- ---- -- --- ------- --<br>------- ---------- ------ -- ----- -- ----- -- ---- ------<br>--- ----- --- --- ------ -------- ----- --- ------ ----- --<br>----- ----- ---------- --- --- ------ ------ ---- -- ------<br>------- --- ------ ----- --- ---- ------- -- ---- --- --<br>------- ------,101752.09999990463,101751.29999995232,101219.233,101224.29999995232,101235.903,101769.435,,5,crown
screen,html.Screen,0_2_1_1_6,2021-11-19T15:29:10.845Z,,,,,,,,,,,,,,,,54,,,,,,,,,,,,,,477.8649999523186,,response,,,100,,,,,,Space,keypress(Space),,,,,-- --- ---- --- ------ ----- secured ---- -- --- ------- --<br>------- ---------- ------ -- ----- -- ----- -- ---- ------<br>--- ----- --- --- ------ -------- ----- --- ------ ----- --<br>----- ----- ---------- --- --- ------ ------ ---- -- ------<br>------- --- ------ ----- --- ---- ------- -- ---- --- --<br>------- ------,102248,102247.29999995232,101752.764,101752.29999995232,101769.435,102252.716,,6,secured
screen,html.Screen,0_2_1_1_7,2021-11-19T15:29:11.453Z,,,,,,,,,,,,,,,,54,,,,,,,,,,,,,,602.5839999523159,,response,,,100,,,,,,Space,keypress(Space),,,,,-- --- ---- --- ------ ----- ------- much -- --- ------- --<br>------- ---------- ------ -- ----- -- ----- -- ---- ------<br>--- ----- --- --- ------ -------- ----- --- ------ ----- --<br>----- ----- ---------- --- --- ------ ------ ---- -- ------<br>------- --- ------ ----- --- ---- ------- -- ---- --- --<br>------- ------,102856.20000004768,102855.29999995232,102236.047,102248.20000004768,102252.716,102869.8,,7,much
screen,html.Screen,0_2_1_1_8,2021-11-19T15:29:11.941Z,,,,,,,,,,,,,,,,54,,,,,,,,,,,,,,473.4000000476808,,response,,,100,,,,,,Space,keypress(Space),,,,,-- --- ---- --- ------ ----- ------- ---- of --- ------- --<br>------- ---------- ------ -- ----- -- ----- -- ---- ------<br>--- ----- --- --- ------ -------- ----- --- ------ ----- --<br>----- ----- ---------- --- --- ------ ------ ---- -- ------<br>------- --- ------ ----- --- ---- ------- -- ---- --- --<br>------- ------,103344,103343.20000004768,102853.128,102856.40000009537,102869.8,103353.122,,8,of
screen,html.Screen,0_2_1_1_9,2021-11-19T15:29:12.389Z,,,,,,,,,,,,,,,,54,,,,,,,,,,,,,,438.0780000476807,,response,,,100,,,,,,Space,keypress(Space),,,,,-- --- ---- --- ------ ----- ------- ---- -- its ------- --<br>------- ---------- ------ -- ----- -- ----- -- ---- ------<br>--- ----- --- --- ------ -------- ----- --- ------ ----- --<br>----- ----- ---------- --- --- ------ ------ ---- -- ------<br>------- --- ------ ----- --- ---- ------- -- ---- --- --<br>------- ------,103792,103791.20000004768,103336.452,103344.20000004768,103353.122,103803.292,,9,its
screen,html.Screen,0_2_1_1_10,2021-11-19T15:29:12.940Z,,,,,,,,,,,,,,,,54,,,,,,,,,,,,,,539.6080000953662,,response,,,100,,,,,,Space,keypress(Space),,,,,-- --- ---- --- ------ ----- ------- ---- -- --- revenue --<br>------- ---------- ------ -- ----- -- ----- -- ---- ------<br>--- ----- --- --- ------ -------- ----- --- ------ ----- --<br>----- ----- ---------- --- --- ------ ------ ---- -- ------<br>------- --- ------ ----- --- ---- ------- -- ---- --- --<br>------- ------,104343.40000009537,104342.90000009537,103786.621,103792.20000004768,103803.292,104353.394,,10,revenue
screen,html.Screen,0_2_1_1_11,2021-11-19T15:29:13.405Z,,,,,,,,,,,,,,,,54,,,,,,,,,,,,,,453.70599990463234,,response,,,100,,,,,,Space,keypress(Space),,,,,-- --- ---- --- ------ ----- ------- ---- -- --- ------- by<br>------- ---------- ------ -- ----- -- ----- -- ---- ------<br>--- ----- --- --- ------ -------- ----- --- ------ ----- --<br>----- ----- ---------- --- --- ------ ------ ---- -- ------<br>------- --- ------ ----- --- ---- ------- -- ---- --- --<br>------- ------,104808,104807.09999990463,104336.724,104343.59999990463,104353.394,104820.186,,11,by
screen,html.Screen,0_2_1_1_12,2021-11-19T15:29:13.893Z,,,,,,,,,,,,,,,,54,,,,,,,,,,,,,,474.91399990463105,,response,,,100,,,,,,Space,keypress(Space),,,,,-- --- ---- --- ------ ----- ------- ---- -- --- ------- --<br>issuing ---------- ------ -- ----- -- ----- -- ---- ------<br>--- ----- --- --- ------ -------- ----- --- ------ ----- --<br>----- ----- ---------- --- --- ------ ------ ---- -- ------<br>------- --- ------ ----- --- ---- ------- -- ---- --- --<br>------- ------,105295.79999995232,105295.09999990463,104803.516,104808.20000004768,104820.186,105303.623,,12,issuing
screen,html.Screen,0_2_1_1_13,2021-11-19T15:29:14.365Z,,,,,,,,,,,,,,,,54,,,,,,,,,,,,,,463.4769999046257,,response,,,100,,,,,,Space,keypress(Space),,,,,-- --- ---- --- ------ ----- ------- ---- -- --- ------- --<br>------- government ------ -- ----- -- ----- -- ---- ------<br>--- ----- --- --- ------ -------- ----- --- ------ ----- --<br>----- ----- ---------- --- --- ------ ------ ---- -- ------<br>------- --- ------ ----- --- ---- ------- -- ---- --- --<br>------- ------,105767.90000009537,105767.09999990463,105286.953,105296.09999990463,105303.623,105770.383,,13,government
screen,html.Screen,0_2_1_1_14,2021-11-19T15:29:14.877Z,,,,,,,,,,,,,,,,54,,,,,,,,,,,,,,508.71699990463094,,response,,,100,,,,,,Space,keypress(Space),,,,,-- --- ---- --- ------ ----- ------- ---- -- --- ------- --<br>------- ---------- bonds. -- ----- -- ----- -- ---- ------<br>--- ----- --- --- ------ -------- ----- --- ------ ----- --<br>----- ----- ---------- --- --- ------ ------ ---- -- ------<br>------- --- ------ ----- --- ---- ------- -- ---- --- --<br>------- ------,106279.79999995232,106279.09999990463,105753.713,105768.20000004768,105770.383,106287.164,,14,bonds.
screen,html.Screen,0_2_1_1_15,2021-11-19T15:29:15.333Z,,,,,,,,,,,,,,,,54,,,,,,,,,,,,,,447.93599990462826,,response,,,100,,,,,,Space,keypress(Space),,,,,-- --- ---- --- ------ ----- ------- ---- -- --- ------- --<br>------- ---------- ------ In ----- -- ----- -- ---- ------<br>--- ----- --- --- ------ -------- ----- --- ------ ----- --<br>----- ----- ---------- --- --- ------ ------ ---- -- ------<br>------- --- ------ ----- --- ---- ------- -- ---- --- --<br>------- ------,106735.90000009537,106735.09999990463,106270.494,106280,106287.164,106737.45,,15,In
screen,html.Screen,0_2_1_1_16,2021-11-19T15:29:15.965Z,,,,,,,,,,,,,,,,54,,,,,,,,,,,,,,629.5500000000029,,response,,,100,,,,,,Space,keypress(Space),,,,,"-- --- ---- --- ------ ----- ------- ---- -- --- ------- --<br>------- ---------- ------ -- 1727, -- ----- -- ---- ------<br>--- ----- --- --- ------ -------- ----- --- ------ ----- --<br>----- ----- ---------- --- --- ------ ------ ---- -- ------<br>------- --- ------ ----- --- ---- ------- -- ---- --- --<br>------- ------",107367.79999995232,107367,106720.778,106736.09999990463,106737.45,107370.826,,16,"1727,"
screen,html.Screen,0_2_1_1_17,2021-11-19T15:29:16.461Z,,,,,,,,,,,,,,,,54,,,,,,,,,,,,,,492.17399999999907,,response,,,100,,,,,,Space,keypress(Space),,,,,-- --- ---- --- ------ ----- ------- ---- -- --- ------- --<br>------- ---------- ------ -- ----- in ----- -- ---- ------<br>--- ----- --- --- ------ -------- ----- --- ------ ----- --<br>----- ----- ---------- --- --- ------ ------ ---- -- ------<br>------- --- ------ ----- --- ---- ------- -- ---- --- --<br>------- ------,107863.70000004768,107863,107354.156,107368,107370.826,107870.971,,17,in
screen,html.Screen,0_2_1_1_18,2021-11-19T15:29:16.941Z,,,,,,,,,,,,,,,,54,,,,,,,,,,,,,,471.9290000953624,,response,,,100,,,,,,Space,keypress(Space),,,,,-- --- ---- --- ------ ----- ------- ---- -- --- ------- --<br>------- ---------- ------ -- ----- -- order -- ---- ------<br>--- ----- --- --- ------ -------- ----- --- ------ ----- --<br>----- ----- ---------- --- --- ------ ------ ---- -- ------<br>------- --- ------ ----- --- ---- ------- -- ---- --- --<br>------- ------,108343.79999995232,108342.90000009537,107854.301,107864,107870.971,108354.307,,18,order
screen,html.Screen,0_2_1_1_19,2021-11-19T15:29:17.461Z,,,,,,,,,,,,,,,,54,,,,,,,,,,,,,,508.59300009536673,,response,,,100,,,,,,Space,keypress(Space),,,,,-- --- ---- --- ------ ----- ------- ---- -- --- ------- --<br>------- ---------- ------ -- ----- -- ----- to ---- ------<br>--- ----- --- --- ------ -------- ----- --- ------ ----- --<br>----- ----- ---------- --- --- ------ ------ ---- -- ------<br>------- --- ------ ----- --- ---- ------- -- ---- --- --<br>------- ------,108863.70000004768,108862.90000009537,108337.638,108343.90000009537,108354.307,108871.319,,19,to
screen,html.Screen,0_2_1_1_20,2021-11-19T15:29:17.877Z,,,,,,,,,,,,,,,,54,,,,,,,,,,,,,,408.0810000953643,,response,,,100,,,,,,Space,keypress(Space),,,,,-- --- ---- --- ------ ----- ------- ---- -- --- ------- --<br>------- ---------- ------ -- ----- -- ----- -- save ------<br>--- ----- --- --- ------ -------- ----- --- ------ ----- --<br>----- ----- ---------- --- --- ------ ------ ---- -- ------<br>------- --- ------ ----- --- ---- ------- -- ---- --- --<br>------- ------,109280.20000004768,109279.40000009537,108854.647,108864,108871.319,109287.97,,20,save
screen,html.Screen,0_2_1_1_21,2021-11-19T15:29:18.285Z,,,,,,,,,,,,,,,,54,,,,,,,,,,,,,,398.93000009536627,,response,,,100,,,,,,Space,keypress(Space),,,,,"-- --- ---- --- ------ ----- ------- ---- -- --- ------- --<br>------- ---------- ------ -- ----- -- ----- -- ---- money,<br>--- ----- --- --- ------ -------- ----- --- ------ ----- --<br>----- ----- ---------- --- --- ------ ------ ---- -- ------<br>------- --- ------ ----- --- ---- ------- -- ---- --- --<br>------- ------",109687.59999990463,109686.90000009537,109271.3,109280.5,109287.97,109704.805,,21,"money,"
screen,html.Screen,0_2_1_1_22,2021-11-19T15:29:18.741Z,,,,,,,,,,,,,,,,54,,,,,,,,,,,,,,437.99499995232327,,response,,,100,,,,,,Space,keypress(Space),,,,,-- --- ---- --- ------ ----- ------- ---- -- --- ------- --<br>------- ---------- ------ -- ----- -- ----- -- ---- ------<br>the ----- --- --- ------ -------- ----- --- ------ ----- --<br>----- ----- ---------- --- --- ------ ------ ---- -- ------<br>------- --- ------ ----- --- ---- ------- -- ---- --- --<br>------- ------,110143.59999990463,110142.79999995232,109688.134,109687.90000009537,109704.805,110154.776,,22,the
screen,html.Screen,0_2_1_1_23,2021-11-19T15:29:19.124Z,,,,,,,,,,,,,,,,54,,,,,,,,,,,,,,372.02399995231826,,response,,,100,,,,,,Space,keypress(Space),,,,,-- --- ---- --- ------ ----- ------- ---- -- --- ------- --<br>------- ---------- ------ -- ----- -- ----- -- ---- ------<br>--- state --- --- ------ -------- ----- --- ------ ----- --<br>----- ----- ---------- --- --- ------ ------ ---- -- ------<br>------- --- ------ ----- --- ---- ------- -- ---- --- --<br>------- ------,110527.5,110526.79999995232,110138.107,110143.90000009537,110154.776,110538.427,,23,state
screen,html.Screen,0_2_1_1_24,2021-11-19T15:29:19.532Z,,,,,,,,,,,,,,,,54,,,,,,,,,,,,,,396.2730000476877,,response,,,100,,,,,,Space,keypress(Space),,,,,-- --- ---- --- ------ ----- ------- ---- -- --- ------- --<br>------- ---------- ------ -- ----- -- ----- -- ---- ------<br>--- ----- cut --- ------ -------- ----- --- ------ ----- --<br>----- ----- ---------- --- --- ------ ------ ---- -- ------<br>------- --- ------ ----- --- ---- ------- -- ---- --- --<br>------- ------,110935.5,110934.70000004768,110521.755,110527.79999995232,110538.427,110938.496,,24,cut
screen,html.Screen,0_2_1_1_25,2021-11-19T15:29:19.956Z,,,,,,,,,,,,,,,,54,,,,,,,,,,,,,,420.20400004768453,,response,,,100,,,,,,Space,keypress(Space),,,,,-- --- ---- --- ------ ----- ------- ---- -- --- ------- --<br>------- ---------- ------ -- ----- -- ----- -- ---- ------<br>--- ----- --- the ------ -------- ----- --- ------ ----- --<br>----- ----- ---------- --- --- ------ ------ ---- -- ------<br>------- --- ------ ----- --- ---- ------- -- ---- --- --<br>------- ------,111359.5,111358.70000004768,110921.825,110935.79999995232,110938.496,111371.869,,25,the
screen,html.Screen,0_2_1_1_26,2021-11-19T15:29:20.332Z,,,,,,,,,,,,,,,,54,,,,,,,,,,,,,,362.83100004767766,,response,,,100,,,,,,Space,keypress(Space),,,,,-- --- ---- --- ------ ----- ------- ---- -- --- ------- --<br>------- ---------- ------ -- ----- -- ----- -- ---- ------<br>--- ----- --- --- bonds' -------- ----- --- ------ ----- --<br>----- ----- ---------- --- --- ------ ------ ---- -- ------<br>------- --- ------ ----- --- ---- ------- -- ---- --- --<br>------- ------,111735.5,111734.70000004768,111355.199,111359.70000004768,111371.869,111738.637,,26,bonds'
screen,html.Screen,0_2_1_1_27,2021-11-19T15:29:20.740Z,,,,,,,,,,,,,,,,54,,,,,,,,,,,,,,404.06300004768127,,response,,,100,,,,,,Space,keypress(Space),,,,,-- --- ---- --- ------ ----- ------- ---- -- --- ------- --<br>------- ---------- ------ -- ----- -- ----- -- ---- ------<br>--- ----- --- --- ------ interest ----- --- ------ ----- --<br>----- ----- ---------- --- --- ------ ------ ---- -- ------<br>------- --- ------ ----- --- ---- ------- -- ---- --- --<br>------- ------,112143.5,112142.70000004768,111721.967,111735.70000004768,111738.637,112155.39,,27,interest
screen,html.Screen,0_2_1_1_28,2021-11-19T15:29:21.148Z,,,,,,,,,,,,,,,,54,,,,,,,,,,,,,,395.3100000476843,,response,,,100,,,,,,Space,keypress(Space),,,,,-- --- ---- --- ------ ----- ------- ---- -- --- ------- --<br>------- ---------- ------ -- ----- -- ----- -- ---- ------<br>--- ----- --- --- ------ -------- rate. --- ------ ----- --<br>----- ----- ---------- --- --- ------ ------ ---- -- ------<br>------- --- ------ ----- --- ---- ------- -- ---- --- --<br>------- ------,112551.5,112550.70000004768,112138.72,112143.70000004768,112155.39,112555.354,,28,rate.
screen,html.Screen,0_2_1_1_29,2021-11-19T15:29:21.548Z,,,,,,,,,,,,,,,,54,,,,,,,,,,,,,,395.3460000476771,,response,,,100,,,,,,Space,keypress(Space),,,,,-- --- ---- --- ------ ----- ------- ---- -- --- ------- --<br>------- ---------- ------ -- ----- -- ----- -- ---- ------<br>--- ----- --- --- ------ -------- ----- The ------ ----- --<br>----- ----- ---------- --- --- ------ ------ ---- -- ------<br>------- --- ------ ----- --- ---- ------- -- ---- --- --<br>------- ------,112951.5,112950.70000004768,112538.686,112551.70000004768,112555.354,112955.627,,29,The
screen,html.Screen,0_2_1_1_30,2021-11-19T15:29:21.980Z,,,,,,,,,,,,,,,,54,,,,,,,,,,,,,,426.97299990463944,,response,,,100,,,,,,Space,keypress(Space),,,,,-- --- ---- --- ------ ----- ------- ---- -- --- ------- --<br>------- ---------- ------ -- ----- -- ----- -- ---- ------<br>--- ----- --- --- ------ -------- ----- --- market ----- --<br>----- ----- ---------- --- --- ------ ------ ---- -- ------<br>------- --- ------ ----- --- ---- ------- -- ---- --- --<br>------- ------,113383.40000009537,113382.59999990463,112938.956,112951.70000004768,112955.627,113389.148,,30,market
screen,html.Screen,0_2_1_1_31,2021-11-19T15:29:22.420Z,,,,,,,,,,,,,,,,54,,,,,,,,,,,,,,433.4519999046315,,response,,,100,,,,,,Space,keypress(Space),,,,,-- --- ---- --- ------ ----- ------- ---- -- --- ------- --<br>------- ---------- ------ -- ----- -- ----- -- ---- ------<br>--- ----- --- --- ------ -------- ----- --- ------ value --<br>----- ----- ---------- --- --- ------ ------ ---- -- ------<br>------- --- ------ ----- --- ---- ------- -- ---- --- --<br>------- ------,113823.5,113822.59999990463,113372.476,113383.70000004768,113389.148,113839.168,,31,value
screen,html.Screen,0_2_1_1_32,2021-11-19T15:29:22.876Z,,,,,,,,,,,,,,,,54,,,,,,,,,,,,,,439.43199990462745,,response,,,100,,,,,,Space,keypress(Space),,,,,-- --- ---- --- ------ ----- ------- ---- -- --- ------- --<br>------- ---------- ------ -- ----- -- ----- -- ---- ------<br>--- ----- --- --- ------ -------- ----- --- ------ ----- of<br>----- ----- ---------- --- --- ------ ------ ---- -- ------<br>------- --- ------ ----- --- ---- ------- -- ---- --- --<br>------- ------,114279.40000009537,114278.59999990463,113822.498,113823.70000004768,113839.168,114289.276,,32,of
screen,html.Screen,0_2_1_1_33,2021-11-19T15:29:23.356Z,,,,,,,,,,,,,,,,54,,,,,,,,,,,,,,469.32399990463455,,response,,,100,,,,,,Space,keypress(Space),,,,,-- --- ---- --- ------ ----- ------- ---- -- --- ------- --<br>------- ---------- ------ -- ----- -- ----- -- ---- ------<br>--- ----- --- --- ------ -------- ----- --- ------ ----- --<br>these ----- ---------- --- --- ------ ------ ---- -- ------<br>------- --- ------ ----- --- ---- ------- -- ---- --- --<br>------- ------,114759.40000009537,114758.59999990463,114272.606,114279.59999990463,114289.276,114772.785,,33,these
screen,html.Screen,0_2_1_1_34,2021-11-19T15:29:23.804Z,,,,,,,,,,,,,,,,54,,,,,,,,,,,,,,433.7149999999965,,response,,,100,,,,,,Space,keypress(Space),,,,,-- --- ---- --- ------ ----- ------- ---- -- --- ------- --<br>------- ---------- ------ -- ----- -- ----- -- ---- ------<br>--- ----- --- --- ------ -------- ----- --- ------ ----- --<br>----- bonds ---------- --- --- ------ ------ ---- -- ------<br>------- --- ------ ----- --- ---- ------- -- ---- --- --<br>------- ------,115207.29999995232,115206.5,114756.114,114759.59999990463,114772.785,115222.871,,34,bonds
screen,html.Screen,0_2_1_1_35,2021-11-19T15:29:24.324Z,,,,,,,,,,,,,,,,54,,,,,,,,,,,,,,503.7289999046334,,response,,,100,,,,,,Space,keypress(Space),,,,,"-- --- ---- --- ------ ----- ------- ---- -- --- ------- --<br>------- ---------- ------ -- ----- -- ----- -- ---- ------<br>--- ----- --- --- ------ -------- ----- --- ------ ----- --<br>----- ----- plummeted, --- --- ------ ------ ---- -- ------<br>------- --- ------ ----- --- ---- ------- -- ---- --- --<br>------- ------",115727.40000009537,115726.59999990463,115206.201,115207.59999990463,115222.871,115739.649,,35,"plummeted,"
screen,html.Screen,0_2_1_1_36,2021-11-19T15:29:24.892Z,,,,,,,,,,,,,,,,54,,,,,,,,,,,,,,554.9509999046277,,response,,,100,,,,,,Space,keypress(Space),,,,,-- --- ---- --- ------ ----- ------- ---- -- --- ------- --<br>------- ---------- ------ -- ----- -- ----- -- ---- ------<br>--- ----- --- --- ------ -------- ----- --- ------ ----- --<br>----- ----- ---------- and --- ------ ------ ---- -- ------<br>------- --- ------ ----- --- ---- ------- -- ---- --- --<br>------- ------,116295.29999995232,116294.59999990463,115722.979,115729,115739.649,116306.469,,36,and
screen,html.Screen,0_2_1_1_37,2021-11-19T15:29:25.364Z,,,,,,,,,,,,,,,,54,,,,,,,,,,,,,,460.0310000000027,,response,,,100,,,,,,Space,keypress(Space),,,,,-- --- ---- --- ------ ----- ------- ---- -- --- ------- --<br>------- ---------- ------ -- ----- -- ----- -- ---- ------<br>--- ----- --- --- ------ -------- ----- --- ------ ----- --<br>----- ----- ---------- --- the ------ ------ ---- -- ------<br>------- --- ------ ----- --- ---- ------- -- ---- --- --<br>------- ------,116767.29999995232,116766.5,116289.799,116295.5,116306.469,116773.246,,37,the
screen,html.Screen,0_2_1_1_38,2021-11-19T15:29:25.820Z,,,,,,,,,,,,,,,,54,,,,,,,,,,,,,,449.15400009536825,,response,,,100,,,,,,Space,keypress(Space),,,,,-- --- ---- --- ------ ----- ------- ---- -- --- ------- --<br>------- ---------- ------ -- ----- -- ----- -- ---- ------<br>--- ----- --- --- ------ -------- ----- --- ------ ----- --<br>----- ----- ---------- --- --- market ------ ---- -- ------<br>------- --- ------ ----- --- ---- ------- -- ---- --- --<br>------- ------,117223.20000004768,117222.40000009537,116756.576,116767.59999990463,116773.246,117239.947,,38,market
screen,html.Screen,0_2_1_1_39,2021-11-19T15:29:26.316Z,,,,,,,,,,,,,,,,54,,,,,,,,,,,,,,478.4530000953673,,response,,,100,,,,,,Space,keypress(Space),,,,,-- --- ---- --- ------ ----- ------- ---- -- --- ------- --<br>------- ---------- ------ -- ----- -- ----- -- ---- ------<br>--- ----- --- --- ------ -------- ----- --- ------ ----- --<br>----- ----- ---------- --- --- ------ became ---- -- ------<br>------- --- ------ ----- --- ---- ------- -- ---- --- --<br>------- ------,117719,117718.40000009537,117223.278,117223.40000009537,117239.947,117723.589,,39,became
screen,html.Screen,0_2_1_1_40,2021-11-19T15:29:26.924Z,,,,,,,,,,,,,,,,54,,,,,,,,,,,,,,602.8110000953602,,response,,,100,,,,,,Space,keypress(Space),,,,,-- --- ---- --- ------ ----- ------- ---- -- --- ------- --<br>------- ---------- ------ -- ----- -- ----- -- ---- ------<br>--- ----- --- --- ------ -------- ----- --- ------ ----- --<br>----- ----- ---------- --- --- ------ ------ wary -- ------<br>------- --- ------ ----- --- ---- ------- -- ---- --- --<br>------- ------,118327.20000004768,118326.40000009537,117706.917,117719.29999995232,117723.589,118340.318,,40,wary
screen,html.Screen,0_2_1_1_41,2021-11-19T15:29:27.332Z,,,,,,,,,,,,,,,,54,,,,,,,,,,,,,,394.08200009536813,,response,,,100,,,,,,Space,keypress(Space),,,,,-- --- ---- --- ------ ----- ------- ---- -- --- ------- --<br>------- ---------- ------ -- ----- -- ----- -- ---- ------<br>--- ----- --- --- ------ -------- ----- --- ------ ----- --<br>----- ----- ---------- --- --- ------ ------ ---- of ------<br>------- --- ------ ----- --- ---- ------- -- ---- --- --<br>------- ------,118735.20000004768,118734.40000009537,118323.648,118327.40000009537,118340.318,118740.433,,41,of
screen,html.Screen,0_2_1_1_42,2021-11-19T15:29:27.796Z,,,,,,,,,,,,,,,,54,,,,,,,,,,,,,,457.86699995231174,,response,,,100,,,,,,Space,keypress(Space),,,,,-- --- ---- --- ------ ----- ------- ---- -- --- ------- --<br>------- ---------- ------ -- ----- -- ----- -- ---- ------<br>--- ----- --- --- ------ -------- ----- --- ------ ----- --<br>----- ----- ---------- --- --- ------ ------ ---- -- French<br>------- --- ------ ----- --- ---- ------- -- ---- --- --<br>------- ------,119199.09999990463,119198.29999995232,118723.763,118735.40000009537,118740.433,119207.262,,42,French
screen,html.Screen,0_2_1_1_43,2021-11-19T15:29:28.253Z,,,,,,,,,,,,,,,,54,,,,,,,,,,,,,,447.53799995231384,,response,,,100,,,,,,Space,keypress(Space),,,,,-- --- ---- --- ------ ----- ------- ---- -- --- ------- --<br>------- ---------- ------ -- ----- -- ----- -- ---- ------<br>--- ----- --- --- ------ -------- ----- --- ------ ----- --<br>----- ----- ---------- --- --- ------ ------ ---- -- ------<br>credit. --- ------ ----- --- ---- ------- -- ---- --- --<br>------- ------,119655.70000004768,119654.79999995232,119190.591,119199.29999995232,119207.262,119657.313,,43,credit.
screen,html.Screen,0_2_1_1_44,2021-11-19T15:29:28.700Z,,,,,,,,,,,,,,,,54,,,,,,,,,,,,,,444.98699995232164,,response,,,100,,,,,,Space,keypress(Space),,,,,-- --- ---- --- ------ ----- ------- ---- -- --- ------- --<br>------- ---------- ------ -- ----- -- ----- -- ---- ------<br>--- ----- --- --- ------ -------- ----- --- ------ ----- --<br>----- ----- ---------- --- --- ------ ------ ---- -- ------<br>------- The ------ ----- --- ---- ------- -- ---- --- --<br>------- ------,120103.09999990463,120102.29999995232,119640.643,119655.90000009537,119657.313,120107.451,,44,The
screen,html.Screen,0_2_1_1_45,2021-11-19T15:29:29.160Z,,,,,,,,,,,,,,,,54,,,,,,,,,,,,,,450.84899995231535,,response,,,100,,,,,,Space,keypress(Space),,,,,-- --- ---- --- ------ ----- ------- ---- -- --- ------- --<br>------- ---------- ------ -- ----- -- ----- -- ---- ------<br>--- ----- --- --- ------ -------- ----- --- ------ ----- --<br>----- ----- ---------- --- --- ------ ------ ---- -- ------<br>------- --- French ----- --- ---- ------- -- ---- --- --<br>------- ------,120559.09999990463,120558.29999995232,120090.781,120103.29999995232,120107.451,120574.151,,45,French
screen,html.Screen,0_2_1_1_46,2021-11-19T15:29:29.608Z,,,,,,,,,,,,,,,,54,,,,,,,,,,,,,,432.14899995231826,,response,,,100,,,,,,Space,keypress(Space),,,,,-- --- ---- --- ------ ----- ------- ---- -- --- ------- --<br>------- ---------- ------ -- ----- -- ----- -- ---- ------<br>--- ----- --- --- ------ -------- ----- --- ------ ----- --<br>----- ----- ---------- --- --- ------ ------ ---- -- ------<br>------- --- ------ state --- ---- ------- -- ---- --- --<br>------- ------,121007,121006.29999995232,120557.482,120559.29999995232,120574.151,121024.398,,46,state
screen,html.Screen,0_2_1_1_47,2021-11-19T15:29:30.080Z,,,,,,,,,,,,,,,,54,,,,,,,,,,,,,,453.90199995231524,,response,,,100,,,,,,Space,keypress(Space),,,,,-- --- ---- --- ------ ----- ------- ---- -- --- ------- --<br>------- ---------- ------ -- ----- -- ----- -- ---- ------<br>--- ----- --- --- ------ -------- ----- --- ------ ----- --<br>----- ----- ---------- --- --- ------ ------ ---- -- ------<br>------- --- ------ ----- was ---- ------- -- ---- --- --<br>------- ------,121479,121478.29999995232,121007.727,121007.29999995232,121024.398,121491.134,,47,was
screen,html.Screen,0_2_1_1_48,2021-11-19T15:29:30.512Z,,,,,,,,,,,,,,,,54,,,,,,,,,,,,,,419.06600004767824,,response,,,100,,,,,,Space,keypress(Space),,,,,-- --- ---- --- ------ ----- ------- ---- -- --- ------- --<br>------- ---------- ------ -- ----- -- ----- -- ---- ------<br>--- ----- --- --- ------ -------- ----- --- ------ ----- --<br>----- ----- ---------- --- --- ------ ------ ---- -- ------<br>------- --- ------ ----- --- left ------- -- ---- --- --<br>------- ------,121911,121910.20000004768,121474.464,121479.20000004768,121491.134,121924.619,,48,left
screen,html.Screen,0_2_1_1_49,2021-11-19T15:29:30.928Z,,,,,,,,,,,,,,,,54,,,,,,,,,,,,,,401.58100004767766,,response,,,100,,,,,,Space,keypress(Space),,,,,-- --- ---- --- ------ ----- ------- ---- -- --- ------- --<br>------- ---------- ------ -- ----- -- ----- -- ---- ------<br>--- ----- --- --- ------ -------- ----- --- ------ ----- --<br>----- ----- ---------- --- --- ------ ------ ---- -- ------<br>------- --- ------ ----- --- ---- without -- ---- --- --<br>------- ------,122326.90000009537,122326.20000004768,121907.948,121911.20000004768,121924.619,122341.342,,49,without
screen,html.Screen,0_2_1_1_50,2021-11-19T15:29:31.360Z,,,,,,,,,,,,,,,,54,,,,,,,,,,,,,,416.7579999046284,,response,,,100,,,,,,Space,keypress(Space),,,,,-- --- ---- --- ------ ----- ------- ---- -- --- ------- --<br>------- ---------- ------ -- ----- -- ----- -- ---- ------<br>--- ----- --- --- ------ -------- ----- --- ------ ----- --<br>----- ----- ---------- --- --- ------ ------ ---- -- ------<br>------- --- ------ ----- --- ---- ------- an ---- --- --<br>------- ------,122759,122758.09999990463,122324.672,122327.20000004768,122341.342,122774.786,,50,an
screen,html.Screen,0_2_1_1_51,2021-11-19T15:29:31.800Z,,,,,,,,,,,,,,,,54,,,,,,,,,,,,,,423.3139999046398,,response,,,100,,,,,,Space,keypress(Space),,,,,-- --- ---- --- ------ ----- ------- ---- -- --- ------- --<br>------- ---------- ------ -- ----- -- ----- -- ---- ------<br>--- ----- --- --- ------ -------- ----- --- ------ ----- --<br>----- ----- ---------- --- --- ------ ------ ---- -- ------<br>------- --- ------ ----- --- ---- ------- -- easy --- --<br>------- ------,123199,123198.09999990463,122758.116,122759.20000004768,122774.786,123208.296,,51,easy
screen,html.Screen,0_2_1_1_52,2021-11-19T15:29:32.192Z,,,,,,,,,,,,,,,,54,,,,,,,,,,,,,,381.8039999046305,,response,,,100,,,,,,Space,keypress(Space),,,,,-- --- ---- --- ------ ----- ------- ---- -- --- ------- --<br>------- ---------- ------ -- ----- -- ----- -- ---- ------<br>--- ----- --- --- ------ -------- ----- --- ------ ----- --<br>----- ----- ---------- --- --- ------ ------ ---- -- ------<br>------- --- ------ ----- --- ---- ------- -- ---- way --<br>------- ------,123590.90000009537,123590.09999990463,123191.625,123199.09999990463,123208.296,123608.349,,52,way
screen,html.Screen,0_2_1_1_53,2021-11-19T15:29:32.592Z,,,,,,,,,,,,,,,,54,,,,,,,,,,,,,,381.7509999046306,,response,,,100,,,,,,Space,keypress(Space),,,,,-- --- ---- --- ------ ----- ------- ---- -- --- ------- --<br>------- ---------- ------ -- ----- -- ----- -- ---- ------<br>--- ----- --- --- ------ -------- ----- --- ------ ----- --<br>----- ----- ---------- --- --- ------ ------ ---- -- ------<br>------- --- ------ ----- --- ---- ------- -- ---- --- of<br>------- ------,123990.90000009537,123990.09999990463,123591.679,123591.20000004768,123608.349,124008.445,,53,of
screen,html.Screen,0_2_1_1_54,2021-11-19T15:29:33.056Z,,,,,,,,,,,,,,,,54,,,,,,,,,,,,,,445.554999999993,,response,,,100,,,,,,Space,keypress(Space),,,,,-- --- ---- --- ------ ----- ------- ---- -- --- ------- --<br>------- ---------- ------ -- ----- -- ----- -- ---- ------<br>--- ----- --- --- ------ -------- ----- --- ------ ----- --<br>----- ----- ---------- --- --- ------ ------ ---- -- ------<br>------- --- ------ ----- --- ---- ------- -- ---- --- --<br>raising ------,124454.79999995232,124454,123991.775,123991.09999990463,124008.445,124458.62,,54,raising
screen,html.Screen,0_2_1_1_55,2021-11-19T15:29:33.576Z,,,,,,,,,,,,,,,,54,,,,,,,,,,,,,,515.3800000000047,,response,,,100,,,,,,Space,keypress(Space),,,,,-- --- ---- --- ------ ----- ------- ---- -- --- ------- --<br>------- ---------- ------ -- ----- -- ----- -- ---- ------<br>--- ----- --- --- ------ -------- ----- --- ------ ----- --<br>----- ----- ---------- --- --- ------ ------ ---- -- ------<br>------- --- ------ ----- --- ---- ------- -- ---- --- --<br>------- money.,124974.79999995232,124974,124441.949,124455,124458.62,124991.881,,55,money.
Item 100,flow.Loop,0_2_1_1,2021-11-19T15:29:33.576Z,,,,,,,,,,,,,,,,,,,,,,,,,,,,,,26772.337,,completion,,,,F,,,,,,,,,,silence,,124975.20000004768,124974,98184.993,98186.70000004768,98201.663,124991.881,,,
Question 1,html.Screen,0_2_1_2,2021-11-19T15:29:36.532Z,,,,,,,,,,,,,,,,,,,,,,,,,,,true,TRUE,,2937.8190000476898,,response,,,100,F,,,,,TRUE,click #choice-1,,,,silence,,127930.90000009537,127929.70000004768,124975.213,124975.40000009537,124991.881,127942.765,,,
Question 2,html.Screen,0_2_1_3,2021-11-19T15:29:41.048Z,,,,,,,,,,,,,,,,,,,,,,,,,,,true,FALSE,,4502.435000047684,,response,,,100,F,,,,,FALSE,click #choice-2,,,,silence,,132446.5,132445.20000004768,127926.095,127931.09999990463,127942.765,132460.565,,,
Item 100,flow.Sequence,0_2_1,2021-11-19T15:29:41.048Z,,,,,,,,,,,,,,,,,,,,,,,,,,,,,,44246.29400004768,,completion,,,,,,,,,,,,,,,,132446.79999995232,132445.20000004768,88182.238,88190.20000004768,88198.906,132460.565,,,
End of Practice,html.Page,0_2_2,2021-11-19T15:29:51.557Z,,,,,,,,,,,,,,,,,,,,,,,,,,,,,,10494.835000095365,,form submission,,,,,,,,,,,,,,,,142956.20000004768,142955.40000009537,132443.895,132447,132460.565,142963.232,,,
Practice,flow.Sequence,0_2,2021-11-19T15:29:51.558Z,,,,,,,,,,,,,,,,,,,,,,,,,,,,,,101218.54600009538,,completion,,,,,,,,,,,,,,,,142956.79999995232,142955.40000009537,41720.185,41727,41736.854,142963.232,,,
Trap_instruction,html.Page,0_3_0,2021-11-19T15:29:57.816Z,,,,,,,,,,,,,,,,,,,,,,,,,,,,,,6250.668000095378,,form submission,,,,,,,,,,,,,,,,149214.5,149213.90000009537,142946.563,142957.09999990463,142963.232,149249.101,,,
trap_trial,html.Screen,0_3_1,2021-11-19T15:30:00.445Z,,,,,,,,,,,,,,,,,,,,,,,,,,,true,1,,2593.9989999046375,,response,,,,,,,,,1,click #choice-1,,,,,,151844.29999995232,151843.09999990463,149199.07,149214.79999995232,149249.101,151848.77,,,
end of trap trial,html.Page,0_3_2,2021-11-19T15:30:02.711Z,,,,,,,,,,,,,,,,,,,,,,,,,,,,,,2260.5299999523268,,form submission,,,,,,,,,,,,,,,,154109.90000009537,154109.29999995232,151832.1,151844.5,151848.77,154116.336,,,
Trap 1,flow.Sequence,0_3,2021-11-19T15:30:02.711Z,,,,,,,,,,,,,,,,,,,,,,,,,,,,,,11146.067999952327,,completion,,,,,,,,,,,,,,,,154110.29999995232,154109.29999995232,142946.563,142957,142963.232,154116.336,,,
Standby,html.Page,0_4_0,2021-11-19T15:30:10.705Z,,,,,,,,,,,,,,,,,,,,,,,,,,,,,,8002.523999999976,,timeout,,,,,,,,,,,,,,,,162103.70000004768,162102.188,154099.663,154110.59999990463,154116.336,162118.86,,,
Holding screen,html.Screen,0_4_1_0_0,2021-11-19T15:30:17.705Z,,,,,,,,,,,,,,,,,,,,,,,,,,,,,,7001.077000000019,,timeout,,,,,,,,,,,,,,,,169104.29999995232,169103.267,162102.188,162104,162118.86,169119.937,,,
screen,html.Screen,0_4_1_0_1_0,2021-11-19T15:30:18.446Z,,,,,,,,,,,,,,,,48,,,,,,,,,,,,,,724.1629999046272,,response,,,10,F,,,,,Space,keypress(Space),,,,instrumental,As -- --- ------ ------- --------- ----------- --------<br>--------- -------- --- ------- -- ------- ---- -- ------<br>-- --- -------- -------- ---------- ---- ---- ---- ------<br>-- --------- -- ---- -- --- -- --- ------- -- - -----<br>---------- -- -- -- ---- ----- -- ------ -- --- ------<br>-------,169845.09999990463,169844.09999990463,169103.267,169104.79999995232,169119.937,169853.57,,0,As
screen,html.Screen,0_4_1_0_1_1,2021-11-19T15:30:18.869Z,,,,,,,,,,,,,,,,48,,,,,,,,,,,,,,413.929999999993,,response,,,10,F,,,,,Space,keypress(Space),,,,instrumental,-- in --- ------ ------- --------- ----------- --------<br>--------- -------- --- ------- -- ------- ---- -- ------<br>-- --- -------- -------- ---------- ---- ---- ---- ------<br>-- --------- -- ---- -- --- -- --- ------- -- - -----<br>---------- -- -- -- ---- ----- -- ------ -- --- ------<br>-------,170268.29999995232,170267.5,169836.899,169845.29999995232,169853.57,170270.203,,1,in
screen,html.Screen,0_4_1_0_1_2,2021-11-19T15:30:19.325Z,,,,,,,,,,,,,,,,48,,,,,,,,,,,,,,453.2969999999914,,response,,,10,F,,,,,Space,keypress(Space),,,,instrumental,-- -- the ------ ------- --------- ----------- --------<br>--------- -------- --- ------- -- ------- ---- -- ------<br>-- --- -------- -------- ---------- ---- ---- ---- ------<br>-- --------- -- ---- -- --- -- --- ------- -- - -----<br>---------- -- -- -- ---- ----- -- ------ -- --- ------<br>-------,170724.29999995232,170723.5,170253.534,170268.59999990463,170270.203,170737.133,,2,the
screen,html.Screen,0_4_1_0_1_3,2021-11-19T15:30:19.757Z,,,,,,,,,,,,,,,,48,,,,,,,,,,,,,,418.36699999999837,,response,,,10,F,,,,,Space,keypress(Space),,,,instrumental,-- -- --- United ------- --------- ----------- --------<br>--------- -------- --- ------- -- ------- ---- -- ------<br>-- --- -------- -------- ---------- ---- ---- ---- ------<br>-- --------- -- ---- -- --- -- --- ------- -- - -----<br>---------- -- -- -- ---- ----- -- ------ -- --- ------<br>-------,171156.40000009537,171155.5,170720.462,170724.5,170737.133,171170.673,,3,United
screen,html.Screen,0_4_1_0_1_4,2021-11-19T15:30:20.165Z,,,,,,,,,,,,,,,,48,,,,,,,,,,,,,,392.8269999999902,,response,,,10,F,,,,,Space,keypress(Space),,,,instrumental,"-- -- --- ------ States, --------- ----------- --------<br>--------- -------- --- ------- -- ------- ---- -- ------<br>-- --- -------- -------- ---------- ---- ---- ---- ------<br>-- --------- -- ---- -- --- -- --- ------- -- - -----<br>---------- -- -- -- ---- ----- -- ------ -- --- ------<br>-------",171564.40000009537,171563.5,171154.001,171156.79999995232,171170.673,171570.695,,4,"States,"
screen,html.Screen,0_4_1_0_1_5,2021-11-19T15:30:20.661Z,,,,,,,,,,,,,,,,48,,,,,,,,,,,,,,488.70500009536045,,response,,,10,F,,,,,Space,keypress(Space),,,,instrumental,-- -- --- ------ ------- Colombian ----------- --------<br>--------- -------- --- ------- -- ------- ---- -- ------<br>-- --- -------- -------- ---------- ---- ---- ---- ------<br>-- --------- -- ---- -- --- -- --- ------- -- - -----<br>---------- -- -- -- ---- ----- -- ------ -- --- ------<br>-------,172060.29999995232,172059.40000009537,171554.025,171564.70000004768,171570.695,172070.719,,5,Colombian
screen,html.Screen,0_4_1_0_1_6,2021-11-19T15:30:21.085Z,,,,,,,,,,,,,,,,48,,,,,,,,,,,,,,412.68100009535556,,response,,,10,F,,,,,Space,keypress(Space),,,,instrumental,-- -- --- ------ ------- --------- legislation --------<br>--------- -------- --- ------- -- ------- ---- -- ------<br>-- --- -------- -------- ---------- ---- ---- ---- ------<br>-- --------- -- ---- -- --- -- --- ------- -- - -----<br>---------- -- -- -- ---- ----- -- ------ -- --- ------<br>-------,172484.29999995232,172483.40000009537,172054.05,172060.59999990463,172070.719,172487.692,,6,legislation
screen,html.Screen,0_4_1_0_1_7,2021-11-19T15:30:21.597Z,,,,,,,,,,,,,,,,48,,,,,,,,,,,,,,507.7080000953574,,response,,,10,F,,,,,Space,keypress(Space),,,,instrumental,-- -- --- ------ ------- --------- ----------- requires<br>--------- -------- --- ------- -- ------- ---- -- ------<br>-- --- -------- -------- ---------- ---- ---- ---- ------<br>-- --------- -- ---- -- --- -- --- ------- -- - -----<br>---------- -- -- -- ---- ----- -- ------ -- --- ------<br>-------,172996.29999995232,172995.40000009537,172471.02,172484.59999990463,172487.692,173004.379,,7,requires
screen,html.Screen,0_4_1_0_1_8,2021-11-19T15:30:22.053Z,,,,,,,,,,,,,,,,48,,,,,,,,,,,,,,447.02100009538117,,response,,,10,F,,,,,Space,keypress(Space),,,,instrumental,-- -- --- ------ ------- --------- ----------- --------<br>travelers -------- --- ------- -- ------- ---- -- ------<br>-- --- -------- -------- ---------- ---- ---- ---- ------<br>-- --------- -- ---- -- --- -- --- ------- -- - -----<br>---------- -- -- -- ---- ----- -- ------ -- --- ------<br>-------,173452.09999990463,173451.40000009537,172987.709,172996.70000004768,173004.379,173454.545,,8,travelers
screen,html.Screen,0_4_1_0_1_9,2021-11-19T15:30:22.469Z,,,,,,,,,,,,,,,,48,,,,,,,,,,,,,,412.6550000476709,,response,,,10,F,,,,,Space,keypress(Space),,,,instrumental,-- -- --- ------ ------- --------- ----------- --------<br>--------- entering --- ------- -- ------- ---- -- ------<br>-- --- -------- -------- ---------- ---- ---- ---- ------<br>-- --------- -- ---- -- --- -- --- ------- -- - -----<br>---------- -- -- -- ---- ----- -- ------ -- --- ------<br>-------,173868,173867.20000004768,173437.874,173452.40000009537,173454.545,173871.29,,9,entering
screen,html.Screen,0_4_1_0_1_10,2021-11-19T15:30:22.941Z,,,,,,,,,,,,,,,,48,,,,,,,,,,,,,,468.1100000953593,,response,,,10,F,,,,,Space,keypress(Space),,,,instrumental,-- -- --- ------ ------- --------- ----------- --------<br>--------- -------- the ------- -- ------- ---- -- ------<br>-- --- -------- -------- ---------- ---- ---- ---- ------<br>-- --------- -- ---- -- --- -- --- ------- -- - -----<br>---------- -- -- -- ---- ----- -- ------ -- --- ------<br>-------,174340.09999990463,174339.40000009537,173854.62,173868.29999995232,173871.29,174354.745,,10,the
screen,html.Screen,0_4_1_0_1_11,2021-11-19T15:30:23.317Z,,,,,,,,,,,,,,,,48,,,,,,,,,,,,,,360.55499995232094,,response,,,10,F,,,,,Space,keypress(Space),,,,instrumental,-- -- --- ------ ------- --------- ----------- --------<br>--------- -------- --- country -- ------- ---- -- ------<br>-- --- -------- -------- ---------- ---- ---- ---- ------<br>-- --------- -- ---- -- --- -- --- ------- -- - -----<br>---------- -- -- -- ---- ----- -- ------ -- --- ------<br>-------,174716.09999990463,174715.29999995232,174338.075,174340.29999995232,174354.745,174721.494,,11,country
screen,html.Screen,0_4_1_0_1_12,2021-11-19T15:30:23.733Z,,,,,,,,,,,,,,,,48,,,,,,,,,,,,,,409.80599995231023,,response,,,10,F,,,,,Space,keypress(Space),,,,instrumental,-- -- --- ------ ------- --------- ----------- --------<br>--------- -------- --- ------- to ------- ---- -- ------<br>-- --- -------- -------- ---------- ---- ---- ---- ------<br>-- --------- -- ---- -- --- -- --- ------- -- - -----<br>---------- -- -- -- ---- ----- -- ------ -- --- ------<br>-------,175132,175131.29999995232,174704.824,174716.29999995232,174721.494,175138.275,,12,to
screen,html.Screen,0_4_1_0_1_13,2021-11-19T15:30:24.173Z,,,,,,,,,,,,,,,,48,,,,,,,,,,,,,,433.2250000000058,,response,,,10,F,,,,,Space,keypress(Space),,,,instrumental,-- -- --- ------ ------- --------- ----------- --------<br>--------- -------- --- ------- -- declare ---- -- ------<br>-- --- -------- -------- ---------- ---- ---- ---- ------<br>-- --------- -- ---- -- --- -- --- ------- -- - -----<br>---------- -- -- -- ---- ----- -- ------ -- --- ------<br>-------,175572.29999995232,175571.5,175121.605,175132.20000004768,175138.275,175588.388,,13,declare
screen,html.Screen,0_4_1_0_1_14,2021-11-19T15:30:24.565Z,,,,,,,,,,,,,,,,48,,,,,,,,,,,,,,374.91199995231,,response,,,10,F,,,,,Space,keypress(Space),,,,instrumental,-- -- --- ------ ------- --------- ----------- --------<br>--------- -------- --- ------- -- ------- cash -- ------<br>-- --- -------- -------- ---------- ---- ---- ---- ------<br>-- --------- -- ---- -- --- -- --- ------- -- - -----<br>---------- -- -- -- ---- ----- -- ------ -- --- ------<br>-------,175964.09999990463,175963.29999995232,175571.718,175572.5,175588.388,175971.862,,14,cash
screen,html.Screen,0_4_1_0_1_15,2021-11-19T15:30:24.981Z,,,,,,,,,,,,,,,,48,,,,,,,,,,,,,,407.33800004769,,response,,,10,F,,,,,Space,keypress(Space),,,,instrumental,-- -- --- ------ ------- --------- ----------- --------<br>--------- -------- --- ------- -- ------- ---- in ------<br>-- --- -------- -------- ---------- ---- ---- ---- ------<br>-- --------- -- ---- -- --- -- --- ------- -- - -----<br>---------- -- -- -- ---- ----- -- ------ -- --- ------<br>-------,176379.90000009537,176379.20000004768,175955.191,175964.29999995232,175971.862,176388.583,,15,in
screen,html.Screen,0_4_1_0_1_16,2021-11-19T15:30:25.373Z,,,,,,,,,,,,,,,,48,,,,,,,,,,,,,,382.61700004767044,,response,,,10,F,,,,,Space,keypress(Space),,,,instrumental,-- -- --- ------ ------- --------- ----------- --------<br>--------- -------- --- ------- -- ------- ---- -- excess<br>-- --- -------- -------- ---------- ---- ---- ---- ------<br>-- --------- -- ---- -- --- -- --- ------- -- - -----<br>---------- -- -- -- ---- ----- -- ------ -- --- ------<br>-------,176772,176771.20000004768,176371.913,176380.20000004768,176388.583,176788.545,,16,excess
screen,html.Screen,0_4_1_0_1_17,2021-11-19T15:30:25.797Z,,,,,,,,,,,,,,,,48,,,,,,,,,,,,,,406.55499990461976,,response,,,10,F,,,,,Space,keypress(Space),,,,instrumental,-- -- --- ------ ------- --------- ----------- --------<br>--------- -------- --- ------- -- ------- ---- -- ------<br>of --- -------- -------- ---------- ---- ---- ---- ------<br>-- --------- -- ---- -- --- -- --- ------- -- - -----<br>---------- -- -- -- ---- ----- -- ------ -- --- ------<br>-------,177196,177195.09999990463,176771.877,176772.20000004768,176788.545,177205.621,,17,of
screen,html.Screen,0_4_1_0_1_18,2021-11-19T15:30:26.205Z,,,,,,,,,,,,,,,,48,,,,,,,,,,,,,,397.47899990461883,,response,,,10,F,,,,,Space,keypress(Space),,,,instrumental,-- -- --- ------ ------- --------- ----------- --------<br>--------- -------- --- ------- -- ------- ---- -- ------<br>-- ten -------- -------- ---------- ---- ---- ---- ------<br>-- --------- -- ---- -- --- -- --- ------- -- - -----<br>---------- -- -- -- ---- ----- -- ------ -- --- ------<br>-------,177603.90000009537,177603.09999990463,177188.948,177196.20000004768,177205.621,177605.42,,18,ten
screen,html.Screen,0_4_1_0_1_19,2021-11-19T15:30:26.605Z,,,,,,,,,,,,,,,,48,,,,,,,,,,,,,,397.67999990461976,,response,,,10,F,,,,,Space,keypress(Space),,,,instrumental,-- -- --- ------ ------- --------- ----------- --------<br>--------- -------- --- ------- -- ------- ---- -- ------<br>-- --- thousand -------- ---------- ---- ---- ---- ------<br>-- --------- -- ---- -- --- -- --- ------- -- - -----<br>---------- -- -- -- ---- ----- -- ------ -- --- ------<br>-------,178004.09999990463,178003.09999990463,177588.752,177604.20000004768,177605.42,178005.785,,19,thousand
screen,html.Screen,0_4_1_0_1_20,2021-11-19T15:30:27.029Z,,,,,,,,,,,,,,,,48,,,,,,,,,,,,,,421.2149999999965,,response,,,10,F,,,,,Space,keypress(Space),,,,instrumental,-- -- --- ------ ------- --------- ----------- --------<br>--------- -------- --- ------- -- ------- ---- -- ------<br>-- --- -------- dollars. ---------- ---- ---- ---- ------<br>-- --------- -- ---- -- --- -- --- ------- -- - -----<br>---------- -- -- -- ---- ----- -- ------ -- --- ------<br>-------,178427.79999995232,178427,177989.113,178004.20000004768,178005.785,178439.125,,20,dollars.
screen,html.Screen,0_4_1_0_1_21,2021-11-19T15:30:27.540Z,,,,,,,,,,,,,,,,48,,,,,,,,,,,,,,499.5750000476837,,response,,,10,F,,,,,Space,keypress(Space),,,,instrumental,-- -- --- ------ ------- --------- ----------- --------<br>--------- -------- --- ------- -- ------- ---- -- ------<br>-- --- -------- -------- Concealing ---- ---- ---- ------<br>-- --------- -- ---- -- --- -- --- ------- -- - -----<br>---------- -- -- -- ---- ----- -- ------ -- --- ------<br>-------,178939,178938.70000004768,178422.455,178428,178439.125,178955.765,,21,Concealing
screen,html.Screen,0_4_1_0_1_22,2021-11-19T15:30:28.005Z,,,,,,,,,,,,,,,,48,,,,,,,,,,,,,,447.23499999998603,,response,,,10,F,,,,,Space,keypress(Space),,,,instrumental,-- -- --- ------ ------- --------- ----------- --------<br>--------- -------- --- ------- -- ------- ---- -- ------<br>-- --- -------- -------- ---------- more ---- ---- ------<br>-- --------- -- ---- -- --- -- --- ------- -- - -----<br>---------- -- -- -- ---- ----- -- ------ -- --- ------<br>-------,179403.79999995232,179403,178939.097,178939.09999990463,178955.765,179405.996,,22,more
screen,html.Screen,0_4_1_0_1_23,2021-11-19T15:30:28.413Z,,,,,,,,,,,,,,,,48,,,,,,,,,,,,,,405.10399990461883,,response,,,10,F,,,,,Space,keypress(Space),,,,instrumental,-- -- --- ------ ------- --------- ----------- --------<br>--------- -------- --- ------- -- ------- ---- -- ------<br>-- --- -------- -------- ---------- ---- than ---- ------<br>-- --------- -- ---- -- --- -- --- ------- -- - -----<br>---------- -- -- -- ---- ----- -- ------ -- --- ------<br>-------,179811.79999995232,179811.09999990463,179389.326,179404,179405.996,179822.906,,23,than
screen,html.Screen,0_4_1_0_1_24,2021-11-19T15:30:28.789Z,,,,,,,,,,,,,,,,48,,,,,,,,,,,,,,364.39399995232816,,response,,,10,F,,,,,Space,keypress(Space),,,,instrumental,-- -- --- ------ ------- --------- ----------- --------<br>--------- -------- --- ------- -- ------- ---- -- ------<br>-- --- -------- -------- ---------- ---- ---- that ------<br>-- --------- -- ---- -- --- -- --- ------- -- - -----<br>---------- -- -- -- ---- ----- -- ------ -- --- ------<br>-------,180188.09999990463,180187.29999995232,179806.234,179812,179822.906,180189.585,,24,that
screen,html.Screen,0_4_1_0_1_25,2021-11-19T15:30:29.166Z,,,,,,,,,,,,,,,,48,,,,,,,,,,,,,,381.3150000953756,,response,,,10,F,,,,,Space,keypress(Space),,,,instrumental,-- -- --- ------ ------- --------- ----------- --------<br>--------- -------- --- ------- -- ------- ---- -- ------<br>-- --- -------- -------- ---------- ---- ---- ---- amount<br>-- --------- -- ---- -- --- -- --- ------- -- - -----<br>---------- -- -- -- ---- ----- -- ------ -- --- ------<br>-------,180571.70000004768,180570.90000009537,180172.915,180188.29999995232,180189.585,180573.015,,25,amount
screen,html.Screen,0_4_1_0_1_26,2021-11-19T15:30:29.646Z,,,,,,,,,,,,,,,,48,,,,,,,,,,,,,,477.98499999998603,,response,,,10,F,,,,,Space,keypress(Space),,,,instrumental,-- -- --- ------ ------- --------- ----------- --------<br>--------- -------- --- ------- -- ------- ---- -- ------<br>-- --- -------- -------- ---------- ---- ---- ---- ------<br>to --------- -- ---- -- --- -- --- ------- -- - -----<br>---------- -- -- -- ---- ----- -- ------ -- --- ------<br>-------,181051.79999995232,181051,180556.345,180572,180573.015,181056.319,,26,to
screen,html.Screen,0_4_1_0_1_27,2021-11-19T15:30:30.078Z,,,,,,,,,,,,,,,,48,,,,,,,,,,,,,,426.58100009537884,,response,,,10,F,,,,,Space,keypress(Space),,,,instrumental,-- -- --- ------ ------- --------- ----------- --------<br>--------- -------- --- ------- -- ------- ---- -- ------<br>-- --- -------- -------- ---------- ---- ---- ---- ------<br>-- transport -- ---- -- --- -- --- ------- -- - -----<br>---------- -- -- -- ---- ----- -- ------ -- --- ------<br>-------,181483.70000004768,181482.90000009537,181039.651,181052.20000004768,181056.319,181489.868,,27,transport
screen,html.Screen,0_4_1_0_1_28,2021-11-19T15:30:30.518Z,,,,,,,,,,,,,,,,48,,,,,,,,,,,,,,433.0320000953798,,response,,,10,F,,,,,Space,keypress(Space),,,,instrumental,-- -- --- ------ ------- --------- ----------- --------<br>--------- -------- --- ------- -- ------- ---- -- ------<br>-- --- -------- -------- ---------- ---- ---- ---- ------<br>-- --------- it ---- -- --- -- --- ------- -- - -----<br>---------- -- -- -- ---- ----- -- ------ -- --- ------<br>-------,181923.59999990463,181922.90000009537,181473.198,181483.90000009537,181489.868,181940.02,,28,it
screen,html.Screen,0_4_1_0_1_29,2021-11-19T15:30:30.894Z,,,,,,,,,,,,,,,,48,,,,,,,,,,,,,,358.8800000953779,,response,,,10,F,,,,,Space,keypress(Space),,,,instrumental,-- -- --- ------ ------- --------- ----------- --------<br>--------- -------- --- ------- -- ------- ---- -- ------<br>-- --- -------- -------- ---------- ---- ---- ---- ------<br>-- --------- -- into -- --- -- --- ------- -- - -----<br>---------- -- -- -- ---- ----- -- ------ -- --- ------<br>-------,182299.59999990463,182298.90000009537,181923.349,181923.90000009537,181940.02,182306.878,,29,into
screen,html.Screen,0_4_1_0_1_30,2021-11-19T15:30:31.334Z,,,,,,,,,,,,,,,,48,,,,,,,,,,,,,,432.02200009537046,,response,,,10,F,,,,,Space,keypress(Space),,,,instrumental,-- -- --- ------ ------- --------- ----------- --------<br>--------- -------- --- ------- -- ------- ---- -- ------<br>-- --- -------- -------- ---------- ---- ---- ---- ------<br>-- --------- -- ---- or --- -- --- ------- -- - -----<br>---------- -- -- -- ---- ----- -- ------ -- --- ------<br>-------,182739.70000004768,182738.90000009537,182290.206,182299.90000009537,182306.878,182756.803,,30,or
screen,html.Screen,0_4_1_0_1_31,2021-11-19T15:30:31.758Z,,,,,,,,,,,,,,,,48,,,,,,,,,,,,,,405.99699995230185,,response,,,10,F,,,,,Space,keypress(Space),,,,instrumental,-- -- --- ------ ------- --------- ----------- --------<br>--------- -------- --- ------- -- ------- ---- -- ------<br>-- --- -------- -------- ---------- ---- ---- ---- ------<br>-- --------- -- ---- -- out -- --- ------- -- - -----<br>---------- -- -- -- ---- ----- -- ------ -- --- ------<br>-------,183163.59999990463,183162.79999995232,182740.134,182739.90000009537,182756.803,183173.755,,31,out
screen,html.Screen,0_4_1_0_1_32,2021-11-19T15:30:32.166Z,,,,,,,,,,,,,,,,48,,,,,,,,,,,,,,397.0449999523116,,response,,,10,F,,,,,Space,keypress(Space),,,,instrumental,-- -- --- ------ ------- --------- ----------- --------<br>--------- -------- --- ------- -- ------- ---- -- ------<br>-- --- -------- -------- ---------- ---- ---- ---- ------<br>-- --------- -- ---- -- --- of --- ------- -- - -----<br>---------- -- -- -- ---- ----- -- ------ -- --- ------<br>-------,183571.59999990463,183570.79999995232,183157.083,183163.79999995232,183173.755,183573.78,,32,of
screen,html.Screen,0_4_1_0_1_33,2021-11-19T15:30:32.598Z,,,,,,,,,,,,,,,,48,,,,,,,,,,,,,,428.9200000476849,,response,,,10,F,,,,,Space,keypress(Space),,,,instrumental,-- -- --- ------ ------- --------- ----------- --------<br>--------- -------- --- ------- -- ------- ---- -- ------<br>-- --- -------- -------- ---------- ---- ---- ---- ------<br>-- --------- -- ---- -- --- -- the ------- -- - -----<br>---------- -- -- -- ---- ----- -- ------ -- --- ------<br>-------,184003.59999990463,184002.70000004768,183557.11,183571.79999995232,183573.78,184007.222,,33,the
screen,html.Screen,0_4_1_0_1_34,2021-11-19T15:30:33.062Z,,,,,,,,,,,,,,,,48,,,,,,,,,,,,,,459.47800004767487,,response,,,10,F,,,,,Space,keypress(Space),,,,instrumental,-- -- --- ------ ------- --------- ----------- --------<br>--------- -------- --- ------- -- ------- ---- -- ------<br>-- --- -------- -------- ---------- ---- ---- ---- ------<br>-- --------- -- ---- -- --- -- --- country -- - -----<br>---------- -- -- -- ---- ----- -- ------ -- --- ------<br>-------,184467.5,184466.70000004768,183990.552,184003.79999995232,184007.222,184474.006,,34,country
screen,html.Screen,0_4_1_0_1_35,2021-11-19T15:30:33.430Z,,,,,,,,,,,,,,,,48,,,,,,,,,,,,,,360.69400004768977,,response,,,10,F,,,,,Space,keypress(Space),,,,instrumental,-- -- --- ------ ------- --------- ----------- --------<br>--------- -------- --- ------- -- ------- ---- -- ------<br>-- --- -------- -------- ---------- ---- ---- ---- ------<br>-- --------- -- ---- -- --- -- --- ------- is - -----<br>---------- -- -- -- ---- ----- -- ------ -- --- ------<br>-------,184835.5,184834.70000004768,184457.336,184467.79999995232,184474.006,184840.803,,35,is
screen,html.Screen,0_4_1_0_1_36,2021-11-19T15:30:33.886Z,,,,,,,,,,,,,,,,48,,,,,,,,,,,,,,449.8970000476693,,response,,,10,F,,,,,Space,keypress(Space),,,,instrumental,-- -- --- ------ ------- --------- ----------- --------<br>--------- -------- --- ------- -- ------- ---- -- ------<br>-- --- -------- -------- ---------- ---- ---- ---- ------<br>-- --------- -- ---- -- --- -- --- ------- -- a -----<br>---------- -- -- -- ---- ----- -- ------ -- --- ------<br>-------,185291.5,185290.70000004768,184824.132,184835.79999995232,184840.803,185307.55,,36,a
screen,html.Screen,0_4_1_0_1_37,2021-11-19T15:30:34.310Z,,,,,,,,,,,,,,,,48,,,,,,,,,,,,,,407.15000004769536,,response,,,10,F,,,,,Space,keypress(Space),,,,instrumental,-- -- --- ------ ------- --------- ----------- --------<br>--------- -------- --- ------- -- ------- ---- -- ------<br>-- --- -------- -------- ---------- ---- ---- ---- ------<br>-- --------- -- ---- -- --- -- --- ------- -- - crime<br>---------- -- -- -- ---- ----- -- ------ -- --- ------<br>-------,185715.5,185714.70000004768,185290.88,185291.70000004768,185307.55,185724.371,,37,crime
screen,html.Screen,0_4_1_0_1_38,2021-11-19T15:30:34.726Z,,,,,,,,,,,,,,,,48,,,,,,,,,,,,,,406.32900004767,,response,,,10,F,,,,,Space,keypress(Space),,,,instrumental,-- -- --- ------ ------- --------- ----------- --------<br>--------- -------- --- ------- -- ------- ---- -- ------<br>-- --- -------- -------- ---------- ---- ---- ---- ------<br>-- --------- -- ---- -- --- -- --- ------- -- - -----<br>punishable -- -- -- ---- ----- -- ------ -- --- ------<br>-------,186131.40000009537,186130.70000004768,185707.7,185715.70000004768,185724.371,186141.087,,38,punishable
screen,html.Screen,0_4_1_0_1_39,2021-11-19T15:30:35.110Z,,,,,,,,,,,,,,,,48,,,,,,,,,,,,,,373.6130000476842,,response,,,10,F,,,,,Space,keypress(Space),,,,instrumental,-- -- --- ------ ------- --------- ----------- --------<br>--------- -------- --- ------- -- ------- ---- -- ------<br>-- --- -------- -------- ---------- ---- ---- ---- ------<br>-- --------- -- ---- -- --- -- --- ------- -- - -----<br>---------- by -- -- ---- ----- -- ------ -- --- ------<br>-------,186515.5,186514.70000004768,186124.417,186131.70000004768,186141.087,186524.435,,39,by
screen,html.Screen,0_4_1_0_1_40,2021-11-19T15:30:35.494Z,,,,,,,,,,,,,,,,48,,,,,,,,,,,,,,374.1649999046349,,response,,,10,F,,,,,Space,keypress(Space),,,,instrumental,-- -- --- ------ ------- --------- ----------- --------<br>--------- -------- --- ------- -- ------- ---- -- ------<br>-- --- -------- -------- ---------- ---- ---- ---- ------<br>-- --------- -- ---- -- --- -- --- ------- -- - -----<br>---------- -- up -- ---- ----- -- ------ -- --- ------<br>-------,186899.5,186898.59999990463,186507.766,186515.70000004768,186524.435,186908.044,,40,up
screen,html.Screen,0_4_1_0_1_41,2021-11-19T15:30:35.878Z,,,,,,,,,,,,,,,,48,,,,,,,,,,,,,,374.55599990463816,,response,,,10,F,,,,,Space,keypress(Space),,,,instrumental,-- -- --- ------ ------- --------- ----------- --------<br>--------- -------- --- ------- -- ------- ---- -- ------<br>-- --- -------- -------- ---------- ---- ---- ---- ------<br>-- --------- -- ---- -- --- -- --- ------- -- - -----<br>---------- -- -- to ---- ----- -- ------ -- --- ------<br>-------,187283.29999995232,187282.59999990463,186891.372,186899.59999990463,186908.044,187291.437,,41,to
screen,html.Screen,0_4_1_0_1_42,2021-11-19T15:30:36.310Z,,,,,,,,,,,,,,,,48,,,,,,,,,,,,,,423.1629999046272,,response,,,10,F,,,,,Space,keypress(Space),,,,instrumental,-- -- --- ------ ------- --------- ----------- --------<br>--------- -------- --- ------- -- ------- ---- -- ------<br>-- --- -------- -------- ---------- ---- ---- ---- ------<br>-- --------- -- ---- -- --- -- --- ------- -- - -----<br>---------- -- -- -- five ----- -- ------ -- --- ------<br>-------,187715.29999995232,187714.59999990463,187274.766,187283.70000004768,187291.437,187724.831,,42,five
screen,html.Screen,0_4_1_0_1_43,2021-11-19T15:30:36.790Z,,,,,,,,,,,,,,,,48,,,,,,,,,,,,,,469.6689999999944,,response,,,10,F,,,,,Space,keypress(Space),,,,instrumental,-- -- --- ------ ------- --------- ----------- --------<br>--------- -------- --- ------- -- ------- ---- -- ------<br>-- --- -------- -------- ---------- ---- ---- ---- ------<br>-- --------- -- ---- -- --- -- --- ------- -- - -----<br>---------- -- -- -- ---- years -- ------ -- --- ------<br>-------,188195.29999995232,188194.5,187708.161,187715.59999990463,187724.831,188208.152,,43,years
screen,html.Screen,0_4_1_0_1_44,2021-11-19T15:30:37.190Z,,,,,,,,,,,,,,,,48,,,,,,,,,,,,,,386.34799999999814,,response,,,10,F,,,,,Space,keypress(Space),,,,instrumental,-- -- --- ------ ------- --------- ----------- --------<br>--------- -------- --- ------- -- ------- ---- -- ------<br>-- --- -------- -------- ---------- ---- ---- ---- ------<br>-- --------- -- ---- -- --- -- --- ------- -- - -----<br>---------- -- -- -- ---- ----- in ------ -- --- ------<br>-------,188595.29999995232,188594.5,188191.484,188195.59999990463,188208.152,188608.424,,44,in
screen,html.Screen,0_4_1_0_1_45,2021-11-19T15:30:37.582Z,,,,,,,,,,,,,,,,48,,,,,,,,,,,,,,378.07600000000093,,response,,,10,F,,,,,Space,keypress(Space),,,,instrumental,-- -- --- ------ ------- --------- ----------- --------<br>--------- -------- --- ------- -- ------- ---- -- ------<br>-- --- -------- -------- ---------- ---- ---- ---- ------<br>-- --------- -- ---- -- --- -- --- ------- -- - -----<br>---------- -- -- -- ---- ----- -- prison -- --- ------<br>-------,188987.20000004768,188986.5,188591.753,188595.59999990463,188608.424,188991.785,,45,prison
screen,html.Screen,0_4_1_0_1_46,2021-11-19T15:30:38.014Z,,,,,,,,,,,,,,,,48,,,,,,,,,,,,,,426.7149999999965,,response,,,10,F,,,,,Space,keypress(Space),,,,instrumental,-- -- --- ------ ------- --------- ----------- --------<br>--------- -------- --- ------- -- ------- ---- -- ------<br>-- --- -------- -------- ---------- ---- ---- ---- ------<br>-- --------- -- ---- -- --- -- --- ------- -- - -----<br>---------- -- -- -- ---- ----- -- ------ in --- ------<br>-------,189419.29999995232,189418.5,188975.115,188987.40000009537,188991.785,189425.243,,46,in
screen,html.Screen,0_4_1_0_1_47,2021-11-19T15:30:38.486Z,,,,,,,,,,,,,,,,48,,,,,,,,,,,,,,465.1570000953798,,response,,,10,F,,,,,Space,keypress(Space),,,,instrumental,-- -- --- ------ ------- --------- ----------- --------<br>--------- -------- --- ------- -- ------- ---- -- ------<br>-- --- -------- -------- ---------- ---- ---- ---- ------<br>-- --------- -- ---- -- --- -- --- ------- -- - -----<br>---------- -- -- -- ---- ----- -- ------ -- the ------<br>-------,189891.20000004768,189890.40000009537,189408.573,189419.40000009537,189425.243,189892.065,,47,the
screen,html.Screen,0_4_1_0_1_48,2021-11-19T15:30:38.974Z,,,,,,,,,,,,,,,,48,,,,,,,,,,,,,,486.73499995231396,,response,,,10,F,,,,,Space,keypress(Space),,,,instrumental,-- -- --- ------ ------- --------- ----------- --------<br>--------- -------- --- ------- -- ------- ---- -- ------<br>-- --- -------- -------- ---------- ---- ---- ---- ------<br>-- --------- -- ---- -- --- -- --- ------- -- - -----<br>---------- -- -- -- ---- ----- -- ------ -- --- United<br>-------,190379.70000004768,190378.79999995232,189875.394,189891.40000009537,189892.065,190392.283,,48,United
screen,html.Screen,0_4_1_0_1_49,2021-11-19T15:30:39.382Z,,,,,,,,,,,,,,,,48,,,,,,,,,,,,,,394.1170000953716,,response,,,10,F,,,,,Space,keypress(Space),,,,instrumental,-- -- --- ------ ------- --------- ----------- --------<br>--------- -------- --- ------- -- ------- ---- -- ------<br>-- --- -------- -------- ---------- ---- ---- ---- ------<br>-- --------- -- ---- -- --- -- --- ------- -- - -----<br>---------- -- -- -- ---- ----- -- ------ -- --- ------<br>States.,190787.09999990463,190786.40000009537,190375.611,190379.79999995232,190392.283,190792.198,,49,States.
Item 10,flow.Loop,0_4_1_0_1,2021-11-19T15:30:39.382Z,,,,,,,,,,,,,,,,,,,,,,,,,,,,,,21666.463000095362,,completion,,,,,,,,,,,,,,,,190787.5,190786.40000009537,169103.267,169104.70000004768,169119.937,190792.198,,,
Question 1,html.Screen,0_4_1_0_2,2021-11-19T15:30:43.779Z,,,,,,,,,,,,,,,,,,,,,,,,,,,true,TRUE,,4391.50200004768,,response,,,10,F,,,,,TRUE,click #choice-1,,,,instrumental,,195184.90000009537,195183.70000004768,190775.529,190787.70000004768,190792.198,195193.4,,,
Question 2,html.Screen,0_4_1_0_3,2021-11-19T15:30:51.964Z,,,,,,,,,,,,,,,,,,,,,,,,,,,true,TRUE,,8174.399999952322,,response,,,10,F,,,,,TRUE,click #choice-1,,,,instrumental,,203369.09999990463,203367.79999995232,195176.73,195185.20000004768,195193.4,203378.708,,,
Item 10,flow.Sequence,0_4_1_0,2021-11-19T15:30:51.964Z,,,,,,,,,,,,,,,,,,,,,,,,,,,,,,41248.93999995233,,completion,,,,,,,,,,,,,,,,203369.5,203367.79999995232,162102.188,162103.90000009537,162118.86,203378.708,,,
Holding screen,html.Screen,0_4_1_1_0,2021-11-19T15:30:58.960Z,,,,,,,,,,,,,,,,,,,,,,,,,,,,,,7001.8829999999725,,timeout,,,,,,,,,,,,,,,,210365.40000009537,210363.921,203362.039,203370,203378.708,210380.591,,,
screen,html.Screen,0_4_1_1_1_0,2021-11-19T15:30:59.685Z,,,,,,,,,,,,,,,,15,,,,,,,,,,,,,,708.7089999523305,,response,,,7,F,,,,,Space,keypress(Space),,,,instrumental,Greg --------- ---------- - --- ------- -- --- ------------<br>----- -- -------- ------- ---- ------ - -------- ---- -----<br>--- ------- ---- -- --- -------- --- - ----- ------ ---- --<br>-------- --- -------- -------- --- -------- ---- -- ----- -<br>-------- ---- --- ---------- --------- -- ------- ------ -<br>--------- ----- -----,211090.09999990463,211089.29999995232,210363.921,210365.79999995232,210380.591,211097.337,,0,Greg
screen,html.Screen,0_4_1_1_1_1,2021-11-19T15:31:00.173Z,,,,,,,,,,,,,,,,15,,,,,,,,,,,,,,479.8630000476842,,response,,,7,F,,,,,Space,keypress(Space),,,,instrumental,"---- Anderson, ---------- - --- ------- -- --- ------------<br>----- -- -------- ------- ---- ------ - -------- ---- -----<br>--- ------- ---- -- --- -------- --- - ----- ------ ---- --<br>-------- --- -------- -------- --- -------- ---- -- ----- -<br>-------- ---- --- ---------- --------- -- ------- ------ -<br>--------- ----- -----",211578,211577.20000004768,211080.668,211090.40000009537,211097.337,211580.893,,1,"Anderson,"
screen,html.Screen,0_4_1_1_1_2,2021-11-19T15:31:00.693Z,,,,,,,,,,,,,,,,15,,,,,,,,,,,,,,516.4069999523053,,response,,,7,F,,,,,Space,keypress(Space),,,,instrumental,---- --------- considered - --- ------- -- --- ------------<br>----- -- -------- ------- ---- ------ - -------- ---- -----<br>--- ------- ---- -- --- -------- --- - ----- ------ ---- --<br>-------- --- -------- -------- --- -------- ---- -- ----- -<br>-------- ---- --- ---------- --------- -- ------- ------ -<br>--------- ----- -----,212098,212097.29999995232,211564.223,211578.20000004768,211580.893,212114.547,,2,considered
