sender,sender_type,sender_id,timestamp,meta,,Blues,Classical,Country,Dance,Electronic,Folk,Gospel,Hip-Hop,Jazz,Latin,Musical/Film,New-age,Pop,Provo_ID,R&B,Rap,Reggae,Religious,Rock,Soul,Swing,Traditional,age,artist_name,correct,correctResponse,distraction,duration,education,ended_on,familiarity,gender,item,list,music_frequency,offensiveness,pleasantness,preference,response,response_action,snippet_file,song_name,song_rating,sound,text,time_commit,time_end,time_render,time_run,time_show,time_switch,url,word,word_ID
Instructions,html.Page,0_0,2021-12-02T10:09:03.102Z,"{""labjs_version"":""20.2.3"",""labjs_build"":{""flavor"":""production"",""commit"":""7ea907d66ca8aeef8054924ca5d82ffbe11e34e5""},""location"":""https://run.pavlovia.org/mvasilev/lab_music_f/"",""userAgent"":""Mozilla/5.0 (Windows NT 6.1; Win64; x64) AppleWebKit/537.36 (KHTML, like Gecko) Chrome/96.0.4664.45 Safari/537.36"",""platform"":""Win32"",""language"":""en-US"",""locale"":""en-US"",""timeZone"":""Europe/London"",""timezoneOffset"":0,""screen_width"":1920,""screen_height"":1080,""scroll_width"":1920,""scroll_height"":959,""window_innerWidth"":1920,""window_innerHeight"":1007,""devicePixelRatio"":1}",,,,,,,,,,,,,,,,,,,,,,,,,,,,,37452.06800000056,,form submission,,,,,,,,,,,,,,,,49001.40000000037,49000.10000000056,11531.214,11540.100000000559,11548.032,49007.326,{},,
Headphones,html.Page,0_1,2021-12-02T10:09:06.660Z,,,,,,,,,,,,,,,,,,,,,,,,,,,,,,3552.3740000001853,,form submission,,,,,,,,,,,,,,,,52560.200000000186,52559.700000000186,48990.66,49002.10000000056,49007.326,52575.228,,,
Holding screen,html.Screen,0_2_0_0,2021-12-02T10:09:16.670Z,,,,,,,,,,,,,,,,,,,,,,,,,,,,,,10035.627,,timeout,,,,,,,,,,,,,,,,62567.10000000056,62560.848,52558.556,52560.700000000186,52575.228,62610.855,,,
screen,html.Screen,0_2_0_1_0,2021-12-02T10:09:17.525Z,,,,,,,,,,,,,,,,53,,,,,,,,,,,,,,809.3450000001831,,response,,,99,,,,,,Space,keypress(Space),,,,,When -- ----- -- ------ - ------- --- ----------<br>------------- ------ ------ ---- ---- ------- ----- -- ----<br>-------- ------- -- ---------- --- - --- ----- ----- ----<br>---- --- --- ----- --- ---- ---- ------- ----- ---- -------<br>--- --- -- ----- -- --- ---- -- --- ---- -- ------ ------<br>--- ----- -- ----,63421.700000000186,63420.200000000186,62560.848,62567.60000000056,62610.855,63427.998,,0,When
screen,html.Screen,0_2_0_1_1,2021-12-02T10:09:18.044Z,,,,,,,,,,,,,,,,53,,,,,,,,,,,,,,512.2020000001867,,response,,,99,,,,,,Space,keypress(Space),,,,,---- it ----- -- ------ - ------- --- ----------<br>------------- ------ ------ ---- ---- ------- ----- -- ----<br>-------- ------- -- ---------- --- - --- ----- ----- ----<br>---- --- --- ----- --- ---- ---- ------- ----- ---- -------<br>--- --- -- ----- -- --- ---- -- --- ---- -- ------ ------<br>--- ----- -- ----,63941.10000000056,63940.200000000186,63411.327,63422,63427.998,63944.676,,1,it
screen,html.Screen,0_2_0_1_2,2021-12-02T10:09:18.532Z,,,,,,,,,,,,,,,,53,,,,,,,,,,,,,,483.5240000001868,,response,,,99,,,,,,Space,keypress(Space),,,,,---- -- comes -- ------ - ------- --- ----------<br>------------- ------ ------ ---- ---- ------- ----- -- ----<br>-------- ------- -- ---------- --- - --- ----- ----- ----<br>---- --- --- ----- --- ---- ---- ------- ----- ---- -------<br>--- --- -- ----- -- --- ---- -- --- ---- -- ------ ------<br>--- ----- -- ----,64429.10000000056,64428.200000000186,63928.006,63941.299999999814,63944.676,64444.913,,2,comes
screen,html.Screen,0_2_0_1_3,2021-12-02T10:09:19.020Z,,,,,,,,,,,,,,,,53,,,,,,,,,,,,,,471.2870000001858,,response,,,99,,,,,,Space,keypress(Space),,,,,---- -- ----- to ------ - ------- --- ----------<br>------------- ------ ------ ---- ---- ------- ----- -- ----<br>-------- ------- -- ---------- --- - --- ----- ----- ----<br>---- --- --- ----- --- ---- ---- ------- ----- ---- -------<br>--- --- -- ----- -- --- ---- -- --- ---- -- ------ ------<br>--- ----- -- ----,64917.10000000056,64916.200000000186,64428.242,64429.40000000037,64444.913,64928.292,,3,to
screen,html.Screen,0_2_0_1_4,2021-12-02T10:09:19.492Z,,,,,,,,,,,,,,,,53,,,,,,,,,,,,,,459.7079999999987,,response,,,99,,,,,,Space,keypress(Space),,,,,---- -- ----- -- having - ------- --- ----------<br>------------- ------ ------ ---- ---- ------- ----- -- ----<br>-------- ------- -- ---------- --- - --- ----- ----- ----<br>---- --- --- ----- --- ---- ---- ------- ----- ---- -------<br>--- --- -- ----- -- --- ---- -- --- ---- -- ------ ------<br>--- ----- -- ----,65389.200000000186,65388,64911.622,64917.700000000186,64928.292,65395.174,,4,having
screen,html.Screen,0_2_0_1_5,2021-12-02T10:09:19.932Z,,,,,,,,,,,,,,,,53,,,,,,,,,,,,,,432.9260000005597,,response,,,99,,,,,,Space,keypress(Space),,,,,---- -- ----- -- ------ a ------- --- ----------<br>------------- ------ ------ ---- ---- ------- ----- -- ----<br>-------- ------- -- ---------- --- - --- ----- ----- ----<br>---- --- --- ----- --- ---- ---- ------- ----- ---- -------<br>--- --- -- ----- -- --- ---- -- --- ---- -- ------ ------<br>--- ----- -- ----,65829.10000000056,65828.10000000056,65378.503,65389.5,65395.174,65845.222,,5,a
screen,html.Screen,0_2_0_1_6,2021-12-02T10:09:20.396Z,,,,,,,,,,,,,,,,53,,,,,,,,,,,,,,446.8780000005645,,response,,,99,,,,,,Space,keypress(Space),,,,,---- -- ----- -- ------ - lasting --- ----------<br>------------- ------ ------ ---- ---- ------- ----- -- ----<br>-------- ------- -- ---------- --- - --- ----- ----- ----<br>---- --- --- ----- --- ---- ---- ------- ----- ---- -------<br>--- --- -- ----- -- --- ---- -- --- ---- -- ------ ------<br>--- ----- -- ----,66293.10000000056,66292.10000000056,65828.552,65829.60000000056,65845.222,66295.333,,6,lasting
screen,html.Screen,0_2_0_1_7,2021-12-02T10:09:20.836Z,,,,,,,,,,,,,,,,53,,,,,,,,,,,,,,436.6670000000013,,response,,,99,,,,,,Space,keypress(Space),,,,,---- -- ----- -- ------ - ------- and ----------<br>------------- ------ ------ ---- ---- ------- ----- -- ----<br>-------- ------- -- ---------- --- - --- ----- ----- ----<br>---- --- --- ----- --- ---- ---- ------- ----- ---- -------<br>--- --- -- ----- -- --- ---- -- --- ---- -- ------ ------<br>--- ----- -- ----,66733,66732,66278.663,66293.29999999981,66295.333,66745.513,,7,and
screen,html.Screen,0_2_0_1_8,2021-12-02T10:09:21.300Z,,,,,,,,,,,,,,,,53,,,,,,,,,,,,,,450.4869999999937,,response,,,99,,,,,,Space,keypress(Space),,,,,---- -- ----- -- ------ - ------- --- fulfilling<br>------------- ------ ------ ---- ---- ------- ----- -- ----<br>-------- ------- -- ---------- --- - --- ----- ----- ----<br>---- --- --- ----- --- ---- ---- ------- ----- ---- -------<br>--- --- -- ----- -- --- ---- -- --- ---- -- ------ ------<br>--- ----- -- ----,67197.20000000019,67196,66728.842,66733.29999999981,66745.513,67212.241,,8,fulfilling
screen,html.Screen,0_2_0_1_9,2021-12-02T10:09:21.764Z,,,,,,,,,,,,,,,,53,,,,,,,,,,,,,,447.75900000000547,,response,,,99,,,,,,Space,keypress(Space),,,,,"---- -- ----- -- ------ - ------- --- ----------<br>relationship, ------ ------ ---- ---- ------- ----- -- ----<br>-------- ------- -- ---------- --- - --- ----- ----- ----<br>---- --- --- ----- --- ---- ---- ------- ----- ---- -------<br>--- --- -- ----- -- --- ---- -- --- ---- -- ------ ------<br>--- ----- -- ----",67661,67660,67195.571,67197.5,67212.241,67662.336,,9,"relationship,"
screen,html.Screen,0_2_0_1_10,2021-12-02T10:09:22.188Z,,,,,,,,,,,,,,,,53,,,,,,,,,,,,,,421.6640000000043,,response,,,99,,,,,,Space,keypress(Space),,,,,---- -- ----- -- ------ - ------- --- ----------<br>------------- common ------ ---- ---- ------- ----- -- ----<br>-------- ------- -- ---------- --- - --- ----- ----- ----<br>---- --- --- ----- --- ---- ---- ------- ----- ---- -------<br>--- --- -- ----- -- --- ---- -- --- ---- -- ------ ------<br>--- ----- -- ----,68085,68084,67645.666,67661.20000000019,67662.336,68095.855,,10,common
screen,html.Screen,0_2_0_1_11,2021-12-02T10:09:22.636Z,,,,,,,,,,,,,,,,53,,,,,,,,,,,,,,436.0450000003766,,response,,,99,,,,,,Space,keypress(Space),,,,,---- -- ----- -- ------ - ------- --- ----------<br>------------- ------ wisdom ---- ---- ------- ----- -- ----<br>-------- ------- -- ---------- --- - --- ----- ----- ----<br>---- --- --- ----- --- ---- ---- ------- ----- ---- -------<br>--- --- -- ----- -- --- ---- -- --- ---- -- ------ ------<br>--- ----- -- ----,68532.79999999981,68531.90000000037,68079.184,68085.20000000019,68095.855,68545.916,,11,wisdom
screen,html.Screen,0_2_0_1_12,2021-12-02T10:09:23.108Z,,,,,,,,,,,,,,,,53,,,,,,,,,,,,,,458.2840000001888,,response,,,99,,,,,,Space,keypress(Space),,,,,---- -- ----- -- ------ - ------- --- ----------<br>------------- ------ ------ says ---- ------- ----- -- ----<br>-------- ------- -- ---------- --- - --- ----- ----- ----<br>---- --- --- ----- --- ---- ---- ------- ----- ---- -------<br>--- --- -- ----- -- --- ---- -- --- ---- -- ------ ------<br>--- ----- -- ----,69005.10000000056,69004.20000000019,68529.246,68533.10000000056,68545.916,69012.697,,12,says
screen,html.Screen,0_2_0_1_13,2021-12-02T10:09:23.540Z,,,,,,,,,,,,,,,,53,,,,,,,,,,,,,,423.2030000003724,,response,,,99,,,,,,Space,keypress(Space),,,,,---- -- ----- -- ------ - ------- --- ----------<br>------------- ------ ------ ---- that ------- ----- -- ----<br>-------- ------- -- ---------- --- - --- ----- ----- ----<br>---- --- --- ----- --- ---- ---- ------- ----- ---- -------<br>--- --- -- ----- -- --- ---- -- --- ---- -- ------ ------<br>--- ----- -- ----,69436.70000000019,69435.90000000037,68996.027,69005.40000000037,69012.697,69446.196,,13,that
screen,html.Screen,0_2_0_1_14,2021-12-02T10:09:24.028Z,,,,,,,,,,,,,,,,53,,,,,,,,,,,,,,477.60399999981746,,response,,,99,,,,,,Space,keypress(Space),,,,,---- -- ----- -- ------ - ------- --- ----------<br>------------- ------ ------ ---- ---- feeling ----- -- ----<br>-------- ------- -- ---------- --- - --- ----- ----- ----<br>---- --- --- ----- --- ---- ---- ------- ----- ---- -------<br>--- --- -- ----- -- --- ---- -- --- ---- -- ------ ------<br>--- ----- -- ----,69924.60000000056,69923.79999999981,69429.525,69437,69446.196,69929.495,,14,feeling
screen,html.Screen,0_2_0_1_15,2021-12-02T10:09:24.460Z,,,,,,,,,,,,,,,,53,,,,,,,,,,,,,,426.4050000003772,,response,,,99,,,,,,Space,keypress(Space),,,,,---- -- ----- -- ------ - ------- --- ----------<br>------------- ------ ------ ---- ---- ------- close -- ----<br>-------- ------- -- ---------- --- - --- ----- ----- ----<br>---- --- --- ----- --- ---- ---- ------- ----- ---- -------<br>--- --- -- ----- -- --- ---- -- --- ---- -- ------ ------<br>--- ----- -- ----,70356.70000000019,70355.90000000037,69912.826,69924.90000000037,69929.495,70363.163,,15,close
screen,html.Screen,0_2_0_1_16,2021-12-02T10:09:24.892Z,,,,,,,,,,,,,,,,53,,,,,,,,,,,,,,424.63699999981327,,response,,,99,,,,,,Space,keypress(Space),,,,,---- -- ----- -- ------ - ------- --- ----------<br>------------- ------ ------ ---- ---- ------- ----- to ----<br>-------- ------- -- ---------- --- - --- ----- ----- ----<br>---- --- --- ----- --- ---- ---- ------- ----- ---- -------<br>--- --- -- ----- -- --- ---- -- --- ---- -- ------ ------<br>--- ----- -- ----,70788.60000000056,70787.79999999981,70346.491,70357,70363.163,70796.506,,16,to
screen,html.Screen,0_2_0_1_17,2021-12-02T10:09:25.315Z,,,,,,,,,,,,,,,,53,,,,,,,,,,,,,,415.2939999998198,,response,,,99,,,,,,Space,keypress(Space),,,,,---- -- ----- -- ------ - ------- --- ----------<br>------------- ------ ------ ---- ---- ------- ----- -- your<br>-------- ------- -- ---------- --- - --- ----- ----- ----<br>---- --- --- ----- --- ---- ---- ------- ----- ---- -------<br>--- --- -- ----- -- --- ---- -- --- ---- -- ------ ------<br>--- ----- -- ----,71212.5,71211.79999999981,70779.836,70788.90000000037,70796.506,71229.953,,17,your
screen,html.Screen,0_2_0_1_18,2021-12-02T10:09:25.756Z,,,,,,,,,,,,,,,,53,,,,,,,,,,,,,,421.7470000001922,,response,,,99,,,,,,Space,keypress(Space),,,,,---- -- ----- -- ------ - ------- --- ----------<br>------------- ------ ------ ---- ---- ------- ----- -- ----<br>romantic ------- -- ---------- --- - --- ----- ----- ----<br>---- --- --- ----- --- ---- ---- ------- ----- ---- -------<br>--- --- -- ----- -- --- ---- -- --- ---- -- ------ ------<br>--- ----- -- ----,71652.60000000056,71651.70000000019,71213.283,71212.79999999981,71229.953,71663.401,,18,romantic
screen,html.Screen,0_2_0_1_19,2021-12-02T10:09:26.228Z,,,,,,,,,,,,,,,,53,,,,,,,,,,,,,,460.3989999998157,,response,,,99,,,,,,Space,keypress(Space),,,,,---- -- ----- -- ------ - ------- --- ----------<br>------------- ------ ------ ---- ---- ------- ----- -- ----<br>-------- partner -- ---------- --- - --- ----- ----- ----<br>---- --- --- ----- --- ---- ---- ------- ----- ---- -------<br>--- --- -- ----- -- --- ---- -- --- ---- -- ------ ------<br>--- ----- -- ----,72124.60000000056,72123.79999999981,71646.731,71652.79999999981,71663.401,72130.174,,19,partner
screen,html.Screen,0_2_0_1_20,2021-12-02T10:09:26.659Z,,,,,,,,,,,,,,,,53,,,,,,,,,,,,,,425.5260000001872,,response,,,99,,,,,,Space,keypress(Space),,,,,---- -- ----- -- ------ - ------- --- ----------<br>------------- ------ ------ ---- ---- ------- ----- -- ----<br>-------- ------- is ---------- --- - --- ----- ----- ----<br>---- --- --- ----- --- ---- ---- ------- ----- ---- -------<br>--- --- -- ----- -- --- ---- -- --- ---- -- ------ ------<br>--- ----- -- ----,72556.5,72555.70000000019,72113.504,72124.90000000037,72130.174,72563.523,,20,is
screen,html.Screen,0_2_0_1_21,2021-12-02T10:09:27.123Z,,,,,,,,,,,,,,,,53,,,,,,,,,,,,,,456.07700000055775,,response,,,99,,,,,,Space,keypress(Space),,,,,---- -- ----- -- ------ - ------- --- ----------<br>------------- ------ ------ ---- ---- ------- ----- -- ----<br>-------- ------- -- paramount. --- - --- ----- ----- ----<br>---- --- --- ----- --- ---- ---- ------- ----- ---- -------<br>--- --- -- ----- -- --- ---- -- --- ---- -- ------ ------<br>--- ----- -- ----,73020.5,73019.60000000056,72546.854,72556.79999999981,72563.523,73030.505,,21,paramount.
screen,html.Screen,0_2_0_1_22,2021-12-02T10:09:27.579Z,,,,,,,,,,,,,,,,53,,,,,,,,,,,,,,445.1950000001816,,response,,,99,,,,,,Space,keypress(Space),,,,,---- -- ----- -- ------ - ------- --- ----------<br>------------- ------ ------ ---- ---- ------- ----- -- ----<br>-------- ------- -- ---------- But - --- ----- ----- ----<br>---- --- --- ----- --- ---- ---- ------- ----- ---- -------<br>--- --- -- ----- -- --- ---- -- --- ---- -- ------ ------<br>--- ----- -- ----,73476.40000000037,73475.70000000019,73013.833,73020.90000000037,73030.505,73480.528,,22,But
screen,html.Screen,0_2_0_1_23,2021-12-02T10:09:28.011Z,,,,,,,,,,,,,,,,53,,,,,,,,,,,,,,427.0720000005531,,response,,,99,,,,,,Space,keypress(Space),,,,,---- -- ----- -- ------ - ------- --- ----------<br>------------- ------ ------ ---- ---- ------- ----- -- ----<br>-------- ------- -- ---------- --- a --- ----- ----- ----<br>---- --- --- ----- --- ---- ---- ------- ----- ---- -------<br>--- --- -- ----- -- --- ---- -- --- ---- -- ------ ------<br>--- ----- -- ----,73908.40000000037,73907.60000000056,73463.858,73476.70000000019,73480.528,73913.973,,23,a
screen,html.Screen,0_2_0_1_24,2021-12-02T10:09:28.451Z,,,,,,,,,,,,,,,,53,,,,,,,,,,,,,,433.7270000001881,,response,,,99,,,,,,Space,keypress(Space),,,,,---- -- ----- -- ------ - ------- --- ----------<br>------------- ------ ------ ---- ---- ------- ----- -- ----<br>-------- ------- -- ---------- --- - new ----- ----- ----<br>---- --- --- ----- --- ---- ---- ------- ----- ---- -------<br>--- --- -- ----- -- --- ---- -- --- ---- -- ------ ------<br>--- ----- -- ----,74348.40000000037,74347.70000000019,73897.303,73908.70000000019,73913.973,74364.092,,24,new
screen,html.Screen,0_2_0_1_25,2021-12-02T10:09:28.883Z,,,,,,,,,,,,,,,,53,,,,,,,,,,,,,,415.5080000005546,,response,,,99,,,,,,Space,keypress(Space),,,,,---- -- ----- -- ------ - ------- --- ----------<br>------------- ------ ------ ---- ---- ------- ----- -- ----<br>-------- ------- -- ---------- --- - --- study ----- ----<br>---- --- --- ----- --- ---- ---- ------- ----- ---- -------<br>--- --- -- ----- -- --- ---- -- --- ---- -- ------ ------<br>--- ----- -- ----,74780.29999999981,74779.60000000056,74347.422,74348.60000000056,74364.092,74797.538,,25,study
screen,html.Screen,0_2_0_1_26,2021-12-02T10:09:29.331Z,,,,,,,,,,,,,,,,53,,,,,,,,,,,,,,430.0620000005583,,response,,,99,,,,,,Space,keypress(Space),,,,,---- -- ----- -- ------ - ------- --- ----------<br>------------- ------ ------ ---- ---- ------- ----- -- ----<br>-------- ------- -- ---------- --- - --- ----- finds ----<br>---- --- --- ----- --- ---- ---- ------- ----- ---- -------<br>--- --- -- ----- -- --- ---- -- --- ---- -- ------ ------<br>--- ----- -- ----,75228.29999999981,75227.60000000056,74780.868,74780.60000000056,74797.538,75230.987,,26,finds
screen,html.Screen,0_2_0_1_27,2021-12-02T10:09:29.755Z,,,,,,,,,,,,,,,,53,,,,,,,,,,,,,,420.6130000005651,,response,,,99,,,,,,Space,keypress(Space),,,,,---- -- ----- -- ------ - ------- --- ----------<br>------------- ------ ------ ---- ---- ------- ----- -- ----<br>-------- ------- -- ---------- --- - --- ----- ----- that<br>---- --- --- ----- --- ---- ---- ------- ----- ---- -------<br>--- --- -- ----- -- --- ---- -- --- ---- -- ------ ------<br>--- ----- -- ----,75652.29999999981,75651.60000000056,75214.317,75228.60000000056,75230.987,75664.405,,27,that
screen,html.Screen,0_2_0_1_28,2021-12-02T10:09:30.203Z,,,,,,,,,,,,,,,,53,,,,,,,,,,,,,,435.19500000055996,,response,,,99,,,,,,Space,keypress(Space),,,,,---- -- ----- -- ------ - ------- --- ----------<br>------------- ------ ------ ---- ---- ------- ----- -- ----<br>-------- ------- -- ---------- --- - --- ----- ----- ----<br>it's --- --- ----- --- ---- ---- ------- ----- ---- -------<br>--- --- -- ----- -- --- ---- -- --- ---- -- ------ ------<br>--- ----- -- ----,76100.40000000037,76099.60000000056,75647.735,75652.5,75664.405,76114.578,,28,it's
screen,html.Screen,0_2_0_1_29,2021-12-02T10:09:30.683Z,,,,,,,,,,,,,,,,53,,,,,,,,,,,,,,465.02200000056473,,response,,,99,,,,,,Space,keypress(Space),,,,,---- -- ----- -- ------ - ------- --- ----------<br>------------- ------ ------ ---- ---- ------- ----- -- ----<br>-------- ------- -- ---------- --- - --- ----- ----- ----<br>---- not --- ----- --- ---- ---- ------- ----- ---- -------<br>--- --- -- ----- -- --- ---- -- --- ---- -- ------ ------<br>--- ----- -- ----,76580.40000000037,76579.60000000056,76097.907,76100.60000000056,76114.578,76597.895,,29,not
screen,html.Screen,0_2_0_1_30,2021-12-02T10:09:32.171Z,,,,,,,,,,,,,,,,53,,,,,,,,,,,,,,1469.5050000003685,,response,,,99,,,,,,Space,keypress(Space),,,,,---- -- ----- -- ------ - ------- --- ----------<br>------------- ------ ------ ---- ---- ------- ----- -- ----<br>-------- ------- -- ---------- --- - --- ----- ----- ----<br>---- --- how ----- --- ---- ---- ------- ----- ---- -------<br>--- --- -- ----- -- --- ---- -- --- ---- -- ------ ------<br>--- ----- -- ----,78068.29999999981,78067.40000000037,76581.226,76580.60000000056,76597.895,78081.621,,30,how
screen,html.Screen,0_2_0_1_31,2021-12-02T10:09:32.715Z,,,,,,,,,,,,,,,,53,,,,,,,,,,,,,,529.7790000003733,,response,,,99,,,,,,Space,keypress(Space),,,,,---- -- ----- -- ------ - ------- --- ----------<br>------------- ------ ------ ---- ---- ------- ----- -- ----<br>-------- ------- -- ---------- --- - --- ----- ----- ----<br>---- --- --- close --- ---- ---- ------- ----- ---- -------<br>--- --- -- ----- -- --- ---- -- --- ---- -- ------ ------<br>--- ----- -- ----,78612.10000000056,78611.40000000037,78064.951,78068.5,78081.621,78615.298,,31,close
screen,html.Screen,0_2_0_1_32,2021-12-02T10:09:33.140Z,,,,,,,,,,,,,,,,53,,,,,,,,,,,,,,420.5019999998185,,response,,,99,,,,,,Space,keypress(Space),,,,,---- -- ----- -- ------ - ------- --- ----------<br>------------- ------ ------ ---- ---- ------- ----- -- ----<br>-------- ------- -- ---------- --- - --- ----- ----- ----<br>---- --- --- ----- you ---- ---- ------- ----- ---- -------<br>--- --- -- ----- -- --- ---- -- --- ---- -- ------ ------<br>--- ----- -- ----,79036.79999999981,79035.79999999981,78598.626,78612.60000000056,78615.298,79048.625,,32,you
screen,html.Screen,0_2_0_1_33,2021-12-02T10:09:33.587Z,,,,,,,,,,,,,,,,53,,,,,,,,,,,,,,434.67499999981374,,response,,,99,,,,,,Space,keypress(Space),,,,,---- -- ----- -- ------ - ------- --- ----------<br>------------- ------ ------ ---- ---- ------- ----- -- ----<br>-------- ------- -- ---------- --- - --- ----- ----- ----<br>---- --- --- ----- --- feel ---- ------- ----- ---- -------<br>--- --- -- ----- -- --- ---- -- --- ---- -- ------ ------<br>--- ----- -- ----,79484.10000000056,79483.29999999981,79031.955,79037,79048.625,79498.782,,33,feel
screen,html.Screen,0_2_0_1_34,2021-12-02T10:09:33.955Z,,,,,,,,,,,,,,,,53,,,,,,,,,,,,,,352.5179999998072,,response,,,99,,,,,,Space,keypress(Space),,,,,---- -- ----- -- ------ - ------- --- ----------<br>------------- ------ ------ ---- ---- ------- ----- -- ----<br>-------- ------- -- ---------- --- - --- ----- ----- ----<br>---- --- --- ----- --- ---- that ------- ----- ---- -------<br>--- --- -- ----- -- --- ---- -- --- ---- -- ------ ------<br>--- ----- -- ----,79852.10000000056,79851.29999999981,79482.111,79484.29999999981,79498.782,79865.503,,34,that
screen,html.Screen,0_2_0_1_35,2021-12-02T10:09:34.363Z,,,,,,,,,,,,,,,,53,,,,,,,,,,,,,,393.79699999981676,,response,,,99,,,,,,Space,keypress(Space),,,,,---- -- ----- -- ------ - ------- --- ----------<br>------------- ------ ------ ---- ---- ------- ----- -- ----<br>-------- ------- -- ---------- --- - --- ----- ----- ----<br>---- --- --- ----- --- ---- ---- matters ----- ---- -------<br>--- --- -- ----- -- --- ---- -- --- ---- -- ------ ------<br>--- ----- -- ----,80260.10000000056,80259.29999999981,79848.833,79852.40000000037,79865.503,80265.612,,35,matters
screen,html.Screen,0_2_0_1_36,2021-12-02T10:09:34.755Z,,,,,,,,,,,,,,,,53,,,,,,,,,,,,,,385.68799999982,,response,,,99,,,,,,Space,keypress(Space),,,,,"---- -- ----- -- ------ - ------- --- ----------<br>------------- ------ ------ ---- ---- ------- ----- -- ----<br>-------- ------- -- ---------- --- - --- ----- ----- ----<br>---- --- --- ----- --- ---- ---- ------- most, ---- -------<br>--- --- -- ----- -- --- ---- -- --- ---- -- ------ ------<br>--- ----- -- ----",80652.5,80651.29999999981,80248.942,80260.40000000037,80265.612,80665.7,,36,"most,"
screen,html.Screen,0_2_0_1_37,2021-12-02T10:09:35.179Z,,,,,,,,,,,,,,,,53,,,,,,,,,,,,,,409.5000000001892,,response,,,99,,,,,,Space,keypress(Space),,,,,---- -- ----- -- ------ - ------- --- ----------<br>------------- ------ ------ ---- ---- ------- ----- -- ----<br>-------- ------- -- ---------- --- - --- ----- ----- ----<br>---- --- --- ----- --- ---- ---- ------- ----- it's -------<br>--- --- -- ----- -- --- ---- -- --- ---- -- ------ ------<br>--- ----- -- ----,81076,81075.20000000019,80649.03,80652.70000000019,80665.7,81082.479,,37,it's
screen,html.Screen,0_2_0_1_38,2021-12-02T10:09:35.611Z,,,,,,,,,,,,,,,,53,,,,,,,,,,,,,,424.72100000017963,,response,,,99,,,,,,Space,keypress(Space),,,,,---- -- ----- -- ------ - ------- --- ----------<br>------------- ------ ------ ---- ---- ------- ----- -- ----<br>-------- ------- -- ---------- --- - --- ----- ----- ----<br>---- --- --- ----- --- ---- ---- ------- ----- ---- whether<br>--- --- -- ----- -- --- ---- -- --- ---- -- ------ ------<br>--- ----- -- ----,81508,81507.20000000019,81065.809,81076.29999999981,81082.479,81515.961,,38,whether
screen,html.Screen,0_2_0_1_39,2021-12-02T10:09:36.019Z,,,,,,,,,,,,,,,,53,,,,,,,,,,,,,,399.2390000001906,,response,,,99,,,,,,Space,keypress(Space),,,,,---- -- ----- -- ------ - ------- --- ----------<br>------------- ------ ------ ---- ---- ------- ----- -- ----<br>-------- ------- -- ---------- --- - --- ----- ----- ----<br>---- --- --- ----- --- ---- ---- ------- ----- ---- -------<br>you --- -- ----- -- --- ---- -- --- ---- -- ------ ------<br>--- ----- -- ----,81916,81915.20000000019,81499.29,81508.20000000019,81515.961,81932.7,,39,you
screen,html.Screen,0_2_0_1_40,2021-12-02T10:09:36.443Z,,,,,,,,,,,,,,,,53,,,,,,,,,,,,,,406.5000000001892,,response,,,99,,,,,,Space,keypress(Space),,,,,---- -- ----- -- ------ - ------- --- ----------<br>------------- ------ ------ ---- ---- ------- ----- -- ----<br>-------- ------- -- ---------- --- - --- ----- ----- ----<br>---- --- --- ----- --- ---- ---- ------- ----- ---- -------<br>--- are -- ----- -- --- ---- -- --- ---- -- ------ ------<br>--- ----- -- ----,82340,82339.20000000019,81916.03,81916.29999999981,81932.7,82349.473,,40,are
screen,html.Screen,0_2_0_1_41,2021-12-02T10:09:36.835Z,,,,,,,,,,,,,,,,53,,,,,,,,,,,,,,381.7270000001881,,response,,,99,,,,,,Space,keypress(Space),,,,,---- -- ----- -- ------ - ------- --- ----------<br>------------- ------ ------ ---- ---- ------- ----- -- ----<br>-------- ------- -- ---------- --- - --- ----- ----- ----<br>---- --- --- ----- --- ---- ---- ------- ----- ---- -------<br>--- --- as ----- -- --- ---- -- --- ---- -- ------ ------<br>--- ----- -- ----,82732,82731.20000000019,82332.803,82340.20000000019,82349.473,82749.616,,41,as
screen,html.Screen,0_2_0_1_42,2021-12-02T10:09:37.267Z,,,,,,,,,,,,,,,,53,,,,,,,,,,,,,,413.48400000056427,,response,,,99,,,,,,Space,keypress(Space),,,,,---- -- ----- -- ------ - ------- --- ----------<br>------------- ------ ------ ---- ---- ------- ----- -- ----<br>-------- ------- -- ---------- --- - --- ----- ----- ----<br>---- --- --- ----- --- ---- ---- ------- ----- ---- -------<br>--- --- -- close -- --- ---- -- --- ---- -- ------ ------<br>--- ----- -- ----,83163.90000000037,83163.10000000056,82732.945,82732.20000000019,82749.616,83166.333,,42,close
screen,html.Screen,0_2_0_1_43,2021-12-02T10:09:37.659Z,,,,,,,,,,,,,,,,53,,,,,,,,,,,,,,388.7670000005601,,response,,,99,,,,,,Space,keypress(Space),,,,,---- -- ----- -- ------ - ------- --- ----------<br>------------- ------ ------ ---- ---- ------- ----- -- ----<br>-------- ------- -- ---------- --- - --- ----- ----- ----<br>---- --- --- ----- --- ---- ---- ------- ----- ---- -------<br>--- --- -- ----- as --- ---- -- --- ---- -- ------ ------<br>--- ----- -- ----,83555.90000000037,83555.10000000056,83149.663,83164.20000000019,83166.333,83566.454,,43,as
screen,html.Screen,0_2_0_1_44,2021-12-02T10:09:38.083Z,,,,,,,,,,,,,,,,53,,,,,,,,,,,,,,412.6460000005609,,response,,,99,,,,,,Space,keypress(Space),,,,,---- -- ----- -- ------ - ------- --- ----------<br>------------- ------ ------ ---- ---- ------- ----- -- ----<br>-------- ------- -- ---------- --- - --- ----- ----- ----<br>---- --- --- ----- --- ---- ---- ------- ----- ---- -------<br>--- --- -- ----- -- you ---- -- --- ---- -- ------ ------<br>--- ----- -- ----,83979.90000000037,83979.10000000056,83549.784,83556.20000000019,83566.454,83983.226,,44,you
screen,html.Screen,0_2_0_1_45,2021-12-02T10:09:38.507Z,,,,,,,,,,,,,,,,53,,,,,,,,,,,,,,419.8740000005637,,response,,,99,,,,,,Space,keypress(Space),,,,,---- -- ----- -- ------ - ------- --- ----------<br>------------- ------ ------ ---- ---- ------- ----- -- ----<br>-------- ------- -- ---------- --- - --- ----- ----- ----<br>---- --- --- ----- --- ---- ---- ------- ----- ---- -------<br>--- --- -- ----- -- --- want -- --- ---- -- ------ ------<br>--- ----- -- ----,84403.79999999981,84403.10000000056,83966.556,83980.10000000056,83983.226,84416.587,,45,want
screen,html.Screen,0_2_0_1_46,2021-12-02T10:09:38.939Z,,,,,,,,,,,,,,,,53,,,,,,,,,,,,,,418.41300000000047,,response,,,99,,,,,,Space,keypress(Space),,,,,---- -- ----- -- ------ - ------- --- ----------<br>------------- ------ ------ ---- ---- ------- ----- -- ----<br>-------- ------- -- ---------- --- - --- ----- ----- ----<br>---- --- --- ----- --- ---- ---- ------- ----- ---- -------<br>--- --- -- ----- -- --- ---- to --- ---- -- ------ ------<br>--- ----- -- ----,84835.79999999981,84835,84399.918,84404.10000000056,84416.587,84850.209,,46,to
screen,html.Screen,0_2_0_1_47,2021-12-02T10:09:39.379Z,,,,,,,,,,,,,,,,53,,,,,,,,,,,,,,424.89100000055623,,response,,,99,,,,,,Space,keypress(Space),,,,,"---- -- ----- -- ------ - ------- --- ----------<br>------------- ------ ------ ---- ---- ------- ----- -- ----<br>-------- ------- -- ---------- --- - --- ----- ----- ----<br>---- --- --- ----- --- ---- ---- ------- ----- ---- -------<br>--- --- -- ----- -- --- ---- -- be, ---- -- ------ ------<br>--- ----- -- ----",85275.79999999981,85275.10000000056,84833.537,84836.10000000056,84850.209,85283.569,,47,"be,"
screen,html.Screen,0_2_0_1_48,2021-12-02T10:09:39.771Z,,,,,,,,,,,,,,,,53,,,,,,,,,,,,,,383.53100000055565,,response,,,99,,,,,,Space,keypress(Space),,,,,---- -- ----- -- ------ - ------- --- ----------<br>------------- ------ ------ ---- ---- ------- ----- -- ----<br>-------- ------- -- ---------- --- - --- ----- ----- ----<br>---- --- --- ----- --- ---- ---- ------- ----- ---- -------<br>--- --- -- ----- -- --- ---- -- --- even -- ------ ------<br>--- ----- -- ----,85667.70000000019,85667.10000000056,85266.899,85276,85283.569,85683.66,,48,even
screen,html.Screen,0_2_0_1_49,2021-12-02T10:09:40.163Z,,,,,,,,,,,,,,,,53,,,,,,,,,,,,,,375.3399999999965,,response,,,99,,,,,,Space,keypress(Space),,,,,---- -- ----- -- ------ - ------- --- ----------<br>------------- ------ ------ ---- ---- ------- ----- -- ----<br>-------- ------- -- ---------- --- - --- ----- ----- ----<br>---- --- --- ----- --- ---- ---- ------- ----- ---- -------<br>--- --- -- ----- -- --- ---- -- --- ---- if ------ ------<br>--- ----- -- ----,86059.79999999981,86059,85666.99,85668,85683.66,86067.151,,49,if
screen,html.Screen,0_2_0_1_50,2021-12-02T10:09:40.587Z,,,,,,,,,,,,,,,,53,,,,,,,,,,,,,,415.849000000002,,response,,,99,,,,,,Space,keypress(Space),,,,,---- -- ----- -- ------ - ------- --- ----------<br>------------- ------ ------ ---- ---- ------- ----- -- ----<br>-------- ------- -- ---------- --- - --- ----- ----- ----<br>---- --- --- ----- --- ---- ---- ------- ----- ---- -------<br>--- --- -- ----- -- --- ---- -- --- ---- -- that's ------<br>--- ----- -- ----,86483.70000000019,86483,86050.48,86060,86067.151,86500.542,,50,that's
screen,html.Screen,0_2_0_1_51,2021-12-02T10:09:41.003Z,,,,,,,,,,,,,,,,53,,,,,,,,,,,,,,398.25799999981245,,response,,,99,,,,,,Space,keypress(Space),,,,,---- -- ----- -- ------ - ------- --- ----------<br>------------- ------ ------ ---- ---- ------- ----- -- ----<br>-------- ------- -- ---------- --- - --- ----- ----- ----<br>---- --- --- ----- --- ---- ---- ------- ----- ---- -------<br>--- --- -- ----- -- --- ---- -- --- ---- -- ------ really<br>--- ----- -- ----,86899.60000000056,86898.79999999981,86483.872,86484.10000000056,86500.542,86900.643,,51,really
screen,html.Screen,0_2_0_1_52,2021-12-02T10:09:41.419Z,,,,,,,,,,,,,,,,53,,,,,,,,,,,,,,414.25700000037614,,response,,,99,,,,,,Space,keypress(Space),,,,,---- -- ----- -- ------ - ------- --- ----------<br>------------- ------ ------ ---- ---- ------- ----- -- ----<br>-------- ------- -- ---------- --- - --- ----- ----- ----<br>---- --- --- ----- --- ---- ---- ------- ----- ---- -------<br>--- --- -- ----- -- --- ---- -- --- ---- -- ------ ------<br>not ----- -- ----,87315.70000000019,87314.90000000037,86883.973,86899.90000000037,86900.643,87317.411,,52,not
screen,html.Screen,0_2_0_1_53,2021-12-02T10:09:41.851Z,,,,,,,,,,,,,,,,53,,,,,,,,,,,,,,429.48900000037975,,response,,,99,,,,,,Space,keypress(Space),,,,,---- -- ----- -- ------ - ------- --- ----------<br>------------- ------ ------ ---- ---- ------- ----- -- ----<br>-------- ------- -- ---------- --- - --- ----- ----- ----<br>---- --- --- ----- --- ---- ---- ------- ----- ---- -------<br>--- --- -- ----- -- --- ---- -- --- ---- -- ------ ------<br>--- close -- ----,87747.70000000019,87746.90000000037,87300.741,87316,87317.411,87750.901,,53,close
screen,html.Screen,0_2_0_1_54,2021-12-02T10:09:42.235Z,,,,,,,,,,,,,,,,53,,,,,,,,,,,,,,379.9990000003745,,response,,,99,,,,,,Space,keypress(Space),,,,,---- -- ----- -- ------ - ------- --- ----------<br>------------- ------ ------ ---- ---- ------- ----- -- ----<br>-------- ------- -- ---------- --- - --- ----- ----- ----<br>---- --- --- ----- --- ---- ---- ------- ----- ---- -------<br>--- --- -- ----- -- --- ---- -- --- ---- -- ------ ------<br>--- ----- at ----,88131.79999999981,88130.90000000037,87734.23,87747.90000000037,87750.901,88134.303,,54,at
screen,html.Screen,0_2_0_1_55,2021-12-02T10:09:42.771Z,,,,,,,,,,,,,,,,53,,,,,,,,,,,,,,532.4969999998139,,response,,,99,,,,,,Space,keypress(Space),,,,,---- -- ----- -- ------ - ------- --- ----------<br>------------- ------ ------ ---- ---- ------- ----- -- ----<br>-------- ------- -- ---------- --- - --- ----- ----- ----<br>---- --- --- ----- --- ---- ---- ------- ----- ---- -------<br>--- --- -- ----- -- --- ---- -- --- ---- -- ------ ------<br>--- ----- -- all.,88667.60000000056,88666.79999999981,88117.633,88132,88134.303,88684.423,,55,all.
Item 99,flow.Loop,0_2_0_1,2021-12-02T10:09:42.775Z,,,,,,,,,,,,,,,,,,,,,,,,,,,,,,26055.94499999981,,completion,,,,F,,,,,,,,,,silence,,88672.29999999981,88666.79999999981,62560.848,62567.5,62610.855,88684.423,,,
Question 1,html.Screen,0_2_0_2,2021-12-02T10:09:48.123Z,,,,,,,,,,,,,,,,,,,,,,,,,,,false,FALSE,,5333.977000000377,,response,,,99,F,,,,,TRUE,click #choice-1,,,,silence,,94019.79999999981,94018.40000000037,88667.753,88672.5,88684.423,94035.825,,,
Question 2,html.Screen,0_2_0_3,2021-12-02T10:09:48.288Z,,,,,,,,,,,,,,,,,,,,,,,,,,,true,TRUE,,147.57500000037544,,response,,,99,F,,,,,TRUE,click #choice-1,,,,silence,,94184.60000000056,94183.40000000037,94019.155,94020.10000000056,94035.825,94185.644,,,
Item 99,flow.Sequence,0_2_0,2021-12-02T10:09:48.288Z,,,,,,,,,,,,,,,,,,,,,,,,,,,,,,41608.17200000037,,completion,,,,,,,,,,,,,,,,94185,94183.40000000037,52558.556,52560.60000000056,52575.228,94185.644,,,
Holding screen,html.Screen,0_2_1_0,2021-12-02T10:09:58.276Z,,,,,,,,,,,,,,,,,,,,,,,,,,,,,,10002.688999999998,,timeout,,,,,,,,,,,,,,,,104172.79999999981,104171.663,94168.98,94185.29999999981,94185.644,104188.333,,,
screen,html.Screen,0_2_1_1_0,2021-12-02T10:09:59.898Z,,,,,,,,,,,,,,,,54,,,,,,,,,,,,,,1605.966999999815,,response,,,100,,,,,,Space,keypress(Space),,,,,At --- ---- --- ------ ----- ------- ---- -- --- ------- --<br>------- ---------- ------ -- ----- -- ----- -- ---- ------<br>--- ----- --- --- ------ -------- ----- --- ------ ----- --<br>----- ----- ---------- --- --- ------ ------ ---- -- ------<br>------- --- ------ ----- --- ---- ------- -- ---- --- --<br>------- ------,105795.20000000019,105794.29999999981,104171.663,104173.29999999981,104188.333,105805.589,,0,At
screen,html.Screen,0_2_1_1_1,2021-12-02T10:10:00.378Z,,,,,,,,,,,,,,,,54,,,,,,,,,,,,,,468.3110000003653,,response,,,100,,,,,,Space,keypress(Space),,,,,-- the ---- --- ------ ----- ------- ---- -- --- ------- --<br>------- ---------- ------ -- ----- -- ----- -- ---- ------<br>--- ----- --- --- ------ -------- ----- --- ------ ----- --<br>----- ----- ---------- --- --- ------ ------ ---- -- ------<br>------- --- ------ ----- --- ---- ------- -- ---- --- --<br>------- ------,106274.70000000019,106273.90000000037,105788.918,105795.40000000037,105805.589,106288.8,,1,the
screen,html.Screen,0_2_1_1_2,2021-12-02T10:10:00.802Z,,,,,,,,,,,,,,,,54,,,,,,,,,,,,,,409.1000000003696,,response,,,100,,,,,,Space,keypress(Space),,,,,-- --- time --- ------ ----- ------- ---- -- --- ------- --<br>------- ---------- ------ -- ----- -- ----- -- ---- ------<br>--- ----- --- --- ------ -------- ----- --- ------ ----- --<br>----- ----- ---------- --- --- ------ ------ ---- -- ------<br>------- --- ------ ----- --- ---- ------- -- ---- --- --<br>------- ------,106698.60000000056,106697.90000000037,106272.131,106274.90000000037,106288.8,106705.69,,2,time
screen,html.Screen,0_2_1_1_3,2021-12-02T10:10:01.226Z,,,,,,,,,,,,,,,,54,,,,,,,,,,,,,,416.1099999998114,,response,,,100,,,,,,Space,keypress(Space),,,,,-- --- ---- the ------ ----- ------- ---- -- --- ------- --<br>------- ---------- ------ -- ----- -- ----- -- ---- ------<br>--- ----- --- --- ------ -------- ----- --- ------ ----- --<br>----- ----- ---------- --- --- ------ ------ ---- -- ------<br>------- --- ------ ----- --- ---- ------- -- ---- --- --<br>------- ------,107122.60000000056,107121.79999999981,106689.02,106698.90000000037,106705.69,107139.322,,3,the
screen,html.Screen,0_2_1_1_4,2021-12-02T10:10:01.644Z,,,,,,,,,,,,,,,,54,,,,,,,,,,,,,,398.4779999998136,,response,,,100,,,,,,Space,keypress(Space),,,,,-- --- ---- --- French ----- ------- ---- -- --- ------- --<br>------- ---------- ------ -- ----- -- ----- -- ---- ------<br>--- ----- --- --- ------ -------- ----- --- ------ ----- --<br>----- ----- ---------- --- --- ------ ------ ---- -- ------<br>------- --- ------ ----- --- ---- ------- -- ---- --- --<br>------- ------,107540.79999999981,107537.79999999981,107122.649,107122.90000000037,107139.322,107555.852,,4,French
screen,html.Screen,0_2_1_1_5,2021-12-02T10:10:02.041Z,,,,,,,,,,,,,,,,54,,,,,,,,,,,,,,381.9479999998148,,response,,,100,,,,,,Space,keypress(Space),,,,,-- --- ---- --- ------ crown ------- ---- -- --- ------- --<br>------- ---------- ------ -- ----- -- ----- -- ---- ------<br>--- ----- --- --- ------ -------- ----- --- ------ ----- --<br>----- ----- ---------- --- --- ------ ------ ---- -- ------<br>------- --- ------ ----- --- ---- ------- -- ---- --- --<br>------- ------,107938.5,107937.79999999981,107539.183,107541,107555.852,107956.156,,5,crown
screen,html.Screen,0_2_1_1_6,2021-12-02T10:10:02.449Z,,,,,,,,,,,,,,,,54,,,,,,,,,,,,,,389.5440000001836,,response,,,100,,,,,,Space,keypress(Space),,,,,-- --- ---- --- ------ ----- secured ---- -- --- ------- --<br>------- ---------- ------ -- ----- -- ----- -- ---- ------<br>--- ----- --- --- ------ -------- ----- --- ------ ----- --<br>----- ----- ---------- --- --- ------ ------ ---- -- ------<br>------- --- ------ ----- --- ---- ------- -- ---- --- --<br>------- ------,108346.5,108345.70000000019,107939.484,107938.79999999981,107956.156,108356.208,,6,secured
screen,html.Screen,0_2_1_1_7,2021-12-02T10:10:02.833Z,,,,,,,,,,,,,,,,54,,,,,,,,,,,,,,373.49200000018755,,response,,,100,,,,,,Space,keypress(Space),,,,,-- --- ---- --- ------ ----- ------- much -- --- ------- --<br>------- ---------- ------ -- ----- -- ----- -- ---- ------<br>--- ----- --- --- ------ -------- ----- --- ------ ----- --<br>----- ----- ---------- --- --- ------ ------ ---- -- ------<br>------- --- ------ ----- --- ---- ------- -- ---- --- --<br>------- ------,108730.40000000037,108729.70000000019,108339.537,108346.79999999981,108356.208,108739.458,,7,much
screen,html.Screen,0_2_1_1_8,2021-12-02T10:10:03.241Z,,,,,,,,,,,,,,,,54,,,,,,,,,,,,,,398.24200000018755,,response,,,100,,,,,,Space,keypress(Space),,,,,-- --- ---- --- ------ ----- ------- ---- of --- ------- --<br>------- ---------- ------ -- ----- -- ----- -- ---- ------<br>--- ----- --- --- ------ -------- ----- --- ------ ----- --<br>----- ----- ---------- --- --- ------ ------ ---- -- ------<br>------- --- ------ ----- --- ---- ------- -- ---- --- --<br>------- ------,109138.40000000037,109137.70000000019,108722.79,108730.70000000019,108739.458,109139.794,,8,of
screen,html.Screen,0_2_1_1_9,2021-12-02T10:10:03.617Z,,,,,,,,,,,,,,,,54,,,,,,,,,,,,,,373.8060000005644,,response,,,100,,,,,,Space,keypress(Space),,,,,-- --- ---- --- ------ ----- ------- ---- -- its ------- --<br>------- ---------- ------ -- ----- -- ----- -- ---- ------<br>--- ----- --- --- ------ -------- ----- --- ------ ----- --<br>----- ----- ---------- --- --- ------ ------ ---- -- ------<br>------- --- ------ ----- --- ---- ------- -- ---- --- --<br>------- ------,109514.40000000037,109513.60000000056,109123.122,109138.70000000019,109139.794,109523.128,,9,its
screen,html.Screen,0_2_1_1_10,2021-12-02T10:10:04.017Z,,,,,,,,,,,,,,,,54,,,,,,,,,,,,,,390.4720000005618,,response,,,100,,,,,,Space,keypress(Space),,,,,-- --- ---- --- ------ ----- ------- ---- -- --- revenue --<br>------- ---------- ------ -- ----- -- ----- -- ---- ------<br>--- ----- --- --- ------ -------- ----- --- ------ ----- --<br>----- ----- ---------- --- --- ------ ------ ---- -- ------<br>------- --- ------ ----- --- ---- ------- -- ---- --- --<br>------- ------,109914.40000000037,109913.60000000056,109506.458,109514.70000000019,109523.128,109923.158,,10,revenue
screen,html.Screen,0_2_1_1_11,2021-12-02T10:10:04.401Z,,,,,,,,,,,,,,,,54,,,,,,,,,,,,,,374.442000000563,,response,,,100,,,,,,Space,keypress(Space),,,,,-- --- ---- --- ------ ----- ------- ---- -- --- ------- by<br>------- ---------- ------ -- ----- -- ----- -- ---- ------<br>--- ----- --- --- ------ -------- ----- --- ------ ----- --<br>----- ----- ---------- --- --- ------ ------ ---- -- ------<br>------- --- ------ ----- --- ---- ------- -- ---- --- --<br>------- ------,110298.40000000037,110297.60000000056,109906.489,109914.60000000056,109923.158,110306.751,,11,by
screen,html.Screen,0_2_1_1_12,2021-12-02T10:10:04.809Z,,,,,,,,,,,,,,,,54,,,,,,,,,,,,,,398.9490000001824,,response,,,100,,,,,,Space,keypress(Space),,,,,-- --- ---- --- ------ ----- ------- ---- -- --- ------- --<br>issuing ---------- ------ -- ----- -- ----- -- ---- ------<br>--- ----- --- --- ------ -------- ----- --- ------ ----- --<br>----- ----- ---------- --- --- ------ ------ ---- -- ------<br>------- --- ------ ----- --- ---- ------- -- ---- --- --<br>------- ------,110706.5,110705.70000000019,110290.079,110298.70000000019,110306.751,110723.436,,12,issuing
screen,html.Screen,0_2_1_1_13,2021-12-02T10:10:05.201Z,,,,,,,,,,,,,,,,54,,,,,,,,,,,,,,374.1640000005573,,response,,,100,,,,,,Space,keypress(Space),,,,,-- --- ---- --- ------ ----- ------- ---- -- --- ------- --<br>------- government ------ -- ----- -- ----- -- ---- ------<br>--- ----- --- --- ------ -------- ----- --- ------ ----- --<br>----- ----- ---------- --- --- ------ ------ ---- -- ------<br>------- --- ------ ----- --- ---- ------- -- ---- --- --<br>------- ------,111098.40000000037,111097.60000000056,110706.766,110706.70000000019,110723.436,111106.91,,13,government
screen,html.Screen,0_2_1_1_14,2021-12-02T10:10:05.601Z,,,,,,,,,,,,,,,,54,,,,,,,,,,,,,,390.6900000005553,,response,,,100,,,,,,Space,keypress(Space),,,,,-- --- ---- --- ------ ----- ------- ---- -- --- ------- --<br>------- ---------- bonds. -- ----- -- ----- -- ---- ------<br>--- ----- --- --- ------ -------- ----- --- ------ ----- --<br>----- ----- ---------- --- --- ------ ------ ---- -- ------<br>------- --- ------ ----- --- ---- ------- -- ---- --- --<br>------- ------,111498.5,111497.60000000056,111090.239,111098.70000000019,111106.91,111506.892,,14,bonds.
screen,html.Screen,0_2_1_1_15,2021-12-02T10:10:06.009Z,,,,,,,,,,,,,,,,54,,,,,,,,,,,,,,398.7080000005517,,response,,,100,,,,,,Space,keypress(Space),,,,,-- --- ---- --- ------ ----- ------- ---- -- --- ------- --<br>------- ---------- ------ In ----- -- ----- -- ---- ------<br>--- ----- --- --- ------ -------- ----- --- ------ ----- --<br>----- ----- ---------- --- --- ------ ------ ---- -- ------<br>------- --- ------ ----- --- ---- ------- -- ---- --- --<br>------- ------,111906.29999999981,111905.60000000056,111490.223,111498.70000000019,111506.892,111923.824,,15,In
screen,html.Screen,0_2_1_1_16,2021-12-02T10:10:06.401Z,,,,,,,,,,,,,,,,54,,,,,,,,,,,,,,373.67600000000675,,response,,,100,,,,,,Space,keypress(Space),,,,,"-- --- ---- --- ------ ----- ------- ---- -- --- ------- --<br>------- ---------- ------ -- 1727, -- ----- -- ---- ------<br>--- ----- --- --- ------ -------- ----- --- ------ ----- --<br>----- ----- ---------- --- --- ------ ------ ---- -- ------<br>------- --- ------ ----- --- ---- ------- -- ---- --- --<br>------- ------",112298.29999999981,112297.5,111907.152,111906.60000000056,111923.824,112307.222,,16,"1727,"
screen,html.Screen,0_2_1_1_17,2021-12-02T10:10:06.809Z,,,,,,,,,,,,,,,,54,,,,,,,,,,,,,,398.2780000000057,,response,,,100,,,,,,Space,keypress(Space),,,,,-- --- ---- --- ------ ----- ------- ---- -- --- ------- --<br>------- ---------- ------ -- ----- in ----- -- ---- ------<br>--- ----- --- --- ------ -------- ----- --- ------ ----- --<br>----- ----- ---------- --- --- ------ ------ ---- -- ------<br>------- --- ------ ----- --- ---- ------- -- ---- --- --<br>------- ------,112706.29999999981,112705.5,112290.551,112298.5,112307.222,112723.965,,17,in
screen,html.Screen,0_2_1_1_18,2021-12-02T10:10:07.209Z,,,,,,,,,,,,,,,,54,,,,,,,,,,,,,,381.5350000000035,,response,,,100,,,,,,Space,keypress(Space),,,,,-- --- ---- --- ------ ----- ------- ---- -- --- ------- --<br>------- ---------- ------ -- ----- -- order -- ---- ------<br>--- ----- --- --- ------ -------- ----- --- ------ ----- --<br>----- ----- ---------- --- --- ------ ------ ---- -- ------<br>------- --- ------ ----- --- ---- ------- -- ---- --- --<br>------- ------,113106.20000000019,113105.5,112707.295,112706.60000000056,112723.965,113107.389,,18,order
screen,html.Screen,0_2_1_1_19,2021-12-02T10:10:07.593Z,,,,,,,,,,,,,,,,54,,,,,,,,,,,,,,382.01100000037695,,response,,,100,,,,,,Space,keypress(Space),,,,,-- --- ---- --- ------ ----- ------- ---- -- --- ------- --<br>------- ---------- ------ -- ----- -- ----- to ---- ------<br>--- ----- --- --- ------ -------- ----- --- ------ ----- --<br>----- ----- ---------- --- --- ------ ------ ---- -- ------<br>------- --- ------ ----- --- ---- ------- -- ---- --- --<br>------- ------,113490.20000000019,113489.40000000037,113090.719,113106.5,113107.389,113507.499,,19,to
screen,html.Screen,0_2_1_1_20,2021-12-02T10:10:08.009Z,,,,,,,,,,,,,,,,54,,,,,,,,,,,,,,398.00100000000384,,response,,,100,,,,,,Space,keypress(Space),,,,,-- --- ---- --- ------ ----- ------- ---- -- --- ------- --<br>------- ---------- ------ -- ----- -- ----- -- save ------<br>--- ----- --- --- ------ -------- ----- --- ------ ----- --<br>----- ----- ---------- --- --- ------ ------ ---- -- ------<br>------- --- ------ ----- --- ---- ------- -- ---- --- --<br>------- ------,113906.29999999981,113905.5,113490.829,113490.40000000037,113507.499,113907.602,,20,save
screen,html.Screen,0_2_1_1_21,2021-12-02T10:10:08.433Z,,,,,,,,,,,,,,,,54,,,,,,,,,,,,,,421.7980000003736,,response,,,100,,,,,,Space,keypress(Space),,,,,"-- --- ---- --- ------ ----- ------- ---- -- --- ------- --<br>------- ---------- ------ -- ----- -- ----- -- ---- money,<br>--- ----- --- --- ------ -------- ----- --- ------ ----- --<br>----- ----- ---------- --- --- ------ ------ ---- -- ------<br>------- --- ------ ----- --- ---- ------- -- ---- --- --<br>------- ------",114330.20000000019,114329.40000000037,113890.932,113906.40000000037,113907.602,114340.898,,21,"money,"
screen,html.Screen,0_2_1_1_22,2021-12-02T10:10:08.905Z,,,,,,,,,,,,,,,,54,,,,,,,,,,,,,,460.5020000003715,,response,,,100,,,,,,Space,keypress(Space),,,,,-- --- ---- --- ------ ----- ------- ---- -- --- ------- --<br>------- ---------- ------ -- ----- -- ----- -- ---- ------<br>the ----- --- --- ------ -------- ----- --- ------ ----- --<br>----- ----- ---------- --- --- ------ ------ ---- -- ------<br>------- --- ------ ----- --- ---- ------- -- ---- --- --<br>------- ------,114802.20000000019,114801.40000000037,114324.23,114330.5,114340.898,114807.983,,22,the
screen,html.Screen,0_2_1_1_23,2021-12-02T10:10:09.353Z,,,,,,,,,,,,,,,,54,,,,,,,,,,,,,,441.31699999982084,,response,,,100,,,,,,Space,keypress(Space),,,,,-- --- ---- --- ------ ----- ------- ---- -- --- ------- --<br>------- ---------- ------ -- ----- -- ----- -- ---- ------<br>--- state --- --- ------ -------- ----- --- ------ ----- --<br>----- ----- ---------- --- --- ------ ------ ---- -- ------<br>------- --- ------ ----- --- ---- ------- -- ---- --- --<br>------- ------,115250.20000000019,115249.29999999981,114791.31,114802.40000000037,114807.983,115257.93,,23,state
screen,html.Screen,0_2_1_1_24,2021-12-02T10:10:09.817Z,,,,,,,,,,,,,,,,54,,,,,,,,,,,,,,455.3699999998207,,response,,,100,,,,,,Space,keypress(Space),,,,,-- --- ---- --- ------ ----- ------- ---- -- --- ------- --<br>------- ---------- ------ -- ----- -- ----- -- ---- ------<br>--- ----- cut --- ------ -------- ----- --- ------ ----- --<br>----- ----- ---------- --- --- ------ ------ ---- -- ------<br>------- --- ------ ----- --- ---- ------- -- ---- --- --<br>------- ------,115714.10000000056,115713.29999999981,115241.26,115250.40000000037,115257.93,115724.612,,24,cut
screen,html.Screen,0_2_1_1_25,2021-12-02T10:10:10.258Z,,,,,,,,,,,,,,,,54,,,,,,,,,,,,,,429.18799999982,,response,,,100,,,,,,Space,keypress(Space),,,,,-- --- ---- --- ------ ----- ------- ---- -- --- ------- --<br>------- ---------- ------ -- ----- -- ----- -- ---- ------<br>--- ----- --- the ------ -------- ----- --- ------ ----- --<br>----- ----- ---------- --- --- ------ ------ ---- -- ------<br>------- --- ------ ----- --- ---- ------- -- ---- --- --<br>------- ------,116154.60000000056,116153.79999999981,115707.943,115714.29999999981,115724.612,116158.131,,25,the
screen,html.Screen,0_2_1_1_26,2021-12-02T10:10:10.681Z,,,,,,,,,,,,,,,,54,,,,,,,,,,,,,,419.1689999998198,,response,,,100,,,,,,Space,keypress(Space),,,,,-- --- ---- --- ------ ----- ------- ---- -- --- ------- --<br>------- ---------- ------ -- ----- -- ----- -- ---- ------<br>--- ----- --- --- bonds' -------- ----- --- ------ ----- --<br>----- ----- ---------- --- --- ------ ------ ---- -- ------<br>------- --- ------ ----- --- ---- ------- -- ---- --- --<br>------- ------,116578,116577.29999999981,116141.461,116154.79999999981,116158.131,116591.703,,26,bonds'
screen,html.Screen,0_2_1_1_27,2021-12-02T10:10:11.105Z,,,,,,,,,,,,,,,,54,,,,,,,,,,,,,,409.5969999998197,,response,,,100,,,,,,Space,keypress(Space),,,,,-- --- ---- --- ------ ----- ------- ---- -- --- ------- --<br>------- ---------- ------ -- ----- -- ----- -- ---- ------<br>--- ----- --- --- ------ interest ----- --- ------ ----- --<br>----- ----- ---------- --- --- ------ ------ ---- -- ------<br>------- --- ------ ----- --- ---- ------- -- ---- --- --<br>------- ------,117002,117001.29999999981,116575.031,116578.29999999981,116591.703,117008.392,,27,interest
screen,html.Screen,0_2_1_1_28,2021-12-02T10:10:11.529Z,,,,,,,,,,,,,,,,54,,,,,,,,,,,,,,417.40799999980663,,response,,,100,,,,,,Space,keypress(Space),,,,,-- --- ---- --- ------ ----- ------- ---- -- --- ------- --<br>------- ---------- ------ -- ----- -- ----- -- ---- ------<br>--- ----- --- --- ------ -------- rate. --- ------ ----- --<br>----- ----- ---------- --- --- ------ ------ ---- -- ------<br>------- --- ------ ----- --- ---- ------- -- ---- --- --<br>------- ------,117426.5,117425.79999999981,116991.722,117002.29999999981,117008.392,117441.838,,28,rate.
screen,html.Screen,0_2_1_1_29,2021-12-02T10:10:11.977Z,,,,,,,,,,,,,,,,54,,,,,,,,,,,,,,431.46199999981036,,response,,,100,,,,,,Space,keypress(Space),,,,,-- --- ---- --- ------ ----- ------- ---- -- --- ------- --<br>------- ---------- ------ -- ----- -- ----- -- ---- ------<br>--- ----- --- --- ------ -------- ----- The ------ ----- --<br>----- ----- ---------- --- --- ------ ------ ---- -- ------<br>------- --- ------ ----- --- ---- ------- -- ---- --- --<br>------- ------,117874.10000000056,117873.29999999981,117425.168,117426.79999999981,117441.838,117875.282,,29,The
screen,html.Screen,0_2_1_1_30,2021-12-02T10:10:12.409Z,,,,,,,,,,,,,,,,54,,,,,,,,,,,,,,429.91800000017975,,response,,,100,,,,,,Space,keypress(Space),,,,,-- --- ---- --- ------ ----- ------- ---- -- --- ------- --<br>------- ---------- ------ -- ----- -- ----- -- ---- ------<br>--- ----- --- --- ------ -------- ----- --- market ----- --<br>----- ----- ---------- --- --- ------ ------ ---- -- ------<br>------- --- ------ ----- --- ---- ------- -- ---- --- --<br>------- ------,118305.90000000037,118305.20000000019,117858.612,117874.29999999981,117875.282,118308.767,,30,market
screen,html.Screen,0_2_1_1_31,2021-12-02T10:10:12.801Z,,,,,,,,,,,,,,,,54,,,,,,,,,,,,,,388.43300000017916,,response,,,100,,,,,,Space,keypress(Space),,,,,-- --- ---- --- ------ ----- ------- ---- -- --- ------- --<br>------- ---------- ------ -- ----- -- ----- -- ---- ------<br>--- ----- --- --- ------ -------- ----- --- ------ value --<br>----- ----- ---------- --- --- ------ ------ ---- -- ------<br>------- --- ------ ----- --- ---- ------- -- ---- --- --<br>------- ------,118697.90000000037,118697.20000000019,118292.096,118306.20000000019,118308.767,118708.824,,31,value
screen,html.Screen,0_2_1_1_32,2021-12-02T10:10:13.217Z,,,,,,,,,,,,,,,,54,,,,,,,,,,,,,,404.376000000193,,response,,,100,,,,,,Space,keypress(Space),,,,,-- --- ---- --- ------ ----- ------- ---- -- --- ------- --<br>------- ---------- ------ -- ----- -- ----- -- ---- ------<br>--- ----- --- --- ------ -------- ----- --- ------ ----- of<br>----- ----- ---------- --- --- ------ ------ ---- -- ------<br>------- --- ------ ----- --- ---- ------- -- ---- --- --<br>------- ------,119113.90000000037,119113.20000000019,118692.154,118698.29999999981,118708.824,119125.524,,32,of
screen,html.Screen,0_2_1_1_33,2021-12-02T10:10:13.617Z,,,,,,,,,,,,,,,,54,,,,,,,,,,,,,,387.5760000005539,,response,,,100,,,,,,Space,keypress(Space),,,,,-- --- ---- --- ------ ----- ------- ---- -- --- ------- --<br>------- ---------- ------ -- ----- -- ----- -- ---- ------<br>--- ----- --- --- ------ -------- ----- --- ------ ----- --<br>these ----- ---------- --- --- ------ ------ ---- -- ------<br>------- --- ------ ----- --- ---- ------- -- ---- --- --<br>------- ------,119513.90000000037,119513.10000000056,119108.855,119114.10000000056,119125.524,119525.786,,33,these
screen,html.Screen,0_2_1_1_34,2021-12-02T10:10:14.017Z,,,,,,,,,,,,,,,,54,,,,,,,,,,,,,,387.314000000566,,response,,,100,,,,,,Space,keypress(Space),,,,,-- --- ---- --- ------ ----- ------- ---- -- --- ------- --<br>------- ---------- ------ -- ----- -- ----- -- ---- ------<br>--- ----- --- --- ------ -------- ----- --- ------ ----- --<br>----- bonds ---------- --- --- ------ ------ ---- -- ------<br>------- --- ------ ----- --- ---- ------- -- ---- --- --<br>------- ------,119913.90000000037,119913.10000000056,119509.114,119514.20000000019,119525.786,119925.786,,34,bonds
screen,html.Screen,0_2_1_1_35,2021-12-02T10:10:14.417Z,,,,,,,,,,,,,,,,54,,,,,,,,,,,,,,387.314000000566,,response,,,100,,,,,,Space,keypress(Space),,,,,"-- --- ---- --- ------ ----- ------- ---- -- --- ------- --<br>------- ---------- ------ -- ----- -- ----- -- ---- ------<br>--- ----- --- --- ------ -------- ----- --- ------ ----- --<br>----- ----- plummeted, --- --- ------ ------ ---- -- ------<br>------- --- ------ ----- --- ---- ------- -- ---- --- --<br>------- ------",120313.90000000037,120313.10000000056,119909.116,119914.20000000019,119925.786,120325.94,,35,"plummeted,"
screen,html.Screen,0_2_1_1_36,2021-12-02T10:10:14.860Z,,,,,,,,,,,,,,,,54,,,,,,,,,,,,,,427.16000000055647,,response,,,100,,,,,,Space,keypress(Space),,,,,-- --- ---- --- ------ ----- ------- ---- -- --- ------- --<br>------- ---------- ------ -- ----- -- ----- -- ---- ------<br>--- ----- --- --- ------ -------- ----- --- ------ ----- --<br>----- ----- ---------- and --- ------ ------ ---- -- ------<br>------- --- ------ ----- --- ---- ------- -- ---- --- --<br>------- ------,120753.79999999981,120753.10000000056,120309.269,120314.10000000056,120325.94,120759.336,,36,and
screen,html.Screen,0_2_1_1_37,2021-12-02T10:10:15.252Z,,,,,,,,,,,,,,,,54,,,,,,,,,,,,,,385.6640000000043,,response,,,100,,,,,,Space,keypress(Space),,,,,-- --- ---- --- ------ ----- ------- ---- -- --- ------- --<br>------- ---------- ------ -- ----- -- ----- -- ---- ------<br>--- ----- --- --- ------ -------- ----- --- ------ ----- --<br>----- ----- ---------- --- the ------ ------ ---- -- ------<br>------- --- ------ ----- --- ---- ------- -- ---- --- --<br>------- ------,121145.79999999981,121145,120742.666,120754.20000000019,120759.336,121159.499,,37,the
screen,html.Screen,0_2_1_1_38,2021-12-02T10:10:15.676Z,,,,,,,,,,,,,,,,54,,,,,,,,,,,,,,409.50100000000384,,response,,,100,,,,,,Space,keypress(Space),,,,,-- --- ---- --- ------ ----- ------- ---- -- --- ------- --<br>------- ---------- ------ -- ----- -- ----- -- ---- ------<br>--- ----- --- --- ------ -------- ----- --- ------ ----- --<br>----- ----- ---------- --- --- market ------ ---- -- ------<br>------- --- ------ ----- --- ---- ------- -- ---- --- --<br>------- ------,121569.79999999981,121569,121142.828,121146,121159.499,121576.233,,38,market
screen,html.Screen,0_2_1_1_39,2021-12-02T10:10:16.060Z,,,,,,,,,,,,,,,,54,,,,,,,,,,,,,,376.7670000000071,,response,,,100,,,,,,Space,keypress(Space),,,,,-- --- ---- --- ------ ----- ------- ---- -- --- ------- --<br>------- ---------- ------ -- ----- -- ----- -- ---- ------<br>--- ----- --- --- ------ -------- ----- --- ------ ----- --<br>----- ----- ---------- --- --- ------ became ---- -- ------<br>------- --- ------ ----- --- ---- ------- -- ---- --- --<br>------- ------,121953.79999999981,121953,121559.563,121570.10000000056,121576.233,121959.668,,39,became
screen,html.Screen,0_2_1_1_40,2021-12-02T10:10:16.444Z,,,,,,,,,,,,,,,,54,,,,,,,,,,,,,,377.2320000003674,,response,,,100,,,,,,Space,keypress(Space),,,,,-- --- ---- --- ------ ----- ------- ---- -- --- ------- --<br>------- ---------- ------ -- ----- -- ----- -- ---- ------<br>--- ----- --- --- ------ -------- ----- --- ------ ----- --<br>----- ----- ---------- --- --- ------ ------ wary -- ------<br>------- --- ------ ----- --- ---- ------- -- ---- --- --<br>------- ------,122337.70000000019,122336.90000000037,121942.998,121954.10000000056,121959.668,122343.1,,40,wary
screen,html.Screen,0_2_1_1_41,2021-12-02T10:10:16.836Z,,,,,,,,,,,,,,,,54,,,,,,,,,,,,,,385.8000000003667,,response,,,100,,,,,,Space,keypress(Space),,,,,-- --- ---- --- ------ ----- ------- ---- -- --- ------- --<br>------- ---------- ------ -- ----- -- ----- -- ---- ------<br>--- ----- --- --- ------ -------- ----- --- ------ ----- --<br>----- ----- ---------- --- --- ------ ------ ---- of ------<br>------- --- ------ ----- --- ---- ------- -- ---- --- --<br>------- ------,122729.60000000056,122728.90000000037,122326.43,122337.90000000037,122343.1,122743.201,,41,of
screen,html.Screen,0_2_1_1_42,2021-12-02T10:10:17.228Z,,,,,,,,,,,,,,,,54,,,,,,,,,,,,,,377.5989999998128,,response,,,100,,,,,,Space,keypress(Space),,,,,-- --- ---- --- ------ ----- ------- ---- -- --- ------- --<br>------- ---------- ------ -- ----- -- ----- -- ---- ------<br>--- ----- --- --- ------ -------- ----- --- ------ ----- --<br>----- ----- ---------- --- --- ------ ------ ---- -- French<br>------- --- ------ ----- --- ---- ------- -- ---- --- --<br>------- ------,123121.60000000056,123120.79999999981,122726.531,122729.90000000037,122743.201,123126.635,,42,French
screen,html.Screen,0_2_1_1_43,2021-12-02T10:10:17.652Z,,,,,,,,,,,,,,,,54,,,,,,,,,,,,,,418.26500000037777,,response,,,100,,,,,,Space,keypress(Space),,,,,-- --- ---- --- ------ ----- ------- ---- -- --- ------- --<br>------- ---------- ------ -- ----- -- ----- -- ---- ------<br>--- ----- --- --- ------ -------- ----- --- ------ ----- --<br>----- ----- ---------- --- --- ------ ------ ---- -- ------<br>credit. --- ------ ----- --- ---- ------- -- ---- --- --<br>------- ------,123545.70000000019,123544.90000000037,123109.965,123121.79999999981,123126.635,123560.117,,43,credit.
screen,html.Screen,0_2_1_1_44,2021-12-02T10:10:18.020Z,,,,,,,,,,,,,,,,54,,,,,,,,,,,,,,352.68299999981537,,response,,,100,,,,,,Space,keypress(Space),,,,,-- --- ---- --- ------ ----- ------- ---- -- --- ------- --<br>------- ---------- ------ -- ----- -- ----- -- ---- ------<br>--- ----- --- --- ------ -------- ----- --- ------ ----- --<br>----- ----- ---------- --- --- ------ ------ ---- -- ------<br>------- The ------ ----- --- ---- ------- -- ---- --- --<br>------- ------,123913.70000000019,123912.79999999981,123543.446,123545.90000000037,123560.117,123926.834,,44,The
screen,html.Screen,0_2_1_1_45,2021-12-02T10:10:18.412Z,,,,,,,,,,,,,,,,54,,,,,,,,,,,,,,377.9659999998112,,response,,,100,,,,,,Space,keypress(Space),,,,,-- --- ---- --- ------ ----- ------- ---- -- --- ------- --<br>------- ---------- ------ -- ----- -- ----- -- ---- ------<br>--- ----- --- --- ------ -------- ----- --- ------ ----- --<br>----- ----- ---------- --- --- ------ ------ ---- -- ------<br>------- --- French ----- --- ---- ------- -- ---- --- --<br>------- ------,124305.70000000019,124304.79999999981,123910.164,123913.90000000037,123926.834,124310.307,,45,French
screen,html.Screen,0_2_1_1_46,2021-12-02T10:10:18.820Z,,,,,,,,,,,,,,,,54,,,,,,,,,,,,,,402.59300000037183,,response,,,100,,,,,,Space,keypress(Space),,,,,-- --- ---- --- ------ ----- ------- ---- -- --- ------- --<br>------- ---------- ------ -- ----- -- ----- -- ---- ------<br>--- ----- --- --- ------ -------- ----- --- ------ ----- --<br>----- ----- ---------- --- --- ------ ------ ---- -- ------<br>------- --- ------ state --- ---- ------- -- ---- --- --<br>------- ------,124713.60000000056,124712.90000000037,124293.636,124305.90000000037,124310.307,124727.052,,46,state
screen,html.Screen,0_2_1_1_47,2021-12-02T10:10:19.220Z,,,,,,,,,,,,,,,,54,,,,,,,,,,,,,,385.8480000003765,,response,,,100,,,,,,Space,keypress(Space),,,,,-- --- ---- --- ------ ----- ------- ---- -- --- ------- --<br>------- ---------- ------ -- ----- -- ----- -- ---- ------<br>--- ----- --- --- ------ -------- ----- --- ------ ----- --<br>----- ----- ---------- --- --- ------ ------ ---- -- ------<br>------- --- ------ ----- was ---- ------- -- ---- --- --<br>------- ------,125113.70000000019,125112.90000000037,124710.382,124713.90000000037,124727.052,125127.143,,47,was
screen,html.Screen,0_2_1_1_48,2021-12-02T10:10:19.628Z,,,,,,,,,,,,,,,,54,,,,,,,,,,,,,,393.75700000037614,,response,,,100,,,,,,Space,keypress(Space),,,,,-- --- ---- --- ------ ----- ------- ---- -- --- ------- --<br>------- ---------- ------ -- ----- -- ----- -- ---- ------<br>--- ----- --- --- ------ -------- ----- --- ------ ----- --<br>----- ----- ---------- --- --- ------ ------ ---- -- ------<br>------- --- ------ ----- --- left ------- -- ---- --- --<br>------- ------,125521.60000000056,125520.90000000037,125110.473,125113.90000000037,125127.143,125527.292,,48,left
screen,html.Screen,0_2_1_1_49,2021-12-02T10:10:20.020Z,,,,,,,,,,,,,,,,54,,,,,,,,,,,,,,385.50799999981245,,response,,,100,,,,,,Space,keypress(Space),,,,,-- --- ---- --- ------ ----- ------- ---- -- --- ------- --<br>------- ---------- ------ -- ----- -- ----- -- ---- ------<br>--- ----- --- --- ------ -------- ----- --- ------ ----- --<br>----- ----- ---------- --- --- ------ ------ ---- -- ------<br>------- --- ------ ----- --- ---- without -- ---- --- --<br>------- ------,125913.60000000056,125912.79999999981,125510.621,125521.70000000019,125527.292,125927.35,,49,without
screen,html.Screen,0_2_1_1_50,2021-12-02T10:10:20.412Z,,,,,,,,,,,,,,,,54,,,,,,,,,,,,,,377.9499999998079,,response,,,100,,,,,,Space,keypress(Space),,,,,-- --- ---- --- ------ ----- ------- ---- -- --- ------- --<br>------- ---------- ------ -- ----- -- ----- -- ---- ------<br>--- ----- --- --- ------ -------- ----- --- ------ ----- --<br>----- ----- ---------- --- --- ------ ------ ---- -- ------<br>------- --- ------ ----- --- ---- ------- an ---- --- --<br>------- ------,126306,126305.29999999981,125910.68,125913.90000000037,125927.35,126310.779,,50,an
screen,html.Screen,0_2_1_1_51,2021-12-02T10:10:20.812Z,,,,,,,,,,,,,,,,54,,,,,,,,,,,,,,393.92100000019127,,response,,,100,,,,,,Space,keypress(Space),,,,,-- --- ---- --- ------ ----- ------- ---- -- --- ------- --<br>------- ---------- ------ -- ----- -- ----- -- ---- ------<br>--- ----- --- --- ------ -------- ----- --- ------ ----- --<br>----- ----- ---------- --- --- ------ ------ ---- -- ------<br>------- --- ------ ----- --- ---- ------- -- easy --- --<br>------- ------,126705.60000000056,126704.70000000019,126294.109,126306.29999999981,126310.779,126710.94,,51,easy
screen,html.Screen,0_2_1_1_52,2021-12-02T10:10:21.172Z,,,,,,,,,,,,,,,,54,,,,,,,,,,,,,,353.76000000018394,,response,,,100,,,,,,Space,keypress(Space),,,,,-- --- ---- --- ------ ----- ------- ---- -- --- ------- --<br>------- ---------- ------ -- ----- -- ----- -- ---- ------<br>--- ----- --- --- ------ -------- ----- --- ------ ----- --<br>----- ----- ---------- --- --- ------ ------ ---- -- ------<br>------- --- ------ ----- --- ---- ------- -- ---- way --<br>------- ------,127065.5,127064.70000000019,126694.269,126705.90000000037,126710.94,127077.651,,52,way
screen,html.Screen,0_2_1_1_53,2021-12-02T10:10:21.540Z,,,,,,,,,,,,,,,,54,,,,,,,,,,,,,,355.04900000018824,,response,,,100,,,,,,Space,keypress(Space),,,,,-- --- ---- --- ------ ----- ------- ---- -- --- ------- --<br>------- ---------- ------ -- ----- -- ----- -- ---- ------<br>--- ----- --- --- ------ -------- ----- --- ------ ----- --<br>----- ----- ---------- --- --- ------ ------ ---- -- ------<br>------- --- ------ ----- --- ---- ------- -- ---- --- of<br>------- ------,127433.5,127432.70000000019,127060.981,127065.70000000019,127077.651,127444.418,,53,of
screen,html.Screen,0_2_1_1_54,2021-12-02T10:10:21.916Z,,,,,,,,,,,,,,,,54,,,,,,,,,,,,,,364.28200000018114,,response,,,100,,,,,,Space,keypress(Space),,,,,-- --- ---- --- ------ ----- ------- ---- -- --- ------- --<br>------- ---------- ------ -- ----- -- ----- -- ---- ------<br>--- ----- --- --- ------ -------- ----- --- ------ ----- --<br>----- ----- ---------- --- --- ------ ------ ---- -- ------<br>------- --- ------ ----- --- ---- ------- -- ---- --- --<br>raising ------,127809.5,127808.70000000019,127427.748,127433.79999999981,127444.418,127811.039,,54,raising
screen,html.Screen,0_2_1_1_55,2021-12-02T10:10:22.556Z,,,,,,,,,,,,,,,,54,,,,,,,,,,,,,,637.5610000005545,,response,,,100,,,,,,Space,keypress(Space),,,,,-- --- ---- --- ------ ----- ------- ---- -- --- ------- --<br>------- ---------- ------ -- ----- -- ----- -- ---- ------<br>--- ----- --- --- ------ -------- ----- --- ------ ----- --<br>----- ----- ---------- --- --- ------ ------ ---- -- ------<br>------- --- ------ ----- --- ---- ------- -- ---- --- --<br>------- money.,128449.5,128448.60000000056,127794.371,127809.70000000019,127811.039,128461.504,,55,money.
Item 100,flow.Loop,0_2_1_1,2021-12-02T10:10:22.556Z,,,,,,,,,,,,,,,,,,,,,,,,,,,,,,24260.26700000056,,completion,,,,F,,,,,,,,,,silence,,128449.79999999981,128448.60000000056,104171.663,104173.20000000019,104188.333,128461.504,,,
Question 1,html.Screen,0_2_1_2,2021-12-02T10:10:26.577Z,,,,,,,,,,,,,,,,,,,,,,,,,,,true,TRUE,,4008.3960000003717,,response,,,100,F,,,,,TRUE,click #choice-1,,,,silence,,132471,132469.90000000037,128444.831,128450.10000000056,128461.504,132495.781,,,
Question 2,html.Screen,0_2_1_3,2021-12-02T10:10:27.183Z,,,,,,,,,,,,,,,,,,,,,,,,,,,false,FALSE,,579.5189999998256,,response,,,100,F,,,,,TRUE,click #choice-1,,,,silence,,133076.7000000002,133075.2999999998,132479.009,132471.2000000002,132495.781,133079.189,,,
Item 100,flow.Sequence,0_2_1,2021-12-02T10:10:27.183Z,,,,,,,,,,,,,,,,,,,,,,,,,,,,,,38889.65599999981,,completion,,,,,,,,,,,,,,,,133077.10000000056,133075.2999999998,94168.98,94185.29999999981,94185.644,133079.189,,,
End of Practice,html.Page,0_2_2,2021-12-02T10:10:32.846Z,,,,,,,,,,,,,,,,,,,,,,,,,,,,,,5659.511000000173,,form submission,,,,,,,,,,,,,,,,138739.40000000037,138738.7000000002,133062.519,133077.2000000002,133079.189,138747.317,,,
Practice,flow.Sequence,0_2,2021-12-02T10:10:32.846Z,,,,,,,,,,,,,,,,,,,,,,,,,,,,,,86163.47200000018,,completion,,,,,,,,,,,,,,,,138740,138738.7000000002,52558.556,52560.5,52575.228,138747.317,,,
Trap_instruction,html.Page,0_3_0,2021-12-02T10:10:41.424Z,,,,,,,,,,,,,,,,,,,,,,,,,,,,,,8569.583000000363,,form submission,,,,,,,,,,,,,,,,147317.60000000056,147316.90000000037,138730.646,138740.2999999998,138747.317,147349.349,,,
trap_trial,html.Screen,0_3_1,2021-12-02T10:10:44.541Z,,,,,,,,,,,,,,,,,,,,,,,,,,,true,1,,3083.6510000000126,,response,,,,,,,,,1,click #choice-1,,,,,,150434.2000000002,150433,147299.339,147317.90000000037,147349.349,150446.905,,,
end of trap trial,html.Page,0_3_2,2021-12-02T10:10:47.904Z,,,,,,,,,,,,,,,,,,,,,,,,,,,,,,3349.7950000001874,,form submission,,,,,,,,,,,,,,,,153797.2999999998,153796.7000000002,150430.253,150434.60000000056,150446.905,153801.125,,,
Trap 1,flow.Sequence,0_3,2021-12-02T10:10:47.904Z,,,,,,,,,,,,,,,,,,,,,,,,,,,,,,15049.383000000176,,completion,,,,,,,,,,,,,,,,153797.7000000002,153796.7000000002,138730.646,138740.2000000002,138747.317,153801.125,,,
Standby,html.Page,0_4_0,2021-12-02T10:10:55.894Z,,,,,,,,,,,,,,,,,,,,,,,,,,,,,,8001.641999999993,,timeout,,,,,,,,,,,,,,,,161787.2000000002,161786.097,153784.455,153797.90000000037,153801.125,161802.767,,,
Holding screen,html.Screen,0_4_1_0_0,2021-12-02T10:11:02.896Z,,,,,,,,,,,,,,,,,,,,,,,,,,,,,,7002.241000000009,,timeout,,,,,,,,,,,,,,,,168789.7000000002,168788.338,161786.097,161787.7999999998,161802.767,168805.008,,,
screen,html.Screen,0_4_1_0_1_0,2021-12-02T10:11:03.986Z,,,,,,,,,,,,,,,,11,,,,,,,,,,,,,,1073.892000000371,,response,,,4,F,,,,,Space,keypress(Space),,,,instrumental,Known -- ---- --- -- --- -------- ------------ ---------- --<br>- ------- ------ --------- -- ------------ -- --- ---- -----<br>------ ---- ---- ------ ------ ------- --- ----- ---------<br>---- --- -------- -------- --- --- -- ------- --- --- -----<br>-- --- ------ ------- --- --- -------- ---- --------- --<br>---------- -- -------- ----------------,169880.10000000056,169878.90000000037,168788.338,168790,168805.008,169888.451,,0,Known
screen,html.Screen,0_4_1_0_1_1,2021-12-02T10:11:04.370Z,,,,,,,,,,,,,,,,11,,,,,,,,,,,,,,373.9490000003716,,response,,,4,F,,,,,Space,keypress(Space),,,,instrumental,----- as ---- --- -- --- -------- ------------ ---------- --<br>- ------- ------ --------- -- ------------ -- --- ---- -----<br>------ ---- ---- ------ ------ ------- --- ----- ---------<br>---- --- -------- -------- --- --- -- ------- --- --- -----<br>-- --- ------ ------- --- --- -------- ---- --------- --<br>---------- -- -------- ----------------,170263.2000000002,170262.40000000037,169871.782,169880.40000000037,169888.451,170272.165,,1,as
screen,html.Screen,0_4_1_0_1_2,2021-12-02T10:11:04.770Z,,,,,,,,,,,,,,,,11,,,,,,,,,,,,,,390.1349999998056,,response,,,4,F,,,,,Space,keypress(Space),,,,instrumental,----- -- Rapa --- -- --- -------- ------------ ---------- --<br>- ------- ------ --------- -- ------------ -- --- ---- -----<br>------ ---- ---- ------ ------ ------- --- ----- ---------<br>---- --- -------- -------- --- --- -- ------- --- --- -----<br>-- --- ------ ------- --- --- -------- ---- --------- --<br>---------- -- -------- ----------------,170663.2999999998,170662.2999999998,170255.494,170263.60000000056,170272.165,170672.156,,2,Rapa
screen,html.Screen,0_4_1_0_1_3,2021-12-02T10:11:05.145Z,,,,,,,,,,,,,,,,11,,,,,,,,,,,,,,366.04400000019814,,response,,,4,F,,,,,Space,keypress(Space),,,,instrumental,----- -- ---- Nui -- --- -------- ------------ ---------- --<br>- ------- ------ --------- -- ------------ -- --- ---- -----<br>------ ---- ---- ------ ------ ------- --- ----- ---------<br>---- --- -------- -------- --- --- -- ------- --- --- -----<br>-- --- ------ ------- --- --- -------- ---- --------- --<br>---------- -- -------- ----------------,171039.2000000002,171038.2000000002,170655.486,170663.60000000056,170672.156,171055.586,,3,Nui
screen,html.Screen,0_4_1_0_1_4,2021-12-02T10:11:05.530Z,,,,,,,,,,,,,,,,11,,,,,,,,,,,,,,366.614000000176,,response,,,4,F,,,,,Space,keypress(Space),,,,instrumental,----- -- ---- --- to --- -------- ------------ ---------- --<br>- ------- ------ --------- -- ------------ -- --- ---- -----<br>------ ---- ---- ------ ------ ------- --- ----- ---------<br>---- --- -------- -------- --- --- -- ------- --- --- -----<br>-- --- ------ ------- --- --- -------- ---- --------- --<br>---------- -- -------- ----------------,171423.2000000002,171422.2000000002,171038.916,171039.40000000037,171055.586,171439.025,,4,to
screen,html.Screen,0_4_1_0_1_5,2021-12-02T10:11:05.881Z,,,,,,,,,,,,,,,,11,,,,,,,,,,,,,,335.1750000001921,,response,,,4,F,,,,,Space,keypress(Space),,,,instrumental,----- -- ---- --- -- the -------- ------------ ---------- --<br>- ------- ------ --------- -- ------------ -- --- ---- -----<br>------ ---- ---- ------ ------ ------- --- ----- ---------<br>---- --- -------- -------- --- --- -- ------- --- --- -----<br>-- --- ------ ------- --- --- -------- ---- --------- --<br>---------- -- -------- ----------------,171775,171774.2000000002,171422.355,171423.40000000037,171439.025,171789.253,,5,the
screen,html.Screen,0_4_1_0_1_6,2021-12-02T10:11:06.225Z,,,,,,,,,,,,,,,,11,,,,,,,,,,,,,,329.04699999981676,,response,,,4,F,,,,,Space,keypress(Space),,,,instrumental,----- -- ---- --- -- --- island's ------------ ---------- --<br>- ------- ------ --------- -- ------------ -- --- ---- -----<br>------ ---- ---- ------ ------ ------- --- ----- ---------<br>---- --- -------- -------- --- --- -- ------- --- --- -----<br>-- --- ------ ------- --- --- -------- ---- --------- --<br>---------- -- -------- ----------------,172119.10000000056,172118.2999999998,171772.581,171775.2000000002,171789.253,172122.515,,6,island's
screen,html.Screen,0_4_1_0_1_7,2021-12-02T10:11:06.745Z,,,,,,,,,,,,,,,,11,,,,,,,,,,,,,,515.6850000001723,,response,,,4,F,,,,,Space,keypress(Space),,,,instrumental,"----- -- ---- --- -- --- -------- inhabitants, ---------- --<br>- ------- ------ --------- -- ------------ -- --- ---- -----<br>------ ---- ---- ------ ------ ------- --- ----- ---------<br>---- --- -------- -------- --- --- -- ------- --- --- -----<br>-- --- ------ ------- --- --- -------- ---- --------- --<br>---------- -- -------- ----------------",172639.10000000056,172638.2000000002,172105.846,172119.2999999998,172122.515,172655.942,,7,"inhabitants,"
screen,html.Screen,0_4_1_0_1_8,2021-12-02T10:11:07.225Z,,,,,,,,,,,,,,,,11,,,,,,,,,,,,,,462.1580000005488,,response,,,4,F,,,,,Space,keypress(Space),,,,instrumental,----- -- ---- --- -- --- -------- ------------ Rongorongo --<br>- ------- ------ --------- -- ------------ -- --- ---- -----<br>------ ---- ---- ------ ------ ------- --- ----- ---------<br>---- --- -------- -------- --- --- -- ------- --- --- -----<br>-- --- ------ ------- --- --- -------- ---- --------- --<br>---------- -- -------- ----------------,173118.90000000037,173118.10000000056,172639.273,172639.40000000037,172655.942,173122.785,,8,Rongorongo
screen,html.Screen,0_4_1_0_1_9,2021-12-02T10:11:07.657Z,,,,,,,,,,,,,,,,11,,,,,,,,,,,,,,427.4150000001828,,response,,,4,F,,,,,Space,keypress(Space),,,,instrumental,----- -- ---- --- -- --- -------- ------------ ---------- is<br>- ------- ------ --------- -- ------------ -- --- ---- -----<br>------ ---- ---- ------ ------ ------- --- ----- ---------<br>---- --- -------- -------- --- --- -- ------- --- --- -----<br>-- --- ------ ------- --- --- -------- ---- --------- --<br>---------- -- -------- ----------------,173550.90000000037,173550.2000000002,173106.115,173119.10000000056,173122.785,173556.309,,9,is
screen,html.Screen,0_4_1_0_1_10,2021-12-02T10:11:08.081Z,,,,,,,,,,,,,,,,11,,,,,,,,,,,,,,417.7910000005504,,response,,,4,F,,,,,Space,keypress(Space),,,,instrumental,----- -- ---- --- -- --- -------- ------------ ---------- --<br>a ------- ------ --------- -- ------------ -- --- ---- -----<br>------ ---- ---- ------ ------ ------- --- ----- ---------<br>---- --- -------- -------- --- --- -- ------- --- --- -----<br>-- --- ------ ------- --- --- -------- ---- --------- --<br>---------- -- -------- ----------------,173975,173974.10000000056,173539.638,173551.10000000056,173556.309,173989.631,,10,a
screen,html.Screen,0_4_1_0_1_11,2021-12-02T10:11:08.473Z,,,,,,,,,,,,,,,,11,,,,,,,,,,,,,,376.36900000000605,,response,,,4,F,,,,,Space,keypress(Space),,,,instrumental,----- -- ---- --- -- --- -------- ------------ ---------- --<br>- writing ------ --------- -- ------------ -- --- ---- -----<br>------ ---- ---- ------ ------ ------- --- ----- ---------<br>---- --- -------- -------- --- --- -- ------- --- --- -----<br>-- --- ------ ------- --- --- -------- ---- --------- --<br>---------- -- -------- ----------------,174366.90000000037,174366,173972.962,173975.2000000002,173989.631,174373.18,,11,writing
screen,html.Screen,0_4_1_0_1_12,2021-12-02T10:11:08.873Z,,,,,,,,,,,,,,,,11,,,,,,,,,,,,,,393.02000000019325,,response,,,4,F,,,,,Space,keypress(Space),,,,instrumental,----- -- ---- --- -- --- -------- ------------ ---------- --<br>- ------- system --------- -- ------------ -- --- ---- -----<br>------ ---- ---- ------ ------ ------- --- ----- ---------<br>---- --- -------- -------- --- --- -- ------- --- --- -----<br>-- --- ------ ------- --- --- -------- ---- --------- --<br>---------- -- -------- ----------------,174767,174766.2000000002,174356.509,174367.2000000002,174373.18,174773.173,,12,system
screen,html.Screen,0_4_1_0_1_13,2021-12-02T10:11:09.265Z,,,,,,,,,,,,,,,,11,,,,,,,,,,,,,,384.8269999999902,,response,,,4,F,,,,,Space,keypress(Space),,,,instrumental,----- -- ---- --- -- --- -------- ------------ ---------- --<br>- ------- ------ comprised -- ------------ -- --- ---- -----<br>------ ---- ---- ------ ------ ------- --- ----- ---------<br>---- --- -------- -------- --- --- -- ------- --- --- -----<br>-- --- ------ ------- --- --- -------- ---- --------- --<br>---------- -- -------- ----------------,175158.90000000037,175158,174756.504,174767.2999999998,174773.173,175173.319,,13,comprised
screen,html.Screen,0_4_1_0_1_14,2021-12-02T10:11:09.665Z,,,,,,,,,,,,,,,,11,,,,,,,,,,,,,,384.6810000000114,,response,,,4,F,,,,,Space,keypress(Space),,,,instrumental,----- -- ---- --- -- --- -------- ------------ ---------- --<br>- ------- ------ --------- of ------------ -- --- ---- -----<br>------ ---- ---- ------ ------ ------- --- ----- ---------<br>---- --- -------- -------- --- --- -- ------- --- --- -----<br>-- --- ------ ------- --- --- -------- ---- --------- --<br>---------- -- -------- ----------------,175558.7999999998,175558,175156.649,175159.10000000056,175173.319,175573.421,,14,of
screen,html.Screen,0_4_1_0_1_15,2021-12-02T10:11:10.057Z,,,,,,,,,,,,,,,,11,,,,,,,,,,,,,,376.5789999999979,,response,,,4,F,,,,,Space,keypress(Space),,,,instrumental,----- -- ---- --- -- --- -------- ------------ ---------- --<br>- ------- ------ --------- -- pictographs. -- --- ---- -----<br>------ ---- ---- ------ ------ ------- --- ----- ---------<br>---- --- -------- -------- --- --- -- ------- --- --- -----<br>-- --- ------ ------- --- --- -------- ---- --------- --<br>---------- -- -------- ----------------,175950.7999999998,175950,175556.751,175559,175573.421,175956.985,,15,pictographs.
screen,html.Screen,0_4_1_0_1_16,2021-12-02T10:11:10.441Z,,,,,,,,,,,,,,,,11,,,,,,,,,,,,,,377.01500000001397,,response,,,4,F,,,,,Space,keypress(Space),,,,instrumental,----- -- ---- --- -- --- -------- ------------ ---------- --<br>- ------- ------ --------- -- ------------ It --- ---- -----<br>------ ---- ---- ------ ------ ------- --- ----- ---------<br>---- --- -------- -------- --- --- -- ------- --- --- -----<br>-- --- ------ ------- --- --- -------- ---- --------- --<br>---------- -- -------- ----------------,176334.7999999998,176334,175940.313,175951,175956.985,176340.318,,16,It
screen,html.Screen,0_4_1_0_1_17,2021-12-02T10:11:10.857Z,,,,,,,,,,,,,,,,11,,,,,,,,,,,,,,409.6820000000007,,response,,,4,F,,,,,Space,keypress(Space),,,,instrumental,----- -- ---- --- -- --- -------- ------------ ---------- --<br>- ------- ------ --------- -- ------------ -- has ---- -----<br>------ ---- ---- ------ ------ ------- --- ----- ---------<br>---- --- -------- -------- --- --- -- ------- --- --- -----<br>-- --- ------ ------- --- --- -------- ---- --------- --<br>---------- -- -------- ----------------,176750.7999999998,176750,176323.648,176335,176340.318,176757.136,,17,has
screen,html.Screen,0_4_1_0_1_18,2021-12-02T10:11:11.257Z,,,,,,,,,,,,,,,,11,,,,,,,,,,,,,,392.7640000003739,,response,,,4,F,,,,,Space,keypress(Space),,,,instrumental,----- -- ---- --- -- --- -------- ------------ ---------- --<br>- ------- ------ --------- -- ------------ -- --- been -----<br>------ ---- ---- ------ ------ ------- --- ----- ---------<br>---- --- -------- -------- --- --- -- ------- --- --- -----<br>-- --- ------ ------- --- --- -------- ---- --------- --<br>---------- -- -------- ----------------,177150.7999999998,177149.90000000037,176740.465,176751,176757.136,177157.186,,18,been
screen,html.Screen,0_4_1_0_1_19,2021-12-02T10:11:11.665Z,,,,,,,,,,,,,,,,11,,,,,,,,,,,,,,400.6139999998268,,response,,,4,F,,,,,Space,keypress(Space),,,,instrumental,----- -- ---- --- -- --- -------- ------------ ---------- --<br>- ------- ------ --------- -- ------------ -- --- ---- found<br>------ ---- ---- ------ ------ ------- --- ----- ---------<br>---- --- -------- -------- --- --- -- ------- --- --- -----<br>-- --- ------ ------- --- --- -------- ---- --------- --<br>---------- -- -------- ----------------,177558.60000000056,177557.7999999998,177140.516,177151,177157.186,177574.028,,19,found
screen,html.Screen,0_4_1_0_1_20,2021-12-02T10:11:12.073Z,,,,,,,,,,,,,,,,11,,,,,,,,,,,,,,391.7719999998226,,response,,,4,F,,,,,Space,keypress(Space),,,,instrumental,----- -- ---- --- -- --- -------- ------------ ---------- --<br>- ------- ------ --------- -- ------------ -- --- ---- -----<br>carved ---- ---- ------ ------ ------- --- ----- ---------<br>---- --- -------- -------- --- --- -- ------- --- --- -----<br>-- --- ------ ------- --- --- -------- ---- --------- --<br>---------- -- -------- ----------------,177966.7000000002,177965.7999999998,177557.357,177558.7999999998,177574.028,177973.936,,20,carved
screen,html.Screen,0_4_1_0_1_21,2021-12-02T10:11:12.449Z,,,,,,,,,,,,,,,,11,,,,,,,,,,,,,,367.8639999998268,,response,,,4,F,,,,,Space,keypress(Space),,,,instrumental,----- -- ---- --- -- --- -------- ------------ ---------- --<br>- ------- ------ --------- -- ------------ -- --- ---- -----<br>------ into ---- ------ ------ ------- --- ----- ---------<br>---- --- -------- -------- --- --- -- ------- --- --- -----<br>-- --- ------ ------- --- --- -------- ---- --------- --<br>---------- -- -------- ----------------,178342.7000000002,178341.7999999998,177957.268,177967,177973.936,178357.471,,21,into
screen,html.Screen,0_4_1_0_1_22,2021-12-02T10:11:12.857Z,,,,,,,,,,,,,,,,11,,,,,,,,,,,,,,392.4290000003821,,response,,,4,F,,,,,Space,keypress(Space),,,,instrumental,----- -- ---- --- -- --- -------- ------------ ---------- --<br>- ------- ------ --------- -- ------------ -- --- ---- -----<br>------ ---- many ------ ------ ------- --- ----- ---------<br>---- --- -------- -------- --- --- -- ------- --- --- -----<br>-- --- ------ ------- --- --- -------- ---- --------- --<br>---------- -- -------- ----------------,178750.7999999998,178749.90000000037,178340.801,178342.90000000037,178357.471,178757.636,,22,many
screen,html.Screen,0_4_1_0_1_23,2021-12-02T10:11:13.225Z,,,,,,,,,,,,,,,,11,,,,,,,,,,,,,,360.2640000003739,,response,,,4,F,,,,,Space,keypress(Space),,,,instrumental,----- -- ---- --- -- --- -------- ------------ ---------- --<br>- ------- ------ --------- -- ------------ -- --- ---- -----<br>------ ---- ---- oblong ------ ------- --- ----- ---------<br>---- --- -------- -------- --- --- -- ------- --- --- -----<br>-- --- ------ ------- --- --- -------- ---- --------- --<br>---------- -- -------- ----------------,179118.60000000056,179117.90000000037,178740.965,178751,178757.636,179124.455,,23,oblong
screen,html.Screen,0_4_1_0_1_24,2021-12-02T10:11:13.633Z,,,,,,,,,,,,,,,,11,,,,,,,,,,,,,,401.44500000038533,,response,,,4,F,,,,,Space,keypress(Space),,,,instrumental,----- -- ---- --- -- --- -------- ------------ ---------- --<br>- ------- ------ --------- -- ------------ -- --- ---- -----<br>------ ---- ---- ------ wooden ------- --- ----- ---------<br>---- --- -------- -------- --- --- -- ------- --- --- -----<br>-- --- ------ ------- --- --- -------- ---- --------- --<br>---------- -- -------- ----------------,179526.7999999998,179525.90000000037,179107.783,179118.90000000037,179124.455,179541.192,,24,wooden
screen,html.Screen,0_4_1_0_1_25,2021-12-02T10:11:14.001Z,,,,,,,,,,,,,,,,11,,,,,,,,,,,,,,353.00800000017625,,response,,,4,F,,,,,Space,keypress(Space),,,,instrumental,----- -- ---- --- -- --- -------- ------------ ---------- --<br>- ------- ------ --------- -- ------------ -- --- ---- -----<br>------ ---- ---- ------ ------ tablets --- ----- ---------<br>---- --- -------- -------- --- --- -- ------- --- --- -----<br>-- --- ------ ------- --- --- -------- ---- --------- --<br>---------- -- -------- ----------------,179895,179894.2000000002,179524.521,179527,179541.192,179907.912,,25,tablets
screen,html.Screen,0_4_1_0_1_26,2021-12-02T10:11:14.409Z,,,,,,,,,,,,,,,,11,,,,,,,,,,,,,,393.88799999980256,,response,,,4,F,,,,,Space,keypress(Space),,,,instrumental,----- -- ---- --- -- --- -------- ------------ ---------- --<br>- ------- ------ --------- -- ------------ -- --- ---- -----<br>------ ---- ---- ------ ------ ------- and ----- ---------<br>---- --- -------- -------- --- --- -- ------- --- --- -----<br>-- --- ------ ------- --- --- -------- ---- --------- --<br>---------- -- -------- ----------------,180302.60000000056,180301.7999999998,179891.242,179895.2999999998,179907.912,180308.022,,26,and
screen,html.Screen,0_4_1_0_1_27,2021-12-02T10:11:14.809Z,,,,,,,,,,,,,,,,11,,,,,,,,,,,,,,393.77799999981653,,response,,,4,F,,,,,Space,keypress(Space),,,,instrumental,----- -- ---- --- -- --- -------- ------------ ---------- --<br>- ------- ------ --------- -- ------------ -- --- ---- -----<br>------ ---- ---- ------ ------ ------- --- other ---------<br>---- --- -------- -------- --- --- -- ------- --- --- -----<br>-- --- ------ ------- --- --- -------- ---- --------- --<br>---------- -- -------- ----------------,180702.60000000056,180701.7999999998,180291.352,180302.7999999998,180308.022,180708.102,,27,other
screen,html.Screen,0_4_1_0_1_28,2021-12-02T10:11:15.211Z,,,,,,,,,,,,,,,,11,,,,,,,,,,,,,,393.59800000017276,,response,,,4,F,,,,,Space,keypress(Space),,,,instrumental,----- -- ---- --- -- --- -------- ------------ ---------- --<br>- ------- ------ --------- -- ------------ -- --- ---- -----<br>------ ---- ---- ------ ------ ------- --- ----- artifacts<br>---- --- -------- -------- --- --- -- ------- --- --- -----<br>-- --- ------ ------- --- --- -------- ---- --------- --<br>---------- -- -------- ----------------,181102.5,181101.7000000002,180691.432,180702.7999999998,180708.102,181108.115,,28,artifacts
screen,html.Screen,0_4_1_0_1_29,2021-12-02T10:11:15.651Z,,,,,,,,,,,,,,,,11,,,,,,,,,,,,,,433.68499999982305,,response,,,4,F,,,,,Space,keypress(Space),,,,instrumental,----- -- ---- --- -- --- -------- ------------ ---------- --<br>- ------- ------ --------- -- ------------ -- --- ---- -----<br>------ ---- ---- ------ ------ ------- --- ----- ---------<br>from --- -------- -------- --- --- -- ------- --- --- -----<br>-- --- ------ ------- --- --- -------- ---- --------- --<br>---------- -- -------- ----------------,181542.60000000056,181541.7999999998,181091.446,181102.7999999998,181108.115,181558.44,,29,from
screen,html.Screen,0_4_1_0_1_30,2021-12-02T10:11:16.059Z,,,,,,,,,,,,,,,,11,,,,,,,,,,,,,,391.26000000018394,,response,,,4,F,,,,,Space,keypress(Space),,,,instrumental,----- -- ---- --- -- --- -------- ------------ ---------- --<br>- ------- ------ --------- -- ------------ -- --- ---- -----<br>------ ---- ---- ------ ------ ------- --- ----- ---------<br>---- the -------- -------- --- --- -- ------- --- --- -----<br>-- --- ------ ------- --- --- -------- ---- --------- --<br>---------- -- -------- ----------------,181950.5,181949.7000000002,181541.768,181542.90000000037,181558.44,181958.434,,30,the
screen,html.Screen,0_4_1_0_1_31,2021-12-02T10:11:16.435Z,,,,,,,,,,,,,,,,11,,,,,,,,,,,,,,367.1660000005504,,response,,,4,F,,,,,Space,keypress(Space),,,,instrumental,----- -- ---- --- -- --- -------- ------------ ---------- --<br>- ------- ------ --------- -- ------------ -- --- ---- -----<br>------ ---- ---- ------ ------ ------- --- ----- ---------<br>---- --- island's -------- --- --- -- ------- --- --- -----<br>-- --- ------ ------- --- --- -------- ---- --------- --<br>---------- -- -------- ----------------,182326.5,182325.60000000056,181941.764,181950.7000000002,181958.434,182341.765,,31,island's
screen,html.Screen,0_4_1_0_1_32,2021-12-02T10:11:16.779Z,,,,,,,,,,,,,,,,11,,,,,,,,,,,,,,327.9350000001723,,response,,,4,F,,,,,Space,keypress(Space),,,,instrumental,----- -- ---- --- -- --- -------- ------------ ---------- --<br>- ------- ------ --------- -- ------------ -- --- ---- -----<br>------ ---- ---- ------ ------ ------- --- ----- ---------<br>---- --- -------- history. --- --- -- ------- --- --- -----<br>-- --- ------ ------- --- --- -------- ---- --------- --<br>---------- -- -------- ----------------,182670.40000000037,182669.7000000002,182325.096,182326.7999999998,182341.765,182675.363,,32,history.
screen,html.Screen,0_4_1_0_1_33,2021-12-02T10:11:17.210Z,,,,,,,,,,,,,,,,11,,,,,,,,,,,,,,426.1369999999879,,response,,,4,F,,,,,Space,keypress(Space),,,,instrumental,----- -- ---- --- -- --- -------- ------------ ---------- --<br>- ------- ------ --------- -- ------------ -- --- ---- -----<br>------ ---- ---- ------ ------ ------- --- ----- ---------<br>---- --- -------- -------- The --- -- ------- --- --- -----<br>-- --- ------ ------- --- --- -------- ---- --------- --<br>---------- -- -------- ----------------,183102.40000000037,183101.5,182658.691,182670.60000000056,182675.363,183108.734,,33,The
screen,html.Screen,0_4_1_0_1_34,2021-12-02T10:11:17.562Z,,,,,,,,,,,,,,,,11,,,,,,,,,,,,,,344.86600000056205,,response,,,4,F,,,,,Space,keypress(Space),,,,instrumental,----- -- ---- --- -- --- -------- ------------ ---------- --<br>- ------- ------ --------- -- ------------ -- --- ---- -----<br>------ ---- ---- ------ ------ ------- --- ----- ---------<br>---- --- -------- -------- --- art -- ------- --- --- -----<br>-- --- ------ ------- --- --- -------- ---- --------- --<br>---------- -- -------- ----------------,183454.40000000037,183453.60000000056,183092.064,183102.60000000056,183108.734,183458.828,,34,art
screen,html.Screen,0_4_1_0_1_35,2021-12-02T10:11:17.930Z,,,,,,,,,,,,,,,,11,,,,,,,,,,,,,,362.7720000005502,,response,,,4,F,,,,,Space,keypress(Space),,,,instrumental,----- -- ---- --- -- --- -------- ------------ ---------- --<br>- ------- ------ --------- -- ------------ -- --- ---- -----<br>------ ---- ---- ------ ------ ------- --- ----- ---------<br>---- --- -------- -------- --- --- of ------- --- --- -----<br>-- --- ------ ------- --- --- -------- ---- --------- --<br>---------- -- -------- ----------------,183822.40000000037,183821.60000000056,183442.158,183454.60000000056,183458.828,183825.625,,35,of
screen,html.Screen,0_4_1_0_1_36,2021-12-02T10:11:18.314Z,,,,,,,,,,,,,,,,11,,,,,,,,,,,,,,379.875,,response,,,4,F,,,,,Space,keypress(Space),,,,instrumental,----- -- ---- --- -- --- -------- ------------ ---------- --<br>- ------- ------ --------- -- ------------ -- --- ---- -----<br>------ ---- ---- ------ ------ ------- --- ----- ---------<br>---- --- -------- -------- --- --- -- writing --- --- -----<br>-- --- ------ ------- --- --- -------- ---- --------- --<br>---------- -- -------- ----------------,184206.40000000037,184205.5,183808.954,183822.60000000056,183825.625,184208.878,,36,writing
screen,html.Screen,0_4_1_0_1_37,2021-12-02T10:11:18.802Z,,,,,,,,,,,,,,,,11,,,,,,,,,,,,,,484.622000000003,,response,,,4,F,,,,,Space,keypress(Space),,,,instrumental,----- -- ---- --- -- --- -------- ------------ ---------- --<br>- ------- ------ --------- -- ------------ -- --- ---- -----<br>------ ---- ---- ------ ------ ------- --- ----- ---------<br>---- --- -------- -------- --- --- -- ------- was --- -----<br>-- --- ------ ------- --- --- -------- ---- --------- --<br>---------- -- -------- ----------------,184694.40000000037,184693.5,184192.21,184206.60000000056,184208.878,184709.277,,37,was
screen,html.Screen,0_4_1_0_1_38,2021-12-02T10:11:19.186Z,,,,,,,,,,,,,,,,11,,,,,,,,,,,,,,368.22299999999814,,response,,,4,F,,,,,Space,keypress(Space),,,,instrumental,----- -- ---- --- -- --- -------- ------------ ---------- --<br>- ------- ------ --------- -- ------------ -- --- ---- -----<br>------ ---- ---- ------ ------ ------- --- ----- ---------<br>---- --- -------- -------- --- --- -- ------- --- not -----<br>-- --- ------ ------- --- --- -------- ---- --------- --<br>---------- -- -------- ----------------,185078.2000000002,185077.5,184692.604,184694.60000000056,184709.277,185092.561,,38,not
screen,html.Screen,0_4_1_0_1_39,2021-12-02T10:11:19.698Z,,,,,,,,,,,,,,,,11,,,,,,,,,,,,,,496.83900000038557,,response,,,4,F,,,,,Space,keypress(Space),,,,instrumental,----- -- ---- --- -- --- -------- ------------ ---------- --<br>- ------- ------ --------- -- ------------ -- --- ---- -----<br>------ ---- ---- ------ ------ ------- --- ----- ---------<br>---- --- -------- -------- --- --- -- ------- --- --- known<br>-- --- ------ ------- --- --- -------- ---- --------- --<br>---------- -- -------- ----------------,185590.2999999998,185589.40000000037,185075.891,185078.5,185092.561,185592.598,,39,known
screen,html.Screen,0_4_1_0_1_40,2021-12-02T10:11:20.146Z,,,,,,,,,,,,,,,,11,,,,,,,,,,,,,,444.90200000000186,,response,,,4,F,,,,,Space,keypress(Space),,,,instrumental,----- -- ---- --- -- --- -------- ------------ ---------- --<br>- ------- ------ --------- -- ------------ -- --- ---- -----<br>------ ---- ---- ------ ------ ------- --- ----- ---------<br>---- --- -------- -------- --- --- -- ------- --- --- -----<br>in --- ------ ------- --- --- -------- ---- --------- --<br>---------- -- -------- ----------------,186038.2000000002,186037.5,185575.929,185590.5,185592.598,186042.909,,40,in
screen,html.Screen,0_4_1_0_1_41,2021-12-02T10:11:20.546Z,,,,,,,,,,,,,,,,11,,,,,,,,,,,,,,394.4910000003583,,response,,,4,F,,,,,Space,keypress(Space),,,,instrumental,----- -- ---- --- -- --- -------- ------------ ---------- --<br>- ------- ------ --------- -- ------------ -- --- ---- -----<br>------ ---- ---- ------ ------ ------- --- ----- ---------<br>---- --- -------- -------- --- --- -- ------- --- --- -----<br>-- any ------ ------- --- --- -------- ---- --------- --<br>---------- -- -------- ----------------,186438.2999999998,186437.40000000037,186026.237,186038.5,186042.909,186442.848,,41,any
screen,html.Screen,0_4_1_0_1_42,2021-12-02T10:11:20.962Z,,,,,,,,,,,,,,,,11,,,,,,,,,,,,,,410.65200000000186,,response,,,4,F,,,,,Space,keypress(Space),,,,instrumental,----- -- ---- --- -- --- -------- ------------ ---------- --<br>- ------- ------ --------- -- ------------ -- --- ---- -----<br>------ ---- ---- ------ ------ ------- --- ----- ---------<br>---- --- -------- -------- --- --- -- ------- --- --- -----<br>-- --- nearby ------- --- --- -------- ---- --------- --<br>---------- -- -------- ----------------,186854.2000000002,186853.5,186426.179,186438.5,186442.848,186859.658,,42,nearby
screen,html.Screen,0_4_1_0_1_43,2021-12-02T10:11:21.314Z,,,,,,,,,,,,,,,,11,,,,,,,,,,,,,,345.7420000003767,,response,,,4,F,,,,,Space,keypress(Space),,,,instrumental,----- -- ---- --- -- --- -------- ------------ ---------- --<br>- ------- ------ --------- -- ------------ -- --- ---- -----<br>------ ---- ---- ------ ------ ------- --- ----- ---------<br>---- --- -------- -------- --- --- -- ------- --- --- -----<br>-- --- ------ islands --- --- -------- ---- --------- --<br>---------- -- -------- ----------------,187206.2000000002,187205.40000000037,186842.988,186854.5,186859.658,187209.745,,43,islands
screen,html.Screen,0_4_1_0_1_44,2021-12-02T10:11:21.682Z,,,,,,,,,,,,,,,,11,,,,,,,,,,,,,,363.6550000003772,,response,,,4,F,,,,,Space,keypress(Space),,,,instrumental,----- -- ---- --- -- --- -------- ------------ ---------- --<br>- ------- ------ --------- -- ------------ -- --- ---- -----<br>------ ---- ---- ------ ------ ------- --- ----- ---------<br>---- --- -------- -------- --- --- -- ------- --- --- -----<br>-- --- ------ ------- and --- -------- ---- --------- --<br>---------- -- -------- ----------------,187574.2000000002,187573.40000000037,187193.075,187206.5,187209.745,187576.51,,44,and
screen,html.Screen,0_4_1_0_1_45,2021-12-02T10:11:22.058Z,,,,,,,,,,,,,,,,11,,,,,,,,,,,,,,372.8900000003632,,response,,,4,F,,,,,Space,keypress(Space),,,,instrumental,----- -- ---- --- -- --- -------- ------------ ---------- --<br>- ------- ------ --------- -- ------------ -- --- ---- -----<br>------ ---- ---- ------ ------ ------- --- ----- ---------<br>---- --- -------- -------- --- --- -- ------- --- --- -----<br>-- --- ------ ------- --- the -------- ---- --------- --<br>---------- -- -------- ----------------,187950.2000000002,187949.40000000037,187559.84,187574.40000000037,187576.51,187960.063,,45,the
screen,html.Screen,0_4_1_0_1_46,2021-12-02T10:11:22.450Z,,,,,,,,,,,,,,,,11,,,,,,,,,,,,,,381.3370000003779,,response,,,4,F,,,,,Space,keypress(Space),,,,instrumental,----- -- ---- --- -- --- -------- ------------ ---------- --<br>- ------- ------ --------- -- ------------ -- --- ---- -----<br>------ ---- ---- ------ ------ ------- --- ----- ---------<br>---- --- -------- -------- --- --- -- ------- --- --- -----<br>-- --- ------ ------- --- --- script's ---- --------- --<br>---------- -- -------- ----------------,188342.10000000056,188341.40000000037,187943.391,187950.40000000037,187960.063,188343.463,,46,script's
screen,html.Screen,0_4_1_0_1_47,2021-12-02T10:11:22.834Z,,,,,,,,,,,,,,,,11,,,,,,,,,,,,,,381.73700000019744,,response,,,4,F,,,,,Space,keypress(Space),,,,instrumental,----- -- ---- --- -- --- -------- ------------ ---------- --<br>- ------- ------ --------- -- ------------ -- --- ---- -----<br>------ ---- ---- ------ ------ ------- --- ----- ---------<br>---- --- -------- -------- --- --- -- ------- --- --- -----<br>-- --- ------ ------- --- --- -------- mere --------- --<br>---------- -- -------- ----------------,188726,188725.2000000002,188326.792,188342.40000000037,188343.463,188743.518,,47,mere
screen,html.Screen,0_4_1_0_1_48,2021-12-02T10:11:23.242Z,,,,,,,,,,,,,,,,11,,,,,,,,,,,,,,389.7819999998028,,response,,,4,F,,,,,Space,keypress(Space),,,,instrumental,----- -- ---- --- -- --- -------- ------------ ---------- --<br>- ------- ------ --------- -- ------------ -- --- ---- -----<br>------ ---- ---- ------ ------ ------- --- ----- ---------<br>---- --- -------- -------- --- --- -- ------- --- --- -----<br>-- --- ------ ------- --- --- -------- ---- existence --<br>---------- -- -------- ----------------,189134.10000000056,189133.2999999998,188726.848,188726.2999999998,188743.518,189143.486,,48,existence
screen,html.Screen,0_4_1_0_1_49,2021-12-02T10:11:23.690Z,,,,,,,,,,,,,,,,11,,,,,,,,,,,,,,437.61400000055437,,response,,,4,F,,,,,Space,keypress(Space),,,,instrumental,----- -- ---- --- -- --- -------- ------------ ---------- --<br>- ------- ------ --------- -- ------------ -- --- ---- -----<br>------ ---- ---- ------ ------ ------- --- ----- ---------<br>---- --- -------- -------- --- --- -- ------- --- --- -----<br>-- --- ------ ------- --- --- -------- ---- --------- is<br>---------- -- -------- ----------------,189581.90000000037,189581.10000000056,189126.818,189134.2999999998,189143.486,189593.839,,49,is
screen,html.Screen,0_4_1_0_1_50,2021-12-02T10:11:24.075Z,,,,,,,,,,,,,,,,11,,,,,,,,,,,,,,371.7610000005516,,response,,,4,F,,,,,Space,keypress(Space),,,,instrumental,----- -- ---- --- -- --- -------- ------------ ---------- --<br>- ------- ------ --------- -- ------------ -- --- ---- -----<br>------ ---- ---- ------ ------ ------- --- ----- ---------<br>---- --- -------- -------- --- --- -- ------- --- --- -----<br>-- --- ------ ------- --- --- -------- ---- --------- --<br>sufficient -- -------- ----------------,189966.5,189965.60000000056,189577.167,189582.2000000002,189593.839,189977.21,,50,sufficient
