sender,sender_type,sender_id,timestamp,meta,,Blues,Classical,Country,Dance,Electronic,Folk,Gospel,Hip-Hop,Jazz,Latin,Musical/Film,New-age,Pop,Provo_ID,R&B,Rap,Reggae,Religious,Rock,Soul,Swing,Traditional,age,artist_name,correct,correctResponse,distraction,duration,education,ended_on,familiarity,gender,item,list,music_frequency,offensiveness,pleasantness,preference,response,response_action,snippet_file,song_name,song_rating,sound,text,time_commit,time_end,time_render,time_run,time_show,time_switch,url,word,word_ID
Instructions,html.Page,0_0,2021-12-02T11:24:08.780Z,"{""labjs_version"":""20.2.3"",""labjs_build"":{""flavor"":""production"",""commit"":""7ea907d66ca8aeef8054924ca5d82ffbe11e34e5""},""location"":""https://run.pavlovia.org/mvasilev/lab_music_f/"",""userAgent"":""Mozilla/5.0 (Windows NT 6.1; Win64; x64) AppleWebKit/537.36 (KHTML, like Gecko) Chrome/96.0.4664.45 Safari/537.36"",""platform"":""Win32"",""language"":""en-US"",""locale"":""en-US"",""timeZone"":""Europe/London"",""timezoneOffset"":0,""screen_width"":1920,""screen_height"":1080,""scroll_width"":1920,""scroll_height"":921,""window_innerWidth"":1920,""window_innerHeight"":969,""devicePixelRatio"":1}",,,,,,,,,,,,,,,,,,,,,,,,,,,,,39532.33700000112,,form submission,,,,,,,,,,,,,,,,47536.90000000037,47535.70000000112,7970.023,7983.800000000745,8003.363,47533.802,{},,
Headphones,html.Page,0_1,2021-12-02T11:24:11.518Z,,,,,,,,,,,,,,,,,,,,,,,,,,,,,,2740.1979999999967,,form submission,,,,,,,,,,,,,,,,50274.5,50274,47517.077,47537.5,47533.802,50289.227,,,
Holding screen,html.Screen,0_2_0_0,2021-12-02T11:24:21.519Z,,,,,,,,,,,,,,,,,,,,,,,,,,,,,,9994.732000000004,,timeout,,,,,,,,,,,,,,,,60273.20000000112,60267.29,50272.507,50274.90000000037,50289.227,60283.959,,,
screen,html.Screen,0_2_0_1_0,2021-12-02T11:24:22.481Z,,,,,,,,,,,,,,,,53,,,,,,,,,,,,,,948.94100000037,,response,,,99,,,,,,Space,keypress(Space),,,,,When -- ----- -- ------ - ------- --- ----------<br>------------- ------ ------ ---- ---- ------- ----- -- ----<br>-------- ------- -- ---------- --- - --- ----- ----- ----<br>---- --- --- ----- --- ---- ---- ------- ----- ---- -------<br>--- --- -- ----- -- --- ---- -- --- ---- -- ------ ------<br>--- ----- -- ----,61234.40000000037,61232.90000000037,60267.29,60273.60000000149,60283.959,61251.175,,0,When
screen,html.Screen,0_2_0_1_1,2021-12-02T11:24:22.952Z,,,,,,,,,,,,,,,,53,,,,,,,,,,,,,,453.3249999999971,,response,,,99,,,,,,Space,keypress(Space),,,,,---- it ----- -- ------ - ------- --- ----------<br>------------- ------ ------ ---- ---- ------- ----- -- ----<br>-------- ------- -- ---------- --- - --- ----- ----- ----<br>---- --- --- ----- --- ---- ---- ------- ----- ---- -------<br>--- --- -- ----- -- --- ---- -- --- ---- -- ------ ------<br>--- ----- -- ----,61705.300000000745,61704.5,61234.503,61234.90000000037,61251.175,61717.873,,1,it
screen,html.Screen,0_2_0_1_2,2021-12-02T11:24:23.368Z,,,,,,,,,,,,,,,,53,,,,,,,,,,,,,,402.6270000000004,,response,,,99,,,,,,Space,keypress(Space),,,,,---- -- comes -- ------ - ------- --- ----------<br>------------- ------ ------ ---- ---- ------- ----- -- ----<br>-------- ------- -- ---------- --- - --- ----- ----- ----<br>---- --- --- ----- --- ---- ---- ------- ----- ---- -------<br>--- --- -- ----- -- --- ---- -- --- ---- -- ------ ------<br>--- ----- -- ----,62121.300000000745,62120.5,61701.203,61705.60000000149,61717.873,62134.675,,2,comes
screen,html.Screen,0_2_0_1_3,2021-12-02T11:24:23.776Z,,,,,,,,,,,,,,,,53,,,,,,,,,,,,,,393.7250000003696,,response,,,99,,,,,,Space,keypress(Space),,,,,---- -- ----- to ------ - ------- --- ----------<br>------------- ------ ------ ---- ---- ------- ----- -- ----<br>-------- ------- -- ---------- --- - --- ----- ----- ----<br>---- --- --- ----- --- ---- ---- ------- ----- ---- -------<br>--- --- -- ----- -- --- ---- -- --- ---- -- ------ ------<br>--- ----- -- ----,62529.40000000037,62528.40000000037,62118.005,62121.60000000149,62134.675,62534.765,,3,to
screen,html.Screen,0_2_0_1_4,2021-12-02T11:24:24.160Z,,,,,,,,,,,,,,,,53,,,,,,,,,,,,,,377.53500000074564,,response,,,99,,,,,,Space,keypress(Space),,,,,---- -- ----- -- having - ------- --- ----------<br>------------- ------ ------ ---- ---- ------- ----- -- ----<br>-------- ------- -- ---------- --- - --- ----- ----- ----<br>---- --- --- ----- --- ---- ---- ------- ----- ---- -------<br>--- --- -- ----- -- --- ---- -- --- ---- -- ------ ------<br>--- ----- -- ----,62913.40000000037,62912.300000000745,62518.095,62529.800000000745,62534.765,62918.274,,4,having
screen,html.Screen,0_2_0_1_5,2021-12-02T11:24:24.511Z,,,,,,,,,,,,,,,,53,,,,,,,,,,,,,,346.02600000074744,,response,,,99,,,,,,Space,keypress(Space),,,,,---- -- ----- -- ------ a ------- --- ----------<br>------------- ------ ------ ---- ---- ------- ----- -- ----<br>-------- ------- -- ---------- --- - --- ----- ----- ----<br>---- --- --- ----- --- ---- ---- ------- ----- ---- -------<br>--- --- -- ----- -- --- ---- -- --- ---- -- ------ ------<br>--- ----- -- ----,63265.10000000149,63264.300000000745,62901.603,62913.70000000112,62918.274,63268.224,,5,a
screen,html.Screen,0_2_0_1_6,2021-12-02T11:24:24.888Z,,,,,,,,,,,,,,,,53,,,,,,,,,,,,,,372.17600000037055,,response,,,99,,,,,,Space,keypress(Space),,,,,---- -- ----- -- ------ - lasting --- ----------<br>------------- ------ ------ ---- ---- ------- ----- -- ----<br>-------- ------- -- ---------- --- - --- ----- ----- ----<br>---- --- --- ----- --- ---- ---- ------- ----- ---- -------<br>--- --- -- ----- -- --- ---- -- --- ---- -- ------ ------<br>--- ----- -- ----,63641.300000000745,63640.40000000037,63251.555,63265.60000000149,63268.224,63651.75,,6,lasting
screen,html.Screen,0_2_0_1_7,2021-12-02T11:24:25.304Z,,,,,,,,,,,,,,,,53,,,,,,,,,,,,,,404.65000000037253,,response,,,99,,,,,,Space,keypress(Space),,,,,---- -- ----- -- ------ - ------- and ----------<br>------------- ------ ------ ---- ---- ------- ----- -- ----<br>-------- ------- -- ---------- --- - --- ----- ----- ----<br>---- --- --- ----- --- ---- ---- ------- ----- ---- -------<br>--- --- -- ----- -- --- ---- -- --- ---- -- ------ ------<br>--- ----- -- ----,64057.300000000745,64056.40000000037,63635.079,63641.60000000149,63651.75,64068.494,,7,and
screen,html.Screen,0_2_0_1_8,2021-12-02T11:24:25.736Z,,,,,,,,,,,,,,,,53,,,,,,,,,,,,,,419.8060000007463,,response,,,99,,,,,,Space,keypress(Space),,,,,---- -- ----- -- ------ - ------- --- fulfilling<br>------------- ------ ------ ---- ---- ------- ----- -- ----<br>-------- ------- -- ---------- --- - --- ----- ----- ----<br>---- --- --- ----- --- ---- ---- ------- ----- ---- -------<br>--- --- -- ----- -- --- ---- -- --- ---- -- ------ ------<br>--- ----- -- ----,64489.300000000745,64488.300000000745,64051.824,64057.70000000112,64068.494,64502.05,,8,fulfilling
screen,html.Screen,0_2_0_1_9,2021-12-02T11:24:26.104Z,,,,,,,,,,,,,,,,53,,,,,,,,,,,,,,354.3500000003696,,response,,,99,,,,,,Space,keypress(Space),,,,,"---- -- ----- -- ------ - ------- --- ----------<br>relationship, ------ ------ ---- ---- ------- ----- -- ----<br>-------- ------- -- ---------- --- - --- ----- ----- ----<br>---- --- --- ----- --- ---- ---- ------- ----- ---- -------<br>--- --- -- ----- -- --- ---- -- --- ---- -- ------ ------<br>--- ----- -- ----",64857.20000000112,64856.40000000037,64485.378,64489.60000000149,64502.05,64868.773,,9,"relationship,"
screen,html.Screen,0_2_0_1_10,2021-12-02T11:24:26.527Z,,,,,,,,,,,,,,,,53,,,,,,,,,,,,,,411.527000000744,,response,,,99,,,,,,Space,keypress(Space),,,,,---- -- ----- -- ------ - ------- --- ----------<br>------------- common ------ ---- ---- ------- ----- -- ----<br>-------- ------- -- ---------- --- - --- ----- ----- ----<br>---- --- --- ----- --- ---- ---- ------- ----- ---- -------<br>--- --- -- ----- -- --- ---- -- --- ---- -- ------ ------<br>--- ----- -- ----,65281.10000000149,65280.300000000745,64852.102,64857.60000000149,64868.773,65285.425,,10,common
screen,html.Screen,0_2_0_1_11,2021-12-02T11:24:27.151Z,,,,,,,,,,,,,,,,53,,,,,,,,,,,,,,618.7750000011147,,response,,,99,,,,,,Space,keypress(Space),,,,,---- -- ----- -- ------ - ------- --- ----------<br>------------- ------ wisdom ---- ---- ------- ----- -- ----<br>-------- ------- -- ---------- --- - --- ----- ----- ----<br>---- --- --- ----- --- ---- ---- ------- ----- ---- -------<br>--- --- -- ----- -- --- ---- -- --- ---- -- ------ ------<br>--- ----- -- ----,65905.10000000149,65904.20000000112,65268.756,65281.40000000037,65285.425,65919.129,,11,wisdom
screen,html.Screen,0_2_0_1_12,2021-12-02T11:24:27.471Z,,,,,,,,,,,,,,,,53,,,,,,,,,,,,,,305.0710000011168,,response,,,99,,,,,,Space,keypress(Space),,,,,---- -- ----- -- ------ - ------- --- ----------<br>------------- ------ ------ says ---- ------- ----- -- ----<br>-------- ------- -- ---------- --- - --- ----- ----- ----<br>---- --- --- ----- --- ---- ---- ------- ----- ---- -------<br>--- --- -- ----- -- --- ---- -- --- ---- -- ------ ------<br>--- ----- -- ----,66225,66224.20000000112,65902.457,65905.30000000075,65919.129,66235.765,,12,says
screen,html.Screen,0_2_0_1_13,2021-12-02T11:24:27.703Z,,,,,,,,,,,,,,,,53,,,,,,,,,,,,,,220.43500000111817,,response,,,99,,,,,,Space,keypress(Space),,,,,---- -- ----- -- ------ - ------- --- ----------<br>------------- ------ ------ ---- that ------- ----- -- ----<br>-------- ------- -- ---------- --- - --- ----- ----- ----<br>---- --- --- ----- --- ---- ---- ------- ----- ---- -------<br>--- --- -- ----- -- --- ---- -- --- ---- -- ------ ------<br>--- ----- -- ----,66457,66456.20000000112,66219.095,66225.30000000075,66235.765,66469.16,,13,that
screen,html.Screen,0_2_0_1_14,2021-12-02T11:24:28.111Z,,,,,,,,,,,,,,,,53,,,,,,,,,,,,,,395.0400000011141,,response,,,99,,,,,,Space,keypress(Space),,,,,---- -- ----- -- ------ - ------- --- ----------<br>------------- ------ ------ ---- ---- feeling ----- -- ----<br>-------- ------- -- ---------- --- - --- ----- ----- ----<br>---- --- --- ----- --- ---- ---- ------- ----- ---- -------<br>--- --- -- ----- -- --- ---- -- --- ---- -- ------ ------<br>--- ----- -- ----,66865,66864.20000000112,66452.49,66457.30000000075,66469.16,66869.345,,14,feeling
screen,html.Screen,0_2_0_1_15,2021-12-02T11:24:28.463Z,,,,,,,,,,,,,,,,53,,,,,,,,,,,,,,346.75500000148895,,response,,,99,,,,,,Space,keypress(Space),,,,,---- -- ----- -- ------ - ------- --- ----------<br>------------- ------ ------ ---- ---- ------- close -- ----<br>-------- ------- -- ---------- --- - --- ----- ----- ----<br>---- --- --- ----- --- ---- ---- ------- ----- ---- -------<br>--- --- -- ----- -- --- ---- -- --- ---- -- ------ ------<br>--- ----- -- ----,67216.90000000037,67216.10000000149,66852.673,66865.30000000075,66869.345,67219.344,,15,close
screen,html.Screen,0_2_0_1_16,2021-12-02T11:24:28.663Z,,,,,,,,,,,,,,,,53,,,,,,,,,,,,,,196.85600000112026,,response,,,99,,,,,,Space,keypress(Space),,,,,---- -- ----- -- ------ - ------- --- ----------<br>------------- ------ ------ ---- ---- ------- ----- to ----<br>-------- ------- -- ---------- --- - --- ----- ----- ----<br>---- --- --- ----- --- ---- ---- ------- ----- ---- -------<br>--- --- -- ----- -- --- ---- -- --- ---- -- ------ ------<br>--- ----- -- ----,67416.90000000037,67416.20000000112,67202.674,67217.20000000112,67219.344,67419.414,,16,to
screen,html.Screen,0_2_0_1_17,2021-12-02T11:24:29.183Z,,,,,,,,,,,,,,,,53,,,,,,,,,,,,,,516.7860000011133,,response,,,99,,,,,,Space,keypress(Space),,,,,---- -- ----- -- ------ - ------- --- ----------<br>------------- ------ ------ ---- ---- ------- ----- -- your<br>-------- ------- -- ---------- --- - --- ----- ----- ----<br>---- --- --- ----- --- ---- ---- ------- ----- ---- -------<br>--- --- -- ----- -- --- ---- -- --- ---- -- ------ ------<br>--- ----- -- ----,67937,67936.20000000112,67402.744,67417.20000000112,67419.414,67952.867,,17,your
screen,html.Screen,0_2_0_1_18,2021-12-02T11:24:29.623Z,,,,,,,,,,,,,,,,53,,,,,,,,,,,,,,423.23300000149175,,response,,,99,,,,,,Space,keypress(Space),,,,,---- -- ----- -- ------ - ------- --- ----------<br>------------- ------ ------ ---- ---- ------- ----- -- ----<br>romantic ------- -- ---------- --- - --- ----- ----- ----<br>---- --- --- ----- --- ---- ---- ------- ----- ---- -------<br>--- --- -- ----- -- --- ---- -- --- ---- -- ------ ------<br>--- ----- -- ----,68376.90000000037,68376.10000000149,67936.197,67937.20000000112,67952.867,68386.386,,18,romantic
screen,html.Screen,0_2_0_1_19,2021-12-02T11:24:30.015Z,,,,,,,,,,,,,,,,53,,,,,,,,,,,,,,381.814000001119,,response,,,99,,,,,,Space,keypress(Space),,,,,---- -- ----- -- ------ - ------- --- ----------<br>------------- ------ ------ ---- ---- ------- ----- -- ----<br>-------- partner -- ---------- --- - --- ----- ----- ----<br>---- --- --- ----- --- ---- ---- ------- ----- ---- -------<br>--- --- -- ----- -- --- ---- -- --- ---- -- ------ ------<br>--- ----- -- ----,68769,68768.20000000112,68369.715,68377.10000000149,68386.386,68769.817,,19,partner
screen,html.Screen,0_2_0_1_20,2021-12-02T11:24:30.207Z,,,,,,,,,,,,,,,,53,,,,,,,,,,,,,,190.38300000112213,,response,,,99,,,,,,Space,keypress(Space),,,,,---- -- ----- -- ------ - ------- --- ----------<br>------------- ------ ------ ---- ---- ------- ----- -- ----<br>-------- ------- is ---------- --- - --- ----- ----- ----<br>---- --- --- ----- --- ---- ---- ------- ----- ---- -------<br>--- --- -- ----- -- --- ---- -- --- ---- -- ------ ------<br>--- ----- -- ----,68961,68960.20000000112,68753.146,68769.20000000112,68769.817,68969.827,,20,is
screen,html.Screen,0_2_0_1_21,2021-12-02T11:24:30.759Z,,,,,,,,,,,,,,,,53,,,,,,,,,,,,,,542.2730000014853,,response,,,99,,,,,,Space,keypress(Space),,,,,---- -- ----- -- ------ - ------- --- ----------<br>------------- ------ ------ ---- ---- ------- ----- -- ----<br>-------- ------- -- paramount. --- - --- ----- ----- ----<br>---- --- --- ----- --- ---- ---- ------- ----- ---- -------<br>--- --- -- ----- -- --- ---- -- --- ---- -- ------ ------<br>--- ----- -- ----,69513,69512.10000000149,68953.157,68961.30000000075,68969.827,69520.011,,21,paramount.
screen,html.Screen,0_2_0_1_22,2021-12-02T11:24:31.399Z,,,,,,,,,,,,,,,,53,,,,,,,,,,,,,,632.0890000014915,,response,,,99,,,,,,Space,keypress(Space),,,,,---- -- ----- -- ------ - ------- --- ----------<br>------------- ------ ------ ---- ---- ------- ----- -- ----<br>-------- ------- -- ---------- But - --- ----- ----- ----<br>---- --- --- ----- --- ---- ---- ------- ----- ---- -------<br>--- --- -- ----- -- --- ---- -- --- ---- -- ------ ------<br>--- ----- -- ----,70152.80000000075,70152.10000000149,69503.34,69513.30000000075,69520.011,70170.127,,22,But
screen,html.Screen,0_2_0_1_23,2021-12-02T11:24:31.583Z,,,,,,,,,,,,,,,,53,,,,,,,,,,,,,,165.87300000000687,,response,,,99,,,,,,Space,keypress(Space),,,,,---- -- ----- -- ------ - ------- --- ----------<br>------------- ------ ------ ---- ---- ------- ----- -- ----<br>-------- ------- -- ---------- --- a --- ----- ----- ----<br>---- --- --- ----- --- ---- ---- ------- ----- ---- -------<br>--- --- -- ----- -- --- ---- -- --- ---- -- ------ ------<br>--- ----- -- ----,70336.80000000075,70336,70153.457,70153.10000000149,70170.127,70353.546,,23,a
screen,html.Screen,0_2_0_1_24,2021-12-02T11:24:32.039Z,,,,,,,,,,,,,,,,53,,,,,,,,,,,,,,438.554000001488,,response,,,99,,,,,,Space,keypress(Space),,,,,---- -- ----- -- ------ - ------- --- ----------<br>------------- ------ ------ ---- ---- ------- ----- -- ----<br>-------- ------- -- ---------- --- - new ----- ----- ----<br>---- --- --- ----- --- ---- ---- ------- ----- ---- -------<br>--- --- -- ----- -- --- ---- -- --- ---- -- ------ ------<br>--- ----- -- ----,70792.80000000075,70792.10000000149,70336.876,70337.20000000112,70353.546,70803.642,,24,new
screen,html.Screen,0_2_0_1_25,2021-12-02T11:24:32.223Z,,,,,,,,,,,,,,,,53,,,,,,,,,,,,,,172.45800000148301,,response,,,99,,,,,,Space,keypress(Space),,,,,---- -- ----- -- ------ - ------- --- ----------<br>------------- ------ ------ ---- ---- ------- ----- -- ----<br>-------- ------- -- ---------- --- - --- study ----- ----<br>---- --- --- ----- --- ---- ---- ------- ----- ---- -------<br>--- --- -- ----- -- --- ---- -- --- ---- -- ------ ------<br>--- ----- -- ----,70976.80000000075,70976.10000000149,70786.972,70793.10000000149,70803.642,70987.043,,25,study
screen,html.Screen,0_2_0_1_26,2021-12-02T11:24:32.615Z,,,,,,,,,,,,,,,,53,,,,,,,,,,,,,,381.3570000003674,,response,,,99,,,,,,Space,keypress(Space),,,,,---- -- ----- -- ------ - ------- --- ----------<br>------------- ------ ------ ---- ---- ------- ----- -- ----<br>-------- ------- -- ---------- --- - --- ----- finds ----<br>---- --- --- ----- --- ---- ---- ------- ----- ---- -------<br>--- --- -- ----- -- --- ---- -- --- ---- -- ------ ------<br>--- ----- -- ----,71369.20000000112,71368.40000000037,70970.373,70977,70987.043,71370.505,,26,finds
screen,html.Screen,0_2_0_1_27,2021-12-02T11:24:33.175Z,,,,,,,,,,,,,,,,53,,,,,,,,,,,,,,557.4949999999953,,response,,,99,,,,,,Space,keypress(Space),,,,,---- -- ----- -- ------ - ------- --- ----------<br>------------- ------ ------ ---- ---- ------- ----- -- ----<br>-------- ------- -- ---------- --- - --- ----- ----- that<br>---- --- --- ----- --- ---- ---- ------- ----- ---- -------<br>--- --- -- ----- -- --- ---- -- --- ---- -- ------ ------<br>--- ----- -- ----,71928.80000000075,71928,71353.834,71369.40000000037,71370.505,71936.985,,27,that
screen,html.Screen,0_2_0_1_28,2021-12-02T11:24:33.791Z,,,,,,,,,,,,,,,,53,,,,,,,,,,,,,,607.0149999999994,,response,,,99,,,,,,Space,keypress(Space),,,,,---- -- ----- -- ------ - ------- --- ----------<br>------------- ------ ------ ---- ---- ------- ----- -- ----<br>-------- ------- -- ---------- --- - --- ----- ----- ----<br>it's --- --- ----- --- ---- ---- ------- ----- ---- -------<br>--- --- -- ----- -- --- ---- -- --- ---- -- ------ ------<br>--- ----- -- ----,72544.80000000075,72544,71920.319,71929,71936.985,72554.215,,28,it's
screen,html.Screen,0_2_0_1_29,2021-12-02T11:24:33.983Z,,,,,,,,,,,,,,,,53,,,,,,,,,,,,,,181.7850000000035,,response,,,99,,,,,,Space,keypress(Space),,,,,---- -- ----- -- ------ - ------- --- ----------<br>------------- ------ ------ ---- ---- ------- ----- -- ----<br>-------- ------- -- ---------- --- - --- ----- ----- ----<br>---- not --- ----- --- ---- ---- ------- ----- ---- -------<br>--- --- -- ----- -- --- ---- -- --- ---- -- ------ ------<br>--- ----- -- ----,72736.70000000112,72736,72537.543,72545,72554.215,72754.155,,29,not
screen,html.Screen,0_2_0_1_30,2021-12-02T11:24:34.199Z,,,,,,,,,,,,,,,,53,,,,,,,,,,,,,,197.7450000003737,,response,,,99,,,,,,Space,keypress(Space),,,,,---- -- ----- -- ------ - ------- --- ----------<br>------------- ------ ------ ---- ---- ------- ----- -- ----<br>-------- ------- -- ---------- --- - --- ----- ----- ----<br>---- --- how ----- --- ---- ---- ------- ----- ---- -------<br>--- --- -- ----- -- --- ---- -- --- ---- -- ------ ------<br>--- ----- -- ----,72952.70000000112,72951.90000000037,72737.485,72736.90000000037,72754.155,72954.247,,30,how
screen,html.Screen,0_2_0_1_31,2021-12-02T11:24:34.591Z,,,,,,,,,,,,,,,,53,,,,,,,,,,,,,,389.6530000003695,,response,,,99,,,,,,Space,keypress(Space),,,,,---- -- ----- -- ------ - ------- --- ----------<br>------------- ------ ------ ---- ---- ------- ----- -- ----<br>-------- ------- -- ---------- --- - --- ----- ----- ----<br>---- --- --- close --- ---- ---- ------- ----- ---- -------<br>--- --- -- ----- -- --- ---- -- --- ---- -- ------ ------<br>--- ----- -- ----,73344.70000000112,73343.90000000037,72937.576,72953,72954.247,73354.357,,31,close
screen,html.Screen,0_2_0_1_32,2021-12-02T11:24:34.791Z,,,,,,,,,,,,,,,,53,,,,,,,,,,,,,,189.54300000036892,,response,,,99,,,,,,Space,keypress(Space),,,,,---- -- ----- -- ------ - ------- --- ----------<br>------------- ------ ------ ---- ---- ------- ----- -- ----<br>-------- ------- -- ---------- --- - --- ----- ----- ----<br>---- --- --- ----- you ---- ---- ------- ----- ---- -------<br>--- --- -- ----- -- --- ---- -- --- ---- -- ------ ------<br>--- ----- -- ----,73544.80000000075,73543.90000000037,73337.686,73344.90000000037,73354.357,73554.397,,32,you
screen,html.Screen,0_2_0_1_33,2021-12-02T11:24:34.983Z,,,,,,,,,,,,,,,,53,,,,,,,,,,,,,,181.50300000037532,,response,,,99,,,,,,Space,keypress(Space),,,,,---- -- ----- -- ------ - ------- --- ----------<br>------------- ------ ------ ---- ---- ------- ----- -- ----<br>-------- ------- -- ---------- --- - --- ----- ----- ----<br>---- --- --- ----- --- feel ---- ------- ----- ---- -------<br>--- --- -- ----- -- --- ---- -- --- ---- -- ------ ------<br>--- ----- -- ----,73736.80000000075,73735.90000000037,73537.727,73545,73554.397,73737.785,,33,feel
screen,html.Screen,0_2_0_1_34,2021-12-02T11:24:35.399Z,,,,,,,,,,,,,,,,53,,,,,,,,,,,,,,414.01500000074157,,response,,,99,,,,,,Space,keypress(Space),,,,,---- -- ----- -- ------ - ------- --- ----------<br>------------- ------ ------ ---- ---- ------- ----- -- ----<br>-------- ------- -- ---------- --- - --- ----- ----- ----<br>---- --- --- ----- --- ---- that ------- ----- ---- -------<br>--- --- -- ----- -- --- ---- -- --- ---- -- ------ ------<br>--- ----- -- ----,74152.60000000149,74151.80000000075,73721.115,73737.10000000149,73737.785,74154.54,,34,that
screen,html.Screen,0_2_0_1_35,2021-12-02T11:24:35.591Z,,,,,,,,,,,,,,,,53,,,,,,,,,,,,,,189.36000000037893,,response,,,99,,,,,,Space,keypress(Space),,,,,---- -- ----- -- ------ - ------- --- ----------<br>------------- ------ ------ ---- ---- ------- ----- -- ----<br>-------- ------- -- ---------- --- - --- ----- ----- ----<br>---- --- --- ----- --- ---- ---- matters ----- ---- -------<br>--- --- -- ----- -- --- ---- -- --- ---- -- ------ ------<br>--- ----- -- ----,74344.70000000112,74343.90000000037,74137.87,74152.90000000037,74154.54,74354.641,,35,matters
screen,html.Screen,0_2_0_1_36,2021-12-02T11:24:35.807Z,,,,,,,,,,,,,,,,53,,,,,,,,,,,,,,205.25900000036927,,response,,,99,,,,,,Space,keypress(Space),,,,,"---- -- ----- -- ------ - ------- --- ----------<br>------------- ------ ------ ---- ---- ------- ----- -- ----<br>-------- ------- -- ---------- --- - --- ----- ----- ----<br>---- --- --- ----- --- ---- ---- ------- most, ---- -------<br>--- --- -- ----- -- --- ---- -- --- ---- -- ------ ------<br>--- ----- -- ----",74561,74559.90000000037,74337.97,74344.90000000037,74354.641,74571.322,,36,"most,"
screen,html.Screen,0_2_0_1_37,2021-12-02T11:24:36.279Z,,,,,,,,,,,,,,,,53,,,,,,,,,,,,,,460.47800000074494,,response,,,99,,,,,,Space,keypress(Space),,,,,---- -- ----- -- ------ - ------- --- ----------<br>------------- ------ ------ ---- ---- ------- ----- -- ----<br>-------- ------- -- ---------- --- - --- ----- ----- ----<br>---- --- --- ----- --- ---- ---- ------- ----- it's -------<br>--- --- -- ----- -- --- ---- -- --- ---- -- ------ ------<br>--- ----- -- ----,75032.60000000149,75031.80000000075,74554.652,74561.30000000075,74571.322,75037.883,,37,it's
screen,html.Screen,0_2_0_1_38,2021-12-02T11:24:36.479Z,,,,,,,,,,,,,,,,53,,,,,,,,,,,,,,193.91700000074343,,response,,,99,,,,,,Space,keypress(Space),,,,,---- -- ----- -- ------ - ------- --- ----------<br>------------- ------ ------ ---- ---- ------- ----- -- ----<br>-------- ------- -- ---------- --- - --- ----- ----- ----<br>---- --- --- ----- --- ---- ---- ------- ----- ---- whether<br>--- --- -- ----- -- --- ---- -- --- ---- -- ------ ------<br>--- ----- -- ----,75232.60000000149,75231.80000000075,75021.217,75032.90000000037,75037.883,75238.276,,38,whether
screen,html.Screen,0_2_0_1_39,2021-12-02T11:24:37.175Z,,,,,,,,,,,,,,,,53,,,,,,,,,,,,,,689.524000000747,,response,,,99,,,,,,Space,keypress(Space),,,,,---- -- ----- -- ------ - ------- --- ----------<br>------------- ------ ------ ---- ---- ------- ----- -- ----<br>-------- ------- -- ---------- --- - --- ----- ----- ----<br>---- --- --- ----- --- ---- ---- ------- ----- ---- -------<br>you --- -- ----- -- --- ---- -- --- ---- -- ------ ------<br>--- ----- -- ----,75928.60000000149,75927.80000000075,75221.601,75232.90000000037,75238.276,75938.325,,39,you
screen,html.Screen,0_2_0_1_40,2021-12-02T11:24:37.383Z,,,,,,,,,,,,,,,,53,,,,,,,,,,,,,,197.47500000074797,,response,,,99,,,,,,Space,keypress(Space),,,,,---- -- ----- -- ------ - ------- --- ----------<br>------------- ------ ------ ---- ---- ------- ----- -- ----<br>-------- ------- -- ---------- --- - --- ----- ----- ----<br>---- --- --- ----- --- ---- ---- ------- ----- ---- -------<br>--- are -- ----- -- --- ---- -- --- ---- -- ------ ------<br>--- ----- -- ----,76136.5,76135.80000000075,75921.655,75928.90000000037,75938.325,76138.411,,40,are
screen,html.Screen,0_2_0_1_41,2021-12-02T11:24:37.599Z,,,,,,,,,,,,,,,,53,,,,,,,,,,,,,,213.38900000075228,,response,,,99,,,,,,Space,keypress(Space),,,,,---- -- ----- -- ------ - ------- --- ----------<br>------------- ------ ------ ---- ---- ------- ----- -- ----<br>-------- ------- -- ---------- --- - --- ----- ----- ----<br>---- --- --- ----- --- ---- ---- ------- ----- ---- -------<br>--- --- as ----- -- --- ---- -- --- ---- -- ------ ------<br>--- ----- -- ----,76352.60000000149,76351.80000000075,76121.741,76136.80000000075,76138.411,76355.138,,41,as
screen,html.Screen,0_2_0_1_42,2021-12-02T11:24:37.855Z,,,,,,,,,,,,,,,,53,,,,,,,,,,,,,,252.66200000073877,,response,,,99,,,,,,Space,keypress(Space),,,,,---- -- ----- -- ------ - ------- --- ----------<br>------------- ------ ------ ---- ---- ------- ----- -- ----<br>-------- ------- -- ---------- --- - --- ----- ----- ----<br>---- --- --- ----- --- ---- ---- ------- ----- ---- -------<br>--- --- -- close -- --- ---- -- --- ---- -- ------ ------<br>--- ----- -- ----,76608.60000000149,76607.80000000075,76338.468,76352.80000000075,76355.138,76621.747,,42,close
screen,html.Screen,0_2_0_1_43,2021-12-02T11:24:38.079Z,,,,,,,,,,,,,,,,53,,,,,,,,,,,,,,210.05300000074203,,response,,,99,,,,,,Space,keypress(Space),,,,,---- -- ----- -- ------ - ------- --- ----------<br>------------- ------ ------ ---- ---- ------- ----- -- ----<br>-------- ------- -- ---------- --- - --- ----- ----- ----<br>---- --- --- ----- --- ---- ---- ------- ----- ---- -------<br>--- --- -- ----- as --- ---- -- --- ---- -- ------ ------<br>--- ----- -- ----,76832.5,76831.80000000075,76605.08,76608.80000000075,76621.747,76838.677,,43,as
screen,html.Screen,0_2_0_1_44,2021-12-02T11:24:38.287Z,,,,,,,,,,,,,,,,53,,,,,,,,,,,,,,201.02300000112155,,response,,,99,,,,,,Space,keypress(Space),,,,,---- -- ----- -- ------ - ------- --- ----------<br>------------- ------ ------ ---- ---- ------- ----- -- ----<br>-------- ------- -- ---------- --- - --- ----- ----- ----<br>---- --- --- ----- --- ---- ---- ------- ----- ---- -------<br>--- --- -- ----- -- you ---- -- --- ---- -- ------ ------<br>--- ----- -- ----,77040.5,77039.70000000112,76822.004,76832.80000000075,76838.677,77055.325,,44,you
screen,html.Screen,0_2_0_1_45,2021-12-02T11:24:38.535Z,,,,,,,,,,,,,,,,53,,,,,,,,,,,,,,232.47500000074797,,response,,,99,,,,,,Space,keypress(Space),,,,,---- -- ----- -- ------ - ------- --- ----------<br>------------- ------ ------ ---- ---- ------- ----- -- ----<br>-------- ------- -- ---------- --- - --- ----- ----- ----<br>---- --- --- ----- --- ---- ---- ------- ----- ---- -------<br>--- --- -- ----- -- --- want -- --- ---- -- ------ ------<br>--- ----- -- ----,77288.60000000149,77287.80000000075,77038.655,77040.80000000075,77055.325,77305.346,,45,want
screen,html.Screen,0_2_0_1_46,2021-12-02T11:24:38.759Z,,,,,,,,,,,,,,,,53,,,,,,,,,,,,,,206.45400000074005,,response,,,99,,,,,,Space,keypress(Space),,,,,---- -- ----- -- ------ - ------- --- ----------<br>------------- ------ ------ ---- ---- ------- ----- -- ----<br>-------- ------- -- ---------- --- - --- ----- ----- ----<br>---- --- --- ----- --- ---- ---- ------- ----- ---- -------<br>--- --- -- ----- -- --- ---- to --- ---- -- ------ ------<br>--- ----- -- ----,77512.5,77511.80000000075,77288.677,77288.70000000112,77305.346,77522.135,,46,to
screen,html.Screen,0_2_0_1_47,2021-12-02T11:24:38.951Z,,,,,,,,,,,,,,,,53,,,,,,,,,,,,,,181.6650000007503,,response,,,99,,,,,,Space,keypress(Space),,,,,"---- -- ----- -- ------ - ------- --- ----------<br>------------- ------ ------ ---- ---- ------- ----- -- ----<br>-------- ------- -- ---------- --- - --- ----- ----- ----<br>---- --- --- ----- --- ---- ---- ------- ----- ---- -------<br>--- --- -- ----- -- --- ---- -- be, ---- -- ------ ------<br>--- ----- -- ----",77704.5,77703.80000000075,77505.464,77512.70000000112,77522.135,77705.512,,47,"be,"
screen,html.Screen,0_2_0_1_48,2021-12-02T11:24:39.151Z,,,,,,,,,,,,,,,,53,,,,,,,,,,,,,,198.2880000007426,,response,,,99,,,,,,Space,keypress(Space),,,,,---- -- ----- -- ------ - ------- --- ----------<br>------------- ------ ------ ---- ---- ------- ----- -- ----<br>-------- ------- -- ---------- --- - --- ----- ----- ----<br>---- --- --- ----- --- ---- ---- ------- ----- ---- -------<br>--- --- -- ----- -- --- ---- -- --- even -- ------ ------<br>--- ----- -- ----,77904.5,77903.80000000075,77688.841,77704.80000000075,77705.512,77905.442,,48,even
screen,html.Screen,0_2_0_1_49,2021-12-02T11:24:39.375Z,,,,,,,,,,,,,,,,53,,,,,,,,,,,,,,222.3580000007496,,response,,,99,,,,,,Space,keypress(Space),,,,,---- -- ----- -- ------ - ------- --- ----------<br>------------- ------ ------ ---- ---- ------- ----- -- ----<br>-------- ------- -- ---------- --- - --- ----- ----- ----<br>---- --- --- ----- --- ---- ---- ------- ----- ---- -------<br>--- --- -- ----- -- --- ---- -- --- ---- if ------ ------<br>--- ----- -- ----,78128.80000000075,78127.80000000075,77888.775,77904.70000000112,77905.442,78139.01,,49,if
screen,html.Screen,0_2_0_1_50,2021-12-02T11:24:39.575Z,,,,,,,,,,,,,,,,53,,,,,,,,,,,,,,188.69000000112283,,response,,,99,,,,,,Space,keypress(Space),,,,,---- -- ----- -- ------ - ------- --- ----------<br>------------- ------ ------ ---- ---- ------- ----- -- ----<br>-------- ------- -- ---------- --- - --- ----- ----- ----<br>---- --- --- ----- --- ---- ---- ------- ----- ---- -------<br>--- --- -- ----- -- --- ---- -- --- ---- -- that's ------<br>--- ----- -- ----,78328.5,78327.70000000112,78122.337,78129,78139.01,78338.994,,50,that's
screen,html.Screen,0_2_0_1_51,2021-12-02T11:24:39.807Z,,,,,,,,,,,,,,,,53,,,,,,,,,,,,,,220.60600000148406,,response,,,99,,,,,,Space,keypress(Space),,,,,---- -- ----- -- ------ - ------- --- ----------<br>------------- ------ ------ ---- ---- ------- ----- -- ----<br>-------- ------- -- ---------- --- - --- ----- ----- ----<br>---- --- --- ----- --- ---- ---- ------- ----- ---- -------<br>--- --- -- ----- -- --- ---- -- --- ---- -- ------ really<br>--- ----- -- ----,78560.5,78559.60000000149,78322.324,78328.70000000112,78338.994,78572.424,,51,really
screen,html.Screen,0_2_0_1_52,2021-12-02T11:24:40.327Z,,,,,,,,,,,,,,,,53,,,,,,,,,,,,,,507.2760000011185,,response,,,99,,,,,,Space,keypress(Space),,,,,---- -- ----- -- ------ - ------- --- ----------<br>------------- ------ ------ ---- ---- ------- ----- -- ----<br>-------- ------- -- ---------- --- - --- ----- ----- ----<br>---- --- --- ----- --- ---- ---- ------- ----- ---- -------<br>--- --- -- ----- -- --- ---- -- --- ---- -- ------ ------<br>not ----- -- ----,79080.40000000037,79079.70000000112,78555.753,78560.70000000112,78572.424,79089.18,,52,not
screen,html.Screen,0_2_0_1_53,2021-12-02T11:24:40.503Z,,,,,,,,,,,,,,,,53,,,,,,,,,,,,,,166.4200000014971,,response,,,99,,,,,,Space,keypress(Space),,,,,---- -- ----- -- ------ - ------- --- ----------<br>------------- ------ ------ ---- ---- ------- ----- -- ----<br>-------- ------- -- ---------- --- - --- ----- ----- ----<br>---- --- --- ----- --- ---- ---- ------- ----- ---- -------<br>--- --- -- ----- -- --- ---- -- --- ---- -- ------ ------<br>--- close -- ----,79256.40000000037,79255.60000000149,79072.51,79080.60000000149,79089.18,79272.571,,53,close
screen,html.Screen,0_2_0_1_54,2021-12-02T11:24:40.935Z,,,,,,,,,,,,,,,,53,,,,,,,,,,,,,,415.02900000149384,,response,,,99,,,,,,Space,keypress(Space),,,,,---- -- ----- -- ------ - ------- --- ----------<br>------------- ------ ------ ---- ---- ------- ----- -- ----<br>-------- ------- -- ---------- --- - --- ----- ----- ----<br>---- --- --- ----- --- ---- ---- ------- ----- ---- -------<br>--- --- -- ----- -- --- ---- -- --- ---- -- ------ ------<br>--- ----- at ----,79688.40000000037,79687.60000000149,79255.901,79256.70000000112,79272.571,79689.342,,54,at
screen,html.Screen,0_2_0_1_55,2021-12-02T11:24:41.311Z,,,,,,,,,,,,,,,,53,,,,,,,,,,,,,,374.3580000011134,,response,,,99,,,,,,Space,keypress(Space),,,,,---- -- ----- -- ------ - ------- --- ----------<br>------------- ------ ------ ---- ---- ------- ----- -- ----<br>-------- ------- -- ---------- --- - --- ----- ----- ----<br>---- --- --- ----- --- ---- ---- ------- ----- ---- -------<br>--- --- -- ----- -- --- ---- -- --- ---- -- ------ ------<br>--- ----- -- all.,80064.40000000037,80063.70000000112,79672.672,79688.60000000149,79689.342,80072.906,,55,all.
Item 99,flow.Loop,0_2_0_1,2021-12-02T11:24:41.315Z,,,,,,,,,,,,,,,,,,,,,,,,,,,,,,19779.741000001115,,completion,,,,F,,,,,,,,,,silence,,80069,80063.70000000112,60267.29,60273.5,60283.959,80072.906,,,
Question 1,html.Screen,0_2_0_2,2021-12-02T11:24:59.934Z,,,,,,,,,,,,,,,,,,,,,,,,,,,true,FALSE,,18613.694000001487,,response,,,99,F,,,,,FALSE,click #choice-2,,,,silence,,98687.90000000037,98686.60000000149,80056.233,80069.20000000112,80072.906,98694.358,,,
Question 2,html.Screen,0_2_0_3,2021-12-02T11:25:04.134Z,,,,,,,,,,,,,,,,,,,,,,,,,,,true,TRUE,,4191.942000000752,,response,,,99,F,,,,,TRUE,click #choice-1,,,,silence,,102887.5,102886.30000000075,98677.688,98688.20000000112,98694.358,102895.525,,,
Item 99,flow.Sequence,0_2_0,2021-12-02T11:25:04.134Z,,,,,,,,,,,,,,,,,,,,,,,,,,,,,,52597.073000000746,,completion,,,,,,,,,,,,,,,,102887.90000000037,102886.30000000075,50272.507,50274.90000000037,50289.227,102895.525,,,
Holding screen,html.Screen,0_2_1_0,2021-12-02T11:25:14.129Z,,,,,,,,,,,,,,,,,,,,,,,,,,,,,,10002.522000000012,,timeout,,,,,,,,,,,,,,,,112882.40000000037,112881.377,102878.855,102888.20000000112,102895.525,112898.047,,,
screen,html.Screen,0_2_1_1_0,2021-12-02T11:25:14.990Z,,,,,,,,,,,,,,,,54,,,,,,,,,,,,,,844.5530000014842,,response,,,100,,,,,,Space,keypress(Space),,,,,At --- ---- --- ------ ----- ------- ---- -- --- ------- --<br>------- ---------- ------ -- ----- -- ----- -- ---- ------<br>--- ----- --- --- ------ -------- ----- --- ------ ----- --<br>----- ----- ---------- --- --- ------ ------ ---- -- ------<br>------- --- ------ ----- --- ---- ------- -- ---- --- --<br>------- ------,113743.5,113742.60000000149,112881.377,112882.90000000037,112898.047,113748.466,,0,At
screen,html.Screen,0_2_1_1_1,2021-12-02T11:25:15.413Z,,,,,,,,,,,,,,,,54,,,,,,,,,,,,,,417.53399999999965,,response,,,100,,,,,,Space,keypress(Space),,,,,-- the ---- --- ------ ----- ------- ---- -- --- ------- --<br>------- ---------- ------ -- ----- -- ----- -- ---- ------<br>--- ----- --- --- ------ -------- ----- --- ------ ----- --<br>----- ----- ---------- --- --- ------ ------ ---- -- ------<br>------- --- ------ ----- --- ---- ------- -- ---- --- --<br>------- ------,114166.70000000112,114166,113731.795,113743.70000000112,113748.466,114181.843,,1,the
screen,html.Screen,0_2_1_1_2,2021-12-02T11:25:15.717Z,,,,,,,,,,,,,,,,54,,,,,,,,,,,,,,288.1570000000065,,response,,,100,,,,,,Space,keypress(Space),,,,,-- --- time --- ------ ----- ------- ---- -- --- ------- --<br>------- ---------- ------ -- ----- -- ----- -- ---- ------<br>--- ----- --- --- ------ -------- ----- --- ------ ----- --<br>----- ----- ---------- --- --- ------ ------ ---- -- ------<br>------- --- ------ ----- --- ---- ------- -- ---- --- --<br>------- ------,114470.80000000075,114470,114165.173,114167,114181.843,114481.89,,2,time
screen,html.Screen,0_2_1_1_3,2021-12-02T11:25:16.221Z,,,,,,,,,,,,,,,,54,,,,,,,,,,,,,,492.1100000000006,,response,,,100,,,,,,Space,keypress(Space),,,,,-- --- ---- the ------ ----- ------- ---- -- --- ------- --<br>------- ---------- ------ -- ----- -- ----- -- ---- ------<br>--- ----- --- --- ------ -------- ----- --- ------ ----- --<br>----- ----- ---------- --- --- ------ ------ ---- -- ------<br>------- --- ------ ----- --- ---- ------- -- ---- --- --<br>------- ------,114974.80000000075,114974,114465.22,114471,114481.89,114982.135,,3,the
screen,html.Screen,0_2_1_1_4,2021-12-02T11:25:16.781Z,,,,,,,,,,,,,,,,54,,,,,,,,,,,,,,551.8650000000052,,response,,,100,,,,,,Space,keypress(Space),,,,,-- --- ---- --- French ----- ------- ---- -- --- ------- --<br>------- ---------- ------ -- ----- -- ----- -- ---- ------<br>--- ----- --- --- ------ -------- ----- --- ------ ----- --<br>----- ----- ---------- --- --- ------ ------ ---- -- ------<br>------- --- ------ ----- --- ---- ------- -- ---- --- --<br>------- ------,115534.80000000075,115534,114965.463,114975,114982.135,115548.93,,4,French
screen,html.Screen,0_2_1_1_5,2021-12-02T11:25:17.317Z,,,,,,,,,,,,,,,,54,,,,,,,,,,,,,,521.070000000007,,response,,,100,,,,,,Space,keypress(Space),,,,,-- --- ---- --- ------ crown ------- ---- -- --- ------- --<br>------- ---------- ------ -- ----- -- ----- -- ---- ------<br>--- ----- --- --- ------ -------- ----- --- ------ ----- --<br>----- ----- ---------- --- --- ------ ------ ---- -- ------<br>------- --- ------ ----- --- ---- ------- -- ---- --- --<br>------- ------,116070.80000000075,116070,115532.259,115535,115548.93,116082.341,,5,crown
screen,html.Screen,0_2_1_1_6,2021-12-02T11:25:17.565Z,,,,,,,,,,,,,,,,54,,,,,,,,,,,,,,235.65899999999965,,response,,,100,,,,,,Space,keypress(Space),,,,,-- --- ---- --- ------ ----- secured ---- -- --- ------- --<br>------- ---------- ------ -- ----- -- ----- -- ---- ------<br>--- ----- --- --- ------ -------- ----- --- ------ ----- --<br>----- ----- ---------- --- --- ------ ------ ---- -- ------<br>------- --- ------ ----- --- ---- ------- -- ---- --- --<br>------- ------,116318.60000000149,116318,116065.671,116071,116082.341,116332.385,,6,secured
screen,html.Screen,0_2_1_1_7,2021-12-02T11:25:18.213Z,,,,,,,,,,,,,,,,54,,,,,,,,,,,,,,633.6150000000052,,response,,,100,,,,,,Space,keypress(Space),,,,,-- --- ---- --- ------ ----- ------- much -- --- ------- --<br>------- ---------- ------ -- ----- -- ----- -- ---- ------<br>--- ----- --- --- ------ -------- ----- --- ------ ----- --<br>----- ----- ---------- --- --- ------ ------ ---- -- ------<br>------- --- ------ ----- --- ---- ------- -- ---- --- --<br>------- ------,116966.80000000075,116966,116315.715,116318.90000000037,116332.385,116982.624,,7,much
screen,html.Screen,0_2_1_1_8,2021-12-02T11:25:18.621Z,,,,,,,,,,,,,,,,54,,,,,,,,,,,,,,391.27600000037637,,response,,,100,,,,,,Space,keypress(Space),,,,,-- --- ---- --- ------ ----- ------- ---- of --- ------- --<br>------- ---------- ------ -- ----- -- ----- -- ---- ------<br>--- ----- --- --- ------ -------- ----- --- ------ ----- --<br>----- ----- ---------- --- --- ------ ------ ---- -- ------<br>------- --- ------ ----- --- ---- ------- -- ---- --- --<br>------- ------,117374.60000000149,117373.90000000037,116965.953,116967,116982.624,117382.682,,8,of
screen,html.Screen,0_2_1_1_9,2021-12-02T11:25:19.333Z,,,,,,,,,,,,,,,,54,,,,,,,,,,,,,,703.2180000003718,,response,,,100,,,,,,Space,keypress(Space),,,,,-- --- ---- --- ------ ----- ------- ---- -- its ------- --<br>------- ---------- ------ -- ----- -- ----- -- ---- ------<br>--- ----- --- --- ------ -------- ----- --- ------ ----- --<br>----- ----- ---------- --- --- ------ ------ ---- -- ------<br>------- --- ------ ----- --- ---- ------- -- ---- --- --<br>------- ------,118086.70000000112,118085.90000000037,117366.012,117374.90000000037,117382.682,118099.537,,9,its
screen,html.Screen,0_2_1_1_10,2021-12-02T11:25:19.653Z,,,,,,,,,,,,,,,,54,,,,,,,,,,,,,,306.3630000003759,,response,,,100,,,,,,Space,keypress(Space),,,,,-- --- ---- --- ------ ----- ------- ---- -- --- revenue --<br>------- ---------- ------ -- ----- -- ----- -- ---- ------<br>--- ----- --- --- ------ -------- ----- --- ------ ----- --<br>----- ----- ---------- --- --- ------ ------ ---- -- ------<br>------- --- ------ ----- --- ---- ------- -- ---- --- --<br>------- ------,118406.60000000149,118405.90000000037,118082.867,118086.90000000037,118099.537,118416.317,,10,revenue
screen,html.Screen,0_2_1_1_11,2021-12-02T11:25:20.085Z,,,,,,,,,,,,,,,,54,,,,,,,,,,,,,,421.4830000007496,,response,,,100,,,,,,Space,keypress(Space),,,,,-- --- ---- --- ------ ----- ------- ---- -- --- ------- by<br>------- ---------- ------ -- ----- -- ----- -- ---- ------<br>--- ----- --- --- ------ -------- ----- --- ------ ----- --<br>----- ----- ---------- --- --- ------ ------ ---- -- ------<br>------- --- ------ ----- --- ---- ------- -- ---- --- --<br>------- ------,118838.5,118837.80000000075,118399.647,118406.80000000075,118416.317,118849.756,,11,by
screen,html.Screen,0_2_1_1_12,2021-12-02T11:25:20.461Z,,,,,,,,,,,,,,,,54,,,,,,,,,,,,,,364.0440000007511,,response,,,100,,,,,,Space,keypress(Space),,,,,-- --- ---- --- ------ ----- ------- ---- -- --- ------- --<br>issuing ---------- ------ -- ----- -- ----- -- ---- ------<br>--- ----- --- --- ------ -------- ----- --- ------ ----- --<br>----- ----- ---------- --- --- ------ ------ ---- -- ------<br>------- --- ------ ----- --- ---- ------- -- ---- --- --<br>------- ------,119214.5,119213.80000000075,118833.086,118838.80000000075,118849.756,119216.512,,12,issuing
screen,html.Screen,0_2_1_1_13,2021-12-02T11:25:20.653Z,,,,,,,,,,,,,,,,54,,,,,,,,,,,,,,189.2880000007426,,response,,,100,,,,,,Space,keypress(Space),,,,,-- --- ---- --- ------ ----- ------- ---- -- --- ------- --<br>------- government ------ -- ----- -- ----- -- ---- ------<br>--- ----- --- --- ------ -------- ----- --- ------ ----- --<br>----- ----- ---------- --- --- ------ ------ ---- -- ------<br>------- --- ------ ----- --- ---- ------- -- ---- --- --<br>------- ------,119406.60000000149,119405.80000000075,119199.842,119214.80000000075,119216.512,119416.613,,13,government
screen,html.Screen,0_2_1_1_14,2021-12-02T11:25:21.285Z,,,,,,,,,,,,,,,,54,,,,,,,,,,,,,,621.08700000112,,response,,,100,,,,,,Space,keypress(Space),,,,,-- --- ---- --- ------ ----- ------- ---- -- --- ------- --<br>------- ---------- bonds. -- ----- -- ----- -- ---- ------<br>--- ----- --- --- ------ -------- ----- --- ------ ----- --<br>----- ----- ---------- --- --- ------ ------ ---- -- ------<br>------- --- ------ ----- --- ---- ------- -- ---- --- --<br>------- ------,120038.5,120037.70000000112,119399.942,119406.70000000112,119416.613,120050.047,,14,bonds.
screen,html.Screen,0_2_1_1_15,2021-12-02T11:25:21.704Z,,,,,,,,,,,,,,,,54,,,,,,,,,,,,,,403.7530000007391,,response,,,100,,,,,,Space,keypress(Space),,,,,-- --- ---- --- ------ ----- ------- ---- -- --- ------- --<br>------- ---------- ------ In ----- -- ----- -- ---- ------<br>--- ----- --- --- ------ -------- ----- --- ------ ----- --<br>----- ----- ---------- --- --- ------ ------ ---- -- ------<br>------- --- ------ ----- --- ---- ------- -- ---- --- --<br>------- ------,120454.5,120453.80000000075,120033.377,120038.70000000112,120050.047,120466.599,,15,In
screen,html.Screen,0_2_1_1_16,2021-12-02T11:25:21.880Z,,,,,,,,,,,,,,,,54,,,,,,,,,,,,,,163.1010000011156,,response,,,100,,,,,,Space,keypress(Space),,,,,"-- --- ---- --- ------ ----- ------- ---- -- --- ------- --<br>------- ---------- ------ -- 1727, -- ----- -- ---- ------<br>--- ----- --- --- ------ -------- ----- --- ------ ----- --<br>----- ----- ---------- --- --- ------ ------ ---- -- ------<br>------- --- ------ ----- --- ---- ------- -- ---- --- --<br>------- ------",120630.5,120629.70000000112,120449.932,120454.70000000112,120466.599,120633.558,,16,"1727,"
screen,html.Screen,0_2_1_1_17,2021-12-02T11:25:23.712Z,,,,,,,,,,,,,,,,54,,,,,,,,,,,,,,1828.0420000014856,,response,,,100,,,,,,Space,keypress(Space),,,,,-- --- ---- --- ------ ----- ------- ---- -- --- ------- --<br>------- ---------- ------ -- ----- in ----- -- ---- ------<br>--- ----- --- --- ------ -------- ----- --- ------ ----- --<br>----- ----- ---------- --- --- ------ ------ ---- -- ------<br>------- --- ------ ----- --- ---- ------- -- ---- --- --<br>------- ------,122462.40000000037,122461.60000000149,120616.887,120630.70000000112,120633.558,122467.524,,17,in
screen,html.Screen,0_2_1_1_18,2021-12-02T11:25:24.160Z,,,,,,,,,,,,,,,,54,,,,,,,,,,,,,,442.1760000011127,,response,,,100,,,,,,Space,keypress(Space),,,,,-- --- ---- --- ------ ----- ------- ---- -- --- ------- --<br>------- ---------- ------ -- ----- -- order -- ---- ------<br>--- ----- --- --- ------ -------- ----- --- ------ ----- --<br>----- ----- ---------- --- --- ------ ------ ---- -- ------<br>------- --- ------ ----- --- ---- ------- -- ---- --- --<br>------- ------,122910.5,122909.70000000112,122450.852,122462.70000000112,122467.524,122917.424,,18,order
screen,html.Screen,0_2_1_1_19,2021-12-02T11:25:24.408Z,,,,,,,,,,,,,,,,54,,,,,,,,,,,,,,240.17600000149105,,response,,,100,,,,,,Space,keypress(Space),,,,,-- --- ---- --- ------ ----- ------- ---- -- --- ------- --<br>------- ---------- ------ -- ----- -- ----- to ---- ------<br>--- ----- --- --- ------ -------- ----- --- ------ ----- --<br>----- ----- ---------- --- --- ------ ------ ---- -- ------<br>------- --- ------ ----- --- ---- ------- -- ---- --- --<br>------- ------,123158.60000000149,123157.60000000149,122900.754,122910.70000000112,122917.424,123167.513,,19,to
screen,html.Screen,0_2_1_1_20,2021-12-02T11:25:24.784Z,,,,,,,,,,,,,,,,54,,,,,,,,,,,,,,366.08700000148383,,response,,,100,,,,,,Space,keypress(Space),,,,,-- --- ---- --- ------ ----- ------- ---- -- --- ------- --<br>------- ---------- ------ -- ----- -- ----- -- save ------<br>--- ----- --- --- ------ -------- ----- --- ------ ----- --<br>----- ----- ---------- --- --- ------ ------ ---- -- ------<br>------- --- ------ ----- --- ---- ------- -- ---- --- --<br>------- ------,123534.40000000037,123533.60000000149,123150.843,123158.90000000037,123167.513,123551.055,,20,save
screen,html.Screen,0_2_1_1_21,2021-12-02T11:25:25.256Z,,,,,,,,,,,,,,,,54,,,,,,,,,,,,,,454.8450000003795,,response,,,100,,,,,,Space,keypress(Space),,,,,"-- --- ---- --- ------ ----- ------- ---- -- --- ------- --<br>------- ---------- ------ -- ----- -- ----- -- ---- money,<br>--- ----- --- --- ------ -------- ----- --- ------ ----- --<br>----- ----- ---------- --- --- ------ ------ ---- -- ------<br>------- --- ------ ----- --- ---- ------- -- ---- --- --<br>------- ------",124006.70000000112,124005.90000000037,123534.383,123534.70000000112,123551.055,124017.884,,21,"money,"
screen,html.Screen,0_2_1_1_22,2021-12-02T11:25:25.712Z,,,,,,,,,,,,,,,,54,,,,,,,,,,,,,,443.61599999999453,,response,,,100,,,,,,Space,keypress(Space),,,,,-- --- ---- --- ------ ----- ------- ---- -- --- ------- --<br>------- ---------- ------ -- ----- -- ----- -- ---- ------<br>the ----- --- --- ------ -------- ----- --- ------ ----- --<br>----- ----- ---------- --- --- ------ ------ ---- -- ------<br>------- --- ------ ----- --- ---- ------- -- ---- --- --<br>------- ------,124462.30000000075,124461.5,124001.212,124007,124017.884,124467.97,,22,the
screen,html.Screen,0_2_1_1_23,2021-12-02T11:25:26.152Z,,,,,,,,,,,,,,,,54,,,,,,,,,,,,,,433.63000000148895,,response,,,100,,,,,,Space,keypress(Space),,,,,-- --- ---- --- ------ ----- ------- ---- -- --- ------- --<br>------- ---------- ------ -- ----- -- ----- -- ---- ------<br>--- state --- --- ------ -------- ----- --- ------ ----- --<br>----- ----- ---------- --- --- ------ ------ ---- -- ------<br>------- --- ------ ----- --- ---- ------- -- ---- --- --<br>------- ------,124902.40000000037,124901.60000000149,124451.299,124462.70000000112,124467.97,124918.017,,23,state
screen,html.Screen,0_2_1_1_24,2021-12-02T11:25:26.559Z,,,,,,,,,,,,,,,,54,,,,,,,,,,,,,,391.4829999999929,,response,,,100,,,,,,Space,keypress(Space),,,,,-- --- ---- --- ------ ----- ------- ---- -- --- ------- --<br>------- ---------- ------ -- ----- -- ----- -- ---- ------<br>--- ----- cut --- ------ -------- ----- --- ------ ----- --<br>----- ----- ---------- --- --- ------ ------ ---- -- ------<br>------- --- ------ ----- --- ---- ------- -- ---- --- --<br>------- ------,125310.20000000112,125309.5,124901.347,124902.70000000112,124918.017,125318.029,,24,cut
screen,html.Screen,0_2_1_1_25,2021-12-02T11:25:26.895Z,,,,,,,,,,,,,,,,54,,,,,,,,,,,,,,327.471000000005,,response,,,100,,,,,,Space,keypress(Space),,,,,-- --- ---- --- ------ ----- ------- ---- -- --- ------- --<br>------- ---------- ------ -- ----- -- ----- -- ---- ------<br>--- ----- --- the ------ -------- ----- --- ------ ----- --<br>----- ----- ---------- --- --- ------ ------ ---- -- ------<br>------- --- ------ ----- --- ---- ------- -- ---- --- --<br>------- ------,125646.30000000075,125645.5,125301.36,125310.5,125318.029,125651.685,,25,the
screen,html.Screen,0_2_1_1_26,2021-12-02T11:25:27.167Z,,,,,,,,,,,,,,,,54,,,,,,,,,,,,,,265.71500000037486,,response,,,100,,,,,,Space,keypress(Space),,,,,-- --- ---- --- ------ ----- ------- ---- -- --- ------- --<br>------- ---------- ------ -- ----- -- ----- -- ---- ------<br>--- ----- --- --- bonds' -------- ----- --- ------ ----- --<br>----- ----- ---------- --- --- ------ ------ ---- -- ------<br>------- --- ------ ----- --- ---- ------- -- ---- --- --<br>------- ------,125918.20000000112,125917.40000000037,125635.012,125646.5,125651.685,125934.981,,26,bonds'
screen,html.Screen,0_2_1_1_27,2021-12-02T11:25:27.863Z,,,,,,,,,,,,,,,,54,,,,,,,,,,,,,,678.4190000003728,,response,,,100,,,,,,Space,keypress(Space),,,,,-- --- ---- --- ------ ----- ------- ---- -- --- ------- --<br>------- ---------- ------ -- ----- -- ----- -- ---- ------<br>--- ----- --- --- ------ interest ----- --- ------ ----- --<br>----- ----- ---------- --- --- ------ ------ ---- -- ------<br>------- --- ------ ----- --- ---- ------- -- ---- --- --<br>------- ------,126614.20000000112,126613.40000000037,125918.311,125918.5,125934.981,126618.444,,27,interest
screen,html.Screen,0_2_1_1_28,2021-12-02T11:25:28.087Z,,,,,,,,,,,,,,,,54,,,,,,,,,,,,,,218.9560000003694,,response,,,100,,,,,,Space,keypress(Space),,,,,-- --- ---- --- ------ ----- ------- ---- -- --- ------- --<br>------- ---------- ------ -- ----- -- ----- -- ---- ------<br>--- ----- --- --- ------ -------- rate. --- ------ ----- --<br>----- ----- ---------- --- --- ------ ------ ---- -- ------<br>------- --- ------ ----- --- ---- ------- -- ---- --- --<br>------- ------,126838.10000000149,126837.40000000037,126601.774,126614.40000000037,126618.444,126851.93,,28,rate.
screen,html.Screen,0_2_1_1_29,2021-12-02T11:25:28.751Z,,,,,,,,,,,,,,,,54,,,,,,,,,,,,,,649.4700000003795,,response,,,100,,,,,,Space,keypress(Space),,,,,-- --- ---- --- ------ ----- ------- ---- -- --- ------- --<br>------- ---------- ------ -- ----- -- ----- -- ---- ------<br>--- ----- --- --- ------ -------- ----- The ------ ----- --<br>----- ----- ---------- --- --- ------ ------ ---- -- ------<br>------- --- ------ ----- --- ---- ------- -- ---- --- --<br>------- ------,127502.20000000112,127501.40000000037,126835.259,126838.30000000075,126851.93,127518.611,,29,The
screen,html.Screen,0_2_1_1_30,2021-12-02T11:25:29.023Z,,,,,,,,,,,,,,,,54,,,,,,,,,,,,,,254.7890000003681,,response,,,100,,,,,,Space,keypress(Space),,,,,-- --- ---- --- ------ ----- ------- ---- -- --- ------- --<br>------- ---------- ------ -- ----- -- ----- -- ---- ------<br>--- ----- --- --- ------ -------- ----- --- market ----- --<br>----- ----- ---------- --- --- ------ ------ ---- -- ------<br>------- --- ------ ----- --- ---- ------- -- ---- --- --<br>------- ------,127774.10000000149,127773.40000000037,127501.942,127502.40000000037,127518.611,127785.604,,30,market
screen,html.Screen,0_2_1_1_31,2021-12-02T11:25:29.295Z,,,,,,,,,,,,,,,,54,,,,,,,,,,,,,,259.7960000003659,,response,,,100,,,,,,Space,keypress(Space),,,,,-- --- ---- --- ------ ----- ------- ---- -- --- ------- --<br>------- ---------- ------ -- ----- -- ----- -- ---- ------<br>--- ----- --- --- ------ -------- ----- --- ------ value --<br>----- ----- ---------- --- --- ------ ------ ---- -- ------<br>------- --- ------ ----- --- ---- ------- -- ---- --- --<br>------- ------,128046.20000000112,128045.40000000037,127768.93,127774.5,127785.604,128052.239,,31,value
screen,html.Screen,0_2_1_1_32,2021-12-02T11:25:29.807Z,,,,,,,,,,,,,,,,54,,,,,,,,,,,,,,505.06100000074366,,response,,,100,,,,,,Space,keypress(Space),,,,,-- --- ---- --- ------ ----- ------- ---- -- --- ------- --<br>------- ---------- ------ -- ----- -- ----- -- ---- ------<br>--- ----- --- --- ------ -------- ----- --- ------ ----- of<br>----- ----- ---------- --- --- ------ ------ ---- -- ------<br>------- --- ------ ----- --- ---- ------- -- ---- --- --<br>------- ------,128558.20000000112,128557.30000000075,128035.568,128046.40000000037,128052.239,128568.978,,32,of
screen,html.Screen,0_2_1_1_33,2021-12-02T11:25:30.151Z,,,,,,,,,,,,,,,,54,,,,,,,,,,,,,,332.32200000074226,,response,,,100,,,,,,Space,keypress(Space),,,,,-- --- ---- --- ------ ----- ------- ---- -- --- ------- --<br>------- ---------- ------ -- ----- -- ----- -- ---- ------<br>--- ----- --- --- ------ -------- ----- --- ------ ----- --<br>these ----- ---------- --- --- ------ ------ ---- -- ------<br>------- --- ------ ----- --- ---- ------- -- ---- --- --<br>------- ------,128902.20000000112,128901.30000000075,128552.308,128558.5,128568.978,128919.141,,33,these
screen,html.Screen,0_2_1_1_34,2021-12-02T11:25:30.399Z,,,,,,,,,,,,,,,,54,,,,,,,,,,,,,,230.1590000007418,,response,,,100,,,,,,Space,keypress(Space),,,,,-- --- ---- --- ------ ----- ------- ---- -- --- ------- --<br>------- ---------- ------ -- ----- -- ----- -- ---- ------<br>--- ----- --- --- ------ -------- ----- --- ------ ----- --<br>----- bonds ---------- --- --- ------ ------ ---- -- ------<br>------- --- ------ ----- --- ---- ------- -- ---- --- --<br>------- ------,129150.10000000149,129149.30000000075,128902.47,128902.40000000037,128919.141,129152.496,,34,bonds
screen,html.Screen,0_2_1_1_35,2021-12-02T11:25:30.943Z,,,,,,,,,,,,,,,,54,,,,,,,,,,,,,,540.8040000007459,,response,,,100,,,,,,Space,keypress(Space),,,,,"-- --- ---- --- ------ ----- ------- ---- -- --- ------- --<br>------- ---------- ------ -- ----- -- ----- -- ---- ------<br>--- ----- --- --- ------ -------- ----- --- ------ ----- --<br>----- ----- plummeted, --- --- ------ ------ ---- -- ------<br>------- --- ------ ----- --- ---- ------- -- ---- --- --<br>------- ------",129694.10000000149,129693.30000000075,129135.826,129150.40000000037,129152.496,129702.67,,35,"plummeted,"
screen,html.Screen,0_2_1_1_36,2021-12-02T11:25:31.431Z,,,,,,,,,,,,,,,,54,,,,,,,,,,,,,,478.6300000007468,,response,,,100,,,,,,Space,keypress(Space),,,,,-- --- ---- --- ------ ----- ------- ---- -- --- ------- --<br>------- ---------- ------ -- ----- -- ----- -- ---- ------<br>--- ----- --- --- ------ -------- ----- --- ------ ----- --<br>----- ----- ---------- and --- ------ ------ ---- -- ------<br>------- --- ------ ----- --- ---- ------- -- ---- --- --<br>------- ------,130182.10000000149,130181.30000000075,129685.999,129694.30000000075,129702.67,130186.015,,36,and
screen,html.Screen,0_2_1_1_37,2021-12-02T11:25:31.711Z,,,,,,,,,,,,,,,,54,,,,,,,,,,,,,,275.28500000074564,,response,,,100,,,,,,Space,keypress(Space),,,,,-- --- ---- --- ------ ----- ------- ---- -- --- ------- --<br>------- ---------- ------ -- ----- -- ----- -- ---- ------<br>--- ----- --- --- ------ -------- ----- --- ------ ----- --<br>----- ----- ---------- --- the ------ ------ ---- -- ------<br>------- --- ------ ----- --- ---- ------- -- ---- --- --<br>------- ------,130462.10000000149,130461.30000000075,130169.346,130182.30000000075,130186.015,130469.558,,37,the
screen,html.Screen,0_2_1_1_38,2021-12-02T11:25:32.199Z,,,,,,,,,,,,,,,,54,,,,,,,,,,,,,,479.64200000111305,,response,,,100,,,,,,Space,keypress(Space),,,,,-- --- ---- --- ------ ----- ------- ---- -- --- ------- --<br>------- ---------- ------ -- ----- -- ----- -- ---- ------<br>--- ----- --- --- ------ -------- ----- --- ------ ----- --<br>----- ----- ---------- --- --- market ------ ---- -- ------<br>------- --- ------ ----- --- ---- ------- -- ---- --- --<br>------- ------,130950.10000000149,130949.20000000112,130452.887,130462.30000000075,130469.558,130952.975,,38,market
screen,html.Screen,0_2_1_1_39,2021-12-02T11:25:32.439Z,,,,,,,,,,,,,,,,54,,,,,,,,,,,,,,236.32500000073924,,response,,,100,,,,,,Space,keypress(Space),,,,,-- --- ---- --- ------ ----- ------- ---- -- --- ------- --<br>------- ---------- ------ -- ----- -- ----- -- ---- ------<br>--- ----- --- --- ------ -------- ----- --- ------ ----- --<br>----- ----- ---------- --- --- ------ became ---- -- ------<br>------- --- ------ ----- --- ---- ------- -- ---- --- --<br>------- ------,131190,131189.30000000075,130936.305,130950.20000000112,130952.975,131202.935,,39,became
screen,html.Screen,0_2_1_1_40,2021-12-02T11:25:32.911Z,,,,,,,,,,,,,,,,54,,,,,,,,,,,,,,458.2650000011199,,response,,,100,,,,,,Space,keypress(Space),,,,,-- --- ---- --- ------ ----- ------- ---- -- --- ------- --<br>------- ---------- ------ -- ----- -- ----- -- ---- ------<br>--- ----- --- --- ------ -------- ----- --- ------ ----- --<br>----- ----- ---------- --- --- ------ ------ wary -- ------<br>------- --- ------ ----- --- ---- ------- -- ---- --- --<br>------- ------,131662.1000000015,131661.20000000112,131186.267,131190.30000000075,131202.935,131669.863,,40,wary
screen,html.Screen,0_2_1_1_41,2021-12-02T11:25:33.335Z,,,,,,,,,,,,,,,,54,,,,,,,,,,,,,,415.3370000011055,,response,,,100,,,,,,Space,keypress(Space),,,,,-- --- ---- --- ------ ----- ------- ---- -- --- ------- --<br>------- ---------- ------ -- ----- -- ----- -- ---- ------<br>--- ----- --- --- ------ -------- ----- --- ------ ----- --<br>----- ----- ---------- --- --- ------ ------ ---- of ------<br>------- --- ------ ----- --- ---- ------- -- ---- --- --<br>------- ------,132085.90000000037,132085.20000000112,131653.192,131662.30000000075,131669.863,132103.273,,41,of
screen,html.Screen,0_2_1_1_42,2021-12-02T11:25:33.839Z,,,,,,,,,,,,,,,,54,,,,,,,,,,,,,,485.9270000011311,,response,,,100,,,,,,Space,keypress(Space),,,,,-- --- ---- --- ------ ----- ------- ---- -- --- ------- --<br>------- ---------- ------ -- ----- -- ----- -- ---- ------<br>--- ----- --- --- ------ -------- ----- --- ------ ----- --<br>----- ----- ---------- --- --- ------ ------ ---- -- French<br>------- --- ------ ----- --- ---- ------- -- ---- --- --<br>------- ------,132590,132589.20000000112,132086.603,132086.20000000112,132103.273,132603.403,,42,French
screen,html.Screen,0_2_1_1_43,2021-12-02T11:25:34.207Z,,,,,,,,,,,,,,,,54,,,,,,,,,,,,,,353.69700000149896,,response,,,100,,,,,,Space,keypress(Space),,,,,-- --- ---- --- ------ ----- ------- ---- -- --- ------- --<br>------- ---------- ------ -- ----- -- ----- -- ---- ------<br>--- ----- --- --- ------ -------- ----- --- ------ ----- --<br>----- ----- ---------- --- --- ------ ------ ---- -- ------<br>credit. --- ------ ----- --- ---- ------- -- ---- --- --<br>------- ------,132957.90000000037,132957.1000000015,132586.733,132590.30000000075,132603.403,132970.157,,43,credit.
screen,html.Screen,0_2_1_1_44,2021-12-02T11:25:34.887Z,,,,,,,,,,,,,,,,54,,,,,,,,,,,,,,667.0430000011111,,response,,,100,,,,,,Space,keypress(Space),,,,,-- --- ---- --- ------ ----- ------- ---- -- --- ------- --<br>------- ---------- ------ -- ----- -- ----- -- ---- ------<br>--- ----- --- --- ------ -------- ----- --- ------ ----- --<br>----- ----- ---------- --- --- ------ ------ ---- -- ------<br>------- The ------ ----- --- ---- ------- -- ---- --- --<br>------- ------,133638.1000000015,133637.20000000112,132953.487,132958.1000000015,132970.157,133653.715,,44,The
screen,html.Screen,0_2_1_1_45,2021-12-02T11:25:35.167Z,,,,,,,,,,,,,,,,54,,,,,,,,,,,,,,263.3850000014936,,response,,,100,,,,,,Space,keypress(Space),,,,,-- --- ---- --- ------ ----- ------- ---- -- --- ------- --<br>------- ---------- ------ -- ----- -- ----- -- ---- ------<br>--- ----- --- --- ------ -------- ----- --- ------ ----- --<br>----- ----- ---------- --- --- ------ ------ ---- -- ------<br>------- --- French ----- --- ---- ------- -- ---- --- --<br>------- ------,133917.90000000037,133917.1000000015,133637.044,133638.30000000075,133653.715,133920.341,,45,French
screen,html.Screen,0_2_1_1_46,2021-12-02T11:25:35.607Z,,,,,,,,,,,,,,,,54,,,,,,,,,,,,,,437.1590000000142,,response,,,100,,,,,,Space,keypress(Space),,,,,-- --- ---- --- ------ ----- ------- ---- -- --- ------- --<br>------- ---------- ------ -- ----- -- ----- -- ---- ------<br>--- ----- --- --- ------ -------- ----- --- ------ ----- --<br>----- ----- ---------- --- --- ------ ------ ---- -- ------<br>------- --- ------ state --- ---- ------- -- ---- --- --<br>------- ------,134358.30000000075,134357.5,133903.672,133918.20000000112,133920.341,134370.593,,46,state
screen,html.Screen,0_2_1_1_47,2021-12-02T11:25:36.119Z,,,,,,,,,,,,,,,,54,,,,,,,,,,,,,,498.50700000149664,,response,,,100,,,,,,Space,keypress(Space),,,,,-- --- ---- --- ------ ----- ------- ---- -- --- ------- --<br>------- ---------- ------ -- ----- -- ----- -- ---- ------<br>--- ----- --- --- ------ -------- ----- --- ------ ----- --<br>----- ----- ---------- --- --- ------ ------ ---- -- ------<br>------- --- ------ ----- was ---- ------- -- ---- --- --<br>------- ------,134869.90000000037,134869.1000000015,134353.922,134358.5,134370.593,134887.393,,47,was
screen,html.Screen,0_2_1_1_48,2021-12-02T11:25:36.575Z,,,,,,,,,,,,,,,,54,,,,,,,,,,,,,,437.7070000014792,,response,,,100,,,,,,Space,keypress(Space),,,,,-- --- ---- --- ------ ----- ------- ---- -- --- ------- --<br>------- ---------- ------ -- ----- -- ----- -- ---- ------<br>--- ----- --- --- ------ -------- ----- --- ------ ----- --<br>----- ----- ---------- --- --- ------ ------ ---- -- ------<br>------- --- ------ ----- --- left ------- -- ---- --- --<br>------- ------,135325.80000000075,135325.1000000015,134870.722,134870.1000000015,134887.393,135337.466,,48,left
screen,html.Screen,0_2_1_1_49,2021-12-02T11:25:36.839Z,,,,,,,,,,,,,,,,54,,,,,,,,,,,,,,251.63400000150432,,response,,,100,,,,,,Space,keypress(Space),,,,,-- --- ---- --- ------ ----- ------- ---- -- --- ------- --<br>------- ---------- ------ -- ----- -- ----- -- ---- ------<br>--- ----- --- --- ------ -------- ----- --- ------ ----- --<br>----- ----- ---------- --- --- ------ ------ ---- -- ------<br>------- --- ------ ----- --- ---- without -- ---- --- --<br>------- ------,135589.90000000037,135589.1000000015,135320.796,135326.1000000015,135337.466,135604.196,,49,without
screen,html.Screen,0_2_1_1_50,2021-12-02T11:25:37.407Z,,,,,,,,,,,,,,,,54,,,,,,,,,,,,,,552.8040000000037,,response,,,100,,,,,,Space,keypress(Space),,,,,-- --- ---- --- ------ ----- ------- ---- -- --- ------- --<br>------- ---------- ------ -- ----- -- ----- -- ---- ------<br>--- ----- --- --- ------ -------- ----- --- ------ ----- --<br>----- ----- ---------- --- --- ------ ------ ---- -- ------<br>------- --- ------ ----- --- ---- ------- an ---- --- --<br>------- ------,136157.80000000075,136157,135587.526,135590.1000000015,135604.196,136171.054,,50,an
screen,html.Screen,0_2_1_1_51,2021-12-02T11:25:37.919Z,,,,,,,,,,,,,,,,54,,,,,,,,,,,,,,497.9459999999963,,response,,,100,,,,,,Space,keypress(Space),,,,,-- --- ---- --- ------ ----- ------- ---- -- --- ------- --<br>------- ---------- ------ -- ----- -- ----- -- ---- ------<br>--- ----- --- --- ------ -------- ----- --- ------ ----- --<br>----- ----- ---------- --- --- ------ ------ ---- -- ------<br>------- --- ------ ----- --- ---- ------- -- easy --- --<br>------- ------,136669.90000000037,136669,136154.383,136158,136171.054,136670.991,,51,easy
screen,html.Screen,0_2_1_1_52,2021-12-02T11:25:38.383Z,,,,,,,,,,,,,,,,54,,,,,,,,,,,,,,462.0089999999909,,response,,,100,,,,,,Space,keypress(Space),,,,,-- --- ---- --- ------ ----- ------- ---- -- --- ------- --<br>------- ---------- ------ -- ----- -- ----- -- ---- ------<br>--- ----- --- --- ------ -------- ----- --- ------ ----- --<br>----- ----- ---------- --- --- ------ ------ ---- -- ------<br>------- --- ------ ----- --- ---- ------- -- ---- way --<br>------- ------,137133.80000000075,137133,136654.323,136670.1000000015,136670.991,137137.996,,52,way
screen,html.Screen,0_2_1_1_53,2021-12-02T11:25:38.839Z,,,,,,,,,,,,,,,,54,,,,,,,,,,,,,,450.9040000003588,,response,,,100,,,,,,Space,keypress(Space),,,,,-- --- ---- --- ------ ----- ------- ---- -- --- ------- --<br>------- ---------- ------ -- ----- -- ----- -- ---- ------<br>--- ----- --- --- ------ -------- ----- --- ------ ----- --<br>----- ----- ---------- --- --- ------ ------ ---- -- ------<br>------- --- ------ ----- --- ---- ------- -- ---- --- of<br>------- ------,137589.70000000112,137588.90000000037,137121.325,137134,137137.996,137604.779,,53,of
screen,html.Screen,0_2_1_1_54,2021-12-02T11:25:39.215Z,,,,,,,,,,,,,,,,54,,,,,,,,,,,,,,360.22099999999045,,response,,,100,,,,,,Space,keypress(Space),,,,,-- --- ---- --- ------ ----- ------- ---- -- --- ------- --<br>------- ---------- ------ -- ----- -- ----- -- ---- ------<br>--- ----- --- --- ------ -------- ----- --- ------ ----- --<br>----- ----- ---------- --- --- ------ ------ ---- -- ------<br>------- --- ------ ----- --- ---- ------- -- ---- --- --<br>raising ------,137965.70000000112,137965,137588.108,137590,137604.779,137971.486,,54,raising
screen,html.Screen,0_2_1_1_55,2021-12-02T11:25:39.543Z,,,,,,,,,,,,,,,,54,,,,,,,,,,,,,,321.4140000003681,,response,,,100,,,,,,Space,keypress(Space),,,,,-- --- ---- --- ------ ----- ------- ---- -- --- ------- --<br>------- ---------- ------ -- ----- -- ----- -- ---- ------<br>--- ----- --- --- ------ -------- ----- --- ------ ----- --<br>----- ----- ---------- --- --- ------ ------ ---- -- ------<br>------- --- ------ ----- --- ---- ------- -- ---- --- --<br>------- money.,138293.80000000075,138292.90000000037,137954.816,137965.90000000037,137971.486,138304.964,,55,money.
Item 100,flow.Loop,0_2_1_1,2021-12-02T11:25:39.543Z,,,,,,,,,,,,,,,,,,,,,,,,,,,,,,25394.853000000367,,completion,,,,F,,,,,,,,,,silence,,138294.30000000075,138292.90000000037,112881.377,112882.70000000112,112898.047,138304.964,,,
Question 1,html.Screen,0_2_1_2,2021-12-02T11:25:42.511Z,,,,,,,,,,,,,,,,,,,,,,,,,,,true,TRUE,,2955.636000001483,,response,,,100,F,,,,,TRUE,click #choice-1,,,,silence,,141261.80000000075,141260.6000000015,138288.293,138294.40000000037,138304.964,141272.375,,,
Question 2,html.Screen,0_2_1_3,2021-12-02T11:25:44.511Z,,,,,,,,,,,,,,,,,,,,,,,,,,,true,FALSE,,1988.125,,response,,,100,F,,,,,FALSE,click #choice-2,,,,silence,,143261.6000000015,143260.5,141255.705,141262.1000000015,141272.375,143272.885,,,
Item 100,flow.Sequence,0_2_1,2021-12-02T11:25:44.511Z,,,,,,,,,,,,,,,,,,,,,,,,,,,,,,40364.975000000006,,completion,,,,,,,,,,,,,,,,143262,143260.5,102878.855,102888.20000000112,102895.525,143272.885,,,
End of Practice,html.Page,0_2_2,2021-12-02T11:25:49.528Z,,,,,,,,,,,,,,,,,,,,,,,,,,,,,,5005.015000000363,,form submission,,,,,,,,,,,,,,,,148278.5,148277.90000000037,143256.215,143262.20000000112,143272.885,148290.896,,,
Practice,flow.Sequence,0_2,2021-12-02T11:25:49.528Z,,,,,,,,,,,,,,,,,,,,,,,,,,,,,,97988.67300000037,,completion,,,,,,,,,,,,,,,,148278.90000000037,148277.90000000037,50272.507,50274.800000000745,50289.227,148290.896,,,
Trap_instruction,html.Page,0_3_0,2021-12-02T11:25:54.207Z,,,,,,,,,,,,,,,,,,,,,,,,,,,,,,4666.603999999992,,form submission,,,,,,,,,,,,,,,,152958,152957.5,148274.225,148279.20000000112,148290.896,152991.816,,,
trap_trial,html.Screen,0_3_1,2021-12-02T11:25:56.910Z,,,,,,,,,,,,,,,,,,,,,,,,,,,true,1,,2668.1840000000084,,response,,,,,,,,,1,click #choice-1,,,,,,155661.1000000015,155660,152941.806,152958.30000000075,152991.816,155692.674,,,
end of trap trial,html.Page,0_3_2,2021-12-02T11:25:59.271Z,,,,,,,,,,,,,,,,,,,,,,,,,,,,,,2328.7260000003735,,form submission,,,,,,,,,,,,,,,,158021.90000000037,158021.40000000037,155676.004,155661.30000000075,155692.674,158026.808,,,
Trap 1,flow.Sequence,0_3,2021-12-02T11:25:59.271Z,,,,,,,,,,,,,,,,,,,,,,,,,,,,,,9730.504000000365,,completion,,,,,,,,,,,,,,,,158022.40000000037,158021.40000000037,148274.225,148279.20000000112,148290.896,158026.808,,,
Standby,html.Page,0_4_0,2021-12-02T11:26:07.262Z,,,,,,,,,,,,,,,,,,,,,,,,,,,,,,8001.578999999998,,timeout,,,,,,,,,,,,,,,,166012.5,166011.717,158010.137,158022.70000000112,158026.808,166028.387,,,
Holding screen,html.Screen,0_4_1_0_0,2021-12-02T11:26:14.264Z,,,,,,,,,,,,,,,,,,,,,,,,,,,,,,7002.331000000006,,timeout,,,,,,,,,,,,,,,,173015.30000000075,173014.048,166011.717,166012.80000000075,166028.387,173030.718,,,
screen,html.Screen,0_4_1_0_1_0,2021-12-02T11:26:15.390Z,,,,,,,,,,,,,,,,51,,,,,,,,,,,,,,1108.982000001124,,response,,,13,F,,,,,Space,keypress(Space),,,,instrumental,American -------- --- --- ---- --- --- ------ -- --------<br>---- --------- --- ------- ------------ ---------- ---------<br>--- ---------- ------- ---------- ------- -- -------- ----<br>---- --- ------ ----- ------ -- ---- --- ----- -- - -------<br>-------- -- --- --- -- ----- ----------- ----- -----------<br>---- --- ---------- --- ---- --- -- ----------,174140.6000000015,174139.70000000112,173014.048,173015.6000000015,173030.718,174147.663,,0,American
screen,html.Screen,0_4_1_0_1_1,2021-12-02T11:26:15.893Z,,,,,,,,,,,,,,,,51,,,,,,,,,,,,,,495.6370000007446,,response,,,13,F,,,,,Space,keypress(Space),,,,instrumental,-------- industry --- --- ---- --- --- ------ -- --------<br>---- --------- --- ------- ------------ ---------- ---------<br>--- ---------- ------- ---------- ------- -- -------- ----<br>---- --- ------ ----- ------ -- ---- --- ----- -- - -------<br>-------- -- --- --- -- ----- ----------- ----- -----------<br>---- --- ---------- --- ---- --- -- ----------,174644,174643.30000000075,174130.993,174140.90000000037,174147.663,174647.966,,1,industry
screen,html.Screen,0_4_1_0_1_2,2021-12-02T11:26:16.261Z,,,,,,,,,,,,,,,,51,,,,,,,,,,,,,,363.2340000011318,,response,,,13,F,,,,,Space,keypress(Space),,,,instrumental,-------- -------- may --- ---- --- --- ------ -- --------<br>---- --------- --- ------- ------------ ---------- ---------<br>--- ---------- ------- ---------- ------- -- -------- ----<br>---- --- ------ ----- ------ -- ---- --- ----- -- - -------<br>-------- -- --- --- -- ----- ----------- ----- -----------<br>---- --- ---------- --- ---- --- -- ----------,175011.90000000037,175011.20000000112,174631.295,174644.30000000075,174647.966,175014.683,,2,may
screen,html.Screen,0_4_1_0_1_3,2021-12-02T11:26:16.701Z,,,,,,,,,,,,,,,,51,,,,,,,,,,,,,,436.5170000011276,,response,,,13,F,,,,,Space,keypress(Space),,,,instrumental,-------- -------- --- not ---- --- --- ------ -- --------<br>---- --------- --- ------- ------------ ---------- ---------<br>--- ---------- ------- ---------- ------- -- -------- ----<br>---- --- ------ ----- ------ -- ---- --- ----- -- - -------<br>-------- -- --- --- -- ----- ----------- ----- -----------<br>---- --- ---------- --- ---- --- -- ----------,175452,175451.20000000112,174998.013,175012.20000000112,175014.683,175464.802,,3,not
screen,html.Screen,0_4_1_0_1_4,2021-12-02T11:26:17.093Z,,,,,,,,,,,,,,,,51,,,,,,,,,,,,,,378.2980000014941,,response,,,13,F,,,,,Space,keypress(Space),,,,instrumental,-------- -------- --- --- know --- --- ------ -- --------<br>---- --------- --- ------- ------------ ---------- ---------<br>--- ---------- ------- ---------- ------- -- -------- ----<br>---- --- ------ ----- ------ -- ---- --- ----- -- - -------<br>-------- -- --- --- -- ----- ----------- ----- -----------<br>---- --- ---------- --- ---- --- -- ----------,175843.90000000037,175843.1000000015,175448.132,175452.1000000015,175464.802,175848.097,,4,know
screen,html.Screen,0_4_1_0_1_5,2021-12-02T11:26:17.341Z,,,,,,,,,,,,,,,,51,,,,,,,,,,,,,,243.00300000148127,,response,,,13,F,,,,,Space,keypress(Space),,,,instrumental,"-------- -------- --- --- ---- it, --- ------ -- --------<br>---- --------- --- ------- ------------ ---------- ---------<br>--- ---------- ------- ---------- ------- -- -------- ----<br>---- --- ------ ----- ------ -- ---- --- ----- -- - -------<br>-------- -- --- --- -- ----- ----------- ----- -----------<br>---- --- ---------- --- ---- --- -- ----------",176091.90000000037,176091.1000000015,175831.429,175844.1000000015,175848.097,176098.355,,5,"it,"
screen,html.Screen,0_4_1_0_1_6,2021-12-02T11:26:17.813Z,,,,,,,,,,,,,,,,51,,,,,,,,,,,,,,464.6449999999895,,response,,,13,F,,,,,Space,keypress(Space),,,,instrumental,-------- -------- --- --- ---- --- but ------ -- --------<br>---- --------- --- ------- ------------ ---------- ---------<br>--- ---------- ------- ---------- ------- -- -------- ----<br>---- --- ------ ----- ------ -- ---- --- ----- -- - -------<br>-------- -- --- --- -- ----- ----------- ----- -----------<br>---- --- ---------- --- ---- --- -- ----------,176563.90000000037,176563,176081.683,176092.1000000015,176098.355,176565.138,,6,but
screen,html.Screen,0_4_1_0_1_7,2021-12-02T11:26:18.117Z,,,,,,,,,,,,,,,,51,,,,,,,,,,,,,,301.96200000148383,,response,,,13,F,,,,,Space,keypress(Space),,,,instrumental,-------- -------- --- --- ---- --- --- debate -- --------<br>---- --------- --- ------- ------------ ---------- ---------<br>--- ---------- ------- ---------- ------- -- -------- ----<br>---- --- ------ ----- ------ -- ---- --- ----- -- - -------<br>-------- -- --- --- -- ----- ----------- ----- -----------<br>---- --- ---------- --- ---- --- -- ----------,176867.90000000037,176867.1000000015,176548.467,176564.20000000112,176565.138,176881.86,,7,debate
screen,html.Screen,0_4_1_0_1_8,2021-12-02T11:26:18.485Z,,,,,,,,,,,,,,,,51,,,,,,,,,,,,,,353.2400000015041,,response,,,13,F,,,,,Space,keypress(Space),,,,instrumental,-------- -------- --- --- ---- --- --- ------ in --------<br>---- --------- --- ------- ------------ ---------- ---------<br>--- ---------- ------- ---------- ------- -- -------- ----<br>---- --- ------ ----- ------ -- ---- --- ----- -- - -------<br>-------- -- --- --- -- ----- ----------- ----- -----------<br>---- --- ---------- --- ---- --- -- ----------,177235.90000000037,177235.1000000015,176865.19,176868.20000000112,176881.86,177248.517,,8,in
screen,html.Screen,0_4_1_0_1_9,2021-12-02T11:26:18.901Z,,,,,,,,,,,,,,,,51,,,,,,,,,,,,,,402.58300000149757,,response,,,13,F,,,,,Space,keypress(Space),,,,instrumental,-------- -------- --- --- ---- --- --- ------ -- Congress<br>---- --------- --- ------- ------------ ---------- ---------<br>--- ---------- ------- ---------- ------- -- -------- ----<br>---- --- ------ ----- ------ -- ---- --- ----- -- - -------<br>-------- -- --- --- -- ----- ----------- ----- -----------<br>---- --- ---------- --- ---- --- -- ----------,177651.80000000075,177651.1000000015,177231.848,177236.20000000112,177248.517,177665.508,,9,Congress
screen,html.Screen,0_4_1_0_1_10,2021-12-02T11:26:19.365Z,,,,,,,,,,,,,,,,51,,,,,,,,,,,,,,449.5920000014885,,response,,,13,F,,,,,Space,keypress(Space),,,,instrumental,-------- -------- --- --- ---- --- --- ------ -- --------<br>over --------- --- ------- ------------ ---------- ---------<br>--- ---------- ------- ---------- ------- -- -------- ----<br>---- --- ------ ----- ------ -- ---- --- ----- -- - -------<br>-------- -- --- --- -- ----- ----------- ----- -----------<br>---- --- ---------- --- ---- --- -- ----------,178115.90000000037,178115.1000000015,177648.835,177652.1000000015,177665.508,178132.227,,10,over
screen,html.Screen,0_4_1_0_1_11,2021-12-02T11:26:19.629Z,,,,,,,,,,,,,,,,51,,,,,,,,,,,,,,246.67300000035902,,response,,,13,F,,,,,Space,keypress(Space),,,,instrumental,-------- -------- --- --- ---- --- --- ------ -- --------<br>---- reforming --- ------- ------------ ---------- ---------<br>--- ---------- ------- ---------- ------- -- -------- ----<br>---- --- ------ ----- ------ -- ---- --- ----- -- - -------<br>-------- -- --- --- -- ----- ----------- ----- -----------<br>---- --- ---------- --- ---- --- -- ----------,178379.70000000112,178378.90000000037,178115.556,178116.1000000015,178132.227,178382.236,,11,reforming
screen,html.Screen,0_4_1_0_1_12,2021-12-02T11:26:20.093Z,,,,,,,,,,,,,,,,51,,,,,,,,,,,,,,460.7639999999956,,response,,,13,F,,,,,Space,keypress(Space),,,,instrumental,-------- -------- --- --- ---- --- --- ------ -- --------<br>---- --------- the ------- ------------ ---------- ---------<br>--- ---------- ------- ---------- ------- -- -------- ----<br>---- --- ------ ----- ------ -- ---- --- ----- -- - -------<br>-------- -- --- --- -- ----- ----------- ----- -----------<br>---- --- ---------- --- ---- --- -- ----------,178843.80000000075,178843,178365.566,178379.90000000037,178382.236,178849.073,,12,the
screen,html.Screen,0_4_1_0_1_13,2021-12-02T11:26:20.365Z,,,,,,,,,,,,,,,,51,,,,,,,,,,,,,,265.92699999999604,,response,,,13,F,,,,,Space,keypress(Space),,,,instrumental,-------- -------- --- --- ---- --- --- ------ -- --------<br>---- --------- --- federal ------------ ---------- ---------<br>--- ---------- ------- ---------- ------- -- -------- ----<br>---- --- ------ ----- ------ -- ---- --- ----- -- - -------<br>-------- -- --- --- -- ----- ----------- ----- -----------<br>---- --- ---------- --- ---- --- -- ----------,179115.80000000075,179115,178832.402,178844.1000000015,178849.073,179132.436,,13,federal
screen,html.Screen,0_4_1_0_1_14,2021-12-02T11:26:20.821Z,,,,,,,,,,,,,,,,51,,,,,,,,,,,,,,438.46400000038557,,response,,,13,F,,,,,Space,keypress(Space),,,,instrumental,-------- -------- --- --- ---- --- --- ------ -- --------<br>---- --------- --- ------- government's ---------- ---------<br>--- ---------- ------- ---------- ------- -- -------- ----<br>---- --- ------ ----- ------ -- ---- --- ----- -- - -------<br>-------- -- --- --- -- ----- ----------- ----- -----------<br>---- --- ---------- --- ---- --- -- ----------,179571.70000000112,179570.90000000037,179115.766,179116.1000000015,179132.436,179582.55,,14,government's
screen,html.Screen,0_4_1_0_1_15,2021-12-02T11:26:21.325Z,,,,,,,,,,,,,,,,51,,,,,,,,,,,,,,492.45000000001164,,response,,,13,F,,,,,Space,keypress(Space),,,,instrumental,-------- -------- --- --- ---- --- --- ------ -- --------<br>---- --------- --- ------- ------------ regulatory ---------<br>--- ---------- ------- ---------- ------- -- -------- ----<br>---- --- ------ ----- ------ -- ---- --- ----- -- - -------<br>-------- -- --- --- -- ----- ----------- ----- -----------<br>---- --- ---------- --- ---- --- -- ----------,180075.70000000112,180075,179565.88,179572,179582.55,180082.748,,15,regulatory
screen,html.Screen,0_4_1_0_1_16,2021-12-02T11:26:21.848Z,,,,,,,,,,,,,,,,51,,,,,,,,,,,,,,512.1520000003802,,response,,,13,F,,,,,Space,keypress(Space),,,,instrumental,-------- -------- --- --- ---- --- --- ------ -- --------<br>---- --------- --- ------- ------------ ---------- apparatus<br>--- ---------- ------- ---------- ------- -- -------- ----<br>---- --- ------ ----- ------ -- ---- --- ----- -- - -------<br>-------- -- --- --- -- ----- ----------- ----- -----------<br>---- --- ---------- --- ---- --- -- ----------,180595.70000000112,180594.90000000037,180066.077,180076,180082.748,180599.463,,16,apparatus
screen,html.Screen,0_4_1_0_1_17,2021-12-02T11:26:22.336Z,,,,,,,,,,,,,,,,51,,,,,,,,,,,,,,483.33700000075623,,response,,,13,F,,,,,Space,keypress(Space),,,,instrumental,-------- -------- --- --- ---- --- --- ------ -- --------<br>---- --------- --- ------- ------------ ---------- ---------<br>may ---------- ------- ---------- ------- -- -------- ----<br>---- --- ------ ----- ------ -- ---- --- ----- -- - -------<br>-------- -- --- --- -- ----- ----------- ----- -----------<br>---- --- ---------- --- ---- --- -- ----------,181083.6000000015,181082.80000000075,180582.793,180595.90000000037,180599.463,181099.685,,17,may
screen,html.Screen,0_4_1_0_1_18,2021-12-02T11:26:22.816Z,,,,,,,,,,,,,,,,51,,,,,,,,,,,,,,463.1150000007474,,response,,,13,F,,,,,Space,keypress(Space),,,,instrumental,-------- -------- --- --- ---- --- --- ------ -- --------<br>---- --------- --- ------- ------------ ---------- ---------<br>--- profoundly ------- ---------- ------- -- -------- ----<br>---- --- ------ ----- ------ -- ---- --- ----- -- - -------<br>-------- -- --- --- -- ----- ----------- ----- -----------<br>---- --- ---------- --- ---- --- -- ----------,181563.6000000015,181562.80000000075,181083.014,181083.90000000037,181099.685,181566.429,,18,profoundly
screen,html.Screen,0_4_1_0_1_19,2021-12-02T11:26:23.056Z,,,,,,,,,,,,,,,,51,,,,,,,,,,,,,,236.4710000003688,,response,,,13,F,,,,,Space,keypress(Space),,,,instrumental,-------- -------- --- --- ---- --- --- ------ -- --------<br>---- --------- --- ------- ------------ ---------- ---------<br>--- ---------- improve ---------- ------- -- -------- ----<br>---- --- ------ ----- ------ -- ---- --- ----- -- - -------<br>-------- -- --- --- -- ----- ----------- ----- -----------<br>---- --- ---------- --- ---- --- -- ----------,181803.6000000015,181802.90000000037,181549.759,181563.90000000037,181566.429,181816.477,,19,improve
screen,html.Screen,0_4_1_0_1_20,2021-12-02T11:26:23.248Z,,,,,,,,,,,,,,,,51,,,,,,,,,,,,,,178.32300000073155,,response,,,13,F,,,,,Space,keypress(Space),,,,instrumental,-------- -------- --- --- ---- --- --- ------ -- --------<br>---- --------- --- ------- ------------ ---------- ---------<br>--- ---------- ------- companies' ------- -- -------- ----<br>---- --- ------ ----- ------ -- ---- --- ----- -- - -------<br>-------- -- --- --- -- ----- ----------- ----- -----------<br>---- --- ---------- --- ---- --- -- ----------,181995.6000000015,181994.80000000075,181799.807,181803.90000000037,181816.477,181999.914,,20,companies'
screen,html.Screen,0_4_1_0_1_21,2021-12-02T11:26:23.872Z,,,,,,,,,,,,,,,,51,,,,,,,,,,,,,,618.8860000007553,,response,,,13,F,,,,,Space,keypress(Space),,,,instrumental,-------- -------- --- --- ---- --- --- ------ -- --------<br>---- --------- --- ------- ------------ ---------- ---------<br>--- ---------- ------- ---------- ability -- -------- ----<br>---- --- ------ ----- ------ -- ---- --- ----- -- - -------<br>-------- -- --- --- -- ----- ----------- ----- -----------<br>---- --- ---------- --- ---- --- -- ----------,182619.5,182618.80000000075,181983.243,181995.90000000037,181999.914,182633.239,,21,ability
screen,html.Screen,0_4_1_0_1_22,2021-12-02T11:26:24.104Z,,,,,,,,,,,,,,,,51,,,,,,,,,,,,,,217.4610000011162,,response,,,13,F,,,,,Space,keypress(Space),,,,instrumental,-------- -------- --- --- ---- --- --- ------ -- --------<br>---- --------- --- ------- ------------ ---------- ---------<br>--- ---------- ------- ---------- ------- to -------- ----<br>---- --- ------ ----- ------ -- ---- --- ----- -- - -------<br>-------- -- --- --- -- ----- ----------- ----- -----------<br>---- --- ---------- --- ---- --- -- ----------,182851.5,182850.70000000112,182616.571,182619.80000000075,182633.239,182866.715,,22,to
screen,html.Screen,0_4_1_0_1_23,2021-12-02T11:26:24.560Z,,,,,,,,,,,,,,,,51,,,,,,,,,,,,,,440.08500000074855,,response,,,13,F,,,,,Space,keypress(Space),,,,instrumental,-------- -------- --- --- ---- --- --- ------ -- --------<br>---- --------- --- ------- ------------ ---------- ---------<br>--- ---------- ------- ---------- ------- -- survive. ----<br>---- --- ------ ----- ------ -- ---- --- ----- -- - -------<br>-------- -- --- --- -- ----- ----------- ----- -----------<br>---- --- ---------- --- ---- --- -- ----------,183307.6000000015,183306.80000000075,182850.045,182851.70000000112,182866.715,183316.931,,23,survive.
screen,html.Screen,0_4_1_0_1_24,2021-12-02T11:26:25.104Z,,,,,,,,,,,,,,,,51,,,,,,,,,,,,,,533.8690000007336,,response,,,13,F,,,,,Space,keypress(Space),,,,instrumental,-------- -------- --- --- ---- --- --- ------ -- --------<br>---- --------- --- ------- ------------ ---------- ---------<br>--- ---------- ------- ---------- ------- -- -------- This<br>---- --- ------ ----- ------ -- ---- --- ----- -- - -------<br>-------- -- --- --- -- ----- ----------- ----- -----------<br>---- --- ---------- --- ---- --- -- ----------,183851.6000000015,183850.80000000075,183300.26,183307.90000000037,183316.931,183867.008,,24,This
screen,html.Screen,0_4_1_0_1_25,2021-12-02T11:26:25.576Z,,,,,,,,,,,,,,,,51,,,,,,,,,,,,,,456.19200000111596,,response,,,13,F,,,,,Space,keypress(Space),,,,instrumental,-------- -------- --- --- ---- --- --- ------ -- --------<br>---- --------- --- ------- ------------ ---------- ---------<br>--- ---------- ------- ---------- ------- -- -------- ----<br>week --- ------ ----- ------ -- ---- --- ----- -- - -------<br>-------- -- --- --- -- ----- ----------- ----- -----------<br>---- --- ---------- --- ---- --- -- ----------,184323.90000000037,184323.20000000112,183850.338,183851.80000000075,183867.008,184333.863,,25,week
screen,html.Screen,0_4_1_0_1_26,2021-12-02T11:26:25.808Z,,,,,,,,,,,,,,,,51,,,,,,,,,,,,,,220.83700000110548,,response,,,13,F,,,,,Space,keypress(Space),,,,instrumental,-------- -------- --- --- ---- --- --- ------ -- --------<br>---- --------- --- ------- ------------ ---------- ---------<br>--- ---------- ------- ---------- ------- -- -------- ----<br>---- the ------ ----- ------ -- ---- --- ----- -- - -------<br>-------- -- --- --- -- ----- ----------- ----- -----------<br>---- --- ---------- --- ---- --- -- ----------,184555.6000000015,184554.70000000112,184317.192,184324.20000000112,184333.863,184567.222,,26,the
screen,html.Screen,0_4_1_0_1_27,2021-12-02T11:26:26.160Z,,,,,,,,,,,,,,,,51,,,,,,,,,,,,,,339.47800000110874,,response,,,13,F,,,,,Space,keypress(Space),,,,instrumental,-------- -------- --- --- ---- --- --- ------ -- --------<br>---- --------- --- ------- ------------ ---------- ---------<br>--- ---------- ------- ---------- ------- -- -------- ----<br>---- --- Senate ----- ------ -- ---- --- ----- -- - -------<br>-------- -- --- --- -- ----- ----------- ----- -----------<br>---- --- ---------- --- ---- --- -- ----------,184907.40000000037,184906.70000000112,184550.552,184555.80000000075,184567.222,184917.318,,27,Senate
screen,html.Screen,0_4_1_0_1_28,2021-12-02T11:26:26.535Z,,,,,,,,,,,,,,,,51,,,,,,,,,,,,,,365.0820000003732,,response,,,13,F,,,,,Space,keypress(Space),,,,instrumental,-------- -------- --- --- ---- --- --- ------ -- --------<br>---- --------- --- ------- ------------ ---------- ---------<br>--- ---------- ------- ---------- ------- -- -------- ----<br>---- --- ------ seems ------ -- ---- --- ----- -- - -------<br>-------- -- --- --- -- ----- ----------- ----- -----------<br>---- --- ---------- --- ---- --- -- ----------,185282.80000000075,185282.40000000037,184900.648,184907.6000000015,184917.318,185283.936,,28,seems
screen,html.Screen,0_4_1_0_1_29,2021-12-02T11:26:26.792Z,,,,,,,,,,,,,,,,51,,,,,,,,,,,,,,254.66400000150315,,response,,,13,F,,,,,Space,keypress(Space),,,,instrumental,-------- -------- --- --- ---- --- --- ------ -- --------<br>---- --------- --- ------- ------------ ---------- ---------<br>--- ---------- ------- ---------- ------- -- -------- ----<br>---- --- ------ ----- poised -- ---- --- ----- -- - -------<br>-------- -- --- --- -- ----- ----------- ----- -----------<br>---- --- ---------- --- ---- --- -- ----------,185539.30000000075,185538.6000000015,185267.268,185282.80000000075,185283.936,185550.92,,29,poised
screen,html.Screen,0_4_1_0_1_30,2021-12-02T11:26:27.384Z,,,,,,,,,,,,,,,,51,,,,,,,,,,,,,,579.7800000011048,,response,,,13,F,,,,,Space,keypress(Space),,,,instrumental,-------- -------- --- --- ---- --- --- ------ -- --------<br>---- --------- --- ------- ------------ ---------- ---------<br>--- ---------- ------- ---------- ------- -- -------- ----<br>---- --- ------ ----- ------ to ---- --- ----- -- - -------<br>-------- -- --- --- -- ----- ----------- ----- -----------<br>---- --- ---------- --- ---- --- -- ----------,186131.5,186130.70000000112,185534.247,185539.6000000015,185550.92,186134.15,,30,to
screen,html.Screen,0_4_1_0_1_31,2021-12-02T11:26:27.720Z,,,,,,,,,,,,,,,,51,,,,,,,,,,,,,,332.45000000149594,,response,,,13,F,,,,,Space,keypress(Space),,,,instrumental,-------- -------- --- --- ---- --- --- ------ -- --------<br>---- --------- --- ------- ------------ ---------- ---------<br>--- ---------- ------- ---------- ------- -- -------- ----<br>---- --- ------ ----- ------ -- join --- ----- -- - -------<br>-------- -- --- --- -- ----- ----------- ----- -----------<br>---- --- ---------- --- ---- --- -- ----------,186467.40000000037,186466.6000000015,186117.482,186131.70000000112,186134.15,186484.358,,31,join
screen,html.Screen,0_4_1_0_1_32,2021-12-02T11:26:28.040Z,,,,,,,,,,,,,,,,51,,,,,,,,,,,,,,302.24200000148267,,response,,,13,F,,,,,Space,keypress(Space),,,,instrumental,-------- -------- --- --- ---- --- --- ------ -- --------<br>---- --------- --- ------- ------------ ---------- ---------<br>--- ---------- ------- ---------- ------- -- -------- ----<br>---- --- ------ ----- ------ -- ---- the ----- -- - -------<br>-------- -- --- --- -- ----- ----------- ----- -----------<br>---- --- ---------- --- ---- --- -- ----------,186787.5,186786.6000000015,186467.688,186467.6000000015,186484.358,186801.159,,32,the
screen,html.Screen,0_4_1_0_1_33,2021-12-02T11:26:28.616Z,,,,,,,,,,,,,,,,51,,,,,,,,,,,,,,561.5410000011034,,response,,,13,F,,,,,Space,keypress(Space),,,,instrumental,-------- -------- --- --- ---- --- --- ------ -- --------<br>---- --------- --- ------- ------------ ---------- ---------<br>--- ---------- ------- ---------- ------- -- -------- ----<br>---- --- ------ ----- ------ -- ---- --- House -- - -------<br>-------- -- --- --- -- ----- ----------- ----- -----------<br>---- --- ---------- --- ---- --- -- ----------,187363.40000000037,187362.70000000112,186784.488,186787.70000000112,186801.159,187367.999,,33,House
screen,html.Screen,0_4_1_0_1_34,2021-12-02T11:26:28.880Z,,,,,,,,,,,,,,,,51,,,,,,,,,,,,,,258.6010000014794,,response,,,13,F,,,,,Space,keypress(Space),,,,instrumental,-------- -------- --- --- ---- --- --- ------ -- --------<br>---- --------- --- ------- ------------ ---------- ---------<br>--- ---------- ------- ---------- ------- -- -------- ----<br>---- --- ------ ----- ------ -- ---- --- ----- in - -------<br>-------- -- --- --- -- ----- ----------- ----- -----------<br>---- --- ---------- --- ---- --- -- ----------,187627.40000000037,187626.6000000015,187351.328,187363.6000000015,187367.999,187634.694,,34,in
screen,html.Screen,0_4_1_0_1_35,2021-12-02T11:26:29.280Z,,,,,,,,,,,,,,,,51,,,,,,,,,,,,,,391.9060000015015,,response,,,13,F,,,,,Space,keypress(Space),,,,instrumental,-------- -------- --- --- ---- --- --- ------ -- --------<br>---- --------- --- ------- ------------ ---------- ---------<br>--- ---------- ------- ---------- ------- -- -------- ----<br>---- --- ------ ----- ------ -- ---- --- ----- -- a -------<br>-------- -- --- --- -- ----- ----------- ----- -----------<br>---- --- ---------- --- ---- --- -- ----------,188027.40000000037,188026.6000000015,187618.024,187627.70000000112,187634.694,188034.839,,35,a
screen,html.Screen,0_4_1_0_1_36,2021-12-02T11:26:29.744Z,,,,,,,,,,,,,,,,51,,,,,,,,,,,,,,455.7610000014829,,response,,,13,F,,,,,Space,keypress(Space),,,,instrumental,-------- -------- --- --- ---- --- --- ------ -- --------<br>---- --------- --- ------- ------------ ---------- ---------<br>--- ---------- ------- ---------- ------- -- -------- ----<br>---- --- ------ ----- ------ -- ---- --- ----- -- - massive<br>-------- -- --- --- -- ----- ----------- ----- -----------<br>---- --- ---------- --- ---- --- -- ----------,188491.40000000037,188490.6000000015,188018.168,188027.70000000112,188034.839,188501.577,,36,massive
screen,html.Screen,0_4_1_0_1_37,2021-12-02T11:26:29.991Z,,,,,,,,,,,,,,,,51,,,,,,,,,,,,,,236.8230000003823,,response,,,13,F,,,,,Space,keypress(Space),,,,instrumental,-------- -------- --- --- ---- --- --- ------ -- --------<br>---- --------- --- ------- ------------ ---------- ---------<br>--- ---------- ------- ---------- ------- -- -------- ----<br>---- --- ------ ----- ------ -- ---- --- ----- -- - -------<br>overhaul -- --- --- -- ----- ----------- ----- -----------<br>---- --- ---------- --- ---- --- -- ----------,188739.20000000112,188738.40000000037,188484.907,188491.6000000015,188501.577,188751.674,,37,overhaul
screen,html.Screen,0_4_1_0_1_38,2021-12-02T11:26:30.480Z,,,,,,,,,,,,,,,,51,,,,,,,,,,,,,,474.82600000000093,,response,,,13,F,,,,,Space,keypress(Space),,,,instrumental,-------- -------- --- --- ---- --- --- ------ -- --------<br>---- --------- --- ------- ------------ ---------- ---------<br>--- ---------- ------- ---------- ------- -- -------- ----<br>---- --- ------ ----- ------ -- ---- --- ----- -- - -------<br>-------- of --- --- -- ----- ----------- ----- -----------<br>---- --- ---------- --- ---- --- -- ----------,189227.30000000075,189226.5,188735.004,188739.40000000037,188751.674,189235.16,,38,of
screen,html.Screen,0_4_1_0_1_39,2021-12-02T11:26:30.799Z,,,,,,,,,,,,,,,,51,,,,,,,,,,,,,,311.3399999999965,,response,,,13,F,,,,,Space,keypress(Space),,,,instrumental,-------- -------- --- --- ---- --- --- ------ -- --------<br>---- --------- --- ------- ------------ ---------- ---------<br>--- ---------- ------- ---------- ------- -- -------- ----<br>---- --- ------ ----- ------ -- ---- --- ----- -- - -------<br>-------- -- the --- -- ----- ----------- ----- -----------<br>---- --- ---------- --- ---- --- -- ----------,189547.20000000112,189546.5,189218.489,189227.6000000015,189235.16,189551.89,,39,the
screen,html.Screen,0_4_1_0_1_40,2021-12-02T11:26:31.128Z,,,,,,,,,,,,,,,,51,,,,,,,,,,,,,,322.60999999998603,,response,,,13,F,,,,,Space,keypress(Space),,,,instrumental,-------- -------- --- --- ---- --- --- ------ -- --------<br>---- --------- --- ------- ------------ ---------- ---------<br>--- ---------- ------- ---------- ------- -- -------- ----<br>---- --- ------ ----- ------ -- ---- --- ----- -- - -------<br>-------- -- --- way -- ----- ----------- ----- -----------<br>---- --- ---------- --- ---- --- -- ----------,189875.30000000075,189874.5,189535.22,189547.5,189551.89,189885.313,,40,way
screen,html.Screen,0_4_1_0_1_41,2021-12-02T11:26:31.383Z,,,,,,,,,,,,,,,,51,,,,,,,,,,,,,,245.18700000000536,,response,,,13,F,,,,,Space,keypress(Space),,,,instrumental,-------- -------- --- --- ---- --- --- ------ -- --------<br>---- --------- --- ------- ------------ ---------- ---------<br>--- ---------- ------- ---------- ------- -- -------- ----<br>---- --- ------ ----- ------ -- ---- --- ----- -- - -------<br>-------- -- --- --- in ----- ----------- ----- -----------<br>---- --- ---------- --- ---- --- -- ----------,190131.30000000075,190130.5,189868.643,189875.6000000015,189885.313,190135.376,,41,in
screen,html.Screen,0_4_1_0_1_42,2021-12-02T11:26:31.967Z,,,,,,,,,,,,,,,,51,,,,,,,,,,,,,,579.0240000003832,,response,,,13,F,,,,,Space,keypress(Space),,,,instrumental,-------- -------- --- --- ---- --- --- ------ -- --------<br>---- --------- --- ------- ------------ ---------- ---------<br>--- ---------- ------- ---------- ------- -- -------- ----<br>---- --- ------ ----- ------ -- ---- --- ----- -- - -------<br>-------- -- --- --- -- which ----------- ----- -----------<br>---- --- ---------- --- ---- --- -- ----------,190715.20000000112,190714.40000000037,190118.706,190131.40000000037,190135.376,190718.838,,42,which
screen,html.Screen,0_4_1_0_1_43,2021-12-02T11:26:32.215Z,,,,,,,,,,,,,,,,51,,,,,,,,,,,,,,243.5620000003837,,response,,,13,F,,,,,Space,keypress(Space),,,,instrumental,-------- -------- --- --- ---- --- --- ------ -- --------<br>---- --------- --- ------- ------------ ---------- ---------<br>--- ---------- ------- ---------- ------- -- -------- ----<br>---- --- ------ ----- ------ -- ---- --- ----- -- - -------<br>-------- -- --- --- -- ----- bureaucrats ----- -----------<br>---- --- ---------- --- ---- --- -- ----------,190963.20000000112,190962.40000000037,190702.168,190715.5,190718.838,190968.971,,43,bureaucrats
screen,html.Screen,0_4_1_0_1_44,2021-12-02T11:26:33.295Z,,,,,,,,,,,,,,,,51,,,,,,,,,,,,,,1073.3290000007546,,response,,,13,F,,,,,Space,keypress(Space),,,,instrumental,-------- -------- --- --- ---- --- --- ------ -- --------<br>---- --------- --- ------- ------------ ---------- ---------<br>--- ---------- ------- ---------- ------- -- -------- ----<br>---- --- ------ ----- ------ -- ---- --- ----- -- - -------<br>-------- -- --- --- -- ----- ----------- enact -----------<br>---- --- ---------- --- ---- --- -- ----------,192043.1000000015,192042.30000000075,190952.3,190963.5,190968.971,192052.49,,44,enact
screen,html.Screen,0_4_1_0_1_45,2021-12-02T11:26:33.727Z,,,,,,,,,,,,,,,,51,,,,,,,,,,,,,,421.91000000038184,,response,,,13,F,,,,,Space,keypress(Space),,,,instrumental,-------- -------- --- --- ---- --- --- ------ -- --------<br>---- --------- --- ------- ------------ ---------- ---------<br>--- ---------- ------- ---------- ------- -- -------- ----<br>---- --- ------ ----- ------ -- ---- --- ----- -- - -------<br>-------- -- --- --- -- ----- ----------- ----- regulations<br>---- --- ---------- --- ---- --- -- ----------,192475.1000000015,192474.40000000037,192035.82,192043.30000000075,192052.49,192486.097,,45,regulations
screen,html.Screen,0_4_1_0_1_46,2021-12-02T11:26:34.183Z,,,,,,,,,,,,,,,,51,,,,,,,,,,,,,,444.2030000007362,,response,,,13,F,,,,,Space,keypress(Space),,,,instrumental,-------- -------- --- --- ---- --- --- ------ -- --------<br>---- --------- --- ------- ------------ ---------- ---------<br>--- ---------- ------- ---------- ------- -- -------- ----<br>---- --- ------ ----- ------ -- ---- --- ----- -- - -------<br>-------- -- --- --- -- ----- ----------- ----- -----------<br>that --- ---------- --- ---- --- -- ----------,192931.20000000112,192930.30000000075,192469.425,192475.40000000037,192486.097,192936.101,,46,that
screen,html.Screen,0_4_1_0_1_47,2021-12-02T11:26:34.439Z,,,,,,,,,,,,,,,,51,,,,,,,,,,,,,,250.29900000037742,,response,,,13,F,,,,,Space,keypress(Space),,,,instrumental,-------- -------- --- --- ---- --- --- ------ -- --------<br>---- --------- --- ------- ------------ ---------- ---------<br>--- ---------- ------- ---------- ------- -- -------- ----<br>---- --- ------ ----- ------ -- ---- --- ----- -- - -------<br>-------- -- --- --- -- ----- ----------- ----- -----------<br>---- are ---------- --- ---- --- -- ----------,193187.20000000112,193186.40000000037,192919.431,192931.30000000075,192936.101,193202.909,,47,are
screen,html.Screen,0_4_1_0_1_48,2021-12-02T11:26:34.927Z,,,,,,,,,,,,,,,,51,,,,,,,,,,,,,,471.39100000073086,,response,,,13,F,,,,,Space,keypress(Space),,,,instrumental,-------- -------- --- --- ---- --- --- ------ -- --------<br>---- --------- --- ------- ------------ ---------- ---------<br>--- ---------- ------- ---------- ------- -- -------- ----<br>---- --- ------ ----- ------ -- ---- --- ----- -- - -------<br>-------- -- --- --- -- ----- ----------- ----- -----------<br>---- --- strangling --- ---- --- -- ----------,193675.1000000015,193674.30000000075,193186.238,193187.40000000037,193202.909,193686.3,,48,strangling
screen,html.Screen,0_4_1_0_1_49,2021-12-02T11:26:35.327Z,,,,,,,,,,,,,,,,51,,,,,,,,,,,,,,388.0000000007567,,response,,,13,F,,,,,Space,keypress(Space),,,,instrumental,-------- -------- --- --- ---- --- --- ------ -- --------<br>---- --------- --- ------- ------------ ---------- ---------<br>--- ---------- ------- ---------- ------- -- -------- ----<br>---- --- ------ ----- ------ -- ---- --- ----- -- - -------<br>-------- -- --- --- -- ----- ----------- ----- -----------<br>---- --- ---------- the ---- --- -- ----------,194075.1000000015,194074.30000000075,193669.63,193675.40000000037,193686.3,194086.47,,49,the
