sender,sender_type,sender_id,timestamp,meta,,Blues,Classical,Country,Dance,Electronic,Folk,Gospel,Hip-Hop,Jazz,Latin,Musical/Film,New-age,Pop,Provo_ID,R&B,Rap,Reggae,Religious,Rock,Soul,Swing,Traditional,age,artist_name,correct,correctResponse,distraction,duration,education,ended_on,familiarity,gender,item,list,music_frequency,offensiveness,pleasantness,preference,response,response_action,snippet_file,song_name,song_rating,sound,text,time_commit,time_end,time_render,time_run,time_show,time_switch,url,word,word_ID
Instructions,html.Page,0_0,2021-12-10T12:44:19.218Z,"{""labjs_version"":""20.2.3"",""labjs_build"":{""flavor"":""production"",""commit"":""7ea907d66ca8aeef8054924ca5d82ffbe11e34e5""},""location"":""https://run.pavlovia.org/mvasilev/lab_music_c/"",""userAgent"":""Mozilla/5.0 (Windows NT 6.1; Win64; x64) AppleWebKit/537.36 (KHTML, like Gecko) Chrome/96.0.4664.93 Safari/537.36"",""platform"":""Win32"",""language"":""en-US"",""locale"":""en-US"",""timeZone"":""Europe/London"",""timezoneOffset"":0,""screen_width"":1920,""screen_height"":1080,""scroll_width"":1920,""scroll_height"":959,""window_innerWidth"":1920,""window_innerHeight"":1007,""devicePixelRatio"":1}",,,,,,,,,,,,,,,,,,,,,,,,,,,,,22441.329999964237,,form submission,,,,,,,,,,,,,,,,32702.80000001192,32701.599999964237,10226.93,10242.399999976158,10260.27,32712.042,{},,
Headphones,html.Page,0_1,2021-12-10T12:44:21.893Z,,,,,,,,,,,,,,,,,,,,,,,,,,,,,,2665.4579999999987,,form submission,,,,,,,,,,,,,,,,35377.89999997616,35377.5,32695.375,32703.5,32712.042,35383.507,,,
Holding screen,html.Screen,0_2_0_0,2021-12-10T12:44:31.891Z,,,,,,,,,,,,,,,,,,,,,,,,,,,,,,10002.016000000003,,timeout,,,,,,,,,,,,,,,,45375.5,45368.854,35366.835,35378.39999997616,35383.507,45385.523,,,
screen,html.Screen,0_2_0_1_0,2021-12-10T12:44:32.913Z,,,,,,,,,,,,,,,,53,,,,,,,,,,,,,,1010.2770000119199,,response,,,99,,,,,,Space,keypress(Space),,,,,When -- ----- -- ------ - ------- --- ----------<br>------------- ------ ------ ---- ---- ------- ----- -- ----<br>-------- ------- -- ---------- --- - --- ----- ----- ----<br>---- --- --- ----- --- ---- ---- ------- ----- ---- -------<br>--- --- -- ----- -- --- ---- -- --- ---- -- ------ ------<br>--- ----- -- ----,46397.39999997616,46395.80000001192,45368.854,45375.89999997616,45385.523,46402.602,,0,When
screen,html.Screen,0_2_0_1_1,2021-12-10T12:44:33.647Z,,,,,,,,,,,,,,,,53,,,,,,,,,,,,,,728.5979999880801,,response,,,99,,,,,,Space,keypress(Space),,,,,---- it ----- -- ------ - ------- --- ----------<br>------------- ------ ------ ---- ---- ------- ----- -- ----<br>-------- ------- -- ---------- --- - --- ----- ----- ----<br>---- --- --- ----- --- ---- ---- ------- ----- ---- -------<br>--- --- -- ----- -- --- ---- -- --- ---- -- ------ ------<br>--- ----- -- ----,47132.09999996424,47131.19999998808,46385.932,46397.69999998808,46402.602,47136.24,,1,it
screen,html.Screen,0_2_0_1_2,2021-12-10T12:44:34.255Z,,,,,,,,,,,,,,,,53,,,,,,,,,,,,,,602.9599999880811,,response,,,99,,,,,,Space,keypress(Space),,,,,---- -- comes -- ------ - ------- --- ----------<br>------------- ------ ------ ---- ---- ------- ----- -- ----<br>-------- ------- -- ---------- --- - --- ----- ----- ----<br>---- --- --- ----- --- ---- ---- ------- ----- ---- -------<br>--- --- -- ----- -- --- ---- -- --- ---- -- ------ ------<br>--- ----- -- ----,47740.09999996424,47739.19999998808,47119.569,47132.39999997616,47136.24,47752.923,,2,comes
screen,html.Screen,0_2_0_1_3,2021-12-10T12:44:34.823Z,,,,,,,,,,,,,,,,53,,,,,,,,,,,,,,554.2769999880766,,response,,,99,,,,,,Space,keypress(Space),,,,,---- -- ----- to ------ - ------- --- ----------<br>------------- ------ ------ ---- ---- ------- ----- -- ----<br>-------- ------- -- ---------- --- - --- ----- ----- ----<br>---- --- --- ----- --- ---- ---- ------- ----- ---- -------<br>--- --- -- ----- -- --- ---- -- --- ---- -- ------ ------<br>--- ----- -- ----,48308.09999996424,48307.19999998808,47736.253,47740.39999997616,47752.923,48319.775,,3,to
screen,html.Screen,0_2_0_1_4,2021-12-10T12:44:35.375Z,,,,,,,,,,,,,,,,53,,,,,,,,,,,,,,539.3249999642358,,response,,,99,,,,,,Space,keypress(Space),,,,,---- -- ----- -- having - ------- --- ----------<br>------------- ------ ------ ---- ---- ------- ----- -- ----<br>-------- ------- -- ---------- --- - --- ----- ----- ----<br>---- --- --- ----- --- ---- ---- ------- ----- ---- -------<br>--- --- -- ----- -- --- ---- -- --- ---- -- ------ ------<br>--- ----- -- ----,48860.30000001192,48859.09999996424,48303.105,48308.59999996424,48319.775,48870.061,,4,having
screen,html.Screen,0_2_0_1_5,2021-12-10T12:44:35.823Z,,,,,,,,,,,,,,,,53,,,,,,,,,,,,,,437.0389999642357,,response,,,99,,,,,,Space,keypress(Space),,,,,---- -- ----- -- ------ a ------- --- ----------<br>------------- ------ ------ ---- ---- ------- ----- -- ----<br>-------- ------- -- ---------- --- - --- ----- ----- ----<br>---- --- --- ----- --- ---- ---- ------- ----- ---- -------<br>--- --- -- ----- -- --- ---- -- --- ---- -- ------ ------<br>--- ----- -- ----,49308,49307.09999996424,48853.389,48860.69999998808,48870.061,49320.043,,5,a
screen,html.Screen,0_2_0_1_6,2021-12-10T12:44:36.599Z,,,,,,,,,,,,,,,,53,,,,,,,,,,,,,,762.9570000000022,,response,,,99,,,,,,Space,keypress(Space),,,,,---- -- ----- -- ------ - lasting --- ----------<br>------------- ------ ------ ---- ---- ------- ----- -- ----<br>-------- ------- -- ---------- --- - --- ----- ----- ----<br>---- --- --- ----- --- ---- ---- ------- ----- ---- -------<br>--- --- -- ----- -- --- ---- -- --- ---- -- ------ ------<br>--- ----- -- ----,50084,50083,49303.373,49308.69999998808,49320.043,50086.877,,6,lasting
screen,html.Screen,0_2_0_1_7,2021-12-10T12:44:37.199Z,,,,,,,,,,,,,,,,53,,,,,,,,,,,,,,596.1229999999996,,response,,,99,,,,,,Space,keypress(Space),,,,,---- -- ----- -- ------ - ------- and ----------<br>------------- ------ ------ ---- ---- ------- ----- -- ----<br>-------- ------- -- ---------- --- - --- ----- ----- ----<br>---- --- --- ----- --- ---- ---- ------- ----- ---- -------<br>--- --- -- ----- -- --- ---- -- --- ---- -- ------ ------<br>--- ----- -- ----,50683.89999997616,50683,50070.207,50084.30000001192,50086.877,50687.018,,7,and
screen,html.Screen,0_2_0_1_8,2021-12-10T12:44:38.135Z,,,,,,,,,,,,,,,,53,,,,,,,,,,,,,,931.8819999761618,,response,,,99,,,,,,Space,keypress(Space),,,,,---- -- ----- -- ------ - ------- --- fulfilling<br>------------- ------ ------ ---- ---- ------- ----- -- ----<br>-------- ------- -- ---------- --- - --- ----- ----- ----<br>---- --- --- ----- --- ---- ---- ------- ----- ---- -------<br>--- --- -- ----- -- --- ---- -- --- ---- -- ------ ------<br>--- ----- -- ----,51620.19999998808,51618.89999997616,50670.348,50684.30000001192,50687.018,51637.257,,8,fulfilling
screen,html.Screen,0_2_0_1_9,2021-12-10T12:44:38.823Z,,,,,,,,,,,,,,,,53,,,,,,,,,,,,,,669.6429999761604,,response,,,99,,,,,,Space,keypress(Space),,,,,"---- -- ----- -- ------ - ------- --- ----------<br>relationship, ------ ------ ---- ---- ------- ----- -- ----<br>-------- ------- -- ---------- --- - --- ----- ----- ----<br>---- --- --- ----- --- ---- ---- ------- ----- ---- -------<br>--- --- -- ----- -- --- ---- -- --- ---- -- ------ ------<br>--- ----- -- ----",52307.80000001192,52306.89999997616,51620.587,51620.59999996424,51637.257,52320.744,,9,"relationship,"
screen,html.Screen,0_2_0_1_10,2021-12-10T12:44:39.479Z,,,,,,,,,,,,,,,,53,,,,,,,,,,,,,,642.0560000119222,,response,,,99,,,,,,Space,keypress(Space),,,,,---- -- ----- -- ------ - ------- --- ----------<br>------------- common ------ ---- ---- ------- ----- -- ----<br>-------- ------- -- ---------- --- - --- ----- ----- ----<br>---- --- --- ----- --- ---- ---- ------- ----- ---- -------<br>--- --- -- ----- -- --- ---- -- --- ---- -- ------ ------<br>--- ----- -- ----,52963.80000001192,52962.80000001192,52304.074,52308.19999998808,52320.744,52970.929,,10,common
screen,html.Screen,0_2_0_1_11,2021-12-10T12:44:40.151Z,,,,,,,,,,,,,,,,53,,,,,,,,,,,,,,663.7709999880826,,response,,,99,,,,,,Space,keypress(Space),,,,,---- -- ----- -- ------ - ------- --- ----------<br>------------- ------ wisdom ---- ---- ------- ----- -- ----<br>-------- ------- -- ---------- --- - --- ----- ----- ----<br>---- --- --- ----- --- ---- ---- ------- ----- ---- -------<br>--- --- -- ----- -- --- ---- -- --- ---- -- ------ ------<br>--- ----- -- ----,53635.69999998808,53634.69999998808,52954.259,52964,52970.929,53637.731,,11,wisdom
screen,html.Screen,0_2_0_1_12,2021-12-10T12:44:40.735Z,,,,,,,,,,,,,,,,53,,,,,,,,,,,,,,580.9689999880793,,response,,,99,,,,,,Space,keypress(Space),,,,,---- -- ----- -- ------ - ------- --- ----------<br>------------- ------ ------ says ---- ------- ----- -- ----<br>-------- ------- -- ---------- --- - --- ----- ----- ----<br>---- --- --- ----- --- ---- ---- ------- ----- ---- -------<br>--- --- -- ----- -- --- ---- -- --- ---- -- ------ ------<br>--- ----- -- ----,54219.59999996424,54218.69999998808,53621.061,53636,53637.731,54221.236,,12,says
screen,html.Screen,0_2_0_1_13,2021-12-10T12:44:41.223Z,,,,,,,,,,,,,,,,53,,,,,,,,,,,,,,485.36399996424007,,response,,,99,,,,,,Space,keypress(Space),,,,,---- -- ----- -- ------ - ------- --- ----------<br>------------- ------ ------ ---- that ------- ----- -- ----<br>-------- ------- -- ---------- --- - --- ----- ----- ----<br>---- --- --- ----- --- ---- ---- ------- ----- ---- -------<br>--- --- -- ----- -- --- ---- -- --- ---- -- ------ ------<br>--- ----- -- ----,54707.5,54706.59999996424,54204.566,54219.89999997616,54221.236,54721.358,,13,that
screen,html.Screen,0_2_0_1_14,2021-12-10T12:44:41.719Z,,,,,,,,,,,,,,,,53,,,,,,,,,,,,,,481.3419999880789,,response,,,99,,,,,,Space,keypress(Space),,,,,---- -- ----- -- ------ - ------- --- ----------<br>------------- ------ ------ ---- ---- feeling ----- -- ----<br>-------- ------- -- ---------- --- - --- ----- ----- ----<br>---- --- --- ----- --- ---- ---- ------- ----- ---- -------<br>--- --- -- ----- -- --- ---- -- --- ---- -- ------ ------<br>--- ----- -- ----,55203.39999997616,55202.69999998808,54704.688,54707.69999998808,54721.358,55204.825,,14,feeling
screen,html.Screen,0_2_0_1_15,2021-12-10T12:44:42.231Z,,,,,,,,,,,,,,,,53,,,,,,,,,,,,,,509.7749999642401,,response,,,99,,,,,,Space,keypress(Space),,,,,---- -- ----- -- ------ - ------- --- ----------<br>------------- ------ ------ ---- ---- ------- close -- ----<br>-------- ------- -- ---------- --- - --- ----- ----- ----<br>---- --- --- ----- --- ---- ---- ------- ----- ---- -------<br>--- --- -- ----- -- --- ---- -- --- ---- -- ------ ------<br>--- ----- -- ----,55715.5,55714.59999996424,55188.155,55203.80000001192,55204.825,55721.579,,15,close
screen,html.Screen,0_2_0_1_16,2021-12-10T12:44:42.639Z,,,,,,,,,,,,,,,,53,,,,,,,,,,,,,,401.0209999642393,,response,,,99,,,,,,Space,keypress(Space),,,,,---- -- ----- -- ------ - ------- --- ----------<br>------------- ------ ------ ---- ---- ------- ----- to ----<br>-------- ------- -- ---------- --- - --- ----- ----- ----<br>---- --- --- ----- --- ---- ---- ------- ----- ---- -------<br>--- --- -- ----- -- --- ---- -- --- ---- -- ------ ------<br>--- ----- -- ----,56123.5,56122.59999996424,55704.909,55715.69999998808,55721.579,56138.369,,16,to
screen,html.Screen,0_2_0_1_17,2021-12-10T12:44:43.207Z,,,,,,,,,,,,,,,,53,,,,,,,,,,,,,,552.5309999761594,,response,,,99,,,,,,Space,keypress(Space),,,,,---- -- ----- -- ------ - ------- --- ----------<br>------------- ------ ------ ---- ---- ------- ----- -- your<br>-------- ------- -- ---------- --- - --- ----- ----- ----<br>---- --- --- ----- --- ---- ---- ------- ----- ---- -------<br>--- --- -- ----- -- --- ---- -- --- ---- -- ------ ------<br>--- ----- -- ----,56691.89999997616,56690.89999997616,56121.699,56123.69999998808,56138.369,56705.167,,17,your
screen,html.Screen,0_2_0_1_18,2021-12-10T12:44:43.806Z,,,,,,,,,,,,,,,,53,,,,,,,,,,,,,,585.3329999999987,,response,,,99,,,,,,Space,keypress(Space),,,,,---- -- ----- -- ------ - ------- --- ----------<br>------------- ------ ------ ---- ---- ------- ----- -- ----<br>romantic ------- -- ---------- --- - --- ----- ----- ----<br>---- --- --- ----- --- ---- ---- ------- ----- ---- -------<br>--- --- -- ----- -- --- ---- -- --- ---- -- ------ ------<br>--- ----- -- ----,57291.30000001192,57290.5,56688.497,56692.09999996424,56705.167,57305.327,,18,romantic
screen,html.Screen,0_2_0_1_19,2021-12-10T12:44:44.462Z,,,,,,,,,,,,,,,,53,,,,,,,,,,,,,,640.9730000119234,,response,,,99,,,,,,Space,keypress(Space),,,,,---- -- ----- -- ------ - ------- --- ----------<br>------------- ------ ------ ---- ---- ------- ----- -- ----<br>-------- partner -- ---------- --- - --- ----- ----- ----<br>---- --- --- ----- --- ---- ---- ------- ----- ---- -------<br>--- --- -- ----- -- --- ---- -- --- ---- -- ------ ------<br>--- ----- -- ----,57947.19999998808,57946.30000001192,57288.657,57291.59999996424,57305.327,57955.472,,19,partner
screen,html.Screen,0_2_0_1_20,2021-12-10T12:44:44.998Z,,,,,,,,,,,,,,,,53,,,,,,,,,,,,,,526.8280000119194,,response,,,99,,,,,,Space,keypress(Space),,,,,---- -- ----- -- ------ - ------- --- ----------<br>------------- ------ ------ ---- ---- ------- ----- -- ----<br>-------- ------- is ---------- --- - --- ----- ----- ----<br>---- --- --- ----- --- ---- ---- ------- ----- ---- -------<br>--- --- -- ----- -- --- ---- -- --- ---- -- ------ ------<br>--- ----- -- ----,58483.19999998808,58482.30000001192,57938.802,57947.5,57955.472,58488.913,,20,is
screen,html.Screen,0_2_0_1_21,2021-12-10T12:44:45.630Z,,,,,,,,,,,,,,,,53,,,,,,,,,,,,,,625.3870000119205,,response,,,99,,,,,,Space,keypress(Space),,,,,---- -- ----- -- ------ - ------- --- ----------<br>------------- ------ ------ ---- ---- ------- ----- -- ----<br>-------- ------- -- paramount. --- - --- ----- ----- ----<br>---- --- --- ----- --- ---- ---- ------- ----- ---- -------<br>--- --- -- ----- -- --- ---- -- --- ---- -- ------ ------<br>--- ----- -- ----,59115.19999998808,59114.30000001192,58472.243,58483.39999997616,58488.913,59122.396,,21,paramount.
screen,html.Screen,0_2_0_1_22,2021-12-10T12:44:46.502Z,,,,,,,,,,,,,,,,53,,,,,,,,,,,,,,863.8039999880784,,response,,,99,,,,,,Space,keypress(Space),,,,,---- -- ----- -- ------ - ------- --- ----------<br>------------- ------ ------ ---- ---- ------- ----- -- ----<br>-------- ------- -- ---------- But - --- ----- ----- ----<br>---- --- --- ----- --- ---- ---- ------- ----- ---- -------<br>--- --- -- ----- -- --- ---- -- --- ---- -- ------ ------<br>--- ----- -- ----,59987,59986.19999998808,59105.726,59115.69999998808,59122.396,59989.285,,22,But
screen,html.Screen,0_2_0_1_23,2021-12-10T12:44:46.930Z,,,,,,,,,,,,,,,,53,,,,,,,,,,,,,,420.9149999880756,,response,,,99,,,,,,Space,keypress(Space),,,,,---- -- ----- -- ------ - ------- --- ----------<br>------------- ------ ------ ---- ---- ------- ----- -- ----<br>-------- ------- -- ---------- --- a --- ----- ----- ----<br>---- --- --- ----- --- ---- ---- ------- ----- ---- -------<br>--- --- -- ----- -- --- ---- -- --- ---- -- ------ ------<br>--- ----- -- ----,60411.09999996424,60410.19999998808,59972.615,59987.30000001192,59989.285,60422.615,,23,a
screen,html.Screen,0_2_0_1_24,2021-12-10T12:44:47.418Z,,,,,,,,,,,,,,,,53,,,,,,,,,,,,,,475.68500001192297,,response,,,99,,,,,,Space,keypress(Space),,,,,---- -- ----- -- ------ - ------- --- ----------<br>------------- ------ ------ ---- ---- ------- ----- -- ----<br>-------- ------- -- ---------- --- - new ----- ----- ----<br>---- --- --- ----- --- ---- ---- ------- ----- ---- -------<br>--- --- -- ----- -- --- ---- -- --- ---- -- ------ ------<br>--- ----- -- ----,60899.09999996424,60898.30000001192,60405.946,60411.30000001192,60422.615,60906.152,,24,new
screen,html.Screen,0_2_0_1_25,2021-12-10T12:44:47.898Z,,,,,,,,,,,,,,,,53,,,,,,,,,,,,,,472.14800001191907,,response,,,99,,,,,,Space,keypress(Space),,,,,---- -- ----- -- ------ - ------- --- ----------<br>------------- ------ ------ ---- ---- ------- ----- -- ----<br>-------- ------- -- ---------- --- - --- study ----- ----<br>---- --- --- ----- --- ---- ---- ------- ----- ---- -------<br>--- --- -- ----- -- --- ---- -- --- ---- -- ------ ------<br>--- ----- -- ----,61379,61378.30000001192,60889.482,60899.39999997616,60906.152,61389.77,,25,study
screen,html.Screen,0_2_0_1_26,2021-12-10T12:44:48.370Z,,,,,,,,,,,,,,,,53,,,,,,,,,,,,,,460.4299999880823,,response,,,99,,,,,,Space,keypress(Space),,,,,---- -- ----- -- ------ - ------- --- ----------<br>------------- ------ ------ ---- ---- ------- ----- -- ----<br>-------- ------- -- ---------- --- - --- ----- finds ----<br>---- --- --- ----- --- ---- ---- ------- ----- ---- -------<br>--- --- -- ----- -- --- ---- -- --- ---- -- ------ ------<br>--- ----- -- ----,61851.09999996424,61850.19999998808,61373.098,61379.39999997616,61389.77,61856.435,,26,finds
screen,html.Screen,0_2_0_1_27,2021-12-10T12:44:48.906Z,,,,,,,,,,,,,,,,53,,,,,,,,,,,,,,529.6649999642395,,response,,,99,,,,,,Space,keypress(Space),,,,,---- -- ----- -- ------ - ------- --- ----------<br>------------- ------ ------ ---- ---- ------- ----- -- ----<br>-------- ------- -- ---------- --- - --- ----- ----- that<br>---- --- --- ----- --- ---- ---- ------- ----- ---- -------<br>--- --- -- ----- -- --- ---- -- --- ---- -- ------ ------<br>--- ----- -- ----,62387,62386.09999996424,61839.765,61851.30000001192,61856.435,62389.896,,27,that
screen,html.Screen,0_2_0_1_28,2021-12-10T12:44:49.538Z,,,,,,,,,,,,,,,,53,,,,,,,,,,,,,,628.2039999642366,,response,,,99,,,,,,Space,keypress(Space),,,,,---- -- ----- -- ------ - ------- --- ----------<br>------------- ------ ------ ---- ---- ------- ----- -- ----<br>-------- ------- -- ---------- --- - --- ----- ----- ----<br>it's --- --- ----- --- ---- ---- ------- ----- ---- -------<br>--- --- -- ----- -- --- ---- -- --- ---- -- ------ ------<br>--- ----- -- ----,63019,63018.09999996424,62373.226,62387.19999998808,62389.896,63023.291,,28,it's
screen,html.Screen,0_2_0_1_29,2021-12-10T12:44:50.170Z,,,,,,,,,,,,,,,,53,,,,,,,,,,,,,,626.8089999642398,,response,,,99,,,,,,Space,keypress(Space),,,,,---- -- ----- -- ------ - ------- --- ----------<br>------------- ------ ------ ---- ---- ------- ----- -- ----<br>-------- ------- -- ---------- --- - --- ----- ----- ----<br>---- not --- ----- --- ---- ---- ------- ----- ---- -------<br>--- --- -- ----- -- --- ---- -- --- ---- -- ------ ------<br>--- ----- -- ----,63650.89999997616,63650.09999996424,63006.622,63019.19999998808,63023.291,63656.924,,29,not
screen,html.Screen,0_2_0_1_30,2021-12-10T12:44:50.682Z,,,,,,,,,,,,,,,,53,,,,,,,,,,,,,,505.07600000000093,,response,,,99,,,,,,Space,keypress(Space),,,,,---- -- ----- -- ------ - ------- --- ----------<br>------------- ------ ------ ---- ---- ------- ----- -- ----<br>-------- ------- -- ---------- --- - --- ----- ----- ----<br>---- --- how ----- --- ---- ---- ------- ----- ---- -------<br>--- --- -- ----- -- --- ---- -- --- ---- -- ------ ------<br>--- ----- -- ----,64162.89999997616,64162,63640.253,63651.19999998808,63656.924,64173.639,,30,how
screen,html.Screen,0_2_0_1_31,2021-12-10T12:44:51.330Z,,,,,,,,,,,,,,,,53,,,,,,,,,,,,,,636.3609999999971,,response,,,99,,,,,,Space,keypress(Space),,,,,---- -- ----- -- ------ - ------- --- ----------<br>------------- ------ ------ ---- ---- ------- ----- -- ----<br>-------- ------- -- ---------- --- - --- ----- ----- ----<br>---- --- --- close --- ---- ---- ------- ----- ---- -------<br>--- --- -- ----- -- --- ---- -- --- ---- -- ------ ------<br>--- ----- -- ----,64811,64810,64156.969,64163.09999996424,64173.639,64823.815,,31,close
screen,html.Screen,0_2_0_1_32,2021-12-10T12:44:51.802Z,,,,,,,,,,,,,,,,53,,,,,,,,,,,,,,458.1849999999977,,response,,,99,,,,,,Space,keypress(Space),,,,,---- -- ----- -- ------ - ------- --- ----------<br>------------- ------ ------ ---- ---- ------- ----- -- ----<br>-------- ------- -- ---------- --- - --- ----- ----- ----<br>---- --- --- ----- you ---- ---- ------- ----- ---- -------<br>--- --- -- ----- -- --- ---- -- --- ---- -- ------ ------<br>--- ----- -- ----,65282.69999998808,65282,64807.145,64811.19999998808,64823.815,65290.421,,32,you
screen,html.Screen,0_2_0_1_33,2021-12-10T12:44:52.498Z,,,,,,,,,,,,,,,,53,,,,,,,,,,,,,,687.478999976156,,response,,,99,,,,,,Space,keypress(Space),,,,,---- -- ----- -- ------ - ------- --- ----------<br>------------- ------ ------ ---- ---- ------- ----- -- ----<br>-------- ------- -- ---------- --- - --- ----- ----- ----<br>---- --- --- ----- --- feel ---- ------- ----- ---- -------<br>--- --- -- ----- -- --- ---- -- --- ---- -- ------ ------<br>--- ----- -- ----,65978.69999998808,65977.89999997616,65273.753,65283,65290.421,65990.887,,33,feel
screen,html.Screen,0_2_0_1_34,2021-12-10T12:44:53.050Z,,,,,,,,,,,,,,,,53,,,,,,,,,,,,,,539.0129999761557,,response,,,99,,,,,,Space,keypress(Space),,,,,---- -- ----- -- ------ - ------- --- ----------<br>------------- ------ ------ ---- ---- ------- ----- -- ----<br>-------- ------- -- ---------- --- - --- ----- ----- ----<br>---- --- --- ----- --- ---- that ------- ----- ---- -------<br>--- --- -- ----- -- --- ---- -- --- ---- -- ------ ------<br>--- ----- -- ----,66530.80000001192,66529.89999997616,65974.215,65979,65990.887,66540.881,,34,that
screen,html.Screen,0_2_0_1_35,2021-12-10T12:44:53.738Z,,,,,,,,,,,,,,,,53,,,,,,,,,,,,,,677.419000011927,,response,,,99,,,,,,Space,keypress(Space),,,,,---- -- ----- -- ------ - ------- --- ----------<br>------------- ------ ------ ---- ---- ------- ----- -- ----<br>-------- ------- -- ---------- --- - --- ----- ----- ----<br>---- --- --- ----- --- ---- ---- matters ----- ---- -------<br>--- --- -- ----- -- --- ---- -- --- ---- -- ------ ------<br>--- ----- -- ----,67219.09999996424,67218.30000001192,66524.211,66531.09999996424,66540.881,67224.41,,35,matters
screen,html.Screen,0_2_0_1_36,2021-12-10T12:44:54.306Z,,,,,,,,,,,,,,,,53,,,,,,,,,,,,,,561.3900000119174,,response,,,99,,,,,,Space,keypress(Space),,,,,"---- -- ----- -- ------ - ------- --- ----------<br>------------- ------ ------ ---- ---- ------- ----- -- ----<br>-------- ------- -- ---------- --- - --- ----- ----- ----<br>---- --- --- ----- --- ---- ---- ------- most, ---- -------<br>--- --- -- ----- -- --- ---- -- --- ---- -- ------ ------<br>--- ----- -- ----",67786.89999997616,67785.80000001192,67207.74,67219.39999997616,67224.41,67791.014,,36,"most,"
screen,html.Screen,0_2_0_1_37,2021-12-10T12:44:54.978Z,,,,,,,,,,,,,,,,53,,,,,,,,,,,,,,666.7860000119254,,response,,,99,,,,,,Space,keypress(Space),,,,,---- -- ----- -- ------ - ------- --- ----------<br>------------- ------ ------ ---- ---- ------- ----- -- ----<br>-------- ------- -- ---------- --- - --- ----- ----- ----<br>---- --- --- ----- --- ---- ---- ------- ----- it's -------<br>--- --- -- ----- -- --- ---- -- --- ---- -- ------ ------<br>--- ----- -- ----,68458.5,68457.80000001192,67774.346,67787.09999996424,67791.014,68474.76,,37,it's
screen,html.Screen,0_2_0_1_38,2021-12-10T12:44:55.642Z,,,,,,,,,,,,,,,,53,,,,,,,,,,,,,,646.9399999880843,,response,,,99,,,,,,Space,keypress(Space),,,,,---- -- ----- -- ------ - ------- --- ----------<br>------------- ------ ------ ---- ---- ------- ----- -- ----<br>-------- ------- -- ---------- --- - --- ----- ----- ----<br>---- --- --- ----- --- ---- ---- ------- ----- ---- whether<br>--- --- -- ----- -- --- ---- -- --- ---- -- ------ ------<br>--- ----- -- ----,69122.5,69121.69999998808,68458.089,68458.80000001192,68474.76,69124.731,,38,whether
screen,html.Screen,0_2_0_1_39,2021-12-10T12:44:56.178Z,,,,,,,,,,,,,,,,53,,,,,,,,,,,,,,532.8689999642374,,response,,,99,,,,,,Space,keypress(Space),,,,,---- -- ----- -- ------ - ------- --- ----------<br>------------- ------ ------ ---- ---- ------- ----- -- ----<br>-------- ------- -- ---------- --- - --- ----- ----- ----<br>---- --- --- ----- --- ---- ---- ------- ----- ---- -------<br>you --- -- ----- -- --- ---- -- --- ---- -- ------ ------<br>--- ----- -- ----,69658.5,69657.59999996424,69108.062,69122.69999998808,69124.731,69675.067,,39,you
screen,html.Screen,0_2_0_1_40,2021-12-10T12:44:56.698Z,,,,,,,,,,,,,,,,53,,,,,,,,,,,,,,502.53299996424175,,response,,,99,,,,,,Space,keypress(Space),,,,,---- -- ----- -- ------ - ------- --- ----------<br>------------- ------ ------ ---- ---- ------- ----- -- ----<br>-------- ------- -- ---------- --- - --- ----- ----- ----<br>---- --- --- ----- --- ---- ---- ------- ----- ---- -------<br>--- are -- ----- -- --- ---- -- --- ---- -- ------ ------<br>--- ----- -- ----,70178.39999997616,70177.59999996424,69658.396,69658.69999998808,69675.067,70191.789,,40,are
screen,html.Screen,0_2_0_1_41,2021-12-10T12:44:57.242Z,,,,,,,,,,,,,,,,53,,,,,,,,,,,,,,529.7109999999957,,response,,,99,,,,,,Space,keypress(Space),,,,,---- -- ----- -- ------ - ------- --- ----------<br>------------- ------ ------ ---- ---- ------- ----- -- ----<br>-------- ------- -- ---------- --- - --- ----- ----- ----<br>---- --- --- ----- --- ---- ---- ------- ----- ---- -------<br>--- --- as ----- -- --- ---- -- --- ---- -- ------ ------<br>--- ----- -- ----,70722.39999997616,70721.5,70175.119,70178.69999998808,70191.789,70725.232,,41,as
screen,html.Screen,0_2_0_1_42,2021-12-10T12:44:57.778Z,,,,,,,,,,,,,,,,53,,,,,,,,,,,,,,532.3679999642336,,response,,,99,,,,,,Space,keypress(Space),,,,,---- -- ----- -- ------ - ------- --- ----------<br>------------- ------ ------ ---- ---- ------- ----- -- ----<br>-------- ------- -- ---------- --- - --- ----- ----- ----<br>---- --- --- ----- --- ---- ---- ------- ----- ---- -------<br>--- --- -- close -- --- ---- -- --- ---- -- ------ ------<br>--- ----- -- ----,71258.39999997616,71257.59999996424,70708.562,70722.69999998808,70725.232,71275.337,,42,close
screen,html.Screen,0_2_0_1_43,2021-12-10T12:44:58.362Z,,,,,,,,,,,,,,,,53,,,,,,,,,,,,,,566.1630000000005,,response,,,99,,,,,,Space,keypress(Space),,,,,---- -- ----- -- ------ - ------- --- ----------<br>------------- ------ ------ ---- ---- ------- ----- -- ----<br>-------- ------- -- ---------- --- - --- ----- ----- ----<br>---- --- --- ----- --- ---- ---- ------- ----- ---- -------<br>--- --- -- ----- as --- ---- -- --- ---- -- ------ ------<br>--- ----- -- ----,71842.30000001192,71841.5,71258.667,71258.59999996424,71275.337,71858.823,,43,as
screen,html.Screen,0_2_0_1_44,2021-12-10T12:44:58.897Z,,,,,,,,,,,,,,,,53,,,,,,,,,,,,,,518.5769999761542,,response,,,99,,,,,,Space,keypress(Space),,,,,---- -- ----- -- ------ - ------- --- ----------<br>------------- ------ ------ ---- ---- ------- ----- -- ----<br>-------- ------- -- ---------- --- - --- ----- ----- ----<br>---- --- --- ----- --- ---- ---- ------- ----- ---- -------<br>--- --- -- ----- -- you ---- -- --- ---- -- ------ ------<br>--- ----- -- ----,72378.19999998808,72377.39999997616,71842.153,71842.59999996424,71858.823,72392.312,,44,you
screen,html.Screen,0_2_0_1_45,2021-12-10T12:44:59.377Z,,,,,,,,,,,,,,,,53,,,,,,,,,,,,,,465.0879999761528,,response,,,99,,,,,,Space,keypress(Space),,,,,---- -- ----- -- ------ - ------- --- ----------<br>------------- ------ ------ ---- ---- ------- ----- -- ----<br>-------- ------- -- ---------- --- - --- ----- ----- ----<br>---- --- --- ----- --- ---- ---- ------- ----- ---- -------<br>--- --- -- ----- -- --- want -- --- ---- -- ------ ------<br>--- ----- -- ----,72858.09999996424,72857.39999997616,72375.642,72378.5,72392.312,72859.078,,45,want
screen,html.Screen,0_2_0_1_46,2021-12-10T12:44:59.897Z,,,,,,,,,,,,,,,,53,,,,,,,,,,,,,,518.2220000119269,,response,,,99,,,,,,Space,keypress(Space),,,,,---- -- ----- -- ------ - ------- --- ----------<br>------------- ------ ------ ---- ---- ------- ----- -- ----<br>-------- ------- -- ---------- --- - --- ----- ----- ----<br>---- --- --- ----- --- ---- ---- ------- ----- ---- -------<br>--- --- -- ----- -- --- ---- to --- ---- -- ------ ------<br>--- ----- -- ----,73378.09999996424,73377.30000001192,72842.408,72858.39999997616,72859.078,73392.564,,46,to
screen,html.Screen,0_2_0_1_47,2021-12-10T12:45:00.657Z,,,,,,,,,,,,,,,,53,,,,,,,,,,,,,,744.6359999880806,,response,,,99,,,,,,Space,keypress(Space),,,,,"---- -- ----- -- ------ - ------- --- ----------<br>------------- ------ ------ ---- ---- ------- ----- -- ----<br>-------- ------- -- ---------- --- - --- ----- ----- ----<br>---- --- --- ----- --- ---- ---- ------- ----- ---- -------<br>--- --- -- ----- -- --- ---- -- be, ---- -- ------ ------<br>--- ----- -- ----",74138,74137.19999998808,73375.894,73378.30000001192,73392.564,74142.597,,47,"be,"
screen,html.Screen,0_2_0_1_48,2021-12-10T12:45:01.273Z,,,,,,,,,,,,,,,,53,,,,,,,,,,,,,,610.7030000119266,,response,,,99,,,,,,Space,keypress(Space),,,,,---- -- ----- -- ------ - ------- --- ----------<br>------------- ------ ------ ---- ---- ------- ----- -- ----<br>-------- ------- -- ---------- --- - --- ----- ----- ----<br>---- --- --- ----- --- ---- ---- ------- ----- ---- -------<br>--- --- -- ----- -- --- ---- -- --- even -- ------ ------<br>--- ----- -- ----,74754.09999996424,74753.30000001192,74125.928,74138.30000001192,74142.597,74759.679,,48,even
screen,html.Screen,0_2_0_1_49,2021-12-10T12:45:01.841Z,,,,,,,,,,,,,,,,53,,,,,,,,,,,,,,561.5209999880753,,response,,,99,,,,,,Space,keypress(Space),,,,,---- -- ----- -- ------ - ------- --- ----------<br>------------- ------ ------ ---- ---- ------- ----- -- ----<br>-------- ------- -- ---------- --- - --- ----- ----- ----<br>---- --- --- ----- --- ---- ---- ------- ----- ---- -------<br>--- --- -- ----- -- --- ---- -- --- ---- if ------ ------<br>--- ----- -- ----,75322.09999996424,75321.19999998808,74743.007,74754.30000001192,74759.679,75326.347,,49,if
screen,html.Screen,0_2_0_1_50,2021-12-10T12:45:02.305Z,,,,,,,,,,,,,,,,53,,,,,,,,,,,,,,458.8529999880848,,response,,,99,,,,,,Space,keypress(Space),,,,,---- -- ----- -- ------ - ------- --- ----------<br>------------- ------ ------ ---- ---- ------- ----- -- ----<br>-------- ------- -- ---------- --- - --- ----- ----- ----<br>---- --- --- ----- --- ---- ---- ------- ----- ---- -------<br>--- --- -- ----- -- --- ---- -- --- ---- -- that's ------<br>--- ----- -- ----,75786,75785.19999998808,75309.677,75322.30000001192,75326.347,75793.146,,50,that's
screen,html.Screen,0_2_0_1_51,2021-12-10T12:45:02.817Z,,,,,,,,,,,,,,,,53,,,,,,,,,,,,,,503.85400000000664,,response,,,99,,,,,,Space,keypress(Space),,,,,---- -- ----- -- ------ - ------- --- ----------<br>------------- ------ ------ ---- ---- ------- ----- -- ----<br>-------- ------- -- ---------- --- - --- ----- ----- ----<br>---- --- --- ----- --- ---- ---- ------- ----- ---- -------<br>--- --- -- ----- -- --- ---- -- --- ---- -- ------ really<br>--- ----- -- ----,76297.89999997616,76297,75776.476,75786.30000001192,75793.146,76309.939,,51,really
screen,html.Screen,0_2_0_1_52,2021-12-10T12:45:03.337Z,,,,,,,,,,,,,,,,53,,,,,,,,,,,,,,507.0610000000015,,response,,,99,,,,,,Space,keypress(Space),,,,,---- -- ----- -- ------ - ------- --- ----------<br>------------- ------ ------ ---- ---- ------- ----- -- ----<br>-------- ------- -- ---------- --- - --- ----- ----- ----<br>---- --- --- ----- --- ---- ---- ------- ----- ---- -------<br>--- --- -- ----- -- --- ---- -- --- ---- -- ------ ------<br>not ----- -- ----,76817.89999997616,76817,76293.269,76298.09999996424,76309.939,76826.57,,52,not
screen,html.Screen,0_2_0_1_53,2021-12-10T12:45:03.874Z,,,,,,,,,,,,,,,,53,,,,,,,,,,,,,,526.929999999993,,response,,,99,,,,,,Space,keypress(Space),,,,,---- -- ----- -- ------ - ------- --- ----------<br>------------- ------ ------ ---- ---- ------- ----- -- ----<br>-------- ------- -- ---------- --- - --- ----- ----- ----<br>---- --- --- ----- --- ---- ---- ------- ----- ---- -------<br>--- --- -- ----- -- --- ---- -- --- ---- -- ------ ------<br>--- close -- ----,77354.39999997616,77353.5,76809.902,76818.09999996424,76826.57,77360.127,,53,close
screen,html.Screen,0_2_0_1_54,2021-12-10T12:45:04.329Z,,,,,,,,,,,,,,,,53,,,,,,,,,,,,,,448.9729999642441,,response,,,99,,,,,,Space,keypress(Space),,,,,---- -- ----- -- ------ - ------- --- ----------<br>------------- ------ ------ ---- ---- ------- ----- -- ----<br>-------- ------- -- ---------- --- - --- ----- ----- ----<br>---- --- --- ----- --- ---- ---- ------- ----- ---- -------<br>--- --- -- ----- -- --- ---- -- --- ---- -- ------ ------<br>--- ----- at ----,77809.89999997616,77809.09999996424,77343.457,77354.59999996424,77360.127,77827.075,,54,at
screen,html.Screen,0_2_0_1_55,2021-12-10T12:45:05.057Z,,,,,,,,,,,,,,,,53,,,,,,,,,,,,,,709.824999976161,,response,,,99,,,,,,Space,keypress(Space),,,,,---- -- ----- -- ------ - ------- --- ----------<br>------------- ------ ------ ---- ---- ------- ----- -- ----<br>-------- ------- -- ---------- --- - --- ----- ----- ----<br>---- --- --- ----- --- ---- ---- ------- ----- ---- -------<br>--- --- -- ----- -- --- ---- -- --- ---- -- ------ ------<br>--- ----- -- all.,78537.80000001192,78536.89999997616,77810.403,77810.09999996424,77827.075,78543.808,,55,all.
Item 99,flow.Loop,0_2_0_1,2021-12-10T12:45:05.062Z,,,,,,,,,,,,,,,,,,,,,,,,,,,,,,33151.37699997616,,completion,,,,C,,,,,,,,,,silence,,78542.30000001192,78536.89999997616,45368.854,45375.89999997616,45385.523,78543.808,,,
Question 1,html.Screen,0_2_0_2,2021-12-10T12:45:08.812Z,,,,,,,,,,,,,,,,,,,,,,,,,,,true,FALSE,,3747.1919999999955,,response,,,99,C,,,,,FALSE,click #choice-2,,,,silence,,82292.39999997616,82291,78527.138,78542.59999996424,78543.808,82294.714,,,
Question 2,html.Screen,0_2_0_3,2021-12-10T12:45:12.984Z,,,,,,,,,,,,,,,,,,,,,,,,,,,true,TRUE,,4168.785999999993,,response,,,99,C,,,,,TRUE,click #choice-1,,,,silence,,86464.69999998808,86463.5,82278.044,82292.80000001192,82294.714,86478.995,,,
Item 99,flow.Sequence,0_2_0,2021-12-10T12:45:12.984Z,,,,,,,,,,,,,,,,,,,,,,,,,,,,,,51079.993,,completion,,,,,,,,,,,,,,,,86465.09999996424,86463.5,35366.835,35378.30000001192,35383.507,86478.995,,,
Holding screen,html.Screen,0_2_1_0,2021-12-10T12:45:22.985Z,,,,,,,,,,,,,,,,,,,,,,,,,,,,,,10002.392000000007,,timeout,,,,,,,,,,,,,,,,96466.09999996424,96464.717,86462.326,86465.39999997616,86478.995,96481.387,,,
screen,html.Screen,0_2_1_1_0,2021-12-10T12:45:24.784Z,,,,,,,,,,,,,,,,54,,,,,,,,,,,,,,1782.8129999880766,,response,,,100,,,,,,Space,keypress(Space),,,,,At --- ---- --- ------ ----- ------- ---- -- --- ------- --<br>------- ---------- ------ -- ----- -- ----- -- ---- ------<br>--- ----- --- --- ------ -------- ----- --- ------ ----- --<br>----- ----- ---------- --- --- ------ ------ ---- -- ------<br>------- --- ------ ----- --- ---- ------- -- ---- --- --<br>------- ------,98265.19999998808,98264.19999998808,96464.717,96466.5,96481.387,98265.377,,0,At
screen,html.Screen,0_2_1_1_1,2021-12-10T12:45:25.280Z,,,,,,,,,,,,,,,,54,,,,,,,,,,,,,,494.2229999642441,,response,,,100,,,,,,Space,keypress(Space),,,,,-- the ---- --- ------ ----- ------- ---- -- --- ------- --<br>------- ---------- ------ -- ----- -- ----- -- ---- ------<br>--- ----- --- --- ------ -------- ----- --- ------ ----- --<br>----- ----- ---------- --- --- ------ ------ ---- -- ------<br>------- --- ------ ----- --- ---- ------- -- ---- --- --<br>------- ------,98760.39999997616,98759.59999996424,98248.706,98265.39999997616,98265.377,98765.344,,1,the
screen,html.Screen,0_2_1_1_2,2021-12-10T12:45:25.840Z,,,,,,,,,,,,,,,,54,,,,,,,,,,,,,,554.2559999642399,,response,,,100,,,,,,Space,keypress(Space),,,,,-- --- time --- ------ ----- ------- ---- -- --- ------- --<br>------- ---------- ------ -- ----- -- ----- -- ---- ------<br>--- ----- --- --- ------ -------- ----- --- ------ ----- --<br>----- ----- ---------- --- --- ------ ------ ---- -- ------<br>------- --- ------ ----- --- ---- ------- -- ---- --- --<br>------- ------,99320.39999997616,99319.59999996424,98748.674,98760.69999998808,98765.344,99332.19,,2,time
screen,html.Screen,0_2_1_1_3,2021-12-10T12:45:26.376Z,,,,,,,,,,,,,,,,54,,,,,,,,,,,,,,523.3099999999977,,response,,,100,,,,,,Space,keypress(Space),,,,,-- --- ---- the ------ ----- ------- ---- -- --- ------- --<br>------- ---------- ------ -- ----- -- ----- -- ---- ------<br>--- ----- --- --- ------ -------- ----- --- ------ ----- --<br>----- ----- ---------- --- --- ------ ------ ---- -- ------<br>------- --- ------ ----- --- ---- ------- -- ---- --- --<br>------- ------,99856.39999997616,99855.5,99315.52,99320.69999998808,99332.19,99865.635,,3,the
screen,html.Screen,0_2_1_1_4,2021-12-10T12:45:26.849Z,,,,,,,,,,,,,,,,54,,,,,,,,,,,,,,461.86500000000524,,response,,,100,,,,,,Space,keypress(Space),,,,,-- --- ---- --- French ----- ------- ---- -- --- ------- --<br>------- ---------- ------ -- ----- -- ----- -- ---- ------<br>--- ----- --- --- ------ -------- ----- --- ------ ----- --<br>----- ----- ---------- --- --- ------ ------ ---- -- ------<br>------- --- ------ ----- --- ---- ------- -- ---- --- --<br>------- ------,100329.59999996424,100327.5,99848.965,99856.59999996424,99865.635,100332.423,,4,French
screen,html.Screen,0_2_1_1_5,2021-12-10T12:45:27.543Z,,,,,,,,,,,,,,,,54,,,,,,,,,,,,,,690.9769999761629,,response,,,100,,,,,,Space,keypress(Space),,,,,-- --- ---- --- ------ crown ------- ---- -- --- ------- --<br>------- ---------- ------ -- ----- -- ----- -- ---- ------<br>--- ----- --- --- ------ -------- ----- --- ------ ----- --<br>----- ----- ---------- --- --- ------ ------ ---- -- ------<br>------- --- ------ ----- --- ---- ------- -- ---- --- --<br>------- ------,101024.19999998808,101023.39999997616,100315.753,100330.09999996424,100332.423,101032.603,,5,crown
screen,html.Screen,0_2_1_1_6,2021-12-10T12:45:28.223Z,,,,,,,,,,,,,,,,54,,,,,,,,,,,,,,670.7969999761553,,response,,,100,,,,,,Space,keypress(Space),,,,,-- --- ---- --- ------ ----- secured ---- -- --- ------- --<br>------- ---------- ------ -- ----- -- ----- -- ---- ------<br>--- ----- --- --- ------ -------- ----- --- ------ ----- --<br>----- ----- ---------- --- --- ------ ------ ---- -- ------<br>------- --- ------ ----- --- ---- ------- -- ---- --- --<br>------- ------,101704.19999998808,101703.39999997616,101015.933,101024.5,101032.603,101716.076,,6,secured
screen,html.Screen,0_2_1_1_7,2021-12-10T12:45:28.855Z,,,,,,,,,,,,,,,,54,,,,,,,,,,,,,,619.3239999761572,,response,,,100,,,,,,Space,keypress(Space),,,,,-- --- ---- --- ------ ----- ------- much -- --- ------- --<br>------- ---------- ------ -- ----- -- ----- -- ---- ------<br>--- ----- --- --- ------ -------- ----- --- ------ ----- --<br>----- ----- ---------- --- --- ------ ------ ---- -- ------<br>------- --- ------ ----- --- ---- ------- -- ---- --- --<br>------- ------,102336.30000001192,102335.39999997616,101699.406,101704.5,101716.076,102349.593,,7,much
screen,html.Screen,0_2_1_1_8,2021-12-10T12:45:29.431Z,,,,,,,,,,,,,,,,54,,,,,,,,,,,,,,561.8069999761647,,response,,,100,,,,,,Space,keypress(Space),,,,,-- --- ---- --- ------ ----- ------- ---- of --- ------- --<br>------- ---------- ------ -- ----- -- ----- -- ---- ------<br>--- ----- --- --- ------ -------- ----- --- ------ ----- --<br>----- ----- ---------- --- --- ------ ------ ---- -- ------<br>------- --- ------ ----- --- ---- ------- -- ---- --- --<br>------- ------,102912.19999998808,102911.39999997616,102332.923,102336.5,102349.593,102916.385,,8,of
screen,html.Screen,0_2_1_1_9,2021-12-10T12:45:29.951Z,,,,,,,,,,,,,,,,54,,,,,,,,,,,,,,514.9150000119262,,response,,,100,,,,,,Space,keypress(Space),,,,,-- --- ---- --- ------ ----- ------- ---- -- its ------- --<br>------- ---------- ------ -- ----- -- ----- -- ---- ------<br>--- ----- --- --- ------ -------- ----- --- ------ ----- --<br>----- ----- ---------- --- --- ------ ------ ---- -- ------<br>------- --- ------ ----- --- ---- ------- -- ---- --- --<br>------- ------,103432.09999996424,103431.30000001192,102899.715,102912.39999997616,102916.385,103433.076,,9,its
screen,html.Screen,0_2_1_1_10,2021-12-10T12:45:31.263Z,,,,,,,,,,,,,,,,54,,,,,,,,,,,,,,1310.1239999880781,,response,,,100,,,,,,Space,keypress(Space),,,,,-- --- ---- --- ------ ----- ------- ---- -- --- revenue --<br>------- ---------- ------ -- ----- -- ----- -- ---- ------<br>--- ----- --- --- ------ -------- ----- --- ------ ----- --<br>----- ----- ---------- --- --- ------ ------ ---- -- ------<br>------- --- ------ ----- --- ---- ------- -- ---- --- --<br>------- ------,104744.09999996424,104743.19999998808,103416.407,103432.39999997616,103433.076,104750.254,,10,revenue
screen,html.Screen,0_2_1_1_11,2021-12-10T12:45:31.919Z,,,,,,,,,,,,,,,,54,,,,,,,,,,,,,,648.9459999880783,,response,,,100,,,,,,Space,keypress(Space),,,,,-- --- ---- --- ------ ----- ------- ---- -- --- ------- by<br>------- ---------- ------ -- ----- -- ----- -- ---- ------<br>--- ----- --- --- ------ -------- ----- --- ------ ----- --<br>----- ----- ---------- --- --- ------ ------ ---- -- ------<br>------- --- ------ ----- --- ---- ------- -- ---- --- --<br>------- ------,105400,105399.19999998808,104733.583,104744.30000001192,104750.254,105416.966,,11,by
screen,html.Screen,0_2_1_1_12,2021-12-10T12:45:32.790Z,,,,,,,,,,,,,,,,54,,,,,,,,,,,,,,853.7339999880787,,response,,,100,,,,,,Space,keypress(Space),,,,,-- --- ---- --- ------ ----- ------- ---- -- --- ------- --<br>issuing ---------- ------ -- ----- -- ----- -- ---- ------<br>--- ----- --- --- ------ -------- ----- --- ------ ----- --<br>----- ----- ---------- --- --- ------ ------ ---- -- ------<br>------- --- ------ ----- --- ---- ------- -- ---- --- --<br>------- ------,106271.09999996424,106270.69999998808,105400.296,105400.19999998808,105416.966,106283.865,,12,issuing
screen,html.Screen,0_2_1_1_13,2021-12-10T12:45:33.439Z,,,,,,,,,,,,,,,,54,,,,,,,,,,,,,,635.234999964232,,response,,,100,,,,,,Space,keypress(Space),,,,,-- --- ---- --- ------ ----- ------- ---- -- --- ------- --<br>------- government ------ -- ----- -- ----- -- ---- ------<br>--- ----- --- --- ------ -------- ----- --- ------ ----- --<br>----- ----- ---------- --- --- ------ ------ ---- -- ------<br>------- --- ------ ----- --- ---- ------- -- ---- --- --<br>------- ------,106919.80000001192,106919.09999996424,106267.195,106271.19999998808,106283.865,106934.022,,13,government
screen,html.Screen,0_2_1_1_14,2021-12-10T12:45:34.127Z,,,,,,,,,,,,,,,,54,,,,,,,,,,,,,,672.8779999761609,,response,,,100,,,,,,Space,keypress(Space),,,,,-- --- ---- --- ------ ----- ------- ---- -- --- ------- --<br>------- ---------- bonds. -- ----- -- ----- -- ---- ------<br>--- ----- --- --- ------ -------- ----- --- ------ ----- --<br>----- ----- ---------- --- --- ------ ------ ---- -- ------<br>------- --- ------ ----- --- ---- ------- -- ---- --- --<br>------- ------,107607.69999998808,107606.89999997616,106917.352,106920.09999996424,106934.022,107617.395,,14,bonds.
screen,html.Screen,0_2_1_1_15,2021-12-10T12:45:35.175Z,,,,,,,,,,,,,,,,54,,,,,,,,,,,,,,1037.9050000119169,,response,,,100,,,,,,Space,keypress(Space),,,,,-- --- ---- --- ------ ----- ------- ---- -- --- ------- --<br>------- ---------- ------ In ----- -- ----- -- ---- ------<br>--- ----- --- --- ------ -------- ----- --- ------ ----- --<br>----- ----- ---------- --- --- ------ ------ ---- -- ------<br>------- --- ------ ----- --- ---- ------- -- ---- --- --<br>------- ------,108656.19999998808,108655.30000001192,107600.726,107607.89999997616,107617.395,108667.846,,15,In
screen,html.Screen,0_2_1_1_16,2021-12-10T12:45:36.375Z,,,,,,,,,,,,,,,,54,,,,,,,,,,,,,,1186.954000011916,,response,,,100,,,,,,Space,keypress(Space),,,,,"-- --- ---- --- ------ ----- ------- ---- -- --- ------- --<br>------- ---------- ------ -- 1727, -- ----- -- ---- ------<br>--- ----- --- --- ------ -------- ----- --- ------ ----- --<br>----- ----- ---------- --- --- ------ ------ ---- -- ------<br>------- --- ------ ----- --- ---- ------- -- ---- --- --<br>------- ------",109855.5,109854.80000001192,108651.175,108656.39999997616,108667.846,109868.052,,16,"1727,"
screen,html.Screen,0_2_1_1_17,2021-12-10T12:45:36.887Z,,,,,,,,,,,,,,,,54,,,,,,,,,,,,,,498.64799998808303,,response,,,100,,,,,,Space,keypress(Space),,,,,-- --- ---- --- ------ ----- ------- ---- -- --- ------- --<br>------- ---------- ------ -- ----- in ----- -- ---- ------<br>--- ----- --- --- ------ -------- ----- --- ------ ----- --<br>----- ----- ---------- --- --- ------ ------ ---- -- ------<br>------- --- ------ ----- --- ---- ------- -- ---- --- --<br>------- ------,110367.5,110366.69999998808,109851.382,109855.80000001192,109868.052,110384.862,,17,in
screen,html.Screen,0_2_1_1_18,2021-12-10T12:45:37.479Z,,,,,,,,,,,,,,,,54,,,,,,,,,,,,,,574.3379999880854,,response,,,100,,,,,,Space,keypress(Space),,,,,-- --- ---- --- ------ ----- ------- ---- -- --- ------- --<br>------- ---------- ------ -- ----- -- order -- ---- ------<br>--- ----- --- --- ------ -------- ----- --- ------ ----- --<br>----- ----- ---------- --- --- ------ ------ ---- -- ------<br>------- --- ------ ----- --- ---- ------- -- ---- --- --<br>------- ------,110960.09999996424,110959.19999998808,110368.192,110367.89999997616,110384.862,110968.23,,18,order
screen,html.Screen,0_2_1_1_19,2021-12-10T12:45:37.935Z,,,,,,,,,,,,,,,,54,,,,,,,,,,,,,,446.46999998808315,,response,,,100,,,,,,Space,keypress(Space),,,,,-- --- ---- --- ------ ----- ------- ---- -- --- ------- --<br>------- ---------- ------ -- ----- -- ----- to ---- ------<br>--- ----- --- --- ------ -------- ----- --- ------ ----- --<br>----- ----- ---------- --- --- ------ ------ ---- -- ------<br>------- --- ------ ----- --- ---- ------- -- ---- --- --<br>------- ------,111415.59999996424,111414.69999998808,110951.561,110960.30000001192,110968.23,111418.564,,19,to
screen,html.Screen,0_2_1_1_20,2021-12-10T12:45:38.455Z,,,,,,,,,,,,,,,,54,,,,,,,,,,,,,,516.2360000119224,,response,,,100,,,,,,Space,keypress(Space),,,,,-- --- ---- --- ------ ----- ------- ---- -- --- ------- --<br>------- ---------- ------ -- ----- -- ----- -- save ------<br>--- ----- --- --- ------ -------- ----- --- ------ ----- --<br>----- ----- ---------- --- --- ------ ------ ---- -- ------<br>------- --- ------ ----- --- ---- ------- -- ---- --- --<br>------- ------,111935.5,111934.80000001192,111401.892,111415.89999997616,111418.564,111951.925,,20,save
screen,html.Screen,0_2_1_1_21,2021-12-10T12:45:39.055Z,,,,,,,,,,,,,,,,54,,,,,,,,,,,,,,582.7749999880762,,response,,,100,,,,,,Space,keypress(Space),,,,,"-- --- ---- --- ------ ----- ------- ---- -- --- ------- --<br>------- ---------- ------ -- ----- -- ----- -- ---- money,<br>--- ----- --- --- ------ -------- ----- --- ------ ----- --<br>----- ----- ---------- --- --- ------ ------ ---- -- ------<br>------- --- ------ ----- --- ---- ------- -- ---- --- --<br>------- ------",112535.59999996424,112534.69999998808,111935.255,111935.80000001192,111951.925,112552.084,,21,"money,"
screen,html.Screen,0_2_1_1_22,2021-12-10T12:45:39.663Z,,,,,,,,,,,,,,,,54,,,,,,,,,,,,,,591.0159999642347,,response,,,100,,,,,,Space,keypress(Space),,,,,-- --- ---- --- ------ ----- ------- ---- -- --- ------- --<br>------- ---------- ------ -- ----- -- ----- -- ---- ------<br>the ----- --- --- ------ -------- ----- --- ------ ----- --<br>----- ----- ---------- --- --- ------ ------ ---- -- ------<br>------- --- ------ ----- --- ---- ------- -- ---- --- --<br>------- ------,113143.89999997616,113143.09999996424,112535.414,112535.80000001192,112552.084,113152.198,,22,the
screen,html.Screen,0_2_1_1_23,2021-12-10T12:45:40.135Z,,,,,,,,,,,,,,,,54,,,,,,,,,,,,,,462.40199996423326,,response,,,100,,,,,,Space,keypress(Space),,,,,-- --- ---- --- ------ ----- ------- ---- -- --- ------- --<br>------- ---------- ------ -- ----- -- ----- -- ---- ------<br>--- state --- --- ------ -------- ----- --- ------ ----- --<br>----- ----- ---------- --- --- ------ ------ ---- -- ------<br>------- --- ------ ----- --- ---- ------- -- ---- --- --<br>------- ------,113615.39999997616,113614.59999996424,113135.528,113144.19999998808,113152.198,113618.988,,23,state
screen,html.Screen,0_2_1_1_24,2021-12-10T12:45:40.647Z,,,,,,,,,,,,,,,,54,,,,,,,,,,,,,,507.51200000000244,,response,,,100,,,,,,Space,keypress(Space),,,,,-- --- ---- --- ------ ----- ------- ---- -- --- ------- --<br>------- ---------- ------ -- ----- -- ----- -- ---- ------<br>--- ----- cut --- ------ -------- ----- --- ------ ----- --<br>----- ----- ---------- --- --- ------ ------ ---- -- ------<br>------- --- ------ ----- --- ---- ------- -- ---- --- --<br>------- ------,114127.39999997616,114126.5,113602.318,113615.69999998808,113618.988,114135.78,,24,cut
screen,html.Screen,0_2_1_1_25,2021-12-10T12:45:41.095Z,,,,,,,,,,,,,,,,54,,,,,,,,,,,,,,438.72000000000116,,response,,,100,,,,,,Space,keypress(Space),,,,,-- --- ---- --- ------ ----- ------- ---- -- --- ------- --<br>------- ---------- ------ -- ----- -- ----- -- ---- ------<br>--- ----- --- the ------ -------- ----- --- ------ ----- --<br>----- ----- ---------- --- --- ------ ------ ---- -- ------<br>------- --- ------ ----- --- ---- ------- -- ---- --- --<br>------- ------,114575.39999997616,114574.5,114119.11,114127.59999996424,114135.78,114585.885,,25,the
screen,html.Screen,0_2_1_1_26,2021-12-10T12:45:41.726Z,,,,,,,,,,,,,,,,54,,,,,,,,,,,,,,620.5149999761634,,response,,,100,,,,,,Space,keypress(Space),,,,,-- --- ---- --- ------ ----- ------- ---- -- --- ------- --<br>------- ---------- ------ -- ----- -- ----- -- ---- ------<br>--- ----- --- --- bonds' -------- ----- --- ------ ----- --<br>----- ----- ---------- --- --- ------ ------ ---- -- ------<br>------- --- ------ ----- --- ---- ------- -- ---- --- --<br>------- ------,115207.19999998808,115206.39999997616,114569.215,114575.59999996424,114585.885,115219.366,,26,bonds'
screen,html.Screen,0_2_1_1_27,2021-12-10T12:45:42.439Z,,,,,,,,,,,,,,,,54,,,,,,,,,,,,,,699.0339999761636,,response,,,100,,,,,,Space,keypress(Space),,,,,-- --- ---- --- ------ ----- ------- ---- -- --- ------- --<br>------- ---------- ------ -- ----- -- ----- -- ---- ------<br>--- ----- --- --- ------ interest ----- --- ------ ----- --<br>----- ----- ---------- --- --- ------ ------ ---- -- ------<br>------- --- ------ ----- --- ---- ------- -- ---- --- --<br>------- ------,115919.19999998808,115918.39999997616,115202.696,115207.5,115219.366,115936.192,,27,interest
screen,html.Screen,0_2_1_1_28,2021-12-10T12:45:43.271Z,,,,,,,,,,,,,,,,54,,,,,,,,,,,,,,814.2079999761627,,response,,,100,,,,,,Space,keypress(Space),,,,,-- --- ---- --- ------ ----- ------- ---- -- --- ------- --<br>------- ---------- ------ -- ----- -- ----- -- ---- ------<br>--- ----- --- --- ------ -------- rate. --- ------ ----- --<br>----- ----- ---------- --- --- ------ ------ ---- -- ------<br>------- --- ------ ----- --- ---- ------- -- ---- --- --<br>------- ------,116751.30000001192,116750.39999997616,115919.522,115919.5,115936.192,116753.082,,28,rate.
screen,html.Screen,0_2_1_1_29,2021-12-10T12:45:44.166Z,,,,,,,,,,,,,,,,54,,,,,,,,,,,,,,893.218000011926,,response,,,100,,,,,,Space,keypress(Space),,,,,-- --- ---- --- ------ ----- ------- ---- -- --- ------- --<br>------- ---------- ------ -- ----- -- ----- -- ---- ------<br>--- ----- --- --- ------ -------- ----- The ------ ----- --<br>----- ----- ---------- --- --- ------ ------ ---- -- ------<br>------- --- ------ ----- --- ---- ------- -- ---- --- --<br>------- ------,117647.19999998808,117646.30000001192,116736.412,116751.5,116753.082,117653.294,,29,The
screen,html.Screen,0_2_1_1_30,2021-12-10T12:45:44.726Z,,,,,,,,,,,,,,,,54,,,,,,,,,,,,,,552.9059999880847,,response,,,100,,,,,,Space,keypress(Space),,,,,-- --- ---- --- ------ ----- ------- ---- -- --- ------- --<br>------- ---------- ------ -- ----- -- ----- -- ---- ------<br>--- ----- --- --- ------ -------- ----- --- market ----- --<br>----- ----- ---------- --- --- ------ ------ ---- -- ------<br>------- --- ------ ----- --- ---- ------- -- ---- --- --<br>------- ------,118207.09999996424,118206.19999998808,117636.624,117647.30000001192,117653.294,118220.086,,30,market
screen,html.Screen,0_2_1_1_31,2021-12-10T12:45:45.391Z,,,,,,,,,,,,,,,,54,,,,,,,,,,,,,,650.5139999642415,,response,,,100,,,,,,Space,keypress(Space),,,,,-- --- ---- --- ------ ----- ------- ---- -- --- ------- --<br>------- ---------- ------ -- ----- -- ----- -- ---- ------<br>--- ----- --- --- ------ -------- ----- --- ------ value --<br>----- ----- ---------- --- --- ------ ------ ---- -- ------<br>------- --- ------ ----- --- ---- ------- -- ---- --- --<br>------- ------,118871.39999997616,118870.59999996424,118203.416,118207.30000001192,118220.086,118886.911,,31,value
screen,html.Screen,0_2_1_1_32,2021-12-10T12:45:45.982Z,,,,,,,,,,,,,,,,54,,,,,,,,,,,,,,575.1889999642444,,response,,,100,,,,,,Space,keypress(Space),,,,,-- --- ---- --- ------ ----- ------- ---- -- --- ------- --<br>------- ---------- ------ -- ----- -- ----- -- ---- ------<br>--- ----- --- --- ------ -------- ----- --- ------ ----- of<br>----- ----- ---------- --- --- ------ ------ ---- -- ------<br>------- --- ------ ----- --- ---- ------- -- ---- --- --<br>------- ------,119463,119462.09999996424,118870.241,118871.69999998808,118886.911,119470.476,,32,of
screen,html.Screen,0_2_1_1_33,2021-12-10T12:45:46.590Z,,,,,,,,,,,,,,,,54,,,,,,,,,,,,,,599.5240000000049,,response,,,100,,,,,,Space,keypress(Space),,,,,-- --- ---- --- ------ ----- ------- ---- -- --- ------- --<br>------- ---------- ------ -- ----- -- ----- -- ---- ------<br>--- ----- --- --- ------ -------- ----- --- ------ ----- --<br>these ----- ---------- --- --- ------ ------ ---- -- ------<br>------- --- ------ ----- --- ---- ------- -- ---- --- --<br>------- ------,120070.89999997616,120070,119453.805,119463.19999998808,119470.476,120087.212,,33,these
screen,html.Screen,0_2_1_1_34,2021-12-10T12:45:47.194Z,,,,,,,,,,,,,,,,54,,,,,,,,,,,,,,582.8879999642377,,response,,,100,,,,,,Space,keypress(Space),,,,,-- --- ---- --- ------ ----- ------- ---- -- --- ------- --<br>------- ---------- ------ -- ----- -- ----- -- ---- ------<br>--- ----- --- --- ------ -------- ----- --- ------ ----- --<br>----- bonds ---------- --- --- ------ ------ ---- -- ------<br>------- --- ------ ----- --- ---- ------- -- ---- --- --<br>------- ------,120670.89999997616,120670.09999996424,120070.542,120071.09999996424,120087.212,120687.376,,34,bonds
screen,html.Screen,0_2_1_1_35,2021-12-10T12:45:48.290Z,,,,,,,,,,,,,,,,54,,,,,,,,,,,,,,1078.6239999999962,,response,,,100,,,,,,Space,keypress(Space),,,,,"-- --- ---- --- ------ ----- ------- ---- -- --- ------- --<br>------- ---------- ------ -- ----- -- ----- -- ---- ------<br>--- ----- --- --- ------ -------- ----- --- ------ ----- --<br>----- ----- plummeted, --- --- ------ ------ ---- -- ------<br>------- --- ------ ----- --- ---- ------- -- ---- --- --<br>------- ------",121766.80000001192,121766,120670.706,120671.19999998808,120687.376,121770.95,,35,"plummeted,"
screen,html.Screen,0_2_1_1_36,2021-12-10T12:45:48.906Z,,,,,,,,,,,,,,,,54,,,,,,,,,,,,,,610.949999976161,,response,,,100,,,,,,Space,keypress(Space),,,,,-- --- ---- --- ------ ----- ------- ---- -- --- ------- --<br>------- ---------- ------ -- ----- -- ----- -- ---- ------<br>--- ----- --- --- ------ -------- ----- --- ------ ----- --<br>----- ----- ---------- and --- ------ ------ ---- -- ------<br>------- --- ------ ----- --- ---- ------- -- ---- --- --<br>------- ------,122382.80000001192,122381.89999997616,121754.28,121767.09999996424,121770.95,122387.813,,36,and
screen,html.Screen,0_2_1_1_37,2021-12-10T12:45:49.850Z,,,,,,,,,,,,,,,,54,,,,,,,,,,,,,,938.0869999761635,,response,,,100,,,,,,Space,keypress(Space),,,,,-- --- ---- --- ------ ----- ------- ---- -- --- ------- --<br>------- ---------- ------ -- ----- -- ----- -- ---- ------<br>--- ----- --- --- ------ -------- ----- --- ------ ----- --<br>----- ----- ---------- --- the ------ ------ ---- -- ------<br>------- --- ------ ----- --- ---- ------- -- ---- --- --<br>------- ------,123326.69999998808,123325.89999997616,122371.143,122383,122387.813,123338.012,,37,the
screen,html.Screen,0_2_1_1_38,2021-12-10T12:45:50.562Z,,,,,,,,,,,,,,,,54,,,,,,,,,,,,,,699.7880000119185,,response,,,100,,,,,,Space,keypress(Space),,,,,-- --- ---- --- ------ ----- ------- ---- -- --- ------- --<br>------- ---------- ------ -- ----- -- ----- -- ---- ------<br>--- ----- --- --- ------ -------- ----- --- ------ ----- --<br>----- ----- ---------- --- --- market ------ ---- -- ------<br>------- --- ------ ----- --- ---- ------- -- ---- --- --<br>------- ------,124038.69999998808,124037.80000001192,123321.342,123327,123338.012,124054.861,,38,market
screen,html.Screen,0_2_1_1_39,2021-12-10T12:45:51.194Z,,,,,,,,,,,,,,,,54,,,,,,,,,,,,,,614.9390000119165,,response,,,100,,,,,,Space,keypress(Space),,,,,-- --- ---- --- ------ ----- ------- ---- -- --- ------- --<br>------- ---------- ------ -- ----- -- ----- -- ---- ------<br>--- ----- --- --- ------ -------- ----- --- ------ ----- --<br>----- ----- ---------- --- --- ------ became ---- -- ------<br>------- --- ------ ----- --- ---- ------- -- ---- --- --<br>------- ------,124670.59999996424,124669.80000001192,124038.191,124038.89999997616,124054.861,124671.662,,39,became
screen,html.Screen,0_2_1_1_40,2021-12-10T12:45:51.834Z,,,,,,,,,,,,,,,,54,,,,,,,,,,,,,,638.0379999880824,,response,,,100,,,,,,Space,keypress(Space),,,,,-- --- ---- --- ------ ----- ------- ---- -- --- ------- --<br>------- ---------- ------ -- ----- -- ----- -- ---- ------<br>--- ----- --- --- ------ -------- ----- --- ------ ----- --<br>----- ----- ---------- --- --- ------ ------ wary -- ------<br>------- --- ------ ----- --- ---- ------- -- ---- --- --<br>------- ------,125310.59999996424,125309.69999998808,124654.992,124670.89999997616,124671.662,125321.83,,40,wary
screen,html.Screen,0_2_1_1_41,2021-12-10T12:45:52.618Z,,,,,,,,,,,,,,,,54,,,,,,,,,,,,,,771.8699999880773,,response,,,100,,,,,,Space,keypress(Space),,,,,-- --- ---- --- ------ ----- ------- ---- -- --- ------- --<br>------- ---------- ------ -- ----- -- ----- -- ---- ------<br>--- ----- --- --- ------ -------- ----- --- ------ ----- --<br>----- ----- ---------- --- --- ------ ------ ---- of ------<br>------- --- ------ ----- --- ---- ------- -- ---- --- --<br>------- ------,126094.5,126093.69999998808,125305.16,125310.80000001192,125321.83,126105.353,,41,of
screen,html.Screen,0_2_1_1_42,2021-12-10T12:45:53.506Z,,,,,,,,,,,,,,,,54,,,,,,,,,,,,,,876.3469999880763,,response,,,100,,,,,,Space,keypress(Space),,,,,-- --- ---- --- ------ ----- ------- ---- -- --- ------- --<br>------- ---------- ------ -- ----- -- ----- -- ---- ------<br>--- ----- --- --- ------ -------- ----- --- ------ ----- --<br>----- ----- ---------- --- --- ------ ------ ---- -- French<br>------- --- ------ ----- --- ---- ------- -- ---- --- --<br>------- ------,126982.59999996424,126981.69999998808,126088.683,126094.80000001192,126105.353,126988.898,,42,French
screen,html.Screen,0_2_1_1_43,2021-12-10T12:45:54.178Z,,,,,,,,,,,,,,,,54,,,,,,,,,,,,,,664.7019999642362,,response,,,100,,,,,,Space,keypress(Space),,,,,-- --- ---- --- ------ ----- ------- ---- -- --- ------- --<br>------- ---------- ------ -- ----- -- ----- -- ---- ------<br>--- ----- --- --- ------ -------- ----- --- ------ ----- --<br>----- ----- ---------- --- --- ------ ------ ---- -- ------<br>credit. --- ------ ----- --- ---- ------- -- ---- --- --<br>------- ------,127654.5,127653.59999996424,126972.228,126982.89999997616,126988.898,127655.741,,43,credit.
screen,html.Screen,0_2_1_1_44,2021-12-10T12:45:54.850Z,,,,,,,,,,,,,,,,54,,,,,,,,,,,,,,669.8589999642427,,response,,,100,,,,,,Space,keypress(Space),,,,,-- --- ---- --- ------ ----- ------- ---- -- --- ------- --<br>------- ---------- ------ -- ----- -- ----- -- ---- ------<br>--- ----- --- --- ------ -------- ----- --- ------ ----- --<br>----- ----- ---------- --- --- ------ ------ ---- -- ------<br>------- The ------ ----- --- ---- ------- -- ---- --- --<br>------- ------,128326.39999997616,128325.59999996424,127639.071,127654.69999998808,127655.741,128339.24,,44,The
screen,html.Screen,0_2_1_1_45,2021-12-10T12:45:55.418Z,,,,,,,,,,,,,,,,54,,,,,,,,,,,,,,554.7599999999948,,response,,,100,,,,,,Space,keypress(Space),,,,,-- --- ---- --- ------ ----- ------- ---- -- --- ------- --<br>------- ---------- ------ -- ----- -- ----- -- ---- ------<br>--- ----- --- --- ------ -------- ----- --- ------ ----- --<br>----- ----- ---------- --- --- ------ ------ ---- -- ------<br>------- --- French ----- --- ---- ------- -- ---- --- --<br>------- ------,128894.80000001192,128894,128322.57,128326.59999996424,128339.24,128906.026,,45,French
screen,html.Screen,0_2_1_1_46,2021-12-10T12:45:56.082Z,,,,,,,,,,,,,,,,54,,,,,,,,,,,,,,651.3739999761601,,response,,,100,,,,,,Space,keypress(Space),,,,,-- --- ---- --- ------ ----- ------- ---- -- --- ------- --<br>------- ---------- ------ -- ----- -- ----- -- ---- ------<br>--- ----- --- --- ------ -------- ----- --- ------ ----- --<br>----- ----- ---------- --- --- ------ ------ ---- -- ------<br>------- --- ------ state --- ---- ------- -- ---- --- --<br>------- ------,129558.30000001192,129557.39999997616,128889.356,128895.09999996424,128906.026,129572.874,,46,state
screen,html.Screen,0_2_1_1_47,2021-12-10T12:45:56.610Z,,,,,,,,,,,,,,,,54,,,,,,,,,,,,,,512.6260000000038,,response,,,100,,,,,,Space,keypress(Space),,,,,-- --- ---- --- ------ ----- ------- ---- -- --- ------- --<br>------- ---------- ------ -- ----- -- ----- -- ---- ------<br>--- ----- --- --- ------ -------- ----- --- ------ ----- --<br>----- ----- ---------- --- --- ------ ------ ---- -- ------<br>------- --- ------ ----- was ---- ------- -- ---- --- --<br>------- ------,130086.30000001192,130085.5,129556.204,129558.5,129572.874,130089.675,,47,was
screen,html.Screen,0_2_1_1_48,2021-12-10T12:45:57.194Z,,,,,,,,,,,,,,,,54,,,,,,,,,,,,,,579.7249999761552,,response,,,100,,,,,,Space,keypress(Space),,,,,-- --- ---- --- ------ ----- ------- ---- -- --- ------- --<br>------- ---------- ------ -- ----- -- ----- -- ---- ------<br>--- ----- --- --- ------ -------- ----- --- ------ ----- --<br>----- ----- ---------- --- --- ------ ------ ---- -- ------<br>------- --- ------ ----- --- left ------- -- ---- --- --<br>------- ------,130670.19999998808,130669.39999997616,130073.005,130086.39999997616,130089.675,130673.145,,48,left
screen,html.Screen,0_2_1_1_49,2021-12-10T12:45:57.754Z,,,,,,,,,,,,,,,,54,,,,,,,,,,,,,,556.1550000119169,,response,,,100,,,,,,Space,keypress(Space),,,,,-- --- ---- --- ------ ----- ------- ---- -- --- ------- --<br>------- ---------- ------ -- ----- -- ----- -- ---- ------<br>--- ----- --- --- ------ -------- ----- --- ------ ----- --<br>----- ----- ---------- --- --- ------ ------ ---- -- ------<br>------- --- ------ ----- --- ---- without -- ---- --- --<br>------- ------,131230.19999998808,131229.30000001192,130656.475,130670.5,130673.145,131239.932,,49,without
screen,html.Screen,0_2_1_1_50,2021-12-10T12:45:58.298Z,,,,,,,,,,,,,,,,54,,,,,,,,,,,,,,533.4679999761574,,response,,,100,,,,,,Space,keypress(Space),,,,,-- --- ---- --- ------ ----- ------- ---- -- --- ------- --<br>------- ---------- ------ -- ----- -- ----- -- ---- ------<br>--- ----- --- --- ------ -------- ----- --- ------ ----- --<br>----- ----- ---------- --- --- ------ ------ ---- -- ------<br>------- --- ------ ----- --- ---- ------- an ---- --- --<br>------- ------,131774.19999998808,131773.39999997616,131223.262,131230.5,131239.932,131789.963,,50,an
screen,html.Screen,0_2_1_1_51,2021-12-10T12:45:58.818Z,,,,,,,,,,,,,,,,54,,,,,,,,,,,,,,503.23699998809025,,response,,,100,,,,,,Space,keypress(Space),,,,,-- --- ---- --- ------ ----- ------- ---- -- --- ------- --<br>------- ---------- ------ -- ----- -- ----- -- ---- ------<br>--- ----- --- --- ------ -------- ----- --- ------ ----- --<br>----- ----- ---------- --- --- ------ ------ ---- -- ------<br>------- --- ------ ----- --- ---- ------- -- easy --- --<br>------- ------,132294.09999996424,132293.19999998808,131773.294,131774.39999997616,131789.963,132306.829,,51,easy
screen,html.Screen,0_2_1_1_52,2021-12-10T12:45:59.314Z,,,,,,,,,,,,,,,,54,,,,,,,,,,,,,,482.37099998808117,,response,,,100,,,,,,Space,keypress(Space),,,,,-- --- ---- --- ------ ----- ------- ---- -- --- ------- --<br>------- ---------- ------ -- ----- -- ----- -- ---- ------<br>--- ----- --- --- ------ -------- ----- --- ------ ----- --<br>----- ----- ---------- --- --- ------ ------ ---- -- ------<br>------- --- ------ ----- --- ---- ------- -- ---- way --<br>------- ------,132790.09999996424,132789.19999998808,132290.159,132294.30000001192,132306.829,132807.04,,52,way
screen,html.Screen,0_2_1_1_53,2021-12-10T12:45:59.858Z,,,,,,,,,,,,,,,,54,,,,,,,,,,,,,,526.1599999880709,,response,,,100,,,,,,Space,keypress(Space),,,,,-- --- ---- --- ------ ----- ------- ---- -- --- ------- --<br>------- ---------- ------ -- ----- -- ----- -- ---- ------<br>--- ----- --- --- ------ -------- ----- --- ------ ----- --<br>----- ----- ---------- --- --- ------ ------ ---- -- ------<br>------- --- ------ ----- --- ---- ------- -- ---- --- of<br>------- ------,133334.09999996424,133333.19999998808,132790.369,132790.19999998808,132807.04,133340.46,,53,of
screen,html.Screen,0_2_1_1_54,2021-12-10T12:46:00.353Z,,,,,,,,,,,,,,,,54,,,,,,,,,,,,,,488.63999996424536,,response,,,100,,,,,,Space,keypress(Space),,,,,-- --- ---- --- ------ ----- ------- ---- -- --- ------- --<br>------- ---------- ------ -- ----- -- ----- -- ---- ------<br>--- ----- --- --- ------ -------- ----- --- ------ ----- --<br>----- ----- ---------- --- --- ------ ------ ---- -- ------<br>------- --- ------ ----- --- ---- ------- -- ---- --- --<br>raising ------,133829.89999997616,133829.09999996424,133323.79,133334.30000001192,133340.46,133840.578,,54,raising
screen,html.Screen,0_2_1_1_55,2021-12-10T12:46:00.834Z,,,,,,,,,,,,,,,,54,,,,,,,,,,,,,,468.5219999642286,,response,,,100,,,,,,Space,keypress(Space),,,,,-- --- ---- --- ------ ----- ------- ---- -- --- ------- --<br>------- ---------- ------ -- ----- -- ----- -- ---- ------<br>--- ----- --- --- ------ -------- ----- --- ------ ----- --<br>----- ----- ---------- --- --- ------ ------ ---- -- ------<br>------- --- ------ ----- --- ---- ------- -- ---- --- --<br>------- money.,134310,134309.09999996424,133823.908,133830.09999996424,133840.578,134324.027,,55,money.
Item 100,flow.Loop,0_2_1_1,2021-12-10T12:46:00.834Z,,,,,,,,,,,,,,,,,,,,,,,,,,,,,,37827.712999964235,,completion,,,,C,,,,,,,,,,silence,,134310.5,134309.09999996424,96464.717,96466.39999997616,96481.387,134324.027,,,
Question 1,html.Screen,0_2_1_2,2021-12-10T12:46:05.690Z,,,,,,,,,,,,,,,,,,,,,,,,,,,true,TRUE,,4841.372999976156,,response,,,100,C,,,,,TRUE,click #choice-1,,,,silence,,139166.80000001192,139165.39999997616,134307.357,134310.69999998808,134324.027,139175.251,,,
Question 2,html.Screen,0_2_1_3,2021-12-10T12:46:07.624Z,,,,,,,,,,,,,,,,,,,,,,,,,,,true,FALSE,,1923.7490000000107,,response,,,100,C,,,,,FALSE,click #choice-2,,,,silence,,141100.30000001192,141099,139158.58,139167.09999996424,139175.251,141109.022,,,
Item 100,flow.Sequence,0_2_1,2021-12-10T12:46:07.624Z,,,,,,,,,,,,,,,,,,,,,,,,,,,,,,54620.005000000005,,completion,,,,,,,,,,,,,,,,141100.69999998808,141099,86462.326,86465.39999997616,86478.995,141109.022,,,
End of Practice,html.Page,0_2_2,2021-12-10T12:46:13.235Z,,,,,,,,,,,,,,,,,,,,,,,,,,,,,,5602.07799996424,,form submission,,,,,,,,,,,,,,,,146711.69999998808,146711.09999996424,141092.352,141100.80000001192,141109.022,146726.113,,,
Practice,flow.Sequence,0_2,2021-12-10T12:46:13.236Z,,,,,,,,,,,,,,,,,,,,,,,,,,,,,,111327.59299996424,,completion,,,,,,,,,,,,,,,,146712.09999996424,146711.09999996424,35366.835,35378.19999998808,35383.507,146726.113,,,
Trap_instruction,html.Page,0_3_0,2021-12-10T12:46:17.752Z,,,,,,,,,,,,,,,,,,,,,,,,,,,,,,4502.187000011909,,form submission,,,,,,,,,,,,,,,,151228.89999997616,151228.30000001192,146709.445,146712.39999997616,146726.113,151261.542,,,
trap_trial,html.Screen,0_3_1,2021-12-10T12:46:20.698Z,,,,,,,,,,,,,,,,,,,,,,,,,,,true,1,,2911.1579999880923,,response,,,,,,,,,1,click #choice-1,,,,,,154174,154172.69999998808,151211.529,151229.19999998808,151261.542,154178.537,,,
end of trap trial,html.Page,0_3_2,2021-12-10T12:46:22.969Z,,,,,,,,,,,,,,,,,,,,,,,,,,,,,,2266.862999976147,,form submission,,,,,,,,,,,,,,,,156445.89999997616,156445.39999997616,154161.868,154174.30000001192,154178.537,156445.994,,,
Trap 1,flow.Sequence,0_3,2021-12-10T12:46:22.970Z,,,,,,,,,,,,,,,,,,,,,,,,,,,,,,9719.286999976146,,completion,,,,,,,,,,,,,,,,156446.39999997616,156445.39999997616,146709.445,146712.30000001192,146726.113,156445.994,,,
Standby,html.Page,0_4_0,2021-12-10T12:46:30.956Z,,,,,,,,,,,,,,,,,,,,,,,,,,,,,,8002.206000000006,,timeout,,,,,,,,,,,,,,,,164432.5,164431.529,156429.324,156446.69999998808,156445.994,164448.2,,,
Holding screen,html.Screen,0_4_1_0_0,2021-12-10T12:46:37.958Z,,,,,,,,,,,,,,,,,,,,,,,,,,,,,,7001.460999999981,,timeout,,,,,,,,,,,,,,,,171434,171432.991,164431.529,164432.80000001192,164448.2,171449.661,,,
screen,html.Screen,0_4_1_0_1_0,2021-12-10T12:46:39.240Z,,,,,,,,,,,,,,,,15,,,,,,,,,,,,,,1265.3390000000072,,response,,,7,C,,,,,Space,keypress(Space),,,,instrumental,Greg --------- ---------- - --- ------- -- --- ------------<br>----- -- -------- ------- ---- ------ - -------- ---- -----<br>--- ------- ---- -- --- -------- --- - ----- ------ ---- --<br>-------- --- -------- -------- --- -------- ---- -- ----- -<br>-------- ---- --- ---------- --------- -- ------- ------ -<br>--------- ----- -----,172716.09999996424,172715,171432.991,171434.39999997616,171449.661,172716.658,,0,Greg
screen,html.Screen,0_4_1_0_1_1,2021-12-10T12:46:39.935Z,,,,,,,,,,,,,,,,15,,,,,,,,,,,,,,693.6420000119251,,response,,,7,C,,,,,Space,keypress(Space),,,,instrumental,"---- Anderson, ---------- - --- ------- -- --- ------------<br>----- -- -------- ------- ---- ------ - -------- ---- -----<br>--- ------- ---- -- --- -------- --- - ----- ------ ---- --<br>-------- --- -------- -------- --- -------- ---- -- ----- -<br>-------- ---- --- ---------- --------- -- ------- ------ -<br>--------- ----- -----",173411.19999998808,173410.30000001192,172699.988,172716.5,172716.658,173416.685,,1,"Anderson,"
screen,html.Screen,0_4_1_0_1_2,2021-12-10T12:46:40.543Z,,,,,,,,,,,,,,,,15,,,,,,,,,,,,,,601.7149999761605,,response,,,7,C,,,,,Space,keypress(Space),,,,instrumental,---- --------- considered - --- ------- -- --- ------------<br>----- -- -------- ------- ---- ------ - -------- ---- -----<br>--- ------- ---- -- --- -------- --- - ----- ------ ---- --<br>-------- --- -------- -------- --- -------- ---- -- ----- -<br>-------- ---- --- ---------- --------- -- ------- ------ -<br>--------- ----- -----,174019.19999998808,174018.39999997616,173400.016,173411.39999997616,173416.685,174033.627,,2,considered
screen,html.Screen,0_4_1_0_1_3,2021-12-10T12:46:40.991Z,,,,,,,,,,,,,,,,15,,,,,,,,,,,,,,432.67300001191325,,response,,,7,C,,,,,Space,keypress(Space),,,,instrumental,---- --------- ---------- a --- ------- -- --- ------------<br>----- -- -------- ------- ---- ------ - -------- ---- -----<br>--- ------- ---- -- --- -------- --- - ----- ------ ---- --<br>-------- --- -------- -------- --- -------- ---- -- ----- -<br>-------- ---- --- ---------- --------- -- ------- ------ -<br>--------- ----- -----,174467.19999998808,174466.30000001192,174016.957,174019.5,174033.627,174483.764,,3,a
screen,html.Screen,0_4_1_0_1_4,2021-12-10T12:46:42.079Z,,,,,,,,,,,,,,,,15,,,,,,,,,,,,,,1070.4359999880835,,response,,,7,C,,,,,Space,keypress(Space),,,,instrumental,---- --------- ---------- - key ------- -- --- ------------<br>----- -- -------- ------- ---- ------ - -------- ---- -----<br>--- ------- ---- -- --- -------- --- - ----- ------ ---- --<br>-------- --- -------- -------- --- -------- ---- -- ----- -<br>-------- ---- --- ---------- --------- -- ------- ------ -<br>--------- ----- -----,175555.09999996424,175554.19999998808,174467.094,174467.5,174483.764,175567.321,,4,key
screen,html.Screen,0_4_1_0_1_5,2021-12-10T12:46:42.863Z,,,,,,,,,,,,,,,,15,,,,,,,,,,,,,,770.9790000119247,,response,,,7,C,,,,,Space,keypress(Space),,,,instrumental,---- --------- ---------- - --- witness -- --- ------------<br>----- -- -------- ------- ---- ------ - -------- ---- -----<br>--- ------- ---- -- --- -------- --- - ----- ------ ---- --<br>-------- --- -------- -------- --- -------- ---- -- ----- -<br>-------- ---- --- ---------- --------- -- ------- ------ -<br>--------- ----- -----,176339.09999996424,176338.30000001192,175550.651,175555.30000001192,175567.321,176350.828,,5,witness
screen,html.Screen,0_4_1_0_1_6,2021-12-10T12:46:43.527Z,,,,,,,,,,,,,,,,15,,,,,,,,,,,,,,651.2719999642286,,response,,,7,C,,,,,Space,keypress(Space),,,,instrumental,---- --------- ---------- - --- ------- by --- ------------<br>----- -- -------- ------- ---- ------ - -------- ---- -----<br>--- ------- ---- -- --- -------- --- - ----- ------ ---- --<br>-------- --- -------- -------- --- -------- ---- -- ----- -<br>-------- ---- --- ---------- --------- -- ------- ------ -<br>--------- ----- -----,177003.09999996424,177002.09999996424,176334.158,176339.39999997616,176350.828,177017.788,,6,by
screen,html.Screen,0_4_1_0_1_7,2021-12-10T12:46:44.095Z,,,,,,,,,,,,,,,,15,,,,,,,,,,,,,,552.9119999880786,,response,,,7,C,,,,,Space,keypress(Space),,,,instrumental,---- --------- ---------- - --- ------- -- the ------------<br>----- -- -------- ------- ---- ------ - -------- ---- -----<br>--- ------- ---- -- --- -------- --- - ----- ------ ---- --<br>-------- --- -------- -------- --- -------- ---- -- ----- -<br>-------- ---- --- ---------- --------- -- ------- ------ -<br>--------- ----- -----,177571.59999996424,177570.69999998808,177001.117,177003.30000001192,177017.788,177584.539,,7,the
screen,html.Screen,0_4_1_0_1_8,2021-12-10T12:46:45.702Z,,,,,,,,,,,,,,,,15,,,,,,,,,,,,,,1593.5609999642475,,response,,,7,C,,,,,Space,keypress(Space),,,,instrumental,"---- --------- ---------- - --- ------- -- --- prosecution,<br>----- -- -------- ------- ---- ------ - -------- ---- -----<br>--- ------- ---- -- --- -------- --- - ----- ------ ---- --<br>-------- --- -------- -------- --- -------- ---- -- ----- -<br>-------- ---- --- ---------- --------- -- ------- ------ -<br>--------- ----- -----",179178.89999997616,179178.09999996424,177567.869,177571.89999997616,177584.539,179184.885,,8,"prosecution,"
screen,html.Screen,0_4_1_0_1_9,2021-12-10T12:46:46.942Z,,,,,,,,,,,,,,,,15,,,,,,,,,,,,,,1233.0149999761488,,response,,,7,C,,,,,Space,keypress(Space),,,,instrumental,---- --------- ---------- - --- ------- -- --- ------------<br>vowed -- -------- ------- ---- ------ - -------- ---- -----<br>--- ------- ---- -- --- -------- --- - ----- ------ ---- --<br>-------- --- -------- -------- --- -------- ---- -- ----- -<br>-------- ---- --- ---------- --------- -- ------- ------ -<br>--------- ----- -----,180418.69999998808,180417.89999997616,179168.215,179179.09999996424,179184.885,180435.163,,9,vowed
screen,html.Screen,0_4_1_0_1_10,2021-12-10T12:46:47.906Z,,,,,,,,,,,,,,,,15,,,,,,,,,,,,,,950.7369999761577,,response,,,7,C,,,,,Space,keypress(Space),,,,instrumental,---- --------- ---------- - --- ------- -- --- ------------<br>----- he -------- ------- ---- ------ - -------- ---- -----<br>--- ------- ---- -- --- -------- --- - ----- ------ ---- --<br>-------- --- -------- -------- --- -------- ---- -- ----- -<br>-------- ---- --- ---------- --------- -- ------- ------ -<br>--------- ----- -----,181386.69999998808,181385.89999997616,180418.493,180419,180435.163,181402.015,,10,he
screen,html.Screen,0_4_1_0_1_11,2021-12-10T12:46:48.778Z,,,,,,,,,,,,,,,,15,,,,,,,,,,,,,,855.785000011907,,response,,,7,C,,,,,Space,keypress(Space),,,,instrumental,---- --------- ---------- - --- ------- -- --- ------------<br>----- -- wouldn't ------- ---- ------ - -------- ---- -----<br>--- ------- ---- -- --- -------- --- - ----- ------ ---- --<br>-------- --- -------- -------- --- -------- ---- -- ----- -<br>-------- ---- --- ---------- --------- -- ------- ------ -<br>--------- ----- -----,182258.59999996424,182257.80000001192,181385.345,181386.89999997616,181402.015,182269.098,,11,wouldn't
screen,html.Screen,0_4_1_0_1_12,2021-12-10T12:46:49.410Z,,,,,,,,,,,,,,,,15,,,,,,,,,,,,,,621.1019999880809,,response,,,7,C,,,,,Space,keypress(Space),,,,instrumental,---- --------- ---------- - --- ------- -- --- ------------<br>----- -- -------- testify ---- ------ - -------- ---- -----<br>--- ------- ---- -- --- -------- --- - ----- ------ ---- --<br>-------- --- -------- -------- --- -------- ---- -- ----- -<br>-------- ---- --- ---------- --------- -- ------- ------ -<br>--------- ----- -----,182891,182890.19999998808,182252.427,182258.89999997616,182269.098,182902.441,,12,testify
screen,html.Screen,0_4_1_0_1_13,2021-12-10T12:46:50.050Z,,,,,,,,,,,,,,,,15,,,,,,,,,,,,,,627.2589999880875,,response,,,7,C,,,,,Space,keypress(Space),,,,instrumental,---- --------- ---------- - --- ------- -- --- ------------<br>----- -- -------- ------- when ------ - -------- ---- -----<br>--- ------- ---- -- --- -------- --- - ----- ------ ---- --<br>-------- --- -------- -------- --- -------- ---- -- ----- -<br>-------- ---- --- ---------- --------- -- ------- ------ -<br>--------- ----- -----,183530.5,183529.69999998808,182885.771,182891.19999998808,182902.441,183535.913,,13,when
screen,html.Screen,0_4_1_0_1_14,2021-12-10T12:46:50.690Z,,,,,,,,,,,,,,,,15,,,,,,,,,,,,,,633.5869999999995,,response,,,7,C,,,,,Space,keypress(Space),,,,instrumental,---- --------- ---------- - --- ------- -- --- ------------<br>----- -- -------- ------- ---- served - -------- ---- -----<br>--- ------- ---- -- --- -------- --- - ----- ------ ---- --<br>-------- --- -------- -------- --- -------- ---- -- ----- -<br>-------- ---- --- ---------- --------- -- ------- ------ -<br>--------- ----- -----,184170.59999996424,184169.5,183519.243,183530.69999998808,183535.913,184186.094,,14,served
screen,html.Screen,0_4_1_0_1_15,2021-12-10T12:46:51.194Z,,,,,,,,,,,,,,,,15,,,,,,,,,,,,,,487.50599996422534,,response,,,7,C,,,,,Space,keypress(Space),,,,instrumental,---- --------- ---------- - --- ------- -- --- ------------<br>----- -- -------- ------- ---- ------ a -------- ---- -----<br>--- ------- ---- -- --- -------- --- - ----- ------ ---- --<br>-------- --- -------- -------- --- -------- ---- -- ----- -<br>-------- ---- --- ---------- --------- -- ------- ------ -<br>--------- ----- -----,184674.5,184673.59999996424,184169.424,184170.89999997616,184186.094,184686.221,,15,a
screen,html.Screen,0_4_1_0_1_16,2021-12-10T12:46:52.497Z,,,,,,,,,,,,,,,,15,,,,,,,,,,,,,,1291.2790000000095,,response,,,7,C,,,,,Space,keypress(Space),,,,instrumental,---- --------- ---------- - --- ------- -- --- ------------<br>----- -- -------- ------- ---- ------ - subpoena ---- -----<br>--- ------- ---- -- --- -------- --- - ----- ------ ---- --<br>-------- --- -------- -------- --- -------- ---- -- ----- -<br>-------- ---- --- ---------- --------- -- ------- ------ -<br>--------- ----- -----,185978.39999997616,185977.5,184669.551,184674.69999998808,184686.221,185986.646,,16,subpoena
screen,html.Screen,0_4_1_0_1_17,2021-12-10T12:46:53.090Z,,,,,,,,,,,,,,,,15,,,,,,,,,,,,,,582.7539999761502,,response,,,7,C,,,,,Space,keypress(Space),,,,instrumental,---- --------- ---------- - --- ------- -- --- ------------<br>----- -- -------- ------- ---- ------ - -------- last -----<br>--- ------- ---- -- --- -------- --- - ----- ------ ---- --<br>-------- --- -------- -------- --- -------- ---- -- ----- -<br>-------- ---- --- ---------- --------- -- ------- ------ -<br>--------- ----- -----,186570.5,186569.39999997616,185969.975,185978.59999996424,185986.646,186586.704,,17,last
screen,html.Screen,0_4_1_0_1_18,2021-12-10T12:46:54.209Z,,,,,,,,,,,,,,,,15,,,,,,,,,,,,,,1102.6959999761602,,response,,,7,C,,,,,Space,keypress(Space),,,,instrumental,---- --------- ---------- - --- ------- -- --- ------------<br>----- -- -------- ------- ---- ------ - -------- ---- week.<br>--- ------- ---- -- --- -------- --- - ----- ------ ---- --<br>-------- --- -------- -------- --- -------- ---- -- ----- -<br>-------- ---- --- ---------- --------- -- ------- ------ -<br>--------- ----- -----,187690.09999996424,187689.39999997616,186570.034,186570.69999998808,186586.704,187703.566,,18,week.
screen,html.Screen,0_4_1_0_1_19,2021-12-10T12:46:55.089Z,,,,,,,,,,,,,,,,15,,,,,,,,,,,,,,865.6339999880875,,response,,,7,C,,,,,Space,keypress(Space),,,,instrumental,---- --------- ---------- - --- ------- -- --- ------------<br>----- -- -------- ------- ---- ------ - -------- ---- -----<br>His ------- ---- -- --- -------- --- - ----- ------ ---- --<br>-------- --- -------- -------- --- -------- ---- -- ----- -<br>-------- ---- --- ---------- --------- -- ------- ------ -<br>--------- ----- -----,188570.19999998808,188569.19999998808,187686.896,187690.39999997616,187703.566,188587.409,,19,His
screen,html.Screen,0_4_1_0_1_20,2021-12-10T12:46:55.761Z,,,,,,,,,,,,,,,,15,,,,,,,,,,,,,,653.8910000119067,,response,,,7,C,,,,,Space,keypress(Space),,,,instrumental,---- --------- ---------- - --- ------- -- --- ------------<br>----- -- -------- ------- ---- ------ - -------- ---- -----<br>--- lawyers ---- -- --- -------- --- - ----- ------ ---- --<br>-------- --- -------- -------- --- -------- ---- -- ----- -<br>-------- ---- --- ---------- --------- -- ------- ------ -<br>--------- ----- -----,189242.09999996424,189241.30000001192,188570.737,188570.39999997616,188587.409,189254.029,,20,lawyers
screen,html.Screen,0_4_1_0_1_21,2021-12-10T12:46:56.329Z,,,,,,,,,,,,,,,,15,,,,,,,,,,,,,,555.0709999642277,,response,,,7,C,,,,,Space,keypress(Space),,,,instrumental,---- --------- ---------- - --- ------- -- --- ------------<br>----- -- -------- ------- ---- ------ - -------- ---- -----<br>--- ------- said -- --- -------- --- - ----- ------ ---- --<br>-------- --- -------- -------- --- -------- ---- -- ----- -<br>-------- ---- --- ---------- --------- -- ------- ------ -<br>--------- ----- -----,189810,189809.09999996424,189237.359,189242.39999997616,189254.029,189820.847,,21,said
screen,html.Screen,0_4_1_0_1_22,2021-12-10T12:46:56.889Z,,,,,,,,,,,,,,,,15,,,,,,,,,,,,,,548.2529999642284,,response,,,7,C,,,,,Space,keypress(Space),,,,instrumental,---- --------- ---------- - --- ------- -- --- ------------<br>----- -- -------- ------- ---- ------ - -------- ---- -----<br>--- ------- ---- he --- -------- --- - ----- ------ ---- --<br>-------- --- -------- -------- --- -------- ---- -- ----- -<br>-------- ---- --- ---------- --------- -- ------- ------ -<br>--------- ----- -----,190370.09999996424,190369.09999996424,189804.177,189810.19999998808,189820.847,190387.633,,22,he
screen,html.Screen,0_4_1_0_1_23,2021-12-10T12:46:57.473Z,,,,,,,,,,,,,,,,15,,,,,,,,,,,,,,565.5669999880774,,response,,,7,C,,,,,Space,keypress(Space),,,,instrumental,---- --------- ---------- - --- ------- -- --- ------------<br>----- -- -------- ------- ---- ------ - -------- ---- -----<br>--- ------- ---- -- was -------- --- - ----- ------ ---- --<br>-------- --- -------- -------- --- -------- ---- -- ----- -<br>-------- ---- --- ---------- --------- -- ------- ------ -<br>--------- ----- -----,190954,190953.19999998808,190370.963,190370.39999997616,190387.633,190971.124,,23,was
screen,html.Screen,0_4_1_0_1_24,2021-12-10T12:46:58.225Z,,,,,,,,,,,,,,,,15,,,,,,,,,,,,,,734.0759999880684,,response,,,7,C,,,,,Space,keypress(Space),,,,instrumental,---- --------- ---------- - --- ------- -- --- ------------<br>----- -- -------- ------- ---- ------ - -------- ---- -----<br>--- ------- ---- -- --- prepared --- - ----- ------ ---- --<br>-------- --- -------- -------- --- -------- ---- -- ----- -<br>-------- ---- --- ---------- --------- -- ------- ------ -<br>--------- ----- -----,191706,191705.19999998808,190954.454,190954.30000001192,190971.124,191721.296,,24,prepared
screen,html.Screen,0_4_1_0_1_25,2021-12-10T12:46:58.761Z,,,,,,,,,,,,,,,,15,,,,,,,,,,,,,,519.8039999642351,,response,,,7,C,,,,,Space,keypress(Space),,,,instrumental,---- --------- ---------- - --- ------- -- --- ------------<br>----- -- -------- ------- ---- ------ - -------- ---- -----<br>--- ------- ---- -- --- -------- for - ----- ------ ---- --<br>-------- --- -------- -------- --- -------- ---- -- ----- -<br>-------- ---- --- ---------- --------- -- ------- ------ -<br>--------- ----- -----,192241.89999997616,192241.09999996424,191704.626,191706.19999998808,191721.296,192254.788,,25,for
screen,html.Screen,0_4_1_0_1_26,2021-12-10T12:46:59.393Z,,,,,,,,,,,,,,,,15,,,,,,,,,,,,,,618.3119999642367,,response,,,7,C,,,,,Space,keypress(Space),,,,instrumental,---- --------- ---------- - --- ------- -- --- ------------<br>----- -- -------- ------- ---- ------ - -------- ---- -----<br>--- ------- ---- -- --- -------- --- a ----- ------ ---- --<br>-------- --- -------- -------- --- -------- ---- -- ----- -<br>-------- ---- --- ---------- --------- -- ------- ------ -<br>--------- ----- -----,192873.89999997616,192873.09999996424,192238.118,192242.19999998808,192254.788,192888.129,,26,a
screen,html.Screen,0_4_1_0_1_27,2021-12-10T12:46:59.969Z,,,,,,,,,,,,,,,,15,,,,,,,,,,,,,,561.2709999761719,,response,,,7,C,,,,,Space,keypress(Space),,,,instrumental,---- --------- ---------- - --- ------- -- --- ------------<br>----- -- -------- ------- ---- ------ - -------- ---- -----<br>--- ------- ---- -- --- -------- --- - third ------ ---- --<br>-------- --- -------- -------- --- -------- ---- -- ----- -<br>-------- ---- --- ---------- --------- -- ------- ------ -<br>--------- ----- -----,193450.30000001192,193449.39999997616,192871.46,192874.19999998808,192888.129,193455.172,,27,third
screen,html.Screen,0_4_1_0_1_28,2021-12-10T12:47:00.601Z,,,,,,,,,,,,,,,,15,,,,,,,,,,,,,,625.8280000000086,,response,,,7,C,,,,,Space,keypress(Space),,,,instrumental,---- --------- ---------- - --- ------- -- --- ------------<br>----- -- -------- ------- ---- ------ - -------- ---- -----<br>--- ------- ---- -- --- -------- --- - ----- prison ---- --<br>-------- --- -------- -------- --- -------- ---- -- ----- -<br>-------- ---- --- ---------- --------- -- ------- ------ -<br>--------- ----- -----,194081.80000001192,194081,193438.5,193450.59999996424,193455.172,194088.529,,28,prison
screen,html.Screen,0_4_1_0_1_29,2021-12-10T12:47:01.273Z,,,,,,,,,,,,,,,,15,,,,,,,,,,,,,,664.3709999761486,,response,,,7,C,,,,,Space,keypress(Space),,,,instrumental,---- --------- ---------- - --- ------- -- --- ------------<br>----- -- -------- ------- ---- ------ - -------- ---- -----<br>--- ------- ---- -- --- -------- --- - ----- ------ stay --<br>-------- --- -------- -------- --- -------- ---- -- ----- -<br>-------- ---- --- ---------- --------- -- ------- ------ -<br>--------- ----- -----,194753.80000001192,194752.89999997616,194071.859,194082.09999996424,194088.529,194755.228,,29,stay
screen,html.Screen,0_4_1_0_1_30,2021-12-10T12:47:01.801Z,,,,,,,,,,,,,,,,15,,,,,,,,,,,,,,525.6719999761553,,response,,,7,C,,,,,Space,keypress(Space),,,,instrumental,---- --------- ---------- - --- ------- -- --- ------------<br>----- -- -------- ------- ---- ------ - -------- ---- -----<br>--- ------- ---- -- --- -------- --- - ----- ------ ---- to<br>-------- --- -------- -------- --- -------- ---- -- ----- -<br>-------- ---- --- ---------- --------- -- ------- ------ -<br>--------- ----- -----,195281.80000001192,195280.89999997616,194738.559,194754,194755.228,195288.901,,30,to
screen,html.Screen,0_4_1_0_1_31,2021-12-10T12:47:02.553Z,,,,,,,,,,,,,,,,15,,,,,,,,,,,,,,743.8990000119084,,response,,,7,C,,,,,Space,keypress(Space),,,,instrumental,---- --------- ---------- - --- ------- -- --- ------------<br>----- -- -------- ------- ---- ------ - -------- ---- -----<br>--- ------- ---- -- --- -------- --- - ----- ------ ---- --<br>maintain --- -------- -------- --- -------- ---- -- ----- -<br>-------- ---- --- ---------- --------- -- ------- ------ -<br>--------- ----- -----,196033.59999996424,196032.80000001192,195272.23,195282,195288.901,196038.875,,31,maintain
screen,html.Screen,0_4_1_0_1_32,2021-12-10T12:47:03.113Z,,,,,,,,,,,,,,,,15,,,,,,,,,,,,,,553.9250000119209,,response,,,7,C,,,,,Space,keypress(Space),,,,instrumental,---- --------- ---------- - --- ------- -- --- ------------<br>----- -- -------- ------- ---- ------ - -------- ---- -----<br>--- ------- ---- -- --- -------- --- - ----- ------ ---- --<br>-------- his -------- -------- --- -------- ---- -- ----- -<br>-------- ---- --- ---------- --------- -- ------- ------ -<br>--------- ----- -----,196593.59999996424,196592.80000001192,196022.206,196033.89999997616,196038.875,196605.906,,32,his
screen,html.Screen,0_4_1_0_1_33,2021-12-10T12:47:04.057Z,,,,,,,,,,,,,,,,15,,,,,,,,,,,,,,930.793999988091,,response,,,7,C,,,,,Space,keypress(Space),,,,instrumental,---- --------- ---------- - --- ------- -- --- ------------<br>----- -- -------- ------- ---- ------ - -------- ---- -----<br>--- ------- ---- -- --- -------- --- - ----- ------ ---- --<br>-------- --- silence. -------- --- -------- ---- -- ----- -<br>-------- ---- --- ---------- --------- -- ------- ------ -<br>--------- ----- -----,197537.59999996424,197536.69999998808,196589.235,196593.89999997616,196605.906,197539.365,,33,silence.
screen,html.Screen,0_4_1_0_1_34,2021-12-10T12:47:04.745Z,,,,,,,,,,,,,,,,15,,,,,,,,,,,,,,685.3349999880884,,response,,,7,C,,,,,Space,keypress(Space),,,,instrumental,---- --------- ---------- - --- ------- -- --- ------------<br>----- -- -------- ------- ---- ------ - -------- ---- -----<br>--- ------- ---- -- --- -------- --- - ----- ------ ---- --<br>-------- --- -------- Anderson --- -------- ---- -- ----- -<br>-------- ---- --- ---------- --------- -- ------- ------ -<br>--------- ----- -----,198225.59999996424,198224.69999998808,197522.695,197537.80000001192,197539.365,198239.571,,34,Anderson
screen,html.Screen,0_4_1_0_1_35,2021-12-10T12:47:05.417Z,,,,,,,,,,,,,,,,15,,,,,,,,,,,,,,657.1289999880828,,response,,,7,C,,,,,Space,keypress(Space),,,,instrumental,---- --------- ---------- - --- ------- -- --- ------------<br>----- -- -------- ------- ---- ------ - -------- ---- -----<br>--- ------- ---- -- --- -------- --- - ----- ------ ---- --<br>-------- --- -------- -------- was -------- ---- -- ----- -<br>-------- ---- --- ---------- --------- -- ------- ------ -<br>--------- ----- -----,198897.5,198896.69999998808,198222.901,198225.80000001192,198239.571,198906.384,,35,was
screen,html.Screen,0_4_1_0_1_36,2021-12-10T12:47:06.208Z,,,,,,,,,,,,,,,,15,,,,,,,,,,,,,,782.1160000000091,,response,,,7,C,,,,,Space,keypress(Space),,,,instrumental,---- --------- ---------- - --- ------- -- --- ------------<br>----- -- -------- ------- ---- ------ - -------- ---- -----<br>--- ------- ---- -- --- -------- --- - ----- ------ ---- --<br>-------- --- -------- -------- --- released ---- -- ----- -<br>-------- ---- --- ---------- --------- -- ------- ------ -<br>--------- ----- -----,199689.30000001192,199688.5,198889.714,198897.80000001192,198906.384,199706.549,,36,released
screen,html.Screen,0_4_1_0_1_37,2021-12-10T12:47:06.928Z,,,,,,,,,,,,,,,,15,,,,,,,,,,,,,,701.8509999761591,,response,,,7,C,,,,,Space,keypress(Space),,,,instrumental,---- --------- ---------- - --- ------- -- --- ------------<br>----- -- -------- ------- ---- ------ - -------- ---- -----<br>--- ------- ---- -- --- -------- --- - ----- ------ ---- --<br>-------- --- -------- -------- --- -------- July -- ----- -<br>-------- ---- --- ---------- --------- -- ------- ------ -<br>--------- ----- -----,200409.19999998808,200408.39999997616,199689.879,199689.59999996424,199706.549,200423.397,,37,July
screen,html.Screen,0_4_1_0_1_38,2021-12-10T12:47:07.936Z,,,,,,,,,,,,,,,,15,,,,,,,,,,,,,,993.1030000000028,,response,,,7,C,,,,,Space,keypress(Space),,,,instrumental,---- --------- ---------- - --- ------- -- --- ------------<br>----- -- -------- ------- ---- ------ - -------- ---- -----<br>--- ------- ---- -- --- -------- --- - ----- ------ ---- --<br>-------- --- -------- -------- --- -------- ---- 20 ----- -<br>-------- ---- --- ---------- --------- -- ------- ------ -<br>--------- ----- -----,201417.30000001192,201416.5,200406.727,200409.5,200423.397,201423.648,,38,20
screen,html.Screen,0_4_1_0_1_39,2021-12-10T12:47:08.768Z,,,,,,,,,,,,,,,,15,,,,,,,,,,,,,,824.6520000119344,,response,,,7,C,,,,,Space,keypress(Space),,,,instrumental,---- --------- ---------- - --- ------- -- --- ------------<br>----- -- -------- ------- ---- ------ - -------- ---- -----<br>--- ------- ---- -- --- -------- --- - ----- ------ ---- --<br>-------- --- -------- -------- --- -------- ---- -- after -<br>-------- ---- --- ---------- --------- -- ------- ------ -<br>--------- ----- -----,202249.19999998808,202248.30000001192,201406.978,201417.5,201423.648,202257.166,,39,after
screen,html.Screen,0_4_1_0_1_40,2021-12-10T12:47:09.528Z,,,,,,,,,,,,,,,,15,,,,,,,,,,,,,,751.0339999880816,,response,,,7,C,,,,,Space,keypress(Space),,,,instrumental,---- --------- ---------- - --- ------- -- --- ------------<br>----- -- -------- ------- ---- ------ - -------- ---- -----<br>--- ------- ---- -- --- -------- --- - ----- ------ ---- --<br>-------- --- -------- -------- --- -------- ---- -- ----- a<br>-------- ---- --- ---------- --------- -- ------- ------ -<br>--------- ----- -----,203009.09999996424,203008.19999998808,202240.496,202249.39999997616,202257.166,203024.014,,40,a
screen,html.Screen,0_4_1_0_1_41,2021-12-10T12:47:10.265Z,,,,,,,,,,,,,,,,15,,,,,,,,,,,,,,720.7860000119254,,response,,,7,C,,,,,Space,keypress(Space),,,,instrumental,---- --------- ---------- - --- ------- -- --- ------------<br>----- -- -------- ------- ---- ------ - -------- ---- -----<br>--- ------- ---- -- --- -------- --- - ----- ------ ---- --<br>-------- --- -------- -------- --- -------- ---- -- ----- -<br>two-week ---- --- ---------- --------- -- ------- ------ -<br>--------- ----- -----,203745.69999998808,203744.80000001192,203007.344,203009.39999997616,203024.014,203757.538,,41,two-week
screen,html.Screen,0_4_1_0_1_42,2021-12-10T12:47:10.920Z,,,,,,,,,,,,,,,,15,,,,,,,,,,,,,,642.7620000119205,,response,,,7,C,,,,,Space,keypress(Space),,,,instrumental,---- --------- ---------- - --- ------- -- --- ------------<br>----- -- -------- ------- ---- ------ - -------- ---- -----<br>--- ------- ---- -- --- -------- --- - ----- ------ ---- --<br>-------- --- -------- -------- --- -------- ---- -- ----- -<br>-------- stay --- ---------- --------- -- ------- ------ -<br>--------- ----- -----,204401.09999996424,204400.30000001192,203740.868,203745.89999997616,203757.538,204407.713,,42,stay
screen,html.Screen,0_4_1_0_1_43,2021-12-10T12:47:11.584Z,,,,,,,,,,,,,,,,15,,,,,,,,,,,,,,656.4869999880902,,response,,,7,C,,,,,Space,keypress(Space),,,,instrumental,---- --------- ---------- - --- ------- -- --- ------------<br>----- -- -------- ------- ---- ------ - -------- ---- -----<br>--- ------- ---- -- --- -------- --- - ----- ------ ---- --<br>-------- --- -------- -------- --- -------- ---- -- ----- -<br>-------- ---- for ---------- --------- -- ------- ------ -<br>--------- ----- -----,205065.09999996424,205064.19999998808,204391.043,204401.30000001192,204407.713,205074.516,,43,for
screen,html.Screen,0_4_1_0_1_44,2021-12-10T12:47:12.272Z,,,,,,,,,,,,,,,,15,,,,,,,,,,,,,,677.6839999880758,,response,,,7,C,,,,,Space,keypress(Space),,,,instrumental,---- --------- ---------- - --- ------- -- --- ------------<br>----- -- -------- ------- ---- ------ - -------- ---- -----<br>--- ------- ---- -- --- -------- --- - ----- ------ ---- --<br>-------- --- -------- -------- --- -------- ---- -- ----- -<br>-------- ---- --- previously --------- -- ------- ------ -<br>--------- ----- -----,205753.09999996424,205752.19999998808,205057.846,205065.30000001192,205074.516,205757.905,,44,previously
screen,html.Screen,0_4_1_0_1_45,2021-12-10T12:47:12.960Z,,,,,,,,,,,,,,,,15,,,,,,,,,,,,,,682.1949999642384,,response,,,7,C,,,,,Space,keypress(Space),,,,instrumental,---- --------- ---------- - --- ------- -- --- ------------<br>----- -- -------- ------- ---- ------ - -------- ---- -----<br>--- ------- ---- -- --- -------- --- - ----- ------ ---- --<br>-------- --- -------- -------- --- -------- ---- -- ----- -<br>-------- ---- --- ---------- declining -- ------- ------ -<br>--------- ----- -----,206441,206440.09999996424,205741.236,205753.30000001192,205757.905,206458.157,,45,declining
screen,html.Screen,0_4_1_0_1_46,2021-12-10T12:47:13.584Z,,,,,,,,,,,,,,,,15,,,,,,,,,,,,,,605.9429999642307,,response,,,7,C,,,,,Space,keypress(Space),,,,instrumental,---- --------- ---------- - --- ------- -- --- ------------<br>----- -- -------- ------- ---- ------ - -------- ---- -----<br>--- ------- ---- -- --- -------- --- - ----- ------ ---- --<br>-------- --- -------- -------- --- -------- ---- -- ----- -<br>-------- ---- --- ---------- --------- to ------- ------ -<br>--------- ----- -----,207064.89999997616,207064.09999996424,206441.487,206441.19999998808,206458.157,207075.1,,46,to
screen,html.Screen,0_4_1_0_1_47,2021-12-10T12:47:14.240Z,,,,,,,,,,,,,,,,15,,,,,,,,,,,,,,644.8999999999942,,response,,,7,C,,,,,Space,keypress(Space),,,,instrumental,---- --------- ---------- - --- ------- -- --- ------------<br>----- -- -------- ------- ---- ------ - -------- ---- -----<br>--- ------- ---- -- --- -------- --- - ----- ------ ---- --<br>-------- --- -------- -------- --- -------- ---- -- ----- -<br>-------- ---- --- ---------- --------- -- testify ------ -<br>--------- ----- -----,207720.80000001192,207720,207058.429,207065.09999996424,207075.1,207725.061,,47,testify
screen,html.Screen,0_4_1_0_1_48,2021-12-10T12:47:14.832Z,,,,,,,,,,,,,,,,15,,,,,,,,,,,,,,586.939000000013,,response,,,7,C,,,,,Space,keypress(Space),,,,instrumental,---- --------- ---------- - --- ------- -- --- ------------<br>----- -- -------- ------- ---- ------ - -------- ---- -----<br>--- ------- ---- -- --- -------- --- - ----- ------ ---- --<br>-------- --- -------- -------- --- -------- ---- -- ----- -<br>-------- ---- --- ---------- --------- -- ------- before -<br>--------- ----- -----,208312.80000001192,208312,207708.392,207721.09999996424,207725.061,208325.47,,48,before
screen,html.Screen,0_4_1_0_1_49,2021-12-10T12:47:15.480Z,,,,,,,,,,,,,,,,15,,,,,,,,,,,,,,634.429999976157,,response,,,7,C,,,,,Space,keypress(Space),,,,instrumental,---- --------- ---------- - --- ------- -- --- ------------<br>----- -- -------- ------- ---- ------ - -------- ---- -----<br>--- ------- ---- -- --- -------- --- - ----- ------ ---- --<br>-------- --- -------- -------- --- -------- ---- -- ----- -<br>-------- ---- --- ---------- --------- -- ------- ------ a<br>--------- ----- -----,208960.80000001192,208959.89999997616,208308.798,208313.09999996424,208325.47,208975.369,,49,a
screen,html.Screen,0_4_1_0_1_50,2021-12-10T12:47:16.112Z,,,,,,,,,,,,,,,,15,,,,,,,,,,,,,,616.5309999761521,,response,,,7,C,,,,,Space,keypress(Space),,,,instrumental,---- --------- ---------- - --- ------- -- --- ------------<br>----- -- -------- ------- ---- ------ - -------- ---- -----<br>--- ------- ---- -- --- -------- --- - ----- ------ ---- --<br>-------- --- -------- -------- --- -------- ---- -- ----- -<br>-------- ---- --- ---------- --------- -- ------- ------ -<br>different ----- -----,209592.80000001192,209591.89999997616,208958.7,208961,208975.369,209609.062,,50,different
screen,html.Screen,0_4_1_0_1_51,2021-12-10T12:47:16.704Z,,,,,,,,,,,,,,,,15,,,,,,,,,,,,,,574.7380000119156,,response,,,7,C,,,,,Space,keypress(Space),,,,instrumental,---- --------- ---------- - --- ------- -- --- ------------<br>----- -- -------- ------- ---- ------ - -------- ---- -----<br>--- ------- ---- -- --- -------- --- - ----- ------ ---- --<br>-------- --- -------- -------- --- -------- ---- -- ----- -<br>-------- ---- --- ---------- --------- -- ------- ------ -<br>--------- grand -----,210184.69999998808,210183.80000001192,209592.391,209593,209609.062,210192.463,,51,grand
