sender,sender_type,sender_id,timestamp,meta,,Blues,Classical,Country,Dance,Electronic,Folk,Gospel,Hip-Hop,Jazz,Latin,Musical/Film,New-age,Pop,Provo_ID,R&B,Rap,Reggae,Religious,Rock,Soul,Swing,Traditional,age,artist_name,correct,correctResponse,distraction,duration,education,ended_on,familiarity,gender,item,list,music_frequency,offensiveness,pleasantness,preference,response,response_action,snippet_file,song_name,song_rating,sound,text,time_commit,time_end,time_render,time_run,time_show,time_switch,url,word,word_ID
Instructions,html.Page,0_0,2021-11-12T09:57:31.539Z,"{""labjs_version"":""20.2.3"",""labjs_build"":{""flavor"":""production"",""commit"":""7ea907d66ca8aeef8054924ca5d82ffbe11e34e5""},""location"":""https://run.pavlovia.org/mvasilev/lab_music_f/"",""userAgent"":""Mozilla/5.0 (Windows NT 6.1; Win64; x64) AppleWebKit/537.36 (KHTML, like Gecko) Chrome/95.0.4638.69 Safari/537.36"",""platform"":""Win32"",""language"":""en-US"",""locale"":""en-US"",""timeZone"":""Europe/London"",""timezoneOffset"":0,""screen_width"":1920,""screen_height"":1080,""scroll_width"":1920,""scroll_height"":959,""window_innerWidth"":1920,""window_innerHeight"":1007,""devicePixelRatio"":1}",,,,,,,,,,,,,,,,,,,,,,,,,,,,,16557.703999999998,,form submission,,,,,,,,,,,,,,,,26604.799999952316,26603.5,10012.532,10030.799999952316,10045.796,26599.622,{},,
Headphones,html.Page,0_1,2021-11-12T09:57:33.141Z,,,,,,,,,,,,,,,,,,,,,,,,,,,,,,1606.677999952317,,form submission,,,,,,,,,,,,,,,,28206.699999928474,28206.299999952316,26583,26605.600000023842,26599.622,28220.604,,,
Holding screen,html.Screen,0_2_0_0,2021-11-12T09:57:43.146Z,,,,,,,,,,,,,,,,,,,,,,,,,,,,,,10002.324,,timeout,,,,,,,,,,,,,,,,38212.299999952316,38206.259,28203.932,28207.299999952316,28220.604,38222.928,,,
screen,html.Screen,0_2_0_1_0,2021-11-12T09:57:44.060Z,,,,,,,,,,,,,,,,53,,,,,,,,,,,,,,901.5720000000001,,response,,,99,,,,,,Space,keypress(Space),,,,,When -- ----- -- ------ - ------- --- ----------<br>------------- ------ ------ ---- ---- ------- ----- -- ----<br>-------- ------- -- ---------- --- - --- ----- ----- ----<br>---- --- --- ----- --- ---- ---- ------- ----- ---- -------<br>--- --- -- ----- -- --- ---- -- --- ---- -- ------ ------<br>--- ----- -- ----,39126,39124.5,38206.259,38212.699999928474,38222.928,39140.25,,0,When
screen,html.Screen,0_2_0_1_1,2021-11-12T09:57:44.419Z,,,,,,,,,,,,,,,,53,,,,,,,,,,,,,,344.35000002384186,,response,,,99,,,,,,Space,keypress(Space),,,,,---- it ----- -- ------ - ------- --- ----------<br>------------- ------ ------ ---- ---- ------- ----- -- ----<br>-------- ------- -- ---------- --- - --- ----- ----- ----<br>---- --- --- ----- --- ---- ---- ------- ----- ---- -------<br>--- --- -- ----- -- --- ---- -- --- ---- -- ------ ------<br>--- ----- -- ----,39485.5,39484.60000002384,39123.578,39126.299999952316,39140.25,39490.189,,1,it
screen,html.Screen,0_2_0_1_2,2021-11-12T09:57:44.795Z,,,,,,,,,,,,,,,,53,,,,,,,,,,,,,,370.41100002384337,,response,,,99,,,,,,Space,keypress(Space),,,,,---- -- comes -- ------ - ------- --- ----------<br>------------- ------ ------ ---- ---- ------- ----- -- ----<br>-------- ------- -- ---------- --- - --- ----- ----- ----<br>---- --- --- ----- --- ---- ---- ------- ----- ---- -------<br>--- --- -- ----- -- --- ---- -- --- ---- -- ------ ------<br>--- ----- -- ----,39861.39999997616,39860.60000002384,39473.519,39485.699999928474,39490.189,39873.688,,2,comes
screen,html.Screen,0_2_0_1_3,2021-11-12T09:57:45.171Z,,,,,,,,,,,,,,,,53,,,,,,,,,,,,,,362.91200002383994,,response,,,99,,,,,,Space,keypress(Space),,,,,---- -- ----- to ------ - ------- --- ----------<br>------------- ------ ------ ---- ---- ------- ----- -- ----<br>-------- ------- -- ---------- --- - --- ----- ----- ----<br>---- --- --- ----- --- ---- ---- ------- ----- ---- -------<br>--- --- -- ----- -- --- ---- -- --- ---- -- ------ ------<br>--- ----- -- ----,40237.5,40236.60000002384,39857.017,39861.699999928474,39873.688,40240.411,,3,to
screen,html.Screen,0_2_0_1_4,2021-11-12T09:57:45.523Z,,,,,,,,,,,,,,,,53,,,,,,,,,,,,,,348.08899999999994,,response,,,99,,,,,,Space,keypress(Space),,,,,---- -- ----- -- having - ------- --- ----------<br>------------- ------ ------ ---- ---- ------- ----- -- ----<br>-------- ------- -- ---------- --- - --- ----- ----- ----<br>---- --- --- ----- --- ---- ---- ------- ----- ---- -------<br>--- --- -- ----- -- --- ---- -- --- ---- -- ------ ------<br>--- ----- -- ----,40589.60000002384,40588.5,40223.741,40237.89999997616,40240.411,40590.55,,4,having
screen,html.Screen,0_2_0_1_5,2021-11-12T09:57:45.915Z,,,,,,,,,,,,,,,,53,,,,,,,,,,,,,,389.9499999999971,,response,,,99,,,,,,Space,keypress(Space),,,,,---- -- ----- -- ------ a ------- --- ----------<br>------------- ------ ------ ---- ---- ------- ----- -- ----<br>-------- ------- -- ---------- --- - --- ----- ----- ----<br>---- --- --- ----- --- ---- ---- ------- ----- ---- -------<br>--- --- -- ----- -- --- ---- -- --- ---- -- ------ ------<br>--- ----- -- ----,40981.299999952316,40980.5,40573.879,40589.89999997616,40590.55,40990.62,,5,a
screen,html.Screen,0_2_0_1_6,2021-11-12T09:57:46.299Z,,,,,,,,,,,,,,,,53,,,,,,,,,,,,,,373.8799999999974,,response,,,99,,,,,,Space,keypress(Space),,,,,---- -- ----- -- ------ - lasting --- ----------<br>------------- ------ ------ ---- ---- ------- ----- -- ----<br>-------- ------- -- ---------- --- - --- ----- ----- ----<br>---- --- --- ----- --- ---- ---- ------- ----- ---- -------<br>--- --- -- ----- -- --- ---- -- --- ---- -- ------ ------<br>--- ----- -- ----,41365.39999997616,41364.5,40973.95,40981.89999997616,40990.62,41374.087,,6,lasting
screen,html.Screen,0_2_0_1_7,2021-11-12T09:57:46.683Z,,,,,,,,,,,,,,,,53,,,,,,,,,,,,,,374.3129999761586,,response,,,99,,,,,,Space,keypress(Space),,,,,---- -- ----- -- ------ - ------- and ----------<br>------------- ------ ------ ---- ---- ------- ----- -- ----<br>-------- ------- -- ---------- --- - --- ----- ----- ----<br>---- --- --- ----- --- ---- ---- ------- ----- ---- -------<br>--- --- -- ----- -- --- ---- -- --- ---- -- ------ ------<br>--- ----- -- ----,41749.39999997616,41748.39999997616,41357.416,41365.799999952316,41374.087,41757.522,,7,and
screen,html.Screen,0_2_0_1_8,2021-11-12T09:57:47.139Z,,,,,,,,,,,,,,,,53,,,,,,,,,,,,,,446.87799997616094,,response,,,99,,,,,,Space,keypress(Space),,,,,---- -- ----- -- ------ - ------- --- fulfilling<br>------------- ------ ------ ---- ---- ------- ----- -- ----<br>-------- ------- -- ---------- --- - --- ----- ----- ----<br>---- --- --- ----- --- ---- ---- ------- ----- ---- -------<br>--- --- -- ----- -- --- ---- -- --- ---- -- ------ ------<br>--- ----- -- ----,42205.5,42204.39999997616,41740.851,41749.699999928474,41757.522,42207.643,,8,fulfilling
screen,html.Screen,0_2_0_1_9,2021-11-12T09:57:47.459Z,,,,,,,,,,,,,,,,53,,,,,,,,,,,,,,316.75699997616175,,response,,,99,,,,,,Space,keypress(Space),,,,,"---- -- ----- -- ------ - ------- --- ----------<br>relationship, ------ ------ ---- ---- ------- ----- -- ----<br>-------- ------- -- ---------- --- - --- ----- ----- ----<br>---- --- --- ----- --- ---- ---- ------- ----- ---- -------<br>--- --- -- ----- -- --- ---- -- --- ---- -- ------ ------<br>--- ----- -- ----",42525.299999952316,42524.39999997616,42190.972,42205.799999952316,42207.643,42541.033,,9,"relationship,"
screen,html.Screen,0_2_0_1_10,2021-11-12T09:57:47.843Z,,,,,,,,,,,,,,,,53,,,,,,,,,,,,,,367.2669999523132,,response,,,99,,,,,,Space,keypress(Space),,,,,---- -- ----- -- ------ - ------- --- ----------<br>------------- common ------ ---- ---- ------- ----- -- ----<br>-------- ------- -- ---------- --- - --- ----- ----- ----<br>---- --- --- ----- --- ---- ---- ------- ----- ---- -------<br>--- --- -- ----- -- --- ---- -- --- ---- -- ------ ------<br>--- ----- -- ----,42909.299999952316,42908.299999952316,42524.363,42525.60000002384,42541.033,42924.51,,10,common
screen,html.Screen,0_2_0_1_11,2021-11-12T09:57:48.283Z,,,,,,,,,,,,,,,,53,,,,,,,,,,,,,,423.78999995231425,,response,,,99,,,,,,Space,keypress(Space),,,,,---- -- ----- -- ------ - ------- --- ----------<br>------------- ------ wisdom ---- ---- ------- ----- -- ----<br>-------- ------- -- ---------- --- - --- ----- ----- ----<br>---- --- --- ----- --- ---- ---- ------- ----- ---- -------<br>--- --- -- ----- -- --- ---- -- --- ---- -- ------ ------<br>--- ----- -- ----,43349.199999928474,43348.299999952316,42907.839,42909.5,42924.51,43357.902,,11,wisdom
screen,html.Screen,0_2_0_1_12,2021-11-12T09:57:48.635Z,,,,,,,,,,,,,,,,53,,,,,,,,,,,,,,342.3979999523144,,response,,,99,,,,,,Space,keypress(Space),,,,,---- -- ----- -- ------ - ------- --- ----------<br>------------- ------ ------ says ---- ------- ----- -- ----<br>-------- ------- -- ---------- --- - --- ----- ----- ----<br>---- --- --- ----- --- ---- ---- ------- ----- ---- -------<br>--- --- -- ----- -- --- ---- -- --- ---- -- ------ ------<br>--- ----- -- ----,43701.199999928474,43700.299999952316,43341.232,43349.39999997616,43357.902,43708.044,,12,says
screen,html.Screen,0_2_0_1_13,2021-11-12T09:57:49.027Z,,,,,,,,,,,,,,,,53,,,,,,,,,,,,,,384.35599997615645,,response,,,99,,,,,,Space,keypress(Space),,,,,---- -- ----- -- ------ - ------- --- ----------<br>------------- ------ ------ ---- that ------- ----- -- ----<br>-------- ------- -- ---------- --- - --- ----- ----- ----<br>---- --- --- ----- --- ---- ---- ------- ----- ---- -------<br>--- --- -- ----- -- --- ---- -- --- ---- -- ------ ------<br>--- ----- -- ----,44093.199999928474,44092.39999997616,43691.373,43701.39999997616,43708.044,44108.157,,13,that
screen,html.Screen,0_2_0_1_14,2021-11-12T09:57:49.403Z,,,,,,,,,,,,,,,,53,,,,,,,,,,,,,,360.14299995231704,,response,,,99,,,,,,Space,keypress(Space),,,,,---- -- ----- -- ------ - ------- --- ----------<br>------------- ------ ------ ---- ---- feeling ----- -- ----<br>-------- ------- -- ---------- --- - --- ----- ----- ----<br>---- --- --- ----- --- ---- ---- ------- ----- ---- -------<br>--- --- -- ----- -- --- ---- -- --- ---- -- ------ ------<br>--- ----- -- ----,44469.10000002384,44468.299999952316,44091.486,44093.39999997616,44108.157,44474.922,,14,feeling
screen,html.Screen,0_2_0_1_15,2021-11-12T09:57:49.811Z,,,,,,,,,,,,,,,,53,,,,,,,,,,,,,,401.3779999523176,,response,,,99,,,,,,Space,keypress(Space),,,,,---- -- ----- -- ------ - ------- --- ----------<br>------------- ------ ------ ---- ---- ------- close -- ----<br>-------- ------- -- ---------- --- - --- ----- ----- ----<br>---- --- --- ----- --- ---- ---- ------- ----- ---- -------<br>--- --- -- ----- -- --- ---- -- --- ---- -- ------ ------<br>--- ----- -- ----,44877.10000002384,44876.299999952316,44458.251,44469.39999997616,44474.922,44891.662,,15,close
screen,html.Screen,0_2_0_1_16,2021-11-12T09:57:50.139Z,,,,,,,,,,,,,,,,53,,,,,,,,,,,,,,312.5379999284778,,response,,,99,,,,,,Space,keypress(Space),,,,,---- -- ----- -- ------ - ------- --- ----------<br>------------- ------ ------ ---- ---- ------- ----- to ----<br>-------- ------- -- ---------- --- - --- ----- ----- ----<br>---- --- --- ----- --- ---- ---- ------- ----- ---- -------<br>--- --- -- ----- -- --- ---- -- --- ---- -- ------ ------<br>--- ----- -- ----,45205.10000002384,45204.199999928474,44874.992,44877.39999997616,44891.662,45208.46,,16,to
screen,html.Screen,0_2_0_1_17,2021-11-12T09:57:50.507Z,,,,,,,,,,,,,,,,53,,,,,,,,,,,,,,363.7399999284753,,response,,,99,,,,,,Space,keypress(Space),,,,,---- -- ----- -- ------ - ------- --- ----------<br>------------- ------ ------ ---- ---- ------- ----- -- your<br>-------- ------- -- ---------- --- - --- ----- ----- ----<br>---- --- --- ----- --- ---- ---- ------- ----- ---- -------<br>--- --- -- ----- -- --- ---- -- --- ---- -- ------ ------<br>--- ----- -- ----,45573,45572.199999928474,45191.789,45205.39999997616,45208.46,45575.218,,17,your
screen,html.Screen,0_2_0_1_18,2021-11-12T09:57:50.835Z,,,,,,,,,,,,,,,,53,,,,,,,,,,,,,,324.98199992847367,,response,,,99,,,,,,Space,keypress(Space),,,,,---- -- ----- -- ------ - ------- --- ----------<br>------------- ------ ------ ---- ---- ------- ----- -- ----<br>romantic ------- -- ---------- --- - --- ----- ----- ----<br>---- --- --- ----- --- ---- ---- ------- ----- ---- -------<br>--- --- -- ----- -- --- ---- -- --- ---- -- ------ ------<br>--- ----- -- ----,45901,45900.199999928474,45558.547,45573.299999952316,45575.218,45908.6,,18,romantic
screen,html.Screen,0_2_0_1_19,2021-11-12T09:57:51.203Z,,,,,,,,,,,,,,,,53,,,,,,,,,,,,,,359.5999999284759,,response,,,99,,,,,,Space,keypress(Space),,,,,---- -- ----- -- ------ - ------- --- ----------<br>------------- ------ ------ ---- ---- ------- ----- -- ----<br>-------- partner -- ---------- --- - --- ----- ----- ----<br>---- --- --- ----- --- ---- ---- ------- ----- ---- -------<br>--- --- -- ----- -- --- ---- -- --- ---- -- ------ ------<br>--- ----- -- ----,46269,46268.199999928474,45891.93,45901.299999952316,45908.6,46275.283,,19,partner
screen,html.Screen,0_2_0_1_20,2021-11-12T09:57:51.587Z,,,,,,,,,,,,,,,,53,,,,,,,,,,,,,,376.91699992847134,,response,,,99,,,,,,Space,keypress(Space),,,,,---- -- ----- -- ------ - ------- --- ----------<br>------------- ------ ------ ---- ---- ------- ----- -- ----<br>-------- ------- is ---------- --- - --- ----- ----- ----<br>---- --- --- ----- --- ---- ---- ------- ----- ---- -------<br>--- --- -- ----- -- --- ---- -- --- ---- -- ------ ------<br>--- ----- -- ----,46653,46652.199999928474,46258.614,46269.299999952316,46275.283,46658.886,,20,is
screen,html.Screen,0_2_0_1_21,2021-11-12T09:57:51.947Z,,,,,,,,,,,,,,,,53,,,,,,,,,,,,,,353.71400002384325,,response,,,99,,,,,,Space,keypress(Space),,,,,---- -- ----- -- ------ - ------- --- ----------<br>------------- ------ ------ ---- ---- ------- ----- -- ----<br>-------- ------- -- paramount. --- - --- ----- ----- ----<br>---- --- --- ----- --- ---- ---- ------- ----- ---- -------<br>--- --- -- ----- -- --- ---- -- --- ---- -- ------ ------<br>--- ----- -- ----,47013.39999997616,47012.60000002384,46642.214,46653.299999952316,46658.886,47025.611,,21,paramount.
screen,html.Screen,0_2_0_1_22,2021-11-12T09:57:52.307Z,,,,,,,,,,,,,,,,53,,,,,,,,,,,,,,346.4890000238447,,response,,,99,,,,,,Space,keypress(Space),,,,,---- -- ----- -- ------ - ------- --- ----------<br>------------- ------ ------ ---- ---- ------- ----- -- ----<br>-------- ------- -- ---------- But - --- ----- ----- ----<br>---- --- --- ----- --- ---- ---- ------- ----- ---- -------<br>--- --- -- ----- -- --- ---- -- --- ---- -- ------ ------<br>--- ----- -- ----,47372.89999997616,47372.10000002384,47008.94,47013.89999997616,47025.611,47375.701,,22,But
screen,html.Screen,0_2_0_1_23,2021-11-12T09:57:52.691Z,,,,,,,,,,,,,,,,53,,,,,,,,,,,,,,380.3990000238409,,response,,,99,,,,,,Space,keypress(Space),,,,,---- -- ----- -- ------ - ------- --- ----------<br>------------- ------ ------ ---- ---- ------- ----- -- ----<br>-------- ------- -- ---------- --- a --- ----- ----- ----<br>---- --- --- ----- --- ---- ---- ------- ----- ---- -------<br>--- --- -- ----- -- --- ---- -- --- ---- -- ------ ------<br>--- ----- -- ----,47757,47756.10000002384,47359.03,47373.199999928474,47375.701,47759.149,,23,a
screen,html.Screen,0_2_0_1_24,2021-11-12T09:57:53.067Z,,,,,,,,,,,,,,,,53,,,,,,,,,,,,,,372.95100002384424,,response,,,99,,,,,,Space,keypress(Space),,,,,---- -- ----- -- ------ - ------- --- ----------<br>------------- ------ ------ ---- ---- ------- ----- -- ----<br>-------- ------- -- ---------- --- - new ----- ----- ----<br>---- --- --- ----- --- ---- ---- ------- ----- ---- -------<br>--- --- -- ----- -- --- ---- -- --- ---- -- ------ ------<br>--- ----- -- ----,48133,48132.10000002384,47742.478,47757.10000002384,47759.149,48142.576,,24,new
screen,html.Screen,0_2_0_1_25,2021-11-12T09:57:53.411Z,,,,,,,,,,,,,,,,53,,,,,,,,,,,,,,333.5240000238409,,response,,,99,,,,,,Space,keypress(Space),,,,,---- -- ----- -- ------ - ------- --- ----------<br>------------- ------ ------ ---- ---- ------- ----- -- ----<br>-------- ------- -- ---------- --- - --- study ----- ----<br>---- --- --- ----- --- ---- ---- ------- ----- ---- -------<br>--- --- -- ----- -- --- ---- -- --- ---- -- ------ ------<br>--- ----- -- ----,48476.89999997616,48476.10000002384,48125.905,48133.10000002384,48142.576,48492.641,,25,study
screen,html.Screen,0_2_0_1_26,2021-11-12T09:57:53.771Z,,,,,,,,,,,,,,,,53,,,,,,,,,,,,,,343.55899992847117,,response,,,99,,,,,,Space,keypress(Space),,,,,---- -- ----- -- ------ - ------- --- ----------<br>------------- ------ ------ ---- ---- ------- ----- -- ----<br>-------- ------- -- ---------- --- - --- ----- finds ----<br>---- --- --- ----- --- ---- ---- ------- ----- ---- -------<br>--- --- -- ----- -- --- ---- -- --- ---- -- ------ ------<br>--- ----- -- ----,48836.89999997616,48836.199999928474,48475.971,48477.199999928474,48492.641,48842.727,,26,finds
screen,html.Screen,0_2_0_1_27,2021-11-12T09:57:54.139Z,,,,,,,,,,,,,,,,53,,,,,,,,,,,,,,361.3730000238429,,response,,,99,,,,,,Space,keypress(Space),,,,,---- -- ----- -- ------ - ------- --- ----------<br>------------- ------ ------ ---- ---- ------- ----- -- ----<br>-------- ------- -- ---------- --- - --- ----- ----- that<br>---- --- --- ----- --- ---- ---- ------- ----- ---- -------<br>--- --- -- ----- -- --- ---- -- --- ---- -- ------ ------<br>--- ----- -- ----,49204.89999997616,49204.10000002384,48826.057,48837.199999928474,48842.727,49209.522,,27,that
screen,html.Screen,0_2_0_1_28,2021-11-12T09:57:54.483Z,,,,,,,,,,,,,,,,53,,,,,,,,,,,,,,338.4780000000028,,response,,,99,,,,,,Space,keypress(Space),,,,,---- -- ----- -- ------ - ------- --- ----------<br>------------- ------ ------ ---- ---- ------- ----- -- ----<br>-------- ------- -- ---------- --- - --- ----- ----- ----<br>it's --- --- ----- --- ---- ---- ------- ----- ---- -------<br>--- --- -- ----- -- --- ---- -- --- ---- -- ------ ------<br>--- ----- -- ----,49548.89999997616,49548,49192.851,49205.199999928474,49209.522,49559.619,,28,it's
screen,html.Screen,0_2_0_1_29,2021-11-12T09:57:54.867Z,,,,,,,,,,,,,,,,53,,,,,,,,,,,,,,372.4810000238431,,response,,,99,,,,,,Space,keypress(Space),,,,,---- -- ----- -- ------ - ------- --- ----------<br>------------- ------ ------ ---- ---- ------- ----- -- ----<br>-------- ------- -- ---------- --- - --- ----- ----- ----<br>---- not --- ----- --- ---- ---- ------- ----- ---- -------<br>--- --- -- ----- -- --- ---- -- --- ---- -- ------ ------<br>--- ----- -- ----,49932.89999997616,49932.10000002384,49542.948,49549.10000002384,49559.619,49943.024,,29,not
screen,html.Screen,0_2_0_1_30,2021-11-12T09:57:55.219Z,,,,,,,,,,,,,,,,53,,,,,,,,,,,,,,341.27599995231867,,response,,,99,,,,,,Space,keypress(Space),,,,,---- -- ----- -- ------ - ------- --- ----------<br>------------- ------ ------ ---- ---- ------- ----- -- ----<br>-------- ------- -- ---------- --- - --- ----- ----- ----<br>---- --- how ----- --- ---- ---- ------- ----- ---- -------<br>--- --- -- ----- -- --- ---- -- --- ---- -- ------ ------<br>--- ----- -- ----,50285,50284.299999952316,49926.354,49933.10000002384,49943.024,50293.147,,30,how
screen,html.Screen,0_2_0_1_31,2021-11-12T09:57:55.579Z,,,,,,,,,,,,,,,,53,,,,,,,,,,,,,,350.8530000000028,,response,,,99,,,,,,Space,keypress(Space),,,,,---- -- ----- -- ------ - ------- --- ----------<br>------------- ------ ------ ---- ---- ------- ----- -- ----<br>-------- ------- -- ---------- --- - --- ----- ----- ----<br>---- --- --- close --- ---- ---- ------- ----- ---- -------<br>--- --- -- ----- -- --- ---- -- --- ---- -- ------ ------<br>--- ----- -- ----,50644.89999997616,50644,50276.476,50285.299999952316,50293.147,50659.862,,31,close
screen,html.Screen,0_2_0_1_32,2021-11-12T09:57:55.909Z,,,,,,,,,,,,,,,,53,,,,,,,,,,,,,,312.23800002384087,,response,,,99,,,,,,Space,keypress(Space),,,,,---- -- ----- -- ------ - ------- --- ----------<br>------------- ------ ------ ---- ---- ------- ----- -- ----<br>-------- ------- -- ---------- --- - --- ----- ----- ----<br>---- --- --- ----- you ---- ---- ------- ----- ---- -------<br>--- --- -- ----- -- --- ---- -- --- ---- -- ------ ------<br>--- ----- -- ----,50975.10000002384,50972.10000002384,50643.192,50645.199999928474,50659.862,50976.698,,32,you
screen,html.Screen,0_2_0_1_33,2021-11-12T09:57:56.251Z,,,,,,,,,,,,,,,,53,,,,,,,,,,,,,,339.4020000238452,,response,,,99,,,,,,Space,keypress(Space),,,,,---- -- ----- -- ------ - ------- --- ----------<br>------------- ------ ------ ---- ---- ------- ----- -- ----<br>-------- ------- -- ---------- --- - --- ----- ----- ----<br>---- --- --- ----- --- feel ---- ------- ----- ---- -------<br>--- --- -- ----- -- --- ---- -- --- ---- -- ------ ------<br>--- ----- -- ----,51317,51316.10000002384,50960.027,50975.39999997616,50976.698,51326.598,,33,feel
screen,html.Screen,0_2_0_1_34,2021-11-12T09:57:56.611Z,,,,,,,,,,,,,,,,53,,,,,,,,,,,,,,349.40200000000186,,response,,,99,,,,,,Space,keypress(Space),,,,,---- -- ----- -- ------ - ------- --- ----------<br>------------- ------ ------ ---- ---- ------- ----- -- ----<br>-------- ------- -- ---------- --- - --- ----- ----- ----<br>---- --- --- ----- --- ---- that ------- ----- ---- -------<br>--- --- -- ----- -- --- ---- -- --- ---- -- ------ ------<br>--- ----- -- ----,51676.799999952316,51676,51309.93,51317.299999952316,51326.598,51693.613,,34,that
screen,html.Screen,0_2_0_1_35,2021-11-12T09:57:56.963Z,,,,,,,,,,,,,,,,53,,,,,,,,,,,,,,334.38700000000244,,response,,,99,,,,,,Space,keypress(Space),,,,,---- -- ----- -- ------ - ------- --- ----------<br>------------- ------ ------ ---- ---- ------- ----- -- ----<br>-------- ------- -- ---------- --- - --- ----- ----- ----<br>---- --- --- ----- --- ---- ---- matters ----- ---- -------<br>--- --- -- ----- -- --- ---- -- --- ---- -- ------ ------<br>--- ----- -- ----,52028.799999952316,52028,51676.94,51677,51693.613,52043.633,,35,matters
screen,html.Screen,0_2_0_1_36,2021-11-12T09:57:57.363Z,,,,,,,,,,,,,,,,53,,,,,,,,,,,,,,384.36699999999837,,response,,,99,,,,,,Space,keypress(Space),,,,,"---- -- ----- -- ------ - ------- --- ----------<br>------------- ------ ------ ---- ---- ------- ----- -- ----<br>-------- ------- -- ---------- --- - --- ----- ----- ----<br>---- --- --- ----- --- ---- ---- ------- most, ---- -------<br>--- --- -- ----- -- --- ---- -- --- ---- -- ------ ------<br>--- ----- -- ----",52428.799999952316,52428,52026.962,52029,52043.633,52443.7,,36,"most,"
screen,html.Screen,0_2_0_1_37,2021-11-12T09:57:57.715Z,,,,,,,,,,,,,,,,53,,,,,,,,,,,,,,336.3000000000029,,response,,,99,,,,,,Space,keypress(Space),,,,,---- -- ----- -- ------ - ------- --- ----------<br>------------- ------ ------ ---- ---- ------- ----- -- ----<br>-------- ------- -- ---------- --- - --- ----- ----- ----<br>---- --- --- ----- --- ---- ---- ------- ----- it's -------<br>--- --- -- ----- -- --- ---- -- --- ---- -- ------ ------<br>--- ----- -- ----,52780.799999952316,52780,52427.03,52429,52443.7,52793.794,,37,it's
screen,html.Screen,0_2_0_1_38,2021-11-12T09:57:58.091Z,,,,,,,,,,,,,,,,53,,,,,,,,,,,,,,362.10599997615645,,response,,,99,,,,,,Space,keypress(Space),,,,,---- -- ----- -- ------ - ------- --- ----------<br>------------- ------ ------ ---- ---- ------- ----- -- ----<br>-------- ------- -- ---------- --- - --- ----- ----- ----<br>---- --- --- ----- --- ---- ---- ------- ----- ---- whether<br>--- --- -- ----- -- --- ---- -- --- ---- -- ------ ------<br>--- ----- -- ----,53156.699999928474,53155.89999997616,52777.124,52781,52793.794,53160.588,,38,whether
screen,html.Screen,0_2_0_1_39,2021-11-12T09:57:58.411Z,,,,,,,,,,,,,,,,53,,,,,,,,,,,,,,315.31199997615477,,response,,,99,,,,,,Space,keypress(Space),,,,,---- -- ----- -- ------ - ------- --- ----------<br>------------- ------ ------ ---- ---- ------- ----- -- ----<br>-------- ------- -- ---------- --- - --- ----- ----- ----<br>---- --- --- ----- --- ---- ---- ------- ----- ---- -------<br>you --- -- ----- -- --- ---- -- --- ---- -- ------ ------<br>--- ----- -- ----,53476.799999952316,53475.89999997616,53143.917,53157,53160.588,53494.026,,39,you
screen,html.Screen,0_2_0_1_40,2021-11-12T09:57:58.770Z,,,,,,,,,,,,,,,,53,,,,,,,,,,,,,,341.8739999761601,,response,,,99,,,,,,Space,keypress(Space),,,,,---- -- ----- -- ------ - ------- --- ----------<br>------------- ------ ------ ---- ---- ------- ----- -- ----<br>-------- ------- -- ---------- --- - --- ----- ----- ----<br>---- --- --- ----- --- ---- ---- ------- ----- ---- -------<br>--- are -- ----- -- --- ---- -- --- ---- -- ------ ------<br>--- ----- -- ----,53836.60000002384,53835.89999997616,53477.355,53477,53494.026,53844.072,,40,are
screen,html.Screen,0_2_0_1_41,2021-11-12T09:57:59.147Z,,,,,,,,,,,,,,,,53,,,,,,,,,,,,,,367.827999976158,,response,,,99,,,,,,Space,keypress(Space),,,,,---- -- ----- -- ------ - ------- --- ----------<br>------------- ------ ------ ---- ---- ------- ----- -- ----<br>-------- ------- -- ---------- --- - --- ----- ----- ----<br>---- --- --- ----- --- ---- ---- ------- ----- ---- -------<br>--- --- as ----- -- --- ---- -- --- ---- -- ------ ------<br>--- ----- -- ----,54212.799999952316,54211.89999997616,53827.402,53837,53844.072,54227.362,,41,as
screen,html.Screen,0_2_0_1_42,2021-11-12T09:57:59.466Z,,,,,,,,,,,,,,,,53,,,,,,,,,,,,,,304.53799997615715,,response,,,99,,,,,,Space,keypress(Space),,,,,---- -- ----- -- ------ - ------- --- ----------<br>------------- ------ ------ ---- ---- ------- ----- -- ----<br>-------- ------- -- ---------- --- - --- ----- ----- ----<br>---- --- --- ----- --- ---- ---- ------- ----- ---- -------<br>--- --- -- close -- --- ---- -- --- ---- -- ------ ------<br>--- ----- -- ----,54532.699999928474,54531.89999997616,54210.694,54213,54227.362,54544.369,,42,close
screen,html.Screen,0_2_0_1_43,2021-11-12T09:57:59.826Z,,,,,,,,,,,,,,,,53,,,,,,,,,,,,,,347.53099997615936,,response,,,99,,,,,,Space,keypress(Space),,,,,---- -- ----- -- ------ - ------- --- ----------<br>------------- ------ ------ ---- ---- ------- ----- -- ----<br>-------- ------- -- ---------- --- - --- ----- ----- ----<br>---- --- --- ----- --- ---- ---- ------- ----- ---- -------<br>--- --- -- ----- as --- ---- -- --- ---- -- ------ ------<br>--- ----- -- ----,54892.60000002384,54891.89999997616,54527.696,54532.89999997616,54544.369,54894.353,,43,as
screen,html.Screen,0_2_0_1_44,2021-11-12T09:58:00.210Z,,,,,,,,,,,,,,,,53,,,,,,,,,,,,,,381.54699997615535,,response,,,99,,,,,,Space,keypress(Space),,,,,---- -- ----- -- ------ - ------- --- ----------<br>------------- ------ ------ ---- ---- ------- ----- -- ----<br>-------- ------- -- ---------- --- - --- ----- ----- ----<br>---- --- --- ----- --- ---- ---- ------- ----- ---- -------<br>--- --- -- ----- -- you ---- -- --- ---- -- ------ ------<br>--- ----- -- ----,55276.699999928474,55275.89999997616,54877.683,54892.89999997616,54894.353,55277.816,,44,you
screen,html.Screen,0_2_0_1_45,2021-11-12T09:58:00.546Z,,,,,,,,,,,,,,,,53,,,,,,,,,,,,,,334.08399997615925,,response,,,99,,,,,,Space,keypress(Space),,,,,---- -- ----- -- ------ - ------- --- ----------<br>------------- ------ ------ ---- ---- ------- ----- -- ----<br>-------- ------- -- ---------- --- - --- ----- ----- ----<br>---- --- --- ----- --- ---- ---- ------- ----- ---- -------<br>--- --- -- ----- -- --- want -- --- ---- -- ------ ------<br>--- ----- -- ----,55612.699999928474,55611.89999997616,55261.145,55276.89999997616,55277.816,55627.791,,45,want
screen,html.Screen,0_2_0_1_46,2021-11-12T09:58:00.882Z,,,,,,,,,,,,,,,,53,,,,,,,,,,,,,,320.00899995231885,,response,,,99,,,,,,Space,keypress(Space),,,,,---- -- ----- -- ------ - ------- --- ----------<br>------------- ------ ------ ---- ---- ------- ----- -- ----<br>-------- ------- -- ---------- --- - --- ----- ----- ----<br>---- --- --- ----- --- ---- ---- ------- ----- ---- -------<br>--- --- -- ----- -- --- ---- to --- ---- -- ------ ------<br>--- ----- -- ----,55948.699999928474,55947.799999952316,55611.122,55612.89999997616,55627.791,55961.432,,46,to
screen,html.Screen,0_2_0_1_47,2021-11-12T09:58:01.250Z,,,,,,,,,,,,,,,,53,,,,,,,,,,,,,,354.3679999523156,,response,,,99,,,,,,Space,keypress(Space),,,,,"---- -- ----- -- ------ - ------- --- ----------<br>------------- ------ ------ ---- ---- ------- ----- -- ----<br>-------- ------- -- ---------- --- - --- ----- ----- ----<br>---- --- --- ----- --- ---- ---- ------- ----- ---- -------<br>--- --- -- ----- -- --- ---- -- be, ---- -- ------ ------<br>--- ----- -- ----",56316.60000002384,56315.799999952316,55944.759,55948.89999997616,55961.432,56328.126,,47,"be,"
screen,html.Screen,0_2_0_1_48,2021-11-12T09:58:01.602Z,,,,,,,,,,,,,,,,53,,,,,,,,,,,,,,339.6739999523197,,response,,,99,,,,,,Space,keypress(Space),,,,,---- -- ----- -- ------ - ------- --- ----------<br>------------- ------ ------ ---- ---- ------- ----- -- ----<br>-------- ------- -- ---------- --- - --- ----- ----- ----<br>---- --- --- ----- --- ---- ---- ------- ----- ---- -------<br>--- --- -- ----- -- --- ---- -- --- even -- ------ ------<br>--- ----- -- ----,56668.60000002384,56667.799999952316,56311.455,56316.89999997616,56328.126,56678.16,,48,even
screen,html.Screen,0_2_0_1_49,2021-11-12T09:58:01.922Z,,,,,,,,,,,,,,,,53,,,,,,,,,,,,,,309.6399999523128,,response,,,99,,,,,,Space,keypress(Space),,,,,---- -- ----- -- ------ - ------- --- ----------<br>------------- ------ ------ ---- ---- ------- ----- -- ----<br>-------- ------- -- ---------- --- - --- ----- ----- ----<br>---- --- --- ----- --- ---- ---- ------- ----- ---- -------<br>--- --- -- ----- -- --- ---- -- --- ---- if ------ ------<br>--- ----- -- ----,56988.60000002384,56987.799999952316,56661.49,56668.799999952316,56678.16,56994.9,,49,if
screen,html.Screen,0_2_0_1_50,2021-11-12T09:58:02.275Z,,,,,,,,,,,,,,,,53,,,,,,,,,,,,,,345.29999992847297,,response,,,99,,,,,,Space,keypress(Space),,,,,---- -- ----- -- ------ - ------- --- ----------<br>------------- ------ ------ ---- ---- ------- ----- -- ----<br>-------- ------- -- ---------- --- - --- ----- ----- ----<br>---- --- --- ----- --- ---- ---- ------- ----- ---- -------<br>--- --- -- ----- -- --- ---- -- --- ---- -- that's ------<br>--- ----- -- ----,57341,57340.199999928474,56978.23,56988.799999952316,56994.9,57345.039,,50,that's
screen,html.Screen,0_2_0_1_51,2021-11-12T09:58:02.602Z,,,,,,,,,,,,,,,,53,,,,,,,,,,,,,,322.76099995231925,,response,,,99,,,,,,Space,keypress(Space),,,,,---- -- ----- -- ------ - ------- --- ----------<br>------------- ------ ------ ---- ---- ------- ----- -- ----<br>-------- ------- -- ---------- --- - --- ----- ----- ----<br>---- --- --- ----- --- ---- ---- ------- ----- ---- -------<br>--- --- -- ----- -- --- ---- -- --- ---- -- ------ really<br>--- ----- -- ----,57668.60000002384,57667.799999952316,57328.368,57341.199999928474,57345.039,57678.475,,51,really
screen,html.Screen,0_2_0_1_52,2021-11-12T09:58:02.963Z,,,,,,,,,,,,,,,,53,,,,,,,,,,,,,,349.2249999284759,,response,,,99,,,,,,Space,keypress(Space),,,,,---- -- ----- -- ------ - ------- --- ----------<br>------------- ------ ------ ---- ---- ------- ----- -- ----<br>-------- ------- -- ---------- --- - --- ----- ----- ----<br>---- --- --- ----- --- ---- ---- ------- ----- ---- -------<br>--- --- -- ----- -- --- ---- -- --- ---- -- ------ ------<br>not ----- -- ----,58028.799999952316,58027.699999928474,57661.804,57668.799999952316,57678.475,58045.245,,52,not
screen,html.Screen,0_2_0_1_53,2021-11-12T09:58:03.346Z,,,,,,,,,,,,,,,,53,,,,,,,,,,,,,,366.4549999284718,,response,,,99,,,,,,Space,keypress(Space),,,,,---- -- ----- -- ------ - ------- --- ----------<br>------------- ------ ------ ---- ---- ------- ----- -- ----<br>-------- ------- -- ---------- --- - --- ----- ----- ----<br>---- --- --- ----- --- ---- ---- ------- ----- ---- -------<br>--- --- -- ----- -- --- ---- -- --- ---- -- ------ ------<br>--- close -- ----,58412.5,58411.699999928474,58028.574,58029,58045.245,58428.559,,53,close
screen,html.Screen,0_2_0_1_54,2021-11-12T09:58:03.690Z,,,,,,,,,,,,,,,,53,,,,,,,,,,,,,,327.1409999284733,,response,,,99,,,,,,Space,keypress(Space),,,,,---- -- ----- -- ------ - ------- --- ----------<br>------------- ------ ------ ---- ---- ------- ----- -- ----<br>-------- ------- -- ---------- --- - --- ----- ----- ----<br>---- --- --- ----- --- ---- ---- ------- ----- ---- -------<br>--- --- -- ----- -- --- ---- -- --- ---- -- ------ ------<br>--- ----- at ----,58756.5,58755.699999928474,58411.89,58412.699999928474,58428.559,58762.104,,54,at
screen,html.Screen,0_2_0_1_55,2021-11-12T09:58:04.186Z,,,,,,,,,,,,,,,,53,,,,,,,,,,,,,,489.59599992847507,,response,,,99,,,,,,Space,keypress(Space),,,,,---- -- ----- -- ------ - ------- --- ----------<br>------------- ------ ------ ---- ---- ------- ----- -- ----<br>-------- ------- -- ---------- --- - --- ----- ----- ----<br>---- --- --- ----- --- ---- ---- ------- ----- ---- -------<br>--- --- -- ----- -- --- ---- -- --- ---- -- ------ ------<br>--- ----- -- all.,59252.5,59251.699999928474,58745.433,58756.699999928474,58762.104,59262.231,,55,all.
Item 99,flow.Loop,0_2_0_1,2021-11-12T09:58:04.191Z,,,,,,,,,,,,,,,,,,,,,,,,,,,,,,21028.771999928475,,completion,,,,F,,,,,,,,,,silence,,59256.799999952316,59251.699999928474,38206.259,38212.60000002384,38222.928,59262.231,,,
Question 1,html.Screen,0_2_0_2,2021-11-12T09:58:07.070Z,,,,,,,,,,,,,,,,,,,,,,,,,,,true,FALSE,,2869.9689999284747,,response,,,99,F,,,,,FALSE,click #choice-2,,,,silence,,62133.5,62132.199999928474,59245.56,59257.10000002384,59262.231,62146.337,,,
Question 2,html.Screen,0_2_0_3,2021-11-12T09:58:07.182Z,,,,,,,,,,,,,,,,,,,,,,,,,,,false,TRUE,,97.66300000000047,,response,,,99,F,,,,,FALSE,click #choice-2,,,,silence,,62245,62244,62129.666,62133.89999997616,62146.337,62263.04,,,
Item 99,flow.Sequence,0_2_0,2021-11-12T09:58:07.182Z,,,,,,,,,,,,,,,,,,,,,,,,,,,,,,34023.396,,completion,,,,,,,,,,,,,,,,62245.39999997616,62244,28203.932,28207.100000023842,28220.604,62263.04,,,
Holding screen,html.Screen,0_2_1_0,2021-11-12T09:58:17.196Z,,,,,,,,,,,,,,,,,,,,,,,,,,,,,,10002.480000000003,,timeout,,,,,,,,,,,,,,,,72259.39999997616,72248.85,62246.369,62245.799999952316,62263.04,72265.52,,,
screen,html.Screen,0_2_1_1_0,2021-11-12T09:58:18.181Z,,,,,,,,,,,,,,,,54,,,,,,,,,,,,,,978.0800000238378,,response,,,100,,,,,,Space,keypress(Space),,,,,At --- ---- --- ------ ----- ------- ---- -- --- ------- --<br>------- ---------- ------ -- ----- -- ----- -- ---- ------<br>--- ----- --- --- ------ -------- ----- --- ------ ----- --<br>----- ----- ---------- --- --- ------ ------ ---- -- ------<br>------- --- ------ ----- --- ---- ------- -- ---- --- --<br>------- ------,73244.39999997616,73243.60000002384,72248.85,72259.69999992847,72265.52,73249.28,,0,At
screen,html.Screen,0_2_1_1_1,2021-11-12T09:58:18.604Z,,,,,,,,,,,,,,,,54,,,,,,,,,,,,,,417.72000000000116,,response,,,100,,,,,,Space,keypress(Space),,,,,-- the ---- --- ------ ----- ------- ---- -- --- ------- --<br>------- ---------- ------ -- ----- -- ----- -- ---- ------<br>--- ----- --- --- ------ -------- ----- --- ------ ----- --<br>----- ----- ---------- --- --- ------ ------ ---- -- ------<br>------- --- ------ ----- --- ---- ------- -- ---- --- --<br>------- ------,73667.79999995232,73667,73232.609,73244.69999992847,73249.28,73682.791,,1,the
screen,html.Screen,0_2_1_1_2,2021-11-12T09:58:18.948Z,,,,,,,,,,,,,,,,54,,,,,,,,,,,,,,328.20900000000256,,response,,,100,,,,,,Space,keypress(Space),,,,,-- --- time --- ------ ----- ------- ---- -- --- ------- --<br>------- ---------- ------ -- ----- -- ----- -- ---- ------<br>--- ----- --- --- ------ -------- ----- --- ------ ----- --<br>----- ----- ---------- --- --- ------ ------ ---- -- ------<br>------- --- ------ ----- --- ---- ------- -- ---- --- --<br>------- ------,74011.79999995232,74011,73666.12,73668.10000002384,73682.791,74016.186,,2,time
screen,html.Screen,0_2_1_1_3,2021-11-12T09:58:19.518Z,,,,,,,,,,,,,,,,54,,,,,,,,,,,,,,562.8139999999985,,response,,,100,,,,,,Space,keypress(Space),,,,,-- --- ---- the ------ ----- ------- ---- -- --- ------- --<br>------- ---------- ------ -- ----- -- ----- -- ---- ------<br>--- ----- --- --- ------ -------- ----- --- ------ ----- --<br>----- ----- ---------- --- --- ------ ------ ---- -- ------<br>------- --- ------ ----- --- ---- ------- -- ---- --- --<br>------- ------,74581.29999995232,74579,73999.515,74012.10000002384,74016.186,74583.006,,3,the
screen,html.Screen,0_2_1_1_4,2021-11-12T09:58:19.924Z,,,,,,,,,,,,,,,,54,,,,,,,,,,,,,,403.99400000000605,,response,,,100,,,,,,Space,keypress(Space),,,,,-- --- ---- --- French ----- ------- ---- -- --- ------- --<br>------- ---------- ------ -- ----- -- ----- -- ---- ------<br>--- ----- --- --- ------ -------- ----- --- ------ ----- --<br>----- ----- ---------- --- --- ------ ------ ---- -- ------<br>------- --- ------ ----- --- ---- ------- -- ---- --- --<br>------- ------,74987.69999992847,74987,74566.335,74581.5,74583.006,74999.8,,4,French
screen,html.Screen,0_2_1_1_5,2021-11-12T09:58:20.340Z,,,,,,,,,,,,,,,,54,,,,,,,,,,,,,,403.1999999999971,,response,,,100,,,,,,Space,keypress(Space),,,,,-- --- ---- --- ------ crown ------- ---- -- --- ------- --<br>------- ---------- ------ -- ----- -- ----- -- ---- ------<br>--- ----- --- --- ------ -------- ----- --- ------ ----- --<br>----- ----- ---------- --- --- ------ ------ ---- -- ------<br>------- --- ------ ----- --- ---- ------- -- ---- --- --<br>------- ------,75403.79999995232,75403,74983.129,74988,74999.8,75416.532,,5,crown
screen,html.Screen,0_2_1_1_6,2021-11-12T09:58:20.724Z,,,,,,,,,,,,,,,,54,,,,,,,,,,,,,,370.4679999999935,,response,,,100,,,,,,Space,keypress(Space),,,,,-- --- ---- --- ------ ----- secured ---- -- --- ------- --<br>------- ---------- ------ -- ----- -- ----- -- ---- ------<br>--- ----- --- --- ------ -------- ----- --- ------ ----- --<br>----- ----- ---------- --- --- ------ ------ ---- -- ------<br>------- --- ------ ----- --- ---- ------- -- ---- --- --<br>------- ------,75787.69999992847,75787,75399.862,75404,75416.532,75800.002,,6,secured
screen,html.Screen,0_2_1_1_7,2021-11-12T09:58:21.148Z,,,,,,,,,,,,,,,,54,,,,,,,,,,,,,,410.99800000000687,,response,,,100,,,,,,Space,keypress(Space),,,,,-- --- ---- --- ------ ----- ------- much -- --- ------- --<br>------- ---------- ------ -- ----- -- ----- -- ---- ------<br>--- ----- --- --- ------ -------- ----- --- ------ ----- --<br>----- ----- ---------- --- --- ------ ------ ---- -- ------<br>------- --- ------ ----- --- ---- ------- -- ---- --- --<br>------- ------,76211.69999992847,76211,75783.331,75787.89999997616,75800.002,76216.784,,7,much
screen,html.Screen,0_2_1_1_8,2021-11-12T09:58:21.556Z,,,,,,,,,,,,,,,,54,,,,,,,,,,,,,,402.1159999761585,,response,,,100,,,,,,Space,keypress(Space),,,,,-- --- ---- --- ------ ----- ------- ---- of --- ------- --<br>------- ---------- ------ -- ----- -- ----- -- ---- ------<br>--- ----- --- --- ------ -------- ----- --- ------ ----- --<br>----- ----- ---------- --- --- ------ ------ ---- -- ------<br>------- --- ------ ----- --- ---- ------- -- ---- --- --<br>------- ------,76619.69999992847,76618.89999997616,76200.113,76211.89999997616,76216.784,76633.525,,8,of
screen,html.Screen,0_2_1_1_9,2021-11-12T09:58:21.964Z,,,,,,,,,,,,,,,,54,,,,,,,,,,,,,,393.37499997616396,,response,,,100,,,,,,Space,keypress(Space),,,,,-- --- ---- --- ------ ----- ------- ---- -- its ------- --<br>------- ---------- ------ -- ----- -- ----- -- ---- ------<br>--- ----- --- --- ------ -------- ----- --- ------ ----- --<br>----- ----- ---------- --- --- ------ ------ ---- -- ------<br>------- --- ------ ----- --- ---- ------- -- ---- --- --<br>------- ------,77027.79999995232,77026.89999997616,76616.855,76619.89999997616,76633.525,77033.663,,9,its
screen,html.Screen,0_2_1_1_10,2021-11-12T09:58:22.332Z,,,,,,,,,,,,,,,,54,,,,,,,,,,,,,,361.2369999761577,,response,,,100,,,,,,Space,keypress(Space),,,,,-- --- ---- --- ------ ----- ------- ---- -- --- revenue --<br>------- ---------- ------ -- ----- -- ----- -- ---- ------<br>--- ----- --- --- ------ -------- ----- --- ------ ----- --<br>----- ----- ---------- --- --- ------ ------ ---- -- ------<br>------- --- ------ ----- --- ---- ------- -- ---- --- --<br>------- ------,77395.69999992847,77394.89999997616,77016.992,77028,77033.663,77400.431,,10,revenue
screen,html.Screen,0_2_1_1_11,2021-11-12T09:58:22.804Z,,,,,,,,,,,,,,,,54,,,,,,,,,,,,,,466.3689999523194,,response,,,100,,,,,,Space,keypress(Space),,,,,-- --- ---- --- ------ ----- ------- ---- -- --- ------- by<br>------- ---------- ------ -- ----- -- ----- -- ---- ------<br>--- ----- --- --- ------ -------- ----- --- ------ ----- --<br>----- ----- ---------- --- --- ------ ------ ---- -- ------<br>------- --- ------ ----- --- ---- ------- -- ---- --- --<br>------- ------,77867.69999992847,77866.79999995232,77383.76,77396,77400.431,77883.755,,11,by
screen,html.Screen,0_2_1_1_12,2021-11-12T09:58:23.148Z,,,,,,,,,,,,,,,,54,,,,,,,,,,,,,,327.1449999761535,,response,,,100,,,,,,Space,keypress(Space),,,,,-- --- ---- --- ------ ----- ------- ---- -- --- ------- --<br>issuing ---------- ------ -- ----- -- ----- -- ---- ------<br>--- ----- --- --- ------ -------- ----- --- ------ ----- --<br>----- ----- ---------- --- --- ------ ------ ---- -- ------<br>------- --- ------ ----- --- ---- ------- -- ---- --- --<br>------- ------,78211.60000002384,78210.89999997616,77867.086,77867.89999997616,77883.755,78217.422,,12,issuing
screen,html.Screen,0_2_1_1_13,2021-11-12T09:58:23.540Z,,,,,,,,,,,,,,,,54,,,,,,,,,,,,,,385.37799995231035,,response,,,100,,,,,,Space,keypress(Space),,,,,-- --- ---- --- ------ ----- ------- ---- -- --- ------- --<br>------- government ------ -- ----- -- ----- -- ---- ------<br>--- ----- --- --- ------ -------- ----- --- ------ ----- --<br>----- ----- ---------- --- --- ------ ------ ---- -- ------<br>------- --- ------ ----- --- ---- ------- -- ---- --- --<br>------- ------,78603.60000002384,78602.79999995232,78200.749,78211.89999997616,78217.422,78617.403,,13,government
screen,html.Screen,0_2_1_1_14,2021-11-12T09:58:23.964Z,,,,,,,,,,,,,,,,54,,,,,,,,,,,,,,409.3969999523106,,response,,,100,,,,,,Space,keypress(Space),,,,,-- --- ---- --- ------ ----- ------- ---- -- --- ------- --<br>------- ---------- bonds. -- ----- -- ----- -- ---- ------<br>--- ----- --- --- ------ -------- ----- --- ------ ----- --<br>----- ----- ---------- --- --- ------ ------ ---- -- ------<br>------- --- ------ ----- --- ---- ------- -- ---- --- --<br>------- ------,79027.60000002384,79026.79999995232,78600.733,78603.79999995232,78617.403,79034.209,,14,bonds.
screen,html.Screen,0_2_1_1_15,2021-11-12T09:58:26.604Z,,,,,,,,,,,,,,,,54,,,,,,,,,,,,,,2632.490999928472,,response,,,100,,,,,,Space,keypress(Space),,,,,-- --- ---- --- ------ ----- ------- ---- -- --- ------- --<br>------- ---------- ------ In ----- -- ----- -- ---- ------<br>--- ----- --- --- ------ -------- ----- --- ------ ----- --<br>----- ----- ---------- --- --- ------ ------ ---- -- ------<br>------- --- ------ ----- --- ---- ------- -- ---- --- --<br>------- ------,81667.39999997616,81666.69999992847,79017.538,79027.89999997616,79034.209,81684.705,,15,In
screen,html.Screen,0_2_1_1_16,2021-11-12T09:58:26.972Z,,,,,,,,,,,,,,,,54,,,,,,,,,,,,,,349.8950000238401,,response,,,100,,,,,,Space,keypress(Space),,,,,"-- --- ---- --- ------ ----- ------- ---- -- --- ------- --<br>------- ---------- ------ -- 1727, -- ----- -- ---- ------<br>--- ----- --- --- ------ -------- ----- --- ------ ----- --<br>----- ----- ---------- --- --- ------ ------ ---- -- ------<br>------- --- ------ ----- --- ---- ------- -- ---- --- --<br>------- ------",82035.5,82034.60000002384,81668.035,81667.69999992847,81684.705,82051.657,,16,"1727,"
screen,html.Screen,0_2_1_1_17,2021-11-12T09:58:27.564Z,,,,,,,,,,,,,,,,54,,,,,,,,,,,,,,574.9430000238353,,response,,,100,,,,,,Space,keypress(Space),,,,,-- --- ---- --- ------ ----- ------- ---- -- --- ------- --<br>------- ---------- ------ -- ----- in ----- -- ---- ------<br>--- ----- --- --- ------ -------- ----- --- ------ ----- --<br>----- ----- ---------- --- --- ------ ------ ---- -- ------<br>------- --- ------ ----- --- ---- ------- -- ---- --- --<br>------- ------,82627.39999997616,82626.60000002384,82034.986,82035.79999995232,82051.657,82635.055,,17,in
screen,html.Screen,0_2_1_1_18,2021-11-12T09:58:27.908Z,,,,,,,,,,,,,,,,54,,,,,,,,,,,,,,335.54500002384884,,response,,,100,,,,,,Space,keypress(Space),,,,,-- --- ---- --- ------ ----- ------- ---- -- --- ------- --<br>------- ---------- ------ -- ----- -- order -- ---- ------<br>--- ----- --- --- ------ -------- ----- --- ------ ----- --<br>----- ----- ---------- --- --- ------ ------ ---- -- ------<br>------- --- ------ ----- --- ---- ------- -- ---- --- --<br>------- ------,82971.29999995232,82970.60000002384,82618.385,82627.69999992847,82635.055,82985.485,,18,order
screen,html.Screen,0_2_1_1_19,2021-11-12T09:58:28.276Z,,,,,,,,,,,,,,,,54,,,,,,,,,,,,,,353.6150000238413,,response,,,100,,,,,,Space,keypress(Space),,,,,-- --- ---- --- ------ ----- ------- ---- -- --- ------- --<br>------- ---------- ------ -- ----- -- ----- to ---- ------<br>--- ----- --- --- ------ -------- ----- --- ------ ----- --<br>----- ----- ---------- --- --- ------ ------ ---- -- ------<br>------- --- ------ ----- --- ---- ------- -- ---- --- --<br>------- ------,83339.79999995232,83339.10000002384,82968.81,82971.60000002384,82985.485,83352.03,,19,to
screen,html.Screen,0_2_1_1_20,2021-11-12T09:58:28.612Z,,,,,,,,,,,,,,,,54,,,,,,,,,,,,,,322.47000000000116,,response,,,100,,,,,,Space,keypress(Space),,,,,-- --- ---- --- ------ ----- ------- ---- -- --- ------- --<br>------- ---------- ------ -- ----- -- ----- -- save ------<br>--- ----- --- --- ------ -------- ----- --- ------ ----- --<br>----- ----- ---------- --- --- ------ ------ ---- -- ------<br>------- --- ------ ----- --- ---- ------- -- ---- --- --<br>------- ------,83675.39999997616,83674.5,83335.359,83340.10000002384,83352.03,83685.465,,20,save
screen,html.Screen,0_2_1_1_21,2021-11-12T09:58:28.980Z,,,,,,,,,,,,,,,,54,,,,,,,,,,,,,,357.0350000000035,,response,,,100,,,,,,Space,keypress(Space),,,,,"-- --- ---- --- ------ ----- ------- ---- -- --- ------- --<br>------- ---------- ------ -- ----- -- ----- -- ---- money,<br>--- ----- --- --- ------ -------- ----- --- ------ ----- --<br>----- ----- ---------- --- --- ------ ------ ---- -- ------<br>------- --- ------ ----- --- ---- ------- -- ---- --- --<br>------- ------",84043.29999995232,84042.5,83668.794,83675.60000002384,83685.465,84052.188,,21,"money,"
screen,html.Screen,0_2_1_1_22,2021-11-12T09:58:29.340Z,,,,,,,,,,,,,,,,54,,,,,,,,,,,,,,350.4120000238472,,response,,,100,,,,,,Space,keypress(Space),,,,,-- --- ---- --- ------ ----- ------- ---- -- --- ------- --<br>------- ---------- ------ -- ----- -- ----- -- ---- ------<br>the ----- --- --- ------ -------- ----- --- ------ ----- --<br>----- ----- ---------- --- --- ------ ------ ---- -- ------<br>------- --- ------ ----- --- ---- ------- -- ---- --- --<br>------- ------,84403.39999997616,84402.60000002384,84035.518,84043.60000002384,84052.188,84418.925,,22,the
screen,html.Screen,0_2_1_1_23,2021-11-12T09:58:29.708Z,,,,,,,,,,,,,,,,54,,,,,,,,,,,,,,351.5749999999971,,response,,,100,,,,,,Space,keypress(Space),,,,,-- --- ---- --- ------ ----- ------- ---- -- --- ------- --<br>------- ---------- ------ -- ----- -- ----- -- ---- ------<br>--- state --- --- ------ -------- ----- --- ------ ----- --<br>----- ----- ---------- --- --- ------ ------ ---- -- ------<br>------- --- ------ ----- --- ---- ------- -- ---- --- --<br>------- ------,84771.29999995232,84770.5,84402.255,84403.60000002384,84418.925,84785.744,,23,state
screen,html.Screen,0_2_1_1_24,2021-11-12T09:58:30.108Z,,,,,,,,,,,,,,,,54,,,,,,,,,,,,,,384.75599999999395,,response,,,100,,,,,,Space,keypress(Space),,,,,-- --- ---- --- ------ ----- ------- ---- -- --- ------- --<br>------- ---------- ------ -- ----- -- ----- -- ---- ------<br>--- ----- cut --- ------ -------- ----- --- ------ ----- --<br>----- ----- ---------- --- --- ------ ------ ---- -- ------<br>------- --- ------ ----- --- ---- ------- -- ---- --- --<br>------- ------,85171.29999995232,85170.5,84769.073,84771.60000002384,84785.744,85185.696,,24,cut
screen,html.Screen,0_2_1_1_25,2021-11-12T09:58:30.460Z,,,,,,,,,,,,,,,,54,,,,,,,,,,,,,,336.9040000238456,,response,,,100,,,,,,Space,keypress(Space),,,,,-- --- ---- --- ------ ----- ------- ---- -- --- ------- --<br>------- ---------- ------ -- ----- -- ----- -- ---- ------<br>--- ----- --- the ------ -------- ----- --- ------ ----- --<br>----- ----- ---------- --- --- ------ ------ ---- -- ------<br>------- --- ------ ----- --- ---- ------- -- ---- --- --<br>------- ------,85523.29999995232,85522.60000002384,85169.028,85171.60000002384,85185.696,85536.009,,25,the
screen,html.Screen,0_2_1_1_26,2021-11-12T09:58:30.820Z,,,,,,,,,,,,,,,,54,,,,,,,,,,,,,,346.5910000238364,,response,,,100,,,,,,Space,keypress(Space),,,,,-- --- ---- --- ------ ----- ------- ---- -- --- ------- --<br>------- ---------- ------ -- ----- -- ----- -- ---- ------<br>--- ----- --- --- bonds' -------- ----- --- ------ ----- --<br>----- ----- ---------- --- --- ------ ------ ---- -- ------<br>------- --- ------ ----- --- ---- ------- -- ---- --- --<br>------- ------,85883.29999995232,85882.60000002384,85519.337,85523.60000002384,85536.009,85886.055,,26,bonds'
screen,html.Screen,0_2_1_1_27,2021-11-12T09:58:31.204Z,,,,,,,,,,,,,,,,54,,,,,,,,,,,,,,380.445000000007,,response,,,100,,,,,,Space,keypress(Space),,,,,-- --- ---- --- ------ ----- ------- ---- -- --- ------- --<br>------- ---------- ------ -- ----- -- ----- -- ---- ------<br>--- ----- --- --- ------ interest ----- --- ------ ----- --<br>----- ----- ---------- --- --- ------ ------ ---- -- ------<br>------- --- ------ ----- --- ---- ------- -- ---- --- --<br>------- ------,86267.29999995232,86266.5,85869.384,85883.60000002384,85886.055,86269.453,,27,interest
screen,html.Screen,0_2_1_1_28,2021-11-12T09:58:31.548Z,,,,,,,,,,,,,,,,54,,,,,,,,,,,,,,341.04700000000594,,response,,,100,,,,,,Space,keypress(Space),,,,,-- --- ---- --- ------ ----- ------- ---- -- --- ------- --<br>------- ---------- ------ -- ----- -- ----- -- ---- ------<br>--- ----- --- --- ------ -------- rate. --- ------ ----- --<br>----- ----- ---------- --- --- ------ ------ ---- -- ------<br>------- --- ------ ----- --- ---- ------- -- ---- --- --<br>------- ------,86611.29999995232,86610.5,86252.783,86267.5,86269.453,86619.589,,28,rate.
screen,html.Screen,0_2_1_1_29,2021-11-12T09:58:31.932Z,,,,,,,,,,,,,,,,54,,,,,,,,,,,,,,374.8109999761509,,response,,,100,,,,,,Space,keypress(Space),,,,,-- --- ---- --- ------ ----- ------- ---- -- --- ------- --<br>------- ---------- ------ -- ----- -- ----- -- ---- ------<br>--- ----- --- --- ------ -------- ----- The ------ ----- --<br>----- ----- ---------- --- --- ------ ------ ---- -- ------<br>------- --- ------ ----- --- ---- ------- -- ---- --- --<br>------- ------,86995.29999995232,86994.39999997616,86602.918,86611.5,86619.589,87003.019,,29,The
screen,html.Screen,0_2_1_1_30,2021-11-12T09:58:32.324Z,,,,,,,,,,,,,,,,54,,,,,,,,,,,,,,383.48099999999977,,response,,,100,,,,,,Space,keypress(Space),,,,,-- --- ---- --- ------ ----- ------- ---- -- --- ------- --<br>------- ---------- ------ -- ----- -- ----- -- ---- ------<br>--- ----- --- --- ------ -------- ----- --- market ----- --<br>----- ----- ---------- --- --- ------ ------ ---- -- ------<br>------- --- ------ ----- --- ---- ------- -- ---- --- --<br>------- ------,87387.39999997616,87386.5,86986.348,86995.5,87003.019,87403.128,,30,market
screen,html.Screen,0_2_1_1_31,2021-11-12T09:58:32.676Z,,,,,,,,,,,,,,,,54,,,,,,,,,,,,,,335.27199997616117,,response,,,100,,,,,,Space,keypress(Space),,,,,-- --- ---- --- ------ ----- ------- ---- -- --- ------- --<br>------- ---------- ------ -- ----- -- ----- -- ---- ------<br>--- ----- --- --- ------ -------- ----- --- ------ value --<br>----- ----- ---------- --- --- ------ ------ ---- -- ------<br>------- --- ------ ----- --- ---- ------- -- ---- --- --<br>------- ------,87739.29999995232,87738.39999997616,87386.457,87387.69999992847,87403.128,87753.18,,31,value
screen,html.Screen,0_2_1_1_32,2021-11-12T09:58:33.100Z,,,,,,,,,,,,,,,,54,,,,,,,,,,,,,,409.2199999761651,,response,,,100,,,,,,Space,keypress(Space),,,,,-- --- ---- --- ------ ----- ------- ---- -- --- ------- --<br>------- ---------- ------ -- ----- -- ----- -- ---- ------<br>--- ----- --- --- ------ -------- ----- --- ------ ----- of<br>----- ----- ---------- --- --- ------ ------ ---- -- ------<br>------- --- ------ ----- --- ---- ------- -- ---- --- --<br>------- ------,88163.19999992847,88162.39999997616,87736.51,87739.5,87753.18,88169.957,,32,of
screen,html.Screen,0_2_1_1_33,2021-11-12T09:58:33.460Z,,,,,,,,,,,,,,,,54,,,,,,,,,,,,,,352.44299997616326,,response,,,100,,,,,,Space,keypress(Space),,,,,-- --- ---- --- ------ ----- ------- ---- -- --- ------- --<br>------- ---------- ------ -- ----- -- ----- -- ---- ------<br>--- ----- --- --- ------ -------- ----- --- ------ ----- --<br>these ----- ---------- --- --- ------ ------ ---- -- ------<br>------- --- ------ ----- --- ---- ------- -- ---- --- --<br>------- ------,88523.29999995232,88522.39999997616,88153.287,88163.5,88169.957,88536.763,,33,these
screen,html.Screen,0_2_1_1_34,2021-11-12T09:58:33.884Z,,,,,,,,,,,,,,,,54,,,,,,,,,,,,,,409.63699997615186,,response,,,100,,,,,,Space,keypress(Space),,,,,-- --- ---- --- ------ ----- ------- ---- -- --- ------- --<br>------- ---------- ------ -- ----- -- ----- -- ---- ------<br>--- ----- --- --- ------ -------- ----- --- ------ ----- --<br>----- bonds ---------- --- --- ------ ------ ---- -- ------<br>------- --- ------ ----- --- ---- ------- -- ---- --- --<br>------- ------,88947.10000002384,88946.39999997616,88520.092,88523.60000002384,88536.763,88953.496,,34,bonds
screen,html.Screen,0_2_1_1_35,2021-11-12T09:58:34.260Z,,,,,,,,,,,,,,,,54,,,,,,,,,,,,,,368.90399997615896,,response,,,100,,,,,,Space,keypress(Space),,,,,"-- --- ---- --- ------ ----- ------- ---- -- --- ------- --<br>------- ---------- ------ -- ----- -- ----- -- ---- ------<br>--- ----- --- --- ------ -------- ----- --- ------ ----- --<br>----- ----- plummeted, --- --- ------ ------ ---- -- ------<br>------- --- ------ ----- --- ---- ------- -- ---- --- --<br>------- ------",89323.19999992847,89322.39999997616,88936.826,88947.39999997616,88953.496,89336.971,,35,"plummeted,"
screen,html.Screen,0_2_1_1_36,2021-11-12T09:58:34.644Z,,,,,,,,,,,,,,,,54,,,,,,,,,,,,,,369.3289999523113,,response,,,100,,,,,,Space,keypress(Space),,,,,-- --- ---- --- ------ ----- ------- ---- -- --- ------- --<br>------- ---------- ------ -- ----- -- ----- -- ---- ------<br>--- ----- --- --- ------ -------- ----- --- ------ ----- --<br>----- ----- ---------- and --- ------ ------ ---- -- ------<br>------- --- ------ ----- --- ---- ------- -- ---- --- --<br>------- ------,89707.10000002384,89706.29999995232,89320.3,89323.39999997616,89336.971,89720.406,,36,and
screen,html.Screen,0_2_1_1_37,2021-11-12T09:58:35.060Z,,,,,,,,,,,,,,,,54,,,,,,,,,,,,,,401.8939999523136,,response,,,100,,,,,,Space,keypress(Space),,,,,-- --- ---- --- ------ ----- ------- ---- -- --- ------- --<br>------- ---------- ------ -- ----- -- ----- -- ---- ------<br>--- ----- --- --- ------ -------- ----- --- ------ ----- --<br>----- ----- ---------- --- the ------ ------ ---- -- ------<br>------- --- ------ ----- --- ---- ------- -- ---- --- --<br>------- ------,90123.19999992847,90122.29999995232,89703.735,89707.5,89720.406,90137.197,,37,the
screen,html.Screen,0_2_1_1_38,2021-11-12T09:58:35.460Z,,,,,,,,,,,,,,,,54,,,,,,,,,,,,,,385.10299995231617,,response,,,100,,,,,,Space,keypress(Space),,,,,-- --- ---- --- ------ ----- ------- ---- -- --- ------- --<br>------- ---------- ------ -- ----- -- ----- -- ---- ------<br>--- ----- --- --- ------ -------- ----- --- ------ ----- --<br>----- ----- ---------- --- --- market ------ ---- -- ------<br>------- --- ------ ----- --- ---- ------- -- ---- --- --<br>------- ------,90523.10000002384,90522.29999995232,90120.526,90123.5,90137.197,90537.182,,38,market
screen,html.Screen,0_2_1_1_39,2021-11-12T09:58:35.916Z,,,,,,,,,,,,,,,,54,,,,,,,,,,,,,,441.1179999523156,,response,,,100,,,,,,Space,keypress(Space),,,,,-- --- ---- --- ------ ----- ------- ---- -- --- ------- --<br>------- ---------- ------ -- ----- -- ----- -- ---- ------<br>--- ----- --- --- ------ -------- ----- --- ------ ----- --<br>----- ----- ---------- --- --- ------ became ---- -- ------<br>------- --- ------ ----- --- ---- ------- -- ---- --- --<br>------- ------,90979.10000002384,90978.29999995232,90520.513,90523.39999997616,90537.182,90987.472,,39,became
screen,html.Screen,0_2_1_1_40,2021-11-12T09:58:36.268Z,,,,,,,,,,,,,,,,54,,,,,,,,,,,,,,342.827999952322,,response,,,100,,,,,,Space,keypress(Space),,,,,-- --- ---- --- ------ ----- ------- ---- -- --- ------- --<br>------- ---------- ------ -- ----- -- ----- -- ---- ------<br>--- ----- --- --- ------ -------- ----- --- ------ ----- --<br>----- ----- ---------- --- --- ------ ------ wary -- ------<br>------- --- ------ ----- --- ---- ------- -- ---- --- --<br>------- ------,91331.10000002384,91330.29999995232,90970.8,90979.5,90987.472,91337.524,,40,wary
screen,html.Screen,0_2_1_1_41,2021-11-12T09:58:36.628Z,,,,,,,,,,,,,,,,54,,,,,,,,,,,,,,352.7759999523114,,response,,,100,,,,,,Space,keypress(Space),,,,,-- --- ---- --- ------ ----- ------- ---- -- --- ------- --<br>------- ---------- ------ -- ----- -- ----- -- ---- ------<br>--- ----- --- --- ------ -------- ----- --- ------ ----- --<br>----- ----- ---------- --- --- ------ ------ ---- of ------<br>------- --- ------ ----- --- ---- ------- -- ---- --- --<br>------- ------,91691.10000002384,91690.29999995232,91320.853,91331.39999997616,91337.524,91704.256,,41,of
screen,html.Screen,0_2_1_1_42,2021-11-12T09:58:37.036Z,,,,,,,,,,,,,,,,54,,,,,,,,,,,,,,393.9439999284805,,response,,,100,,,,,,Space,keypress(Space),,,,,-- --- ---- --- ------ ----- ------- ---- -- --- ------- --<br>------- ---------- ------ -- ----- -- ----- -- ---- ------<br>--- ----- --- --- ------ -------- ----- --- ------ ----- --<br>----- ----- ---------- --- --- ------ ------ ---- -- French<br>------- --- ------ ----- --- ---- ------- -- ---- --- --<br>------- ------,92099,92098.19999992847,91687.586,91691.29999995232,91704.256,92104.391,,42,French
screen,html.Screen,0_2_1_1_43,2021-11-12T09:58:37.420Z,,,,,,,,,,,,,,,,54,,,,,,,,,,,,,,377.908999952313,,response,,,100,,,,,,Space,keypress(Space),,,,,-- --- ---- --- ------ ----- ------- ---- -- --- ------- --<br>------- ---------- ------ -- ----- -- ----- -- ---- ------<br>--- ----- --- --- ------ -------- ----- --- ------ ----- --<br>----- ----- ---------- --- --- ------ ------ ---- -- ------<br>credit. --- ------ ----- --- ---- ------- -- ---- --- --<br>------- ------,92483.10000002384,92482.29999995232,92087.72,92099.29999995232,92104.391,92487.769,,43,credit.
screen,html.Screen,0_2_1_1_44,2021-11-12T09:58:37.812Z,,,,,,,,,,,,,,,,54,,,,,,,,,,,,,,386.4309999284742,,response,,,100,,,,,,Space,keypress(Space),,,,,-- --- ---- --- ------ ----- ------- ---- -- --- ------- --<br>------- ---------- ------ -- ----- -- ----- -- ---- ------<br>--- ----- --- --- ------ -------- ----- --- ------ ----- --<br>----- ----- ---------- --- --- ------ ------ ---- -- ------<br>------- The ------ ----- --- ---- ------- -- ---- --- --<br>------- ------,92874.89999997616,92874.19999992847,92471.099,92483.29999995232,92487.769,92887.941,,44,The
screen,html.Screen,0_2_1_1_45,2021-11-12T09:58:38.196Z,,,,,,,,,,,,,,,,54,,,,,,,,,,,,,,370.25899992846826,,response,,,100,,,,,,Space,keypress(Space),,,,,-- --- ---- --- ------ ----- ------- ---- -- --- ------- --<br>------- ---------- ------ -- ----- -- ----- -- ---- ------<br>--- ----- --- --- ------ -------- ----- --- ------ ----- --<br>----- ----- ---------- --- --- ------ ------ ---- -- ------<br>------- --- French ----- --- ---- ------- -- ---- --- --<br>------- ------,93259,93258.19999992847,92871.27,92875.19999992847,92887.941,93271.214,,45,French
screen,html.Screen,0_2_1_1_46,2021-11-12T09:58:38.564Z,,,,,,,,,,,,,,,,54,,,,,,,,,,,,,,355.38600002383464,,response,,,100,,,,,,Space,keypress(Space),,,,,-- --- ---- --- ------ ----- ------- ---- -- --- ------- --<br>------- ---------- ------ -- ----- -- ----- -- ---- ------<br>--- ----- --- --- ------ -------- ----- --- ------ ----- --<br>----- ----- ---------- --- --- ------ ------ ---- -- ------<br>------- --- ------ state --- ---- ------- -- ---- --- --<br>------- ------,93627.5,93626.60000002384,93254.546,93259.19999992847,93271.214,93638.18,,46,state
screen,html.Screen,0_2_1_1_47,2021-11-12T09:58:38.900Z,,,,,,,,,,,,,,,,54,,,,,,,,,,,,,,324.0199999284814,,response,,,100,,,,,,Space,keypress(Space),,,,,-- --- ---- --- ------ ----- ------- ---- -- --- ------- --<br>------- ---------- ------ -- ----- -- ----- -- ---- ------<br>--- ----- --- --- ------ -------- ----- --- ------ ----- --<br>----- ----- ---------- --- --- ------ ------ ---- -- ------<br>------- --- ------ ----- was ---- ------- -- ---- --- --<br>------- ------,93962.89999997616,93962.19999992847,93621.508,93627.79999995232,93638.18,93971.575,,47,was
screen,html.Screen,0_2_1_1_48,2021-11-12T09:58:39.268Z,,,,,,,,,,,,,,,,54,,,,,,,,,,,,,,358.52500002384477,,response,,,100,,,,,,Space,keypress(Space),,,,,-- --- ---- --- ------ ----- ------- ---- -- --- ------- --<br>------- ---------- ------ -- ----- -- ----- -- ---- ------<br>--- ----- --- --- ------ -------- ----- --- ------ ----- --<br>----- ----- ---------- --- --- ------ ------ ---- -- ------<br>------- --- ------ ----- --- left ------- -- ---- --- --<br>------- ------,94331,94330.10000002384,93954.904,93963.29999995232,93971.575,94338.281,,48,left
screen,html.Screen,0_2_1_1_49,2021-11-12T09:58:39.604Z,,,,,,,,,,,,,,,,54,,,,,,,,,,,,,,327.8190000238392,,response,,,100,,,,,,Space,keypress(Space),,,,,-- --- ---- --- ------ ----- ------- ---- -- --- ------- --<br>------- ---------- ------ -- ----- -- ----- -- ---- ------<br>--- ----- --- --- ------ -------- ----- --- ------ ----- --<br>----- ----- ---------- --- --- ------ ------ ---- -- ------<br>------- --- ------ ----- --- ---- without -- ---- --- --<br>------- ------,94667,94666.10000002384,94321.611,94331.10000002384,94338.281,94671.702,,49,without
screen,html.Screen,0_2_1_1_50,2021-11-12T09:58:39.940Z,,,,,,,,,,,,,,,,54,,,,,,,,,,,,,,330.3980000238371,,response,,,100,,,,,,Space,keypress(Space),,,,,-- --- ---- --- ------ ----- ------- ---- -- --- ------- --<br>------- ---------- ------ -- ----- -- ----- -- ---- ------<br>--- ----- --- --- ------ -------- ----- --- ------ ----- --<br>----- ----- ---------- --- --- ------ ------ ---- -- ------<br>------- --- ------ ----- --- ---- ------- an ---- --- --<br>------- ------,95003,95002.10000002384,94655.032,94667.19999992847,94671.702,95005.169,,50,an
screen,html.Screen,0_2_1_1_51,2021-11-12T09:58:40.284Z,,,,,,,,,,,,,,,,54,,,,,,,,,,,,,,340.93100002384745,,response,,,100,,,,,,Space,keypress(Space),,,,,-- --- ---- --- ------ ----- ------- ---- -- --- ------- --<br>------- ---------- ------ -- ----- -- ----- -- ---- ------<br>--- ----- --- --- ------ -------- ----- --- ------ ----- --<br>----- ----- ---------- --- --- ------ ------ ---- -- ------<br>------- --- ------ ----- --- ---- ------- -- easy --- --<br>------- ------,95346.89999997616,95346.10000002384,94988.498,95003.19999992847,95005.169,95355.273,,51,easy
screen,html.Screen,0_2_1_1_52,2021-11-12T09:58:40.620Z,,,,,,,,,,,,,,,,54,,,,,,,,,,,,,,326.8270000238408,,response,,,100,,,,,,Space,keypress(Space),,,,,-- --- ---- --- ------ ----- ------- ---- -- --- ------- --<br>------- ---------- ------ -- ----- -- ----- -- ---- ------<br>--- ----- --- --- ------ -------- ----- --- ------ ----- --<br>----- ----- ---------- --- --- ------ ------ ---- -- ------<br>------- --- ------ ----- --- ---- ------- -- ---- way --<br>------- ------,95682.89999997616,95682.10000002384,95338.602,95347.10000002384,95355.273,95688.642,,52,way
screen,html.Screen,0_2_1_1_53,2021-11-12T09:58:40.963Z,,,,,,,,,,,,,,,,54,,,,,,,,,,,,,,337.45800002383476,,response,,,100,,,,,,Space,keypress(Space),,,,,-- --- ---- --- ------ ----- ------- ---- -- --- ------- --<br>------- ---------- ------ -- ----- -- ----- -- ---- ------<br>--- ----- --- --- ------ -------- ----- --- ------ ----- --<br>----- ----- ---------- --- --- ------ ------ ---- -- ------<br>------- --- ------ ----- --- ---- ------- -- ---- --- of<br>------- ------,96026.89999997616,96026.10000002384,95671.972,95683.19999992847,95688.642,96038.743,,53,of
screen,html.Screen,0_2_1_1_54,2021-11-12T09:58:41.291Z,,,,,,,,,,,,,,,,54,,,,,,,,,,,,,,315.2569999999978,,response,,,100,,,,,,Space,keypress(Space),,,,,-- --- ---- --- ------ ----- ------- ---- -- --- ------- --<br>------- ---------- ------ -- ----- -- ----- -- ---- ------<br>--- ----- --- --- ------ -------- ----- --- ------ ----- --<br>----- ----- ---------- --- --- ------ ------ ---- -- ------<br>------- --- ------ ----- --- ---- ------- -- ---- --- --<br>raising ------,96354.89999997616,96354,96022.073,96027.10000002384,96038.743,96372.205,,54,raising
screen,html.Screen,0_2_1_1_55,2021-11-12T09:58:41.628Z,,,,,,,,,,,,,,,,54,,,,,,,,,,,,,,317.79499999999825,,response,,,100,,,,,,Space,keypress(Space),,,,,-- --- ---- --- ------ ----- ------- ---- -- --- ------- --<br>------- ---------- ------ -- ----- -- ----- -- ---- ------<br>--- ----- --- --- ------ -------- ----- --- ------ ----- --<br>----- ----- ---------- --- --- ------ ------ ---- -- ------<br>------- --- ------ ----- --- ---- ------- -- ---- --- --<br>------- money.,96690.89999997616,96690,96355.534,96355.10000002384,96372.205,96705.59,,55,money.
Item 100,flow.Loop,0_2_1_1,2021-11-12T09:58:41.628Z,,,,,,,,,,,,,,,,,,,,,,,,,,,,,,24424.479999999996,,completion,,,,F,,,,,,,,,,silence,,96691.29999995232,96690,72248.85,72259.69999992847,72265.52,96705.59,,,
Question 1,html.Screen,0_2_1_2,2021-11-12T09:58:45.579Z,,,,,,,,,,,,,,,,,,,,,,,,,,,true,TRUE,,3936.0100000238454,,response,,,100,F,,,,,TRUE,click #choice-1,,,,silence,,100642.79999995232,100641.60000002384,96688.92,96691.5,96705.59,100656.551,,,
Question 2,html.Screen,0_2_1_3,2021-11-12T09:58:49.315Z,,,,,,,,,,,,,,,,,,,,,,,,,,,false,FALSE,,3720.9489999999932,,response,,,100,F,,,,,TRUE,click #choice-1,,,,silence,,104378.69999992847,104377.5,100639.883,100643,100656.551,104391.01,,,
Item 100,flow.Sequence,0_2_1,2021-11-12T09:58:49.316Z,,,,,,,,,,,,,,,,,,,,,,,,,,,,,,42114.46,,completion,,,,,,,,,,,,,,,,104379,104377.5,62246.369,62245.60000002384,62263.04,104391.01,,,
End of Practice,html.Page,0_2_2,2021-11-12T09:58:53.668Z,,,,,,,,,,,,,,,,,,,,,,,,,,,,,,4339.889999976163,,form submission,,,,,,,,,,,,,,,,108731.5,108730.89999997616,104374.339,104379.29999995232,104391.01,108741.954,,,
Practice,flow.Sequence,0_2,2021-11-12T09:58:53.669Z,,,,,,,,,,,,,,,,,,,,,,,,,,,,,,80510.29599997617,,completion,,,,,,,,,,,,,,,,108732.10000002384,108730.89999997616,28203.932,28207.100000023842,28220.604,108741.954,,,
Trap_instruction,html.Page,0_3_0,2021-11-12T09:58:55.340Z,,,,,,,,,,,,,,,,,,,,,,,,,,,,,,1660.7459999284765,,form submission,,,,,,,,,,,,,,,,110403,110402.69999992847,108725.284,108732.39999997616,108741.954,110442.424,,,
trap_trial,html.Screen,0_3_1,2021-11-12T09:58:58.731Z,,,,,,,,,,,,,,,,,,,,,,,,,,,true,1,,3350.676000023843,,response,,,,,,,,,1,click #choice-1,,,,,,113794.39999997616,113793.10000002384,110392.414,110403.29999995232,110442.424,113809.944,,,
end of trap trial,html.Page,0_3_2,2021-11-12T09:59:00.980Z,,,,,,,,,,,,,,,,,,,,,,,,,,,,,,2232.455999976155,,form submission,,,,,,,,,,,,,,,,116042.89999997616,116042.39999997616,113793.274,113794.69999992847,113809.944,116060.786,,,
Trap 1,flow.Sequence,0_3,2021-11-12T09:59:00.980Z,,,,,,,,,,,,,,,,,,,,,,,,,,,,,,7300.44599997616,,completion,,,,,,,,,,,,,,,,116043.39999997616,116042.39999997616,108725.284,108732.19999992847,108741.954,116060.786,,,
Standby,html.Page,0_4_0,2021-11-12T09:59:08.987Z,,,,,,,,,,,,,,,,,,,,,,,,,,,,,,8002.070000000007,,timeout,,,,,,,,,,,,,,,,124047.89999997616,124046.185,116044.115,116043.69999992847,116060.786,124062.856,,,
Holding screen,html.Screen,0_4_1_0_0,2021-11-12T09:59:15.989Z,,,,,,,,,,,,,,,,,,,,,,,,,,,,,,7001.822,,timeout,,,,,,,,,,,,,,,,131049.60000002384,131048.008,124046.185,124048.29999995232,124062.856,131064.678,,,
screen,html.Screen,0_4_1_0_1_0,2021-11-12T09:59:17.213Z,,,,,,,,,,,,,,,,48,,,,,,,,,,,,,,1208.3220000000001,,response,,,10,F,,,,,Space,keypress(Space),,,,instrumental,As -- --- ------ ------- --------- ----------- --------<br>--------- -------- --- ------- -- ------- ---- -- ------<br>-- --- -------- -------- ---------- ---- ---- ---- ------<br>-- --------- -- ---- -- --- -- --- ------- -- - -----<br>---------- -- -- -- ---- ----- -- ------ -- --- ------<br>-------,132274.10000002384,132273,131048.008,131050,131064.678,132281.791,,0,As
screen,html.Screen,0_4_1_0_1_1,2021-11-12T09:59:17.548Z,,,,,,,,,,,,,,,,48,,,,,,,,,,,,,,326.6089999761607,,response,,,10,F,,,,,Space,keypress(Space),,,,instrumental,-- in --- ------ ------- --------- ----------- --------<br>--------- -------- --- ------- -- ------- ---- -- ------<br>-- --- -------- -------- ---------- ---- ---- ---- ------<br>-- --------- -- ---- -- --- -- --- ------- -- - -----<br>---------- -- -- -- ---- ----- -- ------ -- --- ------<br>-------,132609.39999997616,132608.39999997616,132265.12,132274.60000002384,132281.791,132615.104,,1,in
screen,html.Screen,0_4_1_0_1_2,2021-11-12T09:59:17.900Z,,,,,,,,,,,,,,,,48,,,,,,,,,,,,,,345.29599997616606,,response,,,10,F,,,,,Space,keypress(Space),,,,instrumental,-- -- the ------ ------- --------- ----------- --------<br>--------- -------- --- ------- -- ------- ---- -- ------<br>-- --- -------- -------- ---------- ---- ---- ---- ------<br>-- --------- -- ---- -- --- -- --- ------- -- - -----<br>---------- -- -- -- ---- ----- -- ------ -- --- ------<br>-------,132961.10000002384,132960.39999997616,132598.434,132609.69999992847,132615.104,132965.384,,2,the
screen,html.Screen,0_4_1_0_1_3,2021-11-12T09:59:18.308Z,,,,,,,,,,,,,,,,48,,,,,,,,,,,,,,403.0159999761672,,response,,,10,F,,,,,Space,keypress(Space),,,,instrumental,-- -- --- United ------- --------- ----------- --------<br>--------- -------- --- ------- -- ------- ---- -- ------<br>-- --- -------- -------- ---------- ---- ---- ---- ------<br>-- --------- -- ---- -- --- -- --- ------- -- - -----<br>---------- -- -- -- ---- ----- -- ------ -- --- ------<br>-------,133369.39999997616,133368.39999997616,132948.713,132961.39999997616,132965.384,133381.978,,3,United
screen,html.Screen,0_4_1_0_1_4,2021-11-12T09:59:18.652Z,,,,,,,,,,,,,,,,48,,,,,,,,,,,,,,330.42199997615535,,response,,,10,F,,,,,Space,keypress(Space),,,,instrumental,"-- -- --- ------ States, --------- ----------- --------<br>--------- -------- --- ------- -- ------- ---- -- ------<br>-- --- -------- -------- ---------- ---- ---- ---- ------<br>-- --------- -- ---- -- --- -- --- ------- -- - -----<br>---------- -- -- -- ---- ----- -- ------ -- --- ------<br>-------",133713.29999995232,133712.39999997616,133365.31,133369.60000002384,133381.978,133715.667,,4,"States,"
screen,html.Screen,0_4_1_0_1_5,2021-11-12T09:59:19.004Z,,,,,,,,,,,,,,,,48,,,,,,,,,,,,,,348.7329999761714,,response,,,10,F,,,,,Space,keypress(Space),,,,instrumental,-- -- --- ------ ------- Colombian ----------- --------<br>--------- -------- --- ------- -- ------- ---- -- ------<br>-- --- -------- -------- ---------- ---- ---- ---- ------<br>-- --------- -- ---- -- --- -- --- ------- -- - -----<br>---------- -- -- -- ---- ----- -- ------ -- --- ------<br>-------,134065.19999992847,134064.39999997616,133698.994,133713.5,133715.667,134082.217,,5,Colombian
screen,html.Screen,0_4_1_0_1_6,2021-11-12T09:59:19.332Z,,,,,,,,,,,,,,,,48,,,,,,,,,,,,,,310.18299997615395,,response,,,10,F,,,,,Space,keypress(Space),,,,instrumental,-- -- --- ------ ------- --------- legislation --------<br>--------- -------- --- ------- -- ------- ---- -- ------<br>-- --- -------- -------- ---------- ---- ---- ---- ------<br>-- --------- -- ---- -- --- -- --- ------- -- - -----<br>---------- -- -- -- ---- ----- -- ------ -- --- ------<br>-------,134393.29999995232,134392.39999997616,134065.548,134065.5,134082.217,134399.013,,6,legislation
screen,html.Screen,0_4_1_0_1_7,2021-11-12T09:59:19.828Z,,,,,,,,,,,,,,,,48,,,,,,,,,,,,,,489.38699997615186,,response,,,10,F,,,,,Space,keypress(Space),,,,instrumental,-- -- --- ------ ------- --------- ----------- requires<br>--------- -------- --- ------- -- ------- ---- -- ------<br>-- --- -------- -------- ---------- ---- ---- ---- ------<br>-- --------- -- ---- -- --- -- --- ------- -- - -----<br>---------- -- -- -- ---- ----- -- ------ -- --- ------<br>-------,134889.29999995232,134888.39999997616,134382.343,134393.5,134399.013,134899.172,,7,requires
screen,html.Screen,0_4_1_0_1_8,2021-11-12T09:59:20.180Z,,,,,,,,,,,,,,,,48,,,,,,,,,,,,,,341.1279999523249,,response,,,10,F,,,,,Space,keypress(Space),,,,instrumental,-- -- --- ------ ------- --------- ----------- --------<br>travelers -------- --- ------- -- ------- ---- -- ------<br>-- --- -------- -------- ---------- ---- ---- ---- ------<br>-- --------- -- ---- -- --- -- --- ------- -- - -----<br>---------- -- -- -- ---- ----- -- ------ -- --- ------<br>-------,135241.19999992847,135240.29999995232,134882.501,134889.5,134899.172,135249.397,,8,travelers
screen,html.Screen,0_4_1_0_1_9,2021-11-12T09:59:20.532Z,,,,,,,,,,,,,,,,48,,,,,,,,,,,,,,343.00299997616094,,response,,,10,F,,,,,Space,keypress(Space),,,,instrumental,-- -- --- ------ ------- --------- ----------- --------<br>--------- entering --- ------- -- ------- ---- -- ------<br>-- --- -------- -------- ---------- ---- ---- ---- ------<br>-- --------- -- ---- -- --- -- --- ------- -- - -----<br>---------- -- -- -- ---- ----- -- ------ -- --- ------<br>-------,135593.10000002384,135592.39999997616,135232.724,135241.39999997616,135249.397,135599.399,,9,entering
screen,html.Screen,0_4_1_0_1_10,2021-11-12T09:59:20.884Z,,,,,,,,,,,,,,,,48,,,,,,,,,,,,,,344.9009999523114,,response,,,10,F,,,,,Space,keypress(Space),,,,instrumental,-- -- --- ------ ------- --------- ----------- --------<br>--------- -------- the ------- -- ------- ---- -- ------<br>-- --- -------- -------- ---------- ---- ---- ---- ------<br>-- --------- -- ---- -- --- -- --- ------- -- - -----<br>---------- -- -- -- ---- ----- -- ------ -- --- ------<br>-------,135945.10000002384,135944.29999995232,135582.728,135593.29999995232,135599.399,135949.509,,10,the
screen,html.Screen,0_4_1_0_1_11,2021-11-12T09:59:21.212Z,,,,,,,,,,,,,,,,48,,,,,,,,,,,,,,322.6909999284835,,response,,,10,F,,,,,Space,keypress(Space),,,,instrumental,-- -- --- ------ ------- --------- ----------- --------<br>--------- -------- --- country -- ------- ---- -- ------<br>-- --- -------- -------- ---------- ---- ---- ---- ------<br>-- --------- -- ---- -- --- -- --- ------- -- - -----<br>---------- -- -- -- ---- ----- -- ------ -- --- ------<br>-------,136273.10000002384,136272.19999992847,135932.838,135945.39999997616,135949.509,136282.768,,11,country
screen,html.Screen,0_4_1_0_1_12,2021-11-12T09:59:21.532Z,,,,,,,,,,,,,,,,48,,,,,,,,,,,,,,309.53199995230534,,response,,,10,F,,,,,Space,keypress(Space),,,,instrumental,-- -- --- ------ ------- --------- ----------- --------<br>--------- -------- --- ------- to ------- ---- -- ------<br>-- --- -------- -------- ---------- ---- ---- ---- ------<br>-- --------- -- ---- -- --- -- --- ------- -- - -----<br>---------- -- -- -- ---- ----- -- ------ -- --- ------<br>-------,136593.10000002384,136592.29999995232,136266.1,136273.39999997616,136282.768,136599.749,,12,to
screen,html.Screen,0_4_1_0_1_13,2021-11-12T09:59:21.844Z,,,,,,,,,,,,,,,,48,,,,,,,,,,,,,,304.5509999523056,,response,,,10,F,,,,,Space,keypress(Space),,,,instrumental,-- -- --- ------ ------- --------- ----------- --------<br>--------- -------- --- ------- -- declare ---- -- ------<br>-- --- -------- -------- ---------- ---- ---- ---- ------<br>-- --------- -- ---- -- --- -- --- ------- -- - -----<br>---------- -- -- -- ---- ----- -- ------ -- --- ------<br>-------,136905.10000002384,136904.29999995232,136583.076,136593.29999995232,136599.749,136916.277,,13,declare
screen,html.Screen,0_4_1_0_1_14,2021-11-12T09:59:22.156Z,,,,,,,,,,,,,,,,48,,,,,,,,,,,,,,300.0229999523144,,response,,,10,F,,,,,Space,keypress(Space),,,,instrumental,-- -- --- ------ ------- --------- ----------- --------<br>--------- -------- --- ------- -- ------- cash -- ------<br>-- --- -------- -------- ---------- ---- ---- ---- ------<br>-- --------- -- ---- -- --- -- --- ------- -- - -----<br>---------- -- -- -- ---- ----- -- ------ -- --- ------<br>-------,137217,137216.29999995232,136899.609,136905.29999995232,136916.277,137233.228,,14,cash
screen,html.Screen,0_4_1_0_1_15,2021-11-12T09:59:22.516Z,,,,,,,,,,,,,,,,48,,,,,,,,,,,,,,342.97199992847163,,response,,,10,F,,,,,Space,keypress(Space),,,,instrumental,-- -- --- ------ ------- --------- ----------- --------<br>--------- -------- --- ------- -- ------- ---- in ------<br>-- --- -------- -------- ---------- ---- ---- ---- ------<br>-- --------- -- ---- -- --- -- --- ------- -- - -----<br>---------- -- -- -- ---- ----- -- ------ -- --- ------<br>-------,137577,137576.19999992847,137216.556,137217.29999995232,137233.228,137583.276,,15,in
screen,html.Screen,0_4_1_0_1_16,2021-11-12T09:59:22.884Z,,,,,,,,,,,,,,,,48,,,,,,,,,,,,,,361.0239999523037,,response,,,10,F,,,,,Space,keypress(Space),,,,instrumental,-- -- --- ------ ------- --------- ----------- --------<br>--------- -------- --- ------- -- ------- ---- -- excess<br>-- --- -------- -------- ---------- ---- ---- ---- ------<br>-- --------- -- ---- -- --- -- --- ------- -- - -----<br>---------- -- -- -- ---- ----- -- ------ -- --- ------<br>-------,137945.10000002384,137944.29999995232,137566.605,137577.29999995232,137583.276,137949.865,,16,excess
screen,html.Screen,0_4_1_0_1_17,2021-11-12T09:59:23.236Z,,,,,,,,,,,,,,,,48,,,,,,,,,,,,,,346.33499992848374,,response,,,10,F,,,,,Space,keypress(Space),,,,instrumental,-- -- --- ------ ------- --------- ----------- --------<br>--------- -------- --- ------- -- ------- ---- -- ------<br>of --- -------- -------- ---------- ---- ---- ---- ------<br>-- --------- -- ---- -- --- -- --- ------- -- - -----<br>---------- -- -- -- ---- ----- -- ------ -- --- ------<br>-------,138297.10000002384,138296.19999992847,137933.197,137945.39999997616,137949.865,138300.1,,17,of
screen,html.Screen,0_4_1_0_1_18,2021-11-12T09:59:23.604Z,,,,,,,,,,,,,,,,48,,,,,,,,,,,,,,364.0999999284686,,response,,,10,F,,,,,Space,keypress(Space),,,,instrumental,-- -- --- ------ ------- --------- ----------- --------<br>--------- -------- --- ------- -- ------- ---- -- ------<br>-- ten -------- -------- ---------- ---- ---- ---- ------<br>-- --------- -- ---- -- --- -- --- ------- -- - -----<br>---------- -- -- -- ---- ----- -- ------ -- --- ------<br>-------,138665.19999992847,138664.19999992847,138283.429,138297.29999995232,138300.1,138666.957,,18,ten
screen,html.Screen,0_4_1_0_1_19,2021-11-12T09:59:23.948Z,,,,,,,,,,,,,,,,48,,,,,,,,,,,,,,341.24299992847955,,response,,,10,F,,,,,Space,keypress(Space),,,,instrumental,-- -- --- ------ ------- --------- ----------- --------<br>--------- -------- --- ------- -- ------- ---- -- ------<br>-- --- thousand -------- ---------- ---- ---- ---- ------<br>-- --------- -- ---- -- --- -- --- ------- -- - -----<br>---------- -- -- -- ---- ----- -- ------ -- --- ------<br>-------,139009,139008.19999992847,138650.285,138665.5,138666.957,139017.019,,19,thousand
screen,html.Screen,0_4_1_0_1_20,2021-11-12T09:59:24.292Z,,,,,,,,,,,,,,,,48,,,,,,,,,,,,,,335.1809999284742,,response,,,10,F,,,,,Space,keypress(Space),,,,instrumental,-- -- --- ------ ------- --------- ----------- --------<br>--------- -------- --- ------- -- ------- ---- -- ------<br>-- --- -------- dollars. ---------- ---- ---- ---- ------<br>-- --------- -- ---- -- --- -- --- ------- -- - -----<br>---------- -- -- -- ---- ----- -- ------ -- --- ------<br>-------,139353.10000002384,139352.19999992847,139000.348,139009.29999995232,139017.019,139366.919,,20,dollars.
screen,html.Screen,0_4_1_0_1_21,2021-11-12T09:59:24.684Z,,,,,,,,,,,,,,,,48,,,,,,,,,,,,,,377.28099992848,,response,,,10,F,,,,,Space,keypress(Space),,,,instrumental,-- -- --- ------ ------- --------- ----------- --------<br>--------- -------- --- ------- -- ------- ---- -- ------<br>-- --- -------- -------- Concealing ---- ---- ---- ------<br>-- --------- -- ---- -- --- -- --- ------- -- - -----<br>---------- -- -- -- ---- ----- -- ------ -- --- ------<br>-------,139745,139744.19999992847,139350.251,139353.39999997616,139366.919,139750.562,,21,Concealing
screen,html.Screen,0_4_1_0_1_22,2021-11-12T09:59:25.084Z,,,,,,,,,,,,,,,,48,,,,,,,,,,,,,,393.43799999999464,,response,,,10,F,,,,,Space,keypress(Space),,,,instrumental,-- -- --- ------ ------- --------- ----------- --------<br>--------- -------- --- ------- -- ------- ---- -- ------<br>-- --- -------- -------- ---------- more ---- ---- ------<br>-- --------- -- ---- -- --- -- --- ------- -- - -----<br>---------- -- -- -- ---- ----- -- ------ -- --- ------<br>-------,140144.89999997616,140144,139733.89,139745.29999995232,139750.562,140150.632,,22,more
screen,html.Screen,0_4_1_0_1_23,2021-11-12T09:59:25.388Z,,,,,,,,,,,,,,,,48,,,,,,,,,,,,,,297.4680000238295,,response,,,10,F,,,,,Space,keypress(Space),,,,instrumental,-- -- --- ------ ------- --------- ----------- --------<br>--------- -------- --- ------- -- ------- ---- -- ------<br>-- --- -------- -------- ---------- ---- than ---- ------<br>-- --------- -- ---- -- --- -- --- ------- -- - -----<br>---------- -- -- -- ---- ----- -- ------ -- --- ------<br>-------,140448.89999997616,140448.10000002384,140133.961,140145.10000002384,140150.632,140450.715,,23,than
screen,html.Screen,0_4_1_0_1_24,2021-11-12T09:59:25.700Z,,,,,,,,,,,,,,,,48,,,,,,,,,,,,,,309.2850000000035,,response,,,10,F,,,,,Space,keypress(Space),,,,instrumental,-- -- --- ------ ------- --------- ----------- --------<br>--------- -------- --- ------- -- ------- ---- -- ------<br>-- --- -------- -------- ---------- ---- ---- that ------<br>-- --------- -- ---- -- --- -- --- ------- -- - -----<br>---------- -- -- -- ---- ----- -- ------ -- --- ------<br>-------,140760.89999997616,140760,140434.044,140449.19999992847,140450.715,140767.442,,24,that
screen,html.Screen,0_4_1_0_1_25,2021-11-12T09:59:26.044Z,,,,,,,,,,,,,,,,48,,,,,,,,,,,,,,336.65800002383185,,response,,,10,F,,,,,Space,keypress(Space),,,,instrumental,-- -- --- ------ ------- --------- ----------- --------<br>--------- -------- --- ------- -- ------- ---- -- ------<br>-- --- -------- -------- ---------- ---- ---- ---- amount<br>-- --------- -- ---- -- --- -- --- ------- -- - -----<br>---------- -- -- -- ---- ----- -- ------ -- --- ------<br>-------,141104.89999997616,141104.10000002384,140750.772,140761.10000002384,140767.442,141117.563,,25,amount
screen,html.Screen,0_4_1_0_1_26,2021-11-12T09:59:26.404Z,,,,,,,,,,,,,,,,48,,,,,,,,,,,,,,346.5370000238472,,response,,,10,F,,,,,Space,keypress(Space),,,,instrumental,-- -- --- ------ ------- --------- ----------- --------<br>--------- -------- --- ------- -- ------- ---- -- ------<br>-- --- -------- -------- ---------- ---- ---- ---- ------<br>to --------- -- ---- -- --- -- --- ------- -- - -----<br>---------- -- -- -- ---- ----- -- ------ -- --- ------<br>-------,141464.89999997616,141464.10000002384,141100.892,141105.19999992847,141117.563,141467.614,,26,to
screen,html.Screen,0_4_1_0_1_27,2021-11-12T09:59:26.716Z,,,,,,,,,,,,,,,,48,,,,,,,,,,,,,,308.48600002384046,,response,,,10,F,,,,,Space,keypress(Space),,,,instrumental,-- -- --- ------ ------- --------- ----------- --------<br>--------- -------- --- ------- -- ------- ---- -- ------<br>-- --- -------- -------- ---------- ---- ---- ---- ------<br>-- transport -- ---- -- --- -- --- ------- -- - -----<br>---------- -- -- -- ---- ----- -- ------ -- --- ------<br>-------,141776.89999997616,141776.10000002384,141450.944,141465.19999992847,141467.614,141784.397,,27,transport
screen,html.Screen,0_4_1_0_1_28,2021-11-12T09:59:27.060Z,,,,,,,,,,,,,,,,48,,,,,,,,,,,,,,335.50299997616094,,response,,,10,F,,,,,Space,keypress(Space),,,,instrumental,-- -- --- ------ ------- --------- ----------- --------<br>--------- -------- --- ------- -- ------- ---- -- ------<br>-- --- -------- -------- ---------- ---- ---- ---- ------<br>-- --------- it ---- -- --- -- --- ------- -- - -----<br>---------- -- -- -- ---- ----- -- ------ -- --- ------<br>-------,142120.79999995232,142119.89999997616,141767.726,141777.10000002384,141784.397,142134.492,,28,it
screen,html.Screen,0_4_1_0_1_29,2021-11-12T09:59:27.740Z,,,,,,,,,,,,,,,,48,,,,,,,,,,,,,,665.8079999523179,,response,,,10,F,,,,,Space,keypress(Space),,,,instrumental,-- -- --- ------ ------- --------- ----------- --------<br>--------- -------- --- ------- -- ------- ---- -- ------<br>-- --- -------- -------- ---------- ---- ---- ---- ------<br>-- --------- -- into -- --- -- --- ------- -- - -----<br>---------- -- -- -- ---- ----- -- ------ -- --- ------<br>-------,142801.19999992847,142800.29999995232,142117.821,142121,142134.492,142817.958,,29,into
screen,html.Screen,0_4_1_0_1_30,2021-11-12T09:59:28.044Z,,,,,,,,,,,,,,,,48,,,,,,,,,,,,,,286.04199999998673,,response,,,10,F,,,,,Space,keypress(Space),,,,instrumental,-- -- --- ------ ------- --------- ----------- --------<br>--------- -------- --- ------- -- ------- ---- -- ------<br>-- --- -------- -------- ---------- ---- ---- ---- ------<br>-- --------- -- ---- or --- -- --- ------- -- - -----<br>---------- -- -- -- ---- ----- -- ------ -- --- ------<br>-------,143104.79999995232,143104,142801.288,142801.39999997616,142817.958,143118.122,,30,or
screen,html.Screen,0_4_1_0_1_31,2021-11-12T09:59:28.404Z,,,,,,,,,,,,,,,,48,,,,,,,,,,,,,,345.877999999997,,response,,,10,F,,,,,Space,keypress(Space),,,,instrumental,-- -- --- ------ ------- --------- ----------- --------<br>--------- -------- --- ------- -- ------- ---- -- ------<br>-- --- -------- -------- ---------- ---- ---- ---- ------<br>-- --------- -- ---- -- out -- --- ------- -- - -----<br>---------- -- -- -- ---- ----- -- ------ -- --- ------<br>-------,143464.79999995232,143464,143101.451,143105.10000002384,143118.122,143468.163,,31,out
screen,html.Screen,0_4_1_0_1_32,2021-11-12T09:59:28.812Z,,,,,,,,,,,,,,,,48,,,,,,,,,,,,,,403.7369999761577,,response,,,10,F,,,,,Space,keypress(Space),,,,instrumental,-- -- --- ------ ------- --------- ----------- --------<br>--------- -------- --- ------- -- ------- ---- -- ------<br>-- --- -------- -------- ---------- ---- ---- ---- ------<br>-- --------- -- ---- -- --- of --- ------- -- - -----<br>---------- -- -- -- ---- ----- -- ------ -- --- ------<br>-------,143872.89999997616,143871.89999997616,143451.493,143465.10000002384,143468.163,143884.969,,32,of
screen,html.Screen,0_4_1_0_1_33,2021-11-12T09:59:29.100Z,,,,,,,,,,,,,,,,48,,,,,,,,,,,,,,274.8309999523044,,response,,,10,F,,,,,Space,keypress(Space),,,,instrumental,-- -- --- ------ ------- --------- ----------- --------<br>--------- -------- --- ------- -- ------- ---- -- ------<br>-- --- -------- -------- ---------- ---- ---- ---- ------<br>-- --------- -- ---- -- --- -- the ------- -- - -----<br>---------- -- -- -- ---- ----- -- ------ -- --- ------<br>-------,144160.60000002384,144159.79999995232,143868.298,143873,143884.969,144168.339,,33,the
screen,html.Screen,0_4_1_0_1_34,2021-11-12T09:59:29.436Z,,,,,,,,,,,,,,,,48,,,,,,,,,,,,,,327.5609999761509,,response,,,10,F,,,,,Space,keypress(Space),,,,instrumental,-- -- --- ------ ------- --------- ----------- --------<br>--------- -------- --- ------- -- ------- ---- -- ------<br>-- --- -------- -------- ---------- ---- ---- ---- ------<br>-- --------- -- ---- -- --- -- --- country -- - -----<br>---------- -- -- -- ---- ----- -- ------ -- --- ------<br>-------,144496.79999995232,144495.89999997616,144151.669,144160.89999997616,144168.339,144501.804,,34,country
screen,html.Screen,0_4_1_0_1_35,2021-11-12T09:59:29.788Z,,,,,,,,,,,,,,,,48,,,,,,,,,,,,,,346.0959999761544,,response,,,10,F,,,,,Space,keypress(Space),,,,instrumental,-- -- --- ------ ------- --------- ----------- --------<br>--------- -------- --- ------- -- ------- ---- -- ------<br>-- --- -------- -------- ---------- ---- ---- ---- ------<br>-- --------- -- ---- -- --- -- --- ------- is - -----<br>---------- -- -- -- ---- ----- -- ------ -- --- ------<br>-------,144848.69999992847,144847.89999997616,144485.133,144497,144501.804,144851.856,,35,is
screen,html.Screen,0_4_1_0_1_36,2021-11-12T09:59:30.068Z,,,,,,,,,,,,,,,,48,,,,,,,,,,,,,,276.0439999761584,,response,,,10,F,,,,,Space,keypress(Space),,,,instrumental,-- -- --- ------ ------- --------- ----------- --------<br>--------- -------- --- ------- -- ------- ---- -- ------<br>-- --- -------- -------- ---------- ---- ---- ---- ------<br>-- --------- -- ---- -- --- -- --- ------- -- a -----<br>---------- -- -- -- ---- ----- -- ------ -- --- ------<br>-------,145128.69999992847,145127.89999997616,144835.186,144849,144851.856,145135.323,,36,a
screen,html.Screen,0_4_1_0_1_37,2021-11-12T09:59:30.404Z,,,,,,,,,,,,,,,,48,,,,,,,,,,,,,,328.5769999761542,,response,,,10,F,,,,,Space,keypress(Space),,,,instrumental,-- -- --- ------ ------- --------- ----------- --------<br>--------- -------- --- ------- -- ------- ---- -- ------<br>-- --- -------- -------- ---------- ---- ---- ---- ------<br>-- --------- -- ---- -- --- -- --- ------- -- - crime<br>---------- -- -- -- ---- ----- -- ------ -- --- ------<br>-------,145464.69999992847,145463.89999997616,145118.652,145128.89999997616,145135.323,145468.738,,37,crime
screen,html.Screen,0_4_1_0_1_38,2021-11-12T09:59:30.740Z,,,,,,,,,,,,,,,,48,,,,,,,,,,,,,,331.0619999523042,,response,,,10,F,,,,,Space,keypress(Space),,,,instrumental,-- -- --- ------ ------- --------- ----------- --------<br>--------- -------- --- ------- -- ------- ---- -- ------<br>-- --- -------- -------- ---------- ---- ---- ---- ------<br>-- --------- -- ---- -- --- -- --- ------- -- - -----<br>punishable -- -- -- ---- ----- -- ------ -- --- ------<br>-------,145800.60000002384,145799.79999995232,145452.067,145465,145468.738,145801.95,,38,punishable
screen,html.Screen,0_4_1_0_1_39,2021-11-12T09:59:31.068Z,,,,,,,,,,,,,,,,48,,,,,,,,,,,,,,325.9499999761465,,response,,,10,F,,,,,Space,keypress(Space),,,,instrumental,-- -- --- ------ ------- --------- ----------- --------<br>--------- -------- --- ------- -- ------- ---- -- ------<br>-- --- -------- -------- ---------- ---- ---- ---- ------<br>-- --------- -- ---- -- --- -- --- ------- -- - -----<br>---------- by -- -- ---- ----- -- ------ -- --- ------<br>-------,146128.69999992847,146127.89999997616,145785.283,145800.89999997616,145801.95,146135.654,,39,by
screen,html.Screen,0_4_1_0_1_40,2021-11-12T09:59:31.388Z,,,,,,,,,,,,,,,,48,,,,,,,,,,,,,,312.14599995230674,,response,,,10,F,,,,,Space,keypress(Space),,,,instrumental,-- -- --- ------ ------- --------- ----------- --------<br>--------- -------- --- ------- -- ------- ---- -- ------<br>-- --- -------- -------- ---------- ---- ---- ---- ------<br>-- --------- -- ---- -- --- -- --- ------- -- - -----<br>---------- -- up -- ---- ----- -- ------ -- --- ------<br>-------,146448.69999992847,146447.79999995232,146118.981,146128.89999997616,146135.654,146452.166,,40,up
screen,html.Screen,0_4_1_0_1_41,2021-11-12T09:59:31.708Z,,,,,,,,,,,,,,,,48,,,,,,,,,,,,,,315.7339999761607,,response,,,10,F,,,,,Space,keypress(Space),,,,instrumental,-- -- --- ------ ------- --------- ----------- --------<br>--------- -------- --- ------- -- ------- ---- -- ------<br>-- --- -------- -------- ---------- ---- ---- ---- ------<br>-- --------- -- ---- -- --- -- --- ------- -- - -----<br>---------- -- -- to ---- ----- -- ------ -- --- ------<br>-------,146768.60000002384,146767.89999997616,146435.498,146448.89999997616,146452.166,146785.699,,41,to
screen,html.Screen,0_4_1_0_1_42,2021-11-12T09:59:31.996Z,,,,,,,,,,,,,,,,48,,,,,,,,,,,,,,270.2009999761649,,response,,,10,F,,,,,Space,keypress(Space),,,,instrumental,-- -- --- ------ ------- --------- ----------- --------<br>--------- -------- --- ------- -- ------- ---- -- ------<br>-- --- -------- -------- ---------- ---- ---- ---- ------<br>-- --------- -- ---- -- --- -- --- ------- -- - -----<br>---------- -- -- -- five ----- -- ------ -- --- ------<br>-------,147056.69999992847,147055.89999997616,146769.028,146768.89999997616,146785.699,147069.181,,42,five
screen,html.Screen,0_4_1_0_1_43,2021-11-12T09:59:32.316Z,,,,,,,,,,,,,,,,48,,,,,,,,,,,,,,306.71899997614673,,response,,,10,F,,,,,Space,keypress(Space),,,,instrumental,-- -- --- ------ ------- --------- ----------- --------<br>--------- -------- --- ------- -- ------- ---- -- ------<br>-- --- -------- -------- ---------- ---- ---- ---- ------<br>-- --------- -- ---- -- --- -- --- ------- -- - -----<br>---------- -- -- -- ---- years -- ------ -- --- ------<br>-------,147376.60000002384,147375.89999997616,147052.509,147056.89999997616,147069.181,147385.903,,43,years
screen,html.Screen,0_4_1_0_1_44,2021-11-12T09:59:32.604Z,,,,,,,,,,,,,,,,48,,,,,,,,,,,,,,277.89699995232513,,response,,,10,F,,,,,Space,keypress(Space),,,,instrumental,-- -- --- ------ ------- --------- ----------- --------<br>--------- -------- --- ------- -- ------- ---- -- ------<br>-- --- -------- -------- ---------- ---- ---- ---- ------<br>-- --------- -- ---- -- --- -- --- ------- -- - -----<br>---------- -- -- -- ---- ----- in ------ -- --- ------<br>-------,147664.60000002384,147663.79999995232,147369.232,147376.89999997616,147385.903,147669.328,,44,in
screen,html.Screen,0_4_1_0_1_45,2021-11-12T09:59:32.876Z,,,,,,,,,,,,,,,,48,,,,,,,,,,,,,,266.47199995230767,,response,,,10,F,,,,,Space,keypress(Space),,,,instrumental,-- -- --- ------ ------- --------- ----------- --------<br>--------- -------- --- ------- -- ------- ---- -- ------<br>-- --- -------- -------- ---------- ---- ---- ---- ------<br>-- --------- -- ---- -- --- -- --- ------- -- - -----<br>---------- -- -- -- ---- ----- -- prison -- --- ------<br>-------,147936.60000002384,147935.79999995232,147652.657,147664.79999995232,147669.328,147952.702,,45,prison
screen,html.Screen,0_4_1_0_1_46,2021-11-12T09:59:33.212Z,,,,,,,,,,,,,,,,48,,,,,,,,,,,,,,318.9979999284842,,response,,,10,F,,,,,Space,keypress(Space),,,,instrumental,-- -- --- ------ ------- --------- ----------- --------<br>--------- -------- --- ------- -- ------- ---- -- ------<br>-- --- -------- -------- ---------- ---- ---- ---- ------<br>-- --------- -- ---- -- --- -- --- ------- -- - -----<br>---------- -- -- -- ---- ----- -- ------ in --- ------<br>-------,148272.60000002384,148271.69999992847,147936.032,147938.39999997616,147952.702,148286.144,,46,in
screen,html.Screen,0_4_1_0_1_47,2021-11-12T09:59:33.484Z,,,,,,,,,,,,,,,,48,,,,,,,,,,,,,,257.65599995231605,,response,,,10,F,,,,,Space,keypress(Space),,,,instrumental,-- -- --- ------ ------- --------- ----------- --------<br>--------- -------- --- ------- -- ------- ---- -- ------<br>-- --- -------- -------- ---------- ---- ---- ---- ------<br>-- --------- -- ---- -- --- -- --- ------- -- - -----<br>---------- -- -- -- ---- ----- -- ------ -- the ------<br>-------,148544.5,148543.79999995232,148269.473,148272.89999997616,148286.144,148552.737,,47,the
screen,html.Screen,0_4_1_0_1_48,2021-11-12T09:59:33.852Z,,,,,,,,,,,,,,,,48,,,,,,,,,,,,,,359.06299995232257,,response,,,10,F,,,,,Space,keypress(Space),,,,instrumental,-- -- --- ------ ------- --------- ----------- --------<br>--------- -------- --- ------- -- ------- ---- -- ------<br>-- --- -------- -------- ---------- ---- ---- ---- ------<br>-- --------- -- ---- -- --- -- --- ------- -- - -----<br>---------- -- -- -- ---- ----- -- ------ -- --- United<br>-------,148912.60000002384,148911.79999995232,148536.069,148544.79999995232,148552.737,148919.727,,48,United
screen,html.Screen,0_4_1_0_1_49,2021-11-12T09:59:34.268Z,,,,,,,,,,,,,,,,48,,,,,,,,,,,,,,407.9729999284609,,response,,,10,F,,,,,Space,keypress(Space),,,,instrumental,-- -- --- ------ ------- --------- ----------- --------<br>--------- -------- --- ------- -- ------- ---- -- ------<br>-- --- -------- -------- ---------- ---- ---- ---- ------<br>-- --------- -- ---- -- --- -- --- ------- -- - -----<br>---------- -- -- -- ---- ----- -- ------ -- --- ------<br>States.,149328.60000002384,149327.69999992847,148903.054,148912.79999995232,148919.727,149336.258,,49,States.
Item 10,flow.Loop,0_4_1_0_1,2021-11-12T09:59:34.268Z,,,,,,,,,,,,,,,,,,,,,,,,,,,,,,18263.021999928475,,completion,,,,,,,,,,,,,,,,149329,149327.69999992847,131048.008,131049.89999997616,131064.678,149336.258,,,
Question 1,html.Screen,0_4_1_0_2,2021-11-12T09:59:37.364Z,,,,,,,,,,,,,,,,,,,,,,,,,,,false,TRUE,,3087.1419999761565,,response,,,10,F,,,,,FALSE,click #choice-2,,,,instrumental,,152424.79999995232,152423.39999997616,149319.59,149329.19999992847,149336.258,152437.273,,,
Question 2,html.Screen,0_4_1_0_3,2021-11-12T09:59:39.979Z,,,,,,,,,,,,,,,,,,,,,,,,,,,true,TRUE,,2602.02699995233,,response,,,10,F,,,,,TRUE,click #choice-1,,,,instrumental,,155040.29999995232,155039.29999995232,152420.602,152425,152437.273,155054.553,,,
Item 10,flow.Sequence,0_4_1_0,2021-11-12T09:59:39.980Z,,,,,,,,,,,,,,,,,,,,,,,,,,,,,,30976.443999952317,,completion,,,,,,,,,,,,,,,,155040.69999992847,155039.29999995232,124046.185,124048.19999992847,124062.856,155054.553,,,
Holding screen,html.Screen,0_4_1_1_0,2021-11-12T09:59:46.980Z,,,,,,,,,,,,,,,,,,,,,,,,,,,,,,7001.9649999999965,,timeout,,,,,,,,,,,,,,,,162040.69999992847,162039.847,155037.883,155041,155054.553,162056.518,,,
screen,html.Screen,0_4_1_1_1_0,2021-11-12T09:59:48.835Z,,,,,,,,,,,,,,,,11,,,,,,,,,,,,,,1838.6819999284635,,response,,,4,F,,,,,Space,keypress(Space),,,,instrumental,Known -- ---- --- -- --- -------- ------------ ---------- --<br>- ------- ------ --------- -- ------------ -- --- ---- -----<br>------ ---- ---- ------ ------ ------- --- ----- ---------<br>---- --- -------- -------- --- --- -- ------- --- --- -----<br>-- --- ------ ------- --- --- -------- ---- --------- --<br>---------- -- -------- ----------------,163896.10000002384,163895.19999992847,162039.847,162041,162056.518,163906.866,,0,Known
screen,html.Screen,0_4_1_1_1_1,2021-11-12T09:59:49.267Z,,,,,,,,,,,,,,,,11,,,,,,,,,,,,,,420.2340000238328,,response,,,4,F,,,,,Space,keypress(Space),,,,instrumental,----- as ---- --- -- --- -------- ------------ ---------- --<br>- ------- ------ --------- -- ------------ -- --- ---- -----<br>------ ---- ---- ------ ------ ------- --- ----- ---------<br>---- --- -------- -------- --- --- -- ------- --- --- -----<br>-- --- ------ ------- --- --- -------- ---- --------- --<br>---------- -- -------- ----------------,164328,164327.10000002384,163890.196,163896.39999997616,163906.866,164340.209,,1,as
screen,html.Screen,0_4_1_1_1_2,2021-11-12T09:59:49.795Z,,,,,,,,,,,,,,,,11,,,,,,,,,,,,,,514.8910000238393,,response,,,4,F,,,,,Space,keypress(Space),,,,instrumental,----- -- Rapa --- -- --- -------- ------------ ---------- --<br>- ------- ------ --------- -- ------------ -- --- ---- -----<br>------ ---- ---- ------ ------ ------- --- ----- ---------<br>---- --- -------- -------- --- --- -- ------- --- --- -----<br>-- --- ------ ------- --- --- -------- ---- --------- --<br>---------- -- -------- ----------------,164855.79999995232,164855.10000002384,164323.54,164328.29999995232,164340.209,164857.198,,2,Rapa
screen,html.Screen,0_4_1_1_1_3,2021-11-12T09:59:50.203Z,,,,,,,,,,,,,,,,11,,,,,,,,,,,,,,406.30199999999604,,response,,,4,F,,,,,Space,keypress(Space),,,,instrumental,----- -- ---- Nui -- --- -------- ------------ ---------- --<br>- ------- ------ --------- -- ------------ -- --- ---- -----<br>------ ---- ---- ------ ------ ------- --- ----- ---------<br>---- --- -------- -------- --- --- -- ------- --- --- -----<br>-- --- ------ ------- --- --- -------- ---- --------- --<br>---------- -- -------- ----------------,165264.29999995232,165263.5,164840.527,164856.10000002384,164857.198,165274.222,,3,Nui
