sender,sender_type,sender_id,timestamp,meta,,Blues,Classical,Country,Dance,Electronic,Folk,Gospel,Hip-Hop,Jazz,Latin,Musical/Film,New-age,Pop,Provo_ID,R&B,Rap,Reggae,Religious,Rock,Soul,Swing,Traditional,age,artist_name,correct,correctResponse,distraction,duration,education,ended_on,familiarity,gender,item,list,music_frequency,offensiveness,pleasantness,preference,response,response_action,snippet_file,song_name,song_rating,sound,text,time_commit,time_end,time_render,time_run,time_show,time_switch,url,word,word_ID
Instructions,html.Page,0_0,2021-12-02T16:19:21.655Z,"{""labjs_version"":""20.2.3"",""labjs_build"":{""flavor"":""production"",""commit"":""7ea907d66ca8aeef8054924ca5d82ffbe11e34e5""},""location"":""https://run.pavlovia.org/mvasilev/lab_music_e/"",""userAgent"":""Mozilla/5.0 (Windows NT 6.1; Win64; x64) AppleWebKit/537.36 (KHTML, like Gecko) Chrome/96.0.4664.45 Safari/537.36"",""platform"":""Win32"",""language"":""en-US"",""locale"":""en-US"",""timeZone"":""Europe/London"",""timezoneOffset"":0,""screen_width"":1920,""screen_height"":1080,""scroll_width"":1920,""scroll_height"":959,""window_innerWidth"":1920,""window_innerHeight"":1007,""devicePixelRatio"":1}",,,,,,,,,,,,,,,,,,,,,,,,,,,,,19812.074,,form submission,,,,,,,,,,,,,,,,26821.70000000298,26820.5,6975.086,6987.300000000745,7008.426,26830.425,{},,
Headphones,html.Page,0_1,2021-12-02T16:19:24.095Z,,,,,,,,,,,,,,,,,,,,,,,,,,,,,,2430.675000001491,,form submission,,,,,,,,,,,,,,,,29261.60000000149,29261.10000000149,26813.752,26822.400000002235,26830.425,29264.193,,,
Holding screen,html.Screen,0_2_0_0,2021-12-02T16:19:34.089Z,,,,,,,,,,,,,,,,,,,,,,,,,,,,,,10002.487999999998,,timeout,,,,,,,,,,,,,,,,39255.300000000745,39250.012,29247.523,29262.10000000149,29264.193,39266.681,,,
screen,html.Screen,0_2_0_1_0,2021-12-02T16:19:35.262Z,,,,,,,,,,,,,,,,53,,,,,,,,,,,,,,1160.5190000029834,,response,,,99,,,,,,Space,keypress(Space),,,,,When -- ----- -- ------ - ------- --- ----------<br>------------- ------ ------ ---- ---- ------- ----- -- ----<br>-------- ------- -- ---------- --- - --- ----- ----- ----<br>---- --- --- ----- --- ---- ---- ------- ----- ---- -------<br>--- --- -- ----- -- --- ---- -- --- ---- -- ------ ------<br>--- ----- -- ----,40428.60000000149,40427.20000000298,39250.012,39255.70000000298,39266.681,40434.025,,0,When
screen,html.Screen,0_2_0_1_1,2021-12-02T16:19:35.733Z,,,,,,,,,,,,,,,,53,,,,,,,,,,,,,,464.57500000148866,,response,,,99,,,,,,Space,keypress(Space),,,,,---- it ----- -- ------ - ------- --- ----------<br>------------- ------ ------ ---- ---- ------- ----- -- ----<br>-------- ------- -- ---------- --- - --- ----- ----- ----<br>---- --- --- ----- --- ---- ---- ------- ----- ---- -------<br>--- --- -- ----- -- --- ---- -- --- ---- -- ------ ------<br>--- ----- -- ----,40899.60000000149,40898.60000000149,40417.353,40429,40434.025,40900.623,,1,it
screen,html.Screen,0_2_0_1_2,2021-12-02T16:19:36.261Z,,,,,,,,,,,,,,,,53,,,,,,,,,,,,,,525.9770000014905,,response,,,99,,,,,,Space,keypress(Space),,,,,---- -- comes -- ------ - ------- --- ----------<br>------------- ------ ------ ---- ---- ------- ----- -- ----<br>-------- ------- -- ---------- --- - --- ----- ----- ----<br>---- --- --- ----- --- ---- ---- ------- ----- ---- -------<br>--- --- -- ----- -- --- ---- -- --- ---- -- ------ ------<br>--- ----- -- ----,41427.5,41426.60000000149,40883.953,40899.800000000745,40900.623,41434.123,,2,comes
screen,html.Screen,0_2_0_1_3,2021-12-02T16:19:36.637Z,,,,,,,,,,,,,,,,53,,,,,,,,,,,,,,368.4770000014905,,response,,,99,,,,,,Space,keypress(Space),,,,,---- -- ----- to ------ - ------- --- ----------<br>------------- ------ ------ ---- ---- ------- ----- -- ----<br>-------- ------- -- ---------- --- - --- ----- ----- ----<br>---- --- --- ----- --- ---- ---- ------- ----- ---- -------<br>--- --- -- ----- -- --- ---- -- --- ---- -- ------ ------<br>--- ----- -- ----,41803.5,41802.60000000149,41417.453,41427.800000000745,41434.123,41817.564,,3,to
screen,html.Screen,0_2_0_1_4,2021-12-02T16:19:37.405Z,,,,,,,,,,,,,,,,53,,,,,,,,,,,,,,753.0360000014916,,response,,,99,,,,,,Space,keypress(Space),,,,,---- -- ----- -- having - ------- --- ----------<br>------------- ------ ------ ---- ---- ------- ----- -- ----<br>-------- ------- -- ---------- --- - --- ----- ----- ----<br>---- --- --- ----- --- ---- ---- ------- ----- ---- -------<br>--- --- -- ----- -- --- ---- -- --- ---- -- ------ ------<br>--- ----- -- ----,42571.70000000298,42570.60000000149,41800.894,41804.10000000149,41817.564,42584.395,,4,having
screen,html.Screen,0_2_0_1_5,2021-12-02T16:19:37.717Z,,,,,,,,,,,,,,,,53,,,,,,,,,,,,,,298.2050000014933,,response,,,99,,,,,,Space,keypress(Space),,,,,---- -- ----- -- ------ a ------- --- ----------<br>------------- ------ ------ ---- ---- ------- ----- -- ----<br>-------- ------- -- ---------- --- - --- ----- ----- ----<br>---- --- --- ----- --- ---- ---- ------- ----- ---- -------<br>--- --- -- ----- -- --- ---- -- --- ---- -- ------ ------<br>--- ----- -- ----,42883.5,42882.60000000149,42567.725,42572,42584.395,42901.171,,5,a
screen,html.Screen,0_2_0_1_6,2021-12-02T16:19:38.365Z,,,,,,,,,,,,,,,,53,,,,,,,,,,,,,,629.3289999999979,,response,,,99,,,,,,Space,keypress(Space),,,,,---- -- ----- -- ------ - lasting --- ----------<br>------------- ------ ------ ---- ---- ------- ----- -- ----<br>-------- ------- -- ---------- --- - --- ----- ----- ----<br>---- --- --- ----- --- ---- ---- ------- ----- ---- -------<br>--- --- -- ----- -- --- ---- -- --- ---- -- ------ ------<br>--- ----- -- ----,43531.5,43530.5,42884.501,42884.10000000149,42901.171,43534.612,,6,lasting
screen,html.Screen,0_2_0_1_7,2021-12-02T16:19:38.733Z,,,,,,,,,,,,,,,,53,,,,,,,,,,,,,,363.887999999999,,response,,,99,,,,,,Space,keypress(Space),,,,,---- -- ----- -- ------ - ------- and ----------<br>------------- ------ ------ ---- ---- ------- ----- -- ----<br>-------- ------- -- ---------- --- - --- ----- ----- ----<br>---- --- --- ----- --- ---- ---- ------- ----- ---- -------<br>--- --- -- ----- -- --- ---- -- --- ---- -- ------ ------<br>--- ----- -- ----,43899.5,43898.5,43517.942,43531.800000000745,43534.612,43901.534,,7,and
screen,html.Screen,0_2_0_1_8,2021-12-02T16:19:39.269Z,,,,,,,,,,,,,,,,53,,,,,,,,,,,,,,532.9660000000003,,response,,,99,,,,,,Space,keypress(Space),,,,,---- -- ----- -- ------ - ------- --- fulfilling<br>------------- ------ ------ ---- ---- ------- ----- -- ----<br>-------- ------- -- ---------- --- - --- ----- ----- ----<br>---- --- --- ----- --- ---- ---- ------- ----- ---- -------<br>--- --- -- ----- -- --- ---- -- --- ---- -- ------ ------<br>--- ----- -- ----,44435.60000000149,44434.5,43884.862,43899.70000000298,43901.534,44451.617,,8,fulfilling
screen,html.Screen,0_2_0_1_9,2021-12-02T16:19:39.853Z,,,,,,,,,,,,,,,,53,,,,,,,,,,,,,,566.9830000014917,,response,,,99,,,,,,Space,keypress(Space),,,,,"---- -- ----- -- ------ - ------- --- ----------<br>relationship, ------ ------ ---- ---- ------- ----- -- ----<br>-------- ------- -- ---------- --- - --- ----- ----- ----<br>---- --- --- ----- --- ---- ---- ------- ----- ---- -------<br>--- --- -- ----- -- --- ---- -- --- ---- -- ------ ------<br>--- ----- -- ----",45019.400000002235,45018.60000000149,44434.946,44435.900000002235,44451.617,45035.042,,9,"relationship,"
screen,html.Screen,0_2_0_1_10,2021-12-02T16:19:40.301Z,,,,,,,,,,,,,,,,53,,,,,,,,,,,,,,431.3580000022339,,response,,,99,,,,,,Space,keypress(Space),,,,,---- -- ----- -- ------ - ------- --- ----------<br>------------- common ------ ---- ---- ------- ----- -- ----<br>-------- ------- -- ---------- --- - --- ----- ----- ----<br>---- --- --- ----- --- ---- ---- ------- ----- ---- -------<br>--- --- -- ----- -- --- ---- -- --- ---- -- ------ ------<br>--- ----- -- ----,45467.300000000745,45466.400000002235,45018.372,45019.70000000298,45035.042,45468.49,,10,common
screen,html.Screen,0_2_0_1_11,2021-12-02T16:19:40.725Z,,,,,,,,,,,,,,,,53,,,,,,,,,,,,,,421.9100000022372,,response,,,99,,,,,,Space,keypress(Space),,,,,---- -- ----- -- ------ - ------- --- ----------<br>------------- ------ wisdom ---- ---- ------- ----- -- ----<br>-------- ------- -- ---------- --- - --- ----- ----- ----<br>---- --- --- ----- --- ---- ---- ------- ----- ---- -------<br>--- --- -- ----- -- --- ---- -- --- ---- -- ------ ------<br>--- ----- -- ----,45891.300000000745,45890.400000002235,45451.82,45467.60000000149,45468.49,45901.933,,11,wisdom
screen,html.Screen,0_2_0_1_12,2021-12-02T16:19:41.277Z,,,,,,,,,,,,,,,,53,,,,,,,,,,,,,,540.3670000007478,,response,,,99,,,,,,Space,keypress(Space),,,,,---- -- ----- -- ------ - ------- --- ----------<br>------------- ------ ------ says ---- ------- ----- -- ----<br>-------- ------- -- ---------- --- - --- ----- ----- ----<br>---- --- --- ----- --- ---- ---- ------- ----- ---- -------<br>--- --- -- ----- -- --- ---- -- --- ---- -- ------ ------<br>--- ----- -- ----,46443.20000000298,46442.300000000745,45885.263,45891.60000000149,45901.933,46452.124,,12,says
screen,html.Screen,0_2_0_1_13,2021-12-02T16:19:41.709Z,,,,,,,,,,,,,,,,53,,,,,,,,,,,,,,422.1760000007416,,response,,,99,,,,,,Space,keypress(Space),,,,,---- -- ----- -- ------ - ------- --- ----------<br>------------- ------ ------ ---- that ------- ----- -- ----<br>-------- ------- -- ---------- --- - --- ----- ----- ----<br>---- --- --- ----- --- ---- ---- ------- ----- ---- -------<br>--- --- -- ----- -- --- ---- -- --- ---- -- ------ ------<br>--- ----- -- ----,46875.20000000298,46874.300000000745,46435.453,46443.400000002235,46452.124,46885.518,,13,that
screen,html.Screen,0_2_0_1_14,2021-12-02T16:19:42.125Z,,,,,,,,,,,,,,,,53,,,,,,,,,,,,,,404.78200000074867,,response,,,99,,,,,,Space,keypress(Space),,,,,---- -- ----- -- ------ - ------- --- ----------<br>------------- ------ ------ ---- ---- feeling ----- -- ----<br>-------- ------- -- ---------- --- - --- ----- ----- ----<br>---- --- --- ----- --- ---- ---- ------- ----- ---- -------<br>--- --- -- ----- -- --- ---- -- --- ---- -- ------ ------<br>--- ----- -- ----,47291.10000000149,47290.300000000745,46868.848,46875.5,46885.518,47302.301,,14,feeling
screen,html.Screen,0_2_0_1_15,2021-12-02T16:19:42.621Z,,,,,,,,,,,,,,,,53,,,,,,,,,,,,,,483.9990000007456,,response,,,99,,,,,,Space,keypress(Space),,,,,---- -- ----- -- ------ - ------- --- ----------<br>------------- ------ ------ ---- ---- ------- close -- ----<br>-------- ------- -- ---------- --- - --- ----- ----- ----<br>---- --- --- ----- --- ---- ---- ------- ----- ---- -------<br>--- --- -- ----- -- --- ---- -- --- ---- -- ------ ------<br>--- ----- -- ----,47787.10000000149,47786.300000000745,47285.631,47291.400000002235,47302.301,47802.422,,15,close
screen,html.Screen,0_2_0_1_16,2021-12-02T16:19:42.989Z,,,,,,,,,,,,,,,,53,,,,,,,,,,,,,,351.77800000298157,,response,,,99,,,,,,Space,keypress(Space),,,,,---- -- ----- -- ------ - ------- --- ----------<br>------------- ------ ------ ---- ---- ------- ----- to ----<br>-------- ------- -- ---------- --- - --- ----- ----- ----<br>---- --- --- ----- --- ---- ---- ------- ----- ---- -------<br>--- --- -- ----- -- --- ---- -- --- ---- -- ------ ------<br>--- ----- -- ----,48155.10000000149,48154.20000000298,47785.752,47787.400000002235,47802.422,48169.247,,16,to
screen,html.Screen,0_2_0_1_17,2021-12-02T16:19:43.541Z,,,,,,,,,,,,,,,,53,,,,,,,,,,,,,,536.9530000029772,,response,,,99,,,,,,Space,keypress(Space),,,,,---- -- ----- -- ------ - ------- --- ----------<br>------------- ------ ------ ---- ---- ------- ----- -- your<br>-------- ------- -- ---------- --- - --- ----- ----- ----<br>---- --- --- ----- --- ---- ---- ------- ----- ---- -------<br>--- --- -- ----- -- --- ---- -- --- ---- -- ------ ------<br>--- ----- -- ----,48707.10000000149,48706.20000000298,48152.576,48155.300000000745,48169.247,48719.215,,17,your
screen,html.Screen,0_2_0_1_18,2021-12-02T16:19:44.140Z,,,,,,,,,,,,,,,,53,,,,,,,,,,,,,,586.9850000029837,,response,,,99,,,,,,Space,keypress(Space),,,,,---- -- ----- -- ------ - ------- --- ----------<br>------------- ------ ------ ---- ---- ------- ----- -- ----<br>romantic ------- -- ---------- --- - --- ----- ----- ----<br>---- --- --- ----- --- ---- ---- ------- ----- ---- -------<br>--- --- -- ----- -- --- ---- -- --- ---- -- ------ ------<br>--- ----- -- ----,49307,49306.20000000298,48702.546,48707.300000000745,48719.215,49319.604,,18,romantic
screen,html.Screen,0_2_0_1_19,2021-12-02T16:19:44.652Z,,,,,,,,,,,,,,,,53,,,,,,,,,,,,,,498.5960000029809,,response,,,99,,,,,,Space,keypress(Space),,,,,---- -- ----- -- ------ - ------- --- ----------<br>------------- ------ ------ ---- ---- ------- ----- -- ----<br>-------- partner -- ---------- --- - --- ----- ----- ----<br>---- --- --- ----- --- ---- ---- ------- ----- ---- -------<br>--- --- -- ----- -- --- ---- -- --- ---- -- ------ ------<br>--- ----- -- ----,49819,49818.20000000298,49302.932,49307.20000000298,49319.604,49836.333,,19,partner
screen,html.Screen,0_2_0_1_20,2021-12-02T16:19:45.140Z,,,,,,,,,,,,,,,,53,,,,,,,,,,,,,,469.7670000014914,,response,,,99,,,,,,Space,keypress(Space),,,,,---- -- ----- -- ------ - ------- --- ----------<br>------------- ------ ------ ---- ---- ------- ----- -- ----<br>-------- ------- is ---------- --- - --- ----- ----- ----<br>---- --- --- ----- --- ---- ---- ------- ----- ---- -------<br>--- --- -- ----- -- --- ---- -- --- ---- -- ------ ------<br>--- ----- -- ----,50306.900000002235,50306.10000000149,49819.662,49819.20000000298,49836.333,50319.71,,20,is
screen,html.Screen,0_2_0_1_21,2021-12-02T16:19:46.061Z,,,,,,,,,,,,,,,,53,,,,,,,,,,,,,,906.890000001491,,response,,,99,,,,,,Space,keypress(Space),,,,,---- -- ----- -- ------ - ------- --- ----------<br>------------- ------ ------ ---- ---- ------- ----- -- ----<br>-------- ------- -- paramount. --- - --- ----- ----- ----<br>---- --- --- ----- --- ---- ---- ------- ----- ---- -------<br>--- --- -- ----- -- --- ---- -- --- ---- -- ------ ------<br>--- ----- -- ----,51227.300000000745,51226.60000000149,50303.04,50307.20000000298,50319.71,51236.57,,21,paramount.
screen,html.Screen,0_2_0_1_22,2021-12-02T16:19:46.396Z,,,,,,,,,,,,,,,,53,,,,,,,,,,,,,,325.5300000014904,,response,,,99,,,,,,Space,keypress(Space),,,,,---- -- ----- -- ------ - ------- --- ----------<br>------------- ------ ------ ---- ---- ------- ----- -- ----<br>-------- ------- -- ---------- But - --- ----- ----- ----<br>---- --- --- ----- --- ---- ---- ------- ----- ---- -------<br>--- --- -- ----- -- --- ---- -- --- ---- -- ------ ------<br>--- ----- -- ----,51562.900000002235,51562.10000000149,51219.9,51227.800000000745,51236.57,51570.156,,22,But
screen,html.Screen,0_2_0_1_23,2021-12-02T16:19:46.748Z,,,,,,,,,,,,,,,,53,,,,,,,,,,,,,,343.8439999999973,,response,,,99,,,,,,Space,keypress(Space),,,,,---- -- ----- -- ------ - ------- --- ----------<br>------------- ------ ------ ---- ---- ------- ----- -- ----<br>-------- ------- -- ---------- --- a --- ----- ----- ----<br>---- --- --- ----- --- ---- ---- ------- ----- ---- -------<br>--- --- -- ----- -- --- ---- -- --- ---- -- ------ ------<br>--- ----- -- ----,51914.800000000745,51914,51553.484,51563.10000000149,51570.156,51920.201,,23,a
screen,html.Screen,0_2_0_1_24,2021-12-02T16:19:47.348Z,,,,,,,,,,,,,,,,53,,,,,,,,,,,,,,593.7989999999991,,response,,,99,,,,,,Space,keypress(Space),,,,,---- -- ----- -- ------ - ------- --- ----------<br>------------- ------ ------ ---- ---- ------- ----- -- ----<br>-------- ------- -- ---------- --- - new ----- ----- ----<br>---- --- --- ----- --- ---- ---- ------- ----- ---- -------<br>--- --- -- ----- -- --- ---- -- --- ---- -- ------ ------<br>--- ----- -- ----,52514.800000000745,52514,51903.53,51915.10000000149,51920.201,52520.302,,24,new
screen,html.Screen,0_2_0_1_25,2021-12-02T16:19:47.956Z,,,,,,,,,,,,,,,,53,,,,,,,,,,,,,,601.6979999999967,,response,,,99,,,,,,Space,keypress(Space),,,,,---- -- ----- -- ------ - ------- --- ----------<br>------------- ------ ------ ---- ---- ------- ----- -- ----<br>-------- ------- -- ---------- --- - --- study ----- ----<br>---- --- --- ----- --- ---- ---- ------- ----- ---- -------<br>--- --- -- ----- -- --- ---- -- --- ---- -- ------ ------<br>--- ----- -- ----,53122.800000000745,53122,52503.632,52515.10000000149,52520.302,53137.129,,25,study
screen,html.Screen,0_2_0_1_26,2021-12-02T16:19:48.468Z,,,,,,,,,,,,,,,,53,,,,,,,,,,,,,,496.8709999999992,,response,,,99,,,,,,Space,keypress(Space),,,,,---- -- ----- -- ------ - ------- --- ----------<br>------------- ------ ------ ---- ---- ------- ----- -- ----<br>-------- ------- -- ---------- --- - --- ----- finds ----<br>---- --- --- ----- --- ---- ---- ------- ----- ---- -------<br>--- --- -- ----- -- --- ---- -- --- ---- -- ------ ------<br>--- ----- -- ----,53634.800000000745,53634,53120.459,53123,53137.129,53637.249,,26,finds
screen,html.Screen,0_2_0_1_27,2021-12-02T16:19:48.740Z,,,,,,,,,,,,,,,,53,,,,,,,,,,,,,,268.65100000223174,,response,,,99,,,,,,Space,keypress(Space),,,,,---- -- ----- -- ------ - ------- --- ----------<br>------------- ------ ------ ---- ---- ------- ----- -- ----<br>-------- ------- -- ---------- --- - --- ----- ----- that<br>---- --- --- ----- --- ---- ---- ------- ----- ---- -------<br>--- --- -- ----- -- --- ---- -- --- ---- -- ------ ------<br>--- ----- -- ----,53906.60000000149,53905.900000002235,53620.579,53635,53637.249,53920.711,,27,that
screen,html.Screen,0_2_0_1_28,2021-12-02T16:19:49.068Z,,,,,,,,,,,,,,,,53,,,,,,,,,,,,,,313.1890000022322,,response,,,99,,,,,,Space,keypress(Space),,,,,---- -- ----- -- ------ - ------- --- ----------<br>------------- ------ ------ ---- ---- ------- ----- -- ----<br>-------- ------- -- ---------- --- - --- ----- ----- ----<br>it's --- --- ----- --- ---- ---- ------- ----- ---- -------<br>--- --- -- ----- -- --- ---- -- --- ---- -- ------ ------<br>--- ----- -- ----,54234.70000000298,54233.900000002235,53904.04,53907,53920.711,54237.431,,28,it's
screen,html.Screen,0_2_0_1_29,2021-12-02T16:19:49.604Z,,,,,,,,,,,,,,,,53,,,,,,,,,,,,,,532.4690000022383,,response,,,99,,,,,,Space,keypress(Space),,,,,---- -- ----- -- ------ - ------- --- ----------<br>------------- ------ ------ ---- ---- ------- ----- -- ----<br>-------- ------- -- ---------- --- - --- ----- ----- ----<br>---- not --- ----- --- ---- ---- ------- ----- ---- -------<br>--- --- -- ----- -- --- ---- -- --- ---- -- ------ ------<br>--- ----- -- ----,54770.70000000298,54769.900000002235,54220.761,54234.900000002235,54237.431,54787.486,,29,not
screen,html.Screen,0_2_0_1_30,2021-12-02T16:19:50.004Z,,,,,,,,,,,,,,,,53,,,,,,,,,,,,,,382.414000002238,,response,,,99,,,,,,Space,keypress(Space),,,,,---- -- ----- -- ------ - ------- --- ----------<br>------------- ------ ------ ---- ---- ------- ----- -- ----<br>-------- ------- -- ---------- --- - --- ----- ----- ----<br>---- --- how ----- --- ---- ---- ------- ----- ---- -------<br>--- --- -- ----- -- --- ---- -- --- ---- -- ------ ------<br>--- ----- -- ----,55170.70000000298,55169.900000002235,54770.817,54771,54787.486,55187.758,,30,how
screen,html.Screen,0_2_0_1_31,2021-12-02T16:19:50.796Z,,,,,,,,,,,,,,,,53,,,,,,,,,,,,,,774.0420000007434,,response,,,99,,,,,,Space,keypress(Space),,,,,---- -- ----- -- ------ - ------- --- ----------<br>------------- ------ ------ ---- ---- ------- ----- -- ----<br>-------- ------- -- ---------- --- - --- ----- ----- ----<br>---- --- --- close --- ---- ---- ------- ----- ---- -------<br>--- --- -- ----- -- --- ---- -- --- ---- -- ------ ------<br>--- ----- -- ----,55962.800000000745,55961.800000000745,55171.086,55170.900000002235,55187.758,55971.169,,31,close
screen,html.Screen,0_2_0_1_32,2021-12-02T16:19:51.100Z,,,,,,,,,,,,,,,,53,,,,,,,,,,,,,,294.63100000074337,,response,,,99,,,,,,Space,keypress(Space),,,,,---- -- ----- -- ------ - ------- --- ----------<br>------------- ------ ------ ---- ---- ------- ----- -- ----<br>-------- ------- -- ---------- --- - --- ----- ----- ----<br>---- --- --- ----- you ---- ---- ------- ----- ---- -------<br>--- --- -- ----- -- --- ---- -- --- ---- -- ------ ------<br>--- ----- -- ----,56266.60000000149,56265.800000000745,55954.499,55963.10000000149,55971.169,56271.1,,32,you
screen,html.Screen,0_2_0_1_33,2021-12-02T16:19:51.428Z,,,,,,,,,,,,,,,,53,,,,,,,,,,,,,,322.6000000029817,,response,,,99,,,,,,Space,keypress(Space),,,,,---- -- ----- -- ------ - ------- --- ----------<br>------------- ------ ------ ---- ---- ------- ----- -- ----<br>-------- ------- -- ---------- --- - --- ----- ----- ----<br>---- --- --- ----- --- feel ---- ------- ----- ---- -------<br>--- --- -- ----- -- --- ---- -- --- ---- -- ------ ------<br>--- ----- -- ----,56594.5,56593.70000000298,56254.432,56266.800000000745,56271.1,56604.769,,33,feel
screen,html.Screen,0_2_0_1_34,2021-12-02T16:19:52.260Z,,,,,,,,,,,,,,,,53,,,,,,,,,,,,,,820.93100000298,,response,,,99,,,,,,Space,keypress(Space),,,,,---- -- ----- -- ------ - ------- --- ----------<br>------------- ------ ------ ---- ---- ------- ----- -- ----<br>-------- ------- -- ---------- --- - --- ----- ----- ----<br>---- --- --- ----- --- ---- that ------- ----- ---- -------<br>--- --- -- ----- -- --- ---- -- --- ---- -- ------ ------<br>--- ----- -- ----,57426.5,57425.70000000298,56588.097,56594.70000000298,56604.769,57438.211,,34,that
screen,html.Screen,0_2_0_1_35,2021-12-02T16:19:52.764Z,,,,,,,,,,,,,,,,53,,,,,,,,,,,,,,491.5890000007421,,response,,,99,,,,,,Space,keypress(Space),,,,,---- -- ----- -- ------ - ------- --- ----------<br>------------- ------ ------ ---- ---- ------- ----- -- ----<br>-------- ------- -- ---------- --- - --- ----- ----- ----<br>---- --- --- ----- --- ---- ---- matters ----- ---- -------<br>--- --- -- ----- -- --- ---- -- --- ---- -- ------ ------<br>--- ----- -- ----,57930.5,57929.800000000745,57421.541,57426.800000000745,57438.211,57938.364,,35,matters
screen,html.Screen,0_2_0_1_36,2021-12-02T16:19:53.348Z,,,,,,,,,,,,,,,,53,,,,,,,,,,,,,,575.3360000029788,,response,,,99,,,,,,Space,keypress(Space),,,,,"---- -- ----- -- ------ - ------- --- ----------<br>------------- ------ ------ ---- ---- ------- ----- -- ----<br>-------- ------- -- ---------- --- - --- ----- ----- ----<br>---- --- --- ----- --- ---- ---- ------- most, ---- -------<br>--- --- -- ----- -- --- ---- -- --- ---- -- ------ ------<br>--- ----- -- ----",58514.800000000745,58513.70000000298,57921.694,57930.800000000745,57938.364,58521.851,,36,"most,"
screen,html.Screen,0_2_0_1_37,2021-12-02T16:19:53.876Z,,,,,,,,,,,,,,,,53,,,,,,,,,,,,,,519.8490000029778,,response,,,99,,,,,,Space,keypress(Space),,,,,---- -- ----- -- ------ - ------- --- ----------<br>------------- ------ ------ ---- ---- ------- ----- -- ----<br>-------- ------- -- ---------- --- - --- ----- ----- ----<br>---- --- --- ----- --- ---- ---- ------- ----- it's -------<br>--- --- -- ----- -- --- ---- -- --- ---- -- ------ ------<br>--- ----- -- ----,59042.400000002235,59041.70000000298,58505.181,58515,58521.851,59055.327,,37,it's
screen,html.Screen,0_2_0_1_38,2021-12-02T16:19:54.484Z,,,,,,,,,,,,,,,,53,,,,,,,,,,,,,,594.2730000014926,,response,,,99,,,,,,Space,keypress(Space),,,,,---- -- ----- -- ------ - ------- --- ----------<br>------------- ------ ------ ---- ---- ------- ----- -- ----<br>-------- ------- -- ---------- --- - --- ----- ----- ----<br>---- --- --- ----- --- ---- ---- ------- ----- ---- whether<br>--- --- -- ----- -- --- ---- -- --- ---- -- ------ ------<br>--- ----- -- ----,59650.60000000149,59649.60000000149,59038.657,59042.70000000298,59055.327,59655.384,,38,whether
screen,html.Screen,0_2_0_1_39,2021-12-02T16:19:54.975Z,,,,,,,,,,,,,,,,53,,,,,,,,,,,,,,482.31600000298204,,response,,,99,,,,,,Space,keypress(Space),,,,,---- -- ----- -- ------ - ------- --- ----------<br>------------- ------ ------ ---- ---- ------- ----- -- ----<br>-------- ------- -- ---------- --- - --- ----- ----- ----<br>---- --- --- ----- --- ---- ---- ------- ----- ---- -------<br>you --- -- ----- -- --- ---- -- --- ---- -- ------ ------<br>--- ----- -- ----,60138.400000002235,60137.70000000298,59638.715,59650.800000000745,59655.384,60155.716,,39,you
screen,html.Screen,0_2_0_1_40,2021-12-02T16:19:55.351Z,,,,,,,,,,,,,,,,53,,,,,,,,,,,,,,357.88400000148977,,response,,,99,,,,,,Space,keypress(Space),,,,,---- -- ----- -- ------ - ------- --- ----------<br>------------- ------ ------ ---- ---- ------- ----- -- ----<br>-------- ------- -- ---------- --- - --- ----- ----- ----<br>---- --- --- ----- --- ---- ---- ------- ----- ---- -------<br>--- are -- ----- -- --- ---- -- --- ---- -- ------ ------<br>--- ----- -- ----,60514.400000002235,60513.60000000149,60139.044,60138.70000000298,60155.716,60522.356,,40,are
screen,html.Screen,0_2_0_1_41,2021-12-02T16:19:56.128Z,,,,,,,,,,,,,,,,53,,,,,,,,,,,,,,767.6440000000002,,response,,,99,,,,,,Space,keypress(Space),,,,,---- -- ----- -- ------ - ------- --- ----------<br>------------- ------ ------ ---- ---- ------- ----- -- ----<br>-------- ------- -- ---------- --- - --- ----- ----- ----<br>---- --- --- ----- --- ---- ---- ------- ----- ---- -------<br>--- --- as ----- -- --- ---- -- --- ---- -- ------ ------<br>--- ----- -- ----,61290.70000000298,61290,60505.686,60514.60000000149,60522.356,61305.883,,41,as
screen,html.Screen,0_2_0_1_42,2021-12-02T16:19:56.575Z,,,,,,,,,,,,,,,,53,,,,,,,,,,,,,,431.7170000014885,,response,,,99,,,,,,Space,keypress(Space),,,,,---- -- ----- -- ------ - ------- --- ----------<br>------------- ------ ------ ---- ---- ------- ----- -- ----<br>-------- ------- -- ---------- --- - --- ----- ----- ----<br>---- --- --- ----- --- ---- ---- ------- ----- ---- -------<br>--- --- -- close -- --- ---- -- --- ---- -- ------ ------<br>--- ----- -- ----,61738.300000000745,61737.60000000149,61289.213,61291,61305.883,61739.409,,42,close
screen,html.Screen,0_2_0_1_43,2021-12-02T16:19:57.007Z,,,,,,,,,,,,,,,,53,,,,,,,,,,,,,,429.9910000022355,,response,,,99,,,,,,Space,keypress(Space),,,,,---- -- ----- -- ------ - ------- --- ----------<br>------------- ------ ------ ---- ---- ------- ----- -- ----<br>-------- ------- -- ---------- --- - --- ----- ----- ----<br>---- --- --- ----- --- ---- ---- ------- ----- ---- -------<br>--- --- -- ----- as --- ---- -- --- ---- -- ------ ------<br>--- ----- -- ----,62170.20000000298,62169.400000002235,61722.738,61738.5,61739.409,62172.786,,43,as
screen,html.Screen,0_2_0_1_44,2021-12-02T16:19:57.559Z,,,,,,,,,,,,,,,,53,,,,,,,,,,,,,,548.7139999999999,,response,,,99,,,,,,Space,keypress(Space),,,,,---- -- ----- -- ------ - ------- --- ----------<br>------------- ------ ------ ---- ---- ------- ----- -- ----<br>-------- ------- -- ---------- --- - --- ----- ----- ----<br>---- --- --- ----- --- ---- ---- ------- ----- ---- -------<br>--- --- -- ----- -- you ---- -- --- ---- -- ------ ------<br>--- ----- -- ----,62722.20000000298,62721.5,62156.116,62170.400000002235,62172.786,62739.6,,44,you
screen,html.Screen,0_2_0_1_45,2021-12-02T16:19:57.975Z,,,,,,,,,,,,,,,,53,,,,,,,,,,,,,,397.80000000223663,,response,,,99,,,,,,Space,keypress(Space),,,,,---- -- ----- -- ------ - ------- --- ----------<br>------------- ------ ------ ---- ---- ------- ----- -- ----<br>-------- ------- -- ---------- --- - --- ----- ----- ----<br>---- --- --- ----- --- ---- ---- ------- ----- ---- -------<br>--- --- -- ----- -- --- want -- --- ---- -- ------ ------<br>--- ----- -- ----,63138.20000000298,63137.400000002235,62722.93,62722.5,62739.6,63139.588,,45,want
screen,html.Screen,0_2_0_1_46,2021-12-02T16:19:58.327Z,,,,,,,,,,,,,,,,53,,,,,,,,,,,,,,349.8120000022318,,response,,,99,,,,,,Space,keypress(Space),,,,,---- -- ----- -- ------ - ------- --- ----------<br>------------- ------ ------ ---- ---- ------- ----- -- ----<br>-------- ------- -- ---------- --- - --- ----- ----- ----<br>---- --- --- ----- --- ---- ---- ------- ----- ---- -------<br>--- --- -- ----- -- --- ---- to --- ---- -- ------ ------<br>--- ----- -- ----,63490.300000000745,63489.400000002235,63122.919,63138.400000002235,63139.588,63506.542,,46,to
screen,html.Screen,0_2_0_1_47,2021-12-02T16:19:58.527Z,,,,,,,,,,,,,,,,53,,,,,,,,,,,,,,182.8580000022339,,response,,,99,,,,,,Space,keypress(Space),,,,,"---- -- ----- -- ------ - ------- --- ----------<br>------------- ------ ------ ---- ---- ------- ----- -- ----<br>-------- ------- -- ---------- --- - --- ----- ----- ----<br>---- --- --- ----- --- ---- ---- ------- ----- ---- -------<br>--- --- -- ----- -- --- ---- -- be, ---- -- ------ ------<br>--- ----- -- ----",63690.20000000298,63689.400000002235,63489.87,63490.400000002235,63506.542,63706.532,,47,"be,"
screen,html.Screen,0_2_0_1_48,2021-12-02T16:19:59.575Z,,,,,,,,,,,,,,,,53,,,,,,,,,,,,,,1030.868000002236,,response,,,99,,,,,,Space,keypress(Space),,,,,---- -- ----- -- ------ - ------- --- ----------<br>------------- ------ ------ ---- ---- ------- ----- -- ----<br>-------- ------- -- ---------- --- - --- ----- ----- ----<br>---- --- --- ----- --- ---- ---- ------- ----- ---- -------<br>--- --- -- ----- -- --- ---- -- --- even -- ------ ------<br>--- ----- -- ----,64738.10000000149,64737.400000002235,63689.862,63690.400000002235,63706.532,64739.967,,48,even
screen,html.Screen,0_2_0_1_49,2021-12-02T16:19:59.855Z,,,,,,,,,,,,,,,,53,,,,,,,,,,,,,,277.43300000223826,,response,,,99,,,,,,Space,keypress(Space),,,,,---- -- ----- -- ------ - ------- --- ----------<br>------------- ------ ------ ---- ---- ------- ----- -- ----<br>-------- ------- -- ---------- --- - --- ----- ----- ----<br>---- --- --- ----- --- ---- ---- ------- ----- ---- -------<br>--- --- -- ----- -- --- ---- -- --- ---- if ------ ------<br>--- ----- -- ----,65018.10000000149,65017.400000002235,64723.298,64738.400000002235,64739.967,65023.641,,49,if
screen,html.Screen,0_2_0_1_50,2021-12-02T16:20:00.255Z,,,,,,,,,,,,,,,,53,,,,,,,,,,,,,,393.6590000007418,,response,,,99,,,,,,Space,keypress(Space),,,,,---- -- ----- -- ------ - ------- --- ----------<br>------------- ------ ------ ---- ---- ------- ----- -- ----<br>-------- ------- -- ---------- --- - --- ----- ----- ----<br>---- --- --- ----- --- ---- ---- ------- ----- ---- -------<br>--- --- -- ----- -- --- ---- -- --- ---- -- that's ------<br>--- ----- -- ----,65418.10000000149,65417.300000000745,65006.969,65018.400000002235,65023.641,65423.663,,50,that's
screen,html.Screen,0_2_0_1_51,2021-12-02T16:20:00.511Z,,,,,,,,,,,,,,,,53,,,,,,,,,,,,,,249.7370000022347,,response,,,99,,,,,,Space,keypress(Space),,,,,---- -- ----- -- ------ - ------- --- ----------<br>------------- ------ ------ ---- ---- ------- ----- -- ----<br>-------- ------- -- ---------- --- - --- ----- ----- ----<br>---- --- --- ----- --- ---- ---- ------- ----- ---- -------<br>--- --- -- ----- -- --- ---- -- --- ---- -- ------ really<br>--- ----- -- ----,65674.10000000149,65673.40000000224,65406.992,65418.400000002235,65423.663,65690.406,,51,really
screen,html.Screen,0_2_0_1_52,2021-12-02T16:20:01.015Z,,,,,,,,,,,,,,,,53,,,,,,,,,,,,,,486.8940000007424,,response,,,99,,,,,,Space,keypress(Space),,,,,---- -- ----- -- ------ - ------- --- ----------<br>------------- ------ ------ ---- ---- ------- ----- -- ----<br>-------- ------- -- ---------- --- - --- ----- ----- ----<br>---- --- --- ----- --- ---- ---- ------- ----- ---- -------<br>--- --- -- ----- -- --- ---- -- --- ---- -- ------ ------<br>not ----- -- ----,66178,66177.30000000075,65673.735,65674.40000000224,65690.406,66190.545,,52,not
screen,html.Screen,0_2_0_1_53,2021-12-02T16:20:01.447Z,,,,,,,,,,,,,,,,53,,,,,,,,,,,,,,418.7550000007468,,response,,,99,,,,,,Space,keypress(Space),,,,,---- -- ----- -- ------ - ------- --- ----------<br>------------- ------ ------ ---- ---- ------- ----- -- ----<br>-------- ------- -- ---------- --- - --- ----- ----- ----<br>---- --- --- ----- --- ---- ---- ------- ----- ---- -------<br>--- --- -- ----- -- --- ---- -- --- ---- -- ------ ------<br>--- close -- ----,66610,66609.30000000075,66173.874,66178.30000000075,66190.545,66623.932,,53,close
screen,html.Screen,0_2_0_1_54,2021-12-02T16:20:01.807Z,,,,,,,,,,,,,,,,53,,,,,,,,,,,,,,345.26800000297953,,response,,,99,,,,,,Space,keypress(Space),,,,,---- -- ----- -- ------ - ------- --- ----------<br>------------- ------ ------ ---- ---- ------- ----- -- ----<br>-------- ------- -- ---------- --- - --- ----- ----- ----<br>---- --- --- ----- --- ---- ---- ------- ----- ---- -------<br>--- --- -- ----- -- --- ---- -- --- ---- -- ------ ------<br>--- ----- at ----,66970,66969.20000000298,66607.262,66610.30000000075,66623.932,66973.928,,54,at
screen,html.Screen,0_2_0_1_55,2021-12-02T16:20:02.191Z,,,,,,,,,,,,,,,,53,,,,,,,,,,,,,,379.27200000298035,,response,,,99,,,,,,Space,keypress(Space),,,,,---- -- ----- -- ------ - ------- --- ----------<br>------------- ------ ------ ---- ---- ------- ----- -- ----<br>-------- ------- -- ---------- --- - --- ----- ----- ----<br>---- --- --- ----- --- ---- ---- ------- ----- ---- -------<br>--- --- -- ----- -- --- ---- -- --- ---- -- ------ ------<br>--- ----- -- all.,67354.10000000149,67353.20000000298,66957.259,66970.20000000298,66973.928,67374.226,,55,all.
Item 99,flow.Loop,0_2_0_1,2021-12-02T16:20:02.196Z,,,,,,,,,,,,,,,,,,,,,,,,,,,,,,28086.519000002983,,completion,,,,E,,,,,,,,,,silence,,67358.70000000298,67353.20000000298,39250.012,39255.60000000149,39266.681,67374.226,,,
Question 1,html.Screen,0_2_0_2,2021-12-02T16:20:06.153Z,,,,,,,,,,,,,,,,,,,,,,,,,,,true,FALSE,,3940.07400000075,,response,,,99,E,,,,,FALSE,click #choice-2,,,,silence,,71315.80000000075,71314.30000000075,67357.554,67359,67374.226,71325.194,,,
Question 2,html.Screen,0_2_0_3,2021-12-02T16:20:10.826Z,,,,,,,,,,,,,,,,,,,,,,,,,,,true,TRUE,,4662.606000000742,,response,,,99,E,,,,,TRUE,click #choice-1,,,,silence,,75989,75987.80000000075,71308.523,71316.10000000149,71325.194,75993.024,,,
Item 99,flow.Sequence,0_2_0,2021-12-02T16:20:10.826Z,,,,,,,,,,,,,,,,,,,,,,,,,,,,,,46723.607000000746,,completion,,,,,,,,,,,,,,,,75989.5,75987.80000000075,29247.523,29262,29264.193,75993.024,,,
Holding screen,html.Screen,0_2_1_0,2021-12-02T16:20:20.817Z,,,,,,,,,,,,,,,,,,,,,,,,,,,,,,10002.468999999997,,timeout,,,,,,,,,,,,,,,,85979.90000000224,85978.823,75976.354,75989.80000000075,75993.024,85995.493,,,
screen,html.Screen,0_2_1_1_0,2021-12-02T16:20:21.943Z,,,,,,,,,,,,,,,,54,,,,,,,,,,,,,,1109.207000002978,,response,,,100,,,,,,Space,keypress(Space),,,,,At --- ---- --- ------ ----- ------- ---- -- --- ------- --<br>------- ---------- ------ -- ----- -- ----- -- ---- ------<br>--- ----- --- --- ------ -------- ----- --- ------ ----- --<br>----- ----- ---------- --- --- ------ ------ ---- -- ------<br>------- --- ------ ----- --- ---- ------- -- ---- --- --<br>------- ------,87105.70000000298,87104.70000000298,85978.823,85980.30000000075,85995.493,87112.562,,0,At
screen,html.Screen,0_2_1_1_1,2021-12-02T16:20:22.454Z,,,,,,,,,,,,,,,,54,,,,,,,,,,,,,,503.43799999999464,,response,,,100,,,,,,Space,keypress(Space),,,,,-- the ---- --- ------ ----- ------- ---- -- --- ------- --<br>------- ---------- ------ -- ----- -- ----- -- ---- ------<br>--- ----- --- --- ------ -------- ----- --- ------ ----- --<br>----- ----- ---------- --- --- ------ ------ ---- -- ------<br>------- --- ------ ----- --- ---- ------- -- ---- --- --<br>------- ------,87616.80000000075,87616,87095.891,87105.90000000224,87112.562,87629.191,,1,the
screen,html.Screen,0_2_1_1_2,2021-12-02T16:20:23.118Z,,,,,,,,,,,,,,,,54,,,,,,,,,,,,,,650.909000001484,,response,,,100,,,,,,Space,keypress(Space),,,,,-- --- time --- ------ ----- ------- ---- -- --- ------- --<br>------- ---------- ------ -- ----- -- ----- -- ---- ------<br>--- ----- --- --- ------ -------- ----- --- ------ ----- --<br>----- ----- ---------- --- --- ------ ------ ---- -- ------<br>------- --- ------ ----- --- ---- ------- -- ---- --- --<br>------- ------,88280.80000000075,88280.10000000149,87612.522,87617.10000000149,87629.191,88296.239,,2,time
screen,html.Screen,0_2_1_1_3,2021-12-02T16:20:23.590Z,,,,,,,,,,,,,,,,54,,,,,,,,,,,,,,455.7609999999986,,response,,,100,,,,,,Space,keypress(Space),,,,,-- --- ---- the ------ ----- ------- ---- -- --- ------- --<br>------- ---------- ------ -- ----- -- ----- -- ---- ------<br>--- ----- --- --- ------ -------- ----- --- ------ ----- --<br>----- ----- ---------- --- --- ------ ------ ---- -- ------<br>------- --- ------ ----- --- ---- ------- -- ---- --- --<br>------- ------,88752.80000000075,88752,88279.568,88281.10000000149,88296.239,88762.974,,3,the
screen,html.Screen,0_2_1_1_4,2021-12-02T16:20:24.311Z,,,,,,,,,,,,,,,,54,,,,,,,,,,,,,,709.025999999998,,response,,,100,,,,,,Space,keypress(Space),,,,,-- --- ---- --- French ----- ------- ---- -- --- ------- --<br>------- ---------- ------ -- ----- -- ----- -- ---- ------<br>--- ----- --- --- ------ -------- ----- --- ------ ----- --<br>----- ----- ---------- --- --- ------ ------ ---- -- ------<br>------- --- ------ ----- --- ---- ------- -- ---- --- --<br>------- ------,89474.20000000298,89472,88746.304,88753.10000000149,88762.974,89479.799,,4,French
screen,html.Screen,0_2_1_1_5,2021-12-02T16:20:24.822Z,,,,,,,,,,,,,,,,54,,,,,,,,,,,,,,504.20100000000093,,response,,,100,,,,,,Space,keypress(Space),,,,,-- --- ---- --- ------ crown ------- ---- -- --- ------- --<br>------- ---------- ------ -- ----- -- ----- -- ---- ------<br>--- ----- --- --- ------ -------- ----- --- ------ ----- --<br>----- ----- ---------- --- --- ------ ------ ---- -- ------<br>------- --- ------ ----- --- ---- ------- -- ---- --- --<br>------- ------,89984.90000000224,89984,89463.129,89474.40000000224,89479.799,89996.6,,5,crown
screen,html.Screen,0_2_1_1_6,2021-12-02T16:20:25.406Z,,,,,,,,,,,,,,,,54,,,,,,,,,,,,,,571.3000000022294,,response,,,100,,,,,,Space,keypress(Space),,,,,-- --- ---- --- ------ ----- secured ---- -- --- ------- --<br>------- ---------- ------ -- ----- -- ----- -- ---- ------<br>--- ----- --- --- ------ -------- ----- --- ------ ----- --<br>----- ----- ---------- --- --- ------ ------ ---- -- ------<br>------- --- ------ ----- --- ---- ------- -- ---- --- --<br>------- ------,90568.70000000298,90567.90000000224,89979.93,89985.20000000298,89996.6,90579.993,,6,secured
screen,html.Screen,0_2_1_1_7,2021-12-02T16:20:25.806Z,,,,,,,,,,,,,,,,54,,,,,,,,,,,,,,387.90700000223296,,response,,,100,,,,,,Space,keypress(Space),,,,,-- --- ---- --- ------ ----- ------- much -- --- ------- --<br>------- ---------- ------ -- ----- -- ----- -- ---- ------<br>--- ----- --- --- ------ -------- ----- --- ------ ----- --<br>----- ----- ---------- --- --- ------ ------ ---- -- ------<br>------- --- ------ ----- --- ---- ------- -- ---- --- --<br>------- ------,90968.70000000298,90967.90000000224,90563.324,90568.90000000224,90579.993,90980.292,,7,much
screen,html.Screen,0_2_1_1_8,2021-12-02T16:20:26.158Z,,,,,,,,,,,,,,,,54,,,,,,,,,,,,,,339.5080000007438,,response,,,100,,,,,,Space,keypress(Space),,,,,-- --- ---- --- ------ ----- ------- ---- of --- ------- --<br>------- ---------- ------ -- ----- -- ----- -- ---- ------<br>--- ----- --- --- ------ -------- ----- --- ------ ----- --<br>----- ----- ---------- --- --- ------ ------ ---- -- ------<br>------- --- ------ ----- --- ---- ------- -- ---- --- --<br>------- ------,91320.70000000298,91319.80000000075,90963.62,90968.90000000224,90980.292,91330.301,,8,of
screen,html.Screen,0_2_1_1_9,2021-12-02T16:20:26.606Z,,,,,,,,,,,,,,,,54,,,,,,,,,,,,,,437.4990000007383,,response,,,100,,,,,,Space,keypress(Space),,,,,-- --- ---- --- ------ ----- ------- ---- -- its ------- --<br>------- ---------- ------ -- ----- -- ----- -- ---- ------<br>--- ----- --- --- ------ -------- ----- --- ------ ----- --<br>----- ----- ---------- --- --- ------ ------ ---- -- ------<br>------- --- ------ ----- --- ---- ------- -- ---- --- --<br>------- ------,91768.60000000149,91767.80000000075,91313.631,91320.90000000224,91330.301,91780.452,,9,its
screen,html.Screen,0_2_1_1_10,2021-12-02T16:20:27.142Z,,,,,,,,,,,,,,,,54,,,,,,,,,,,,,,523.3480000007403,,response,,,100,,,,,,Space,keypress(Space),,,,,-- --- ---- --- ------ ----- ------- ---- -- --- revenue --<br>------- ---------- ------ -- ----- -- ----- -- ---- ------<br>--- ----- --- --- ------ -------- ----- --- ------ ----- --<br>----- ----- ---------- --- --- ------ ------ ---- -- ------<br>------- --- ------ ----- --- ---- ------- -- ---- --- --<br>------- ------,92304.60000000149,92303.80000000075,91763.781,91768.90000000224,91780.452,92313.886,,10,revenue
screen,html.Screen,0_2_1_1_11,2021-12-02T16:20:27.589Z,,,,,,,,,,,,,,,,54,,,,,,,,,,,,,,437.81400000298163,,response,,,100,,,,,,Space,keypress(Space),,,,,-- --- ---- --- ------ ----- ------- ---- -- --- ------- by<br>------- ---------- ------ -- ----- -- ----- -- ---- ------<br>--- ----- --- --- ------ -------- ----- --- ------ ----- --<br>----- ----- ---------- --- --- ------ ------ ---- -- ------<br>------- --- ------ ----- --- ---- ------- -- ---- --- --<br>------- ------,92752.60000000149,92751.70000000298,92297.216,92304.80000000075,92313.886,92763.991,,11,by
screen,html.Screen,0_2_1_1_12,2021-12-02T16:20:28.453Z,,,,,,,,,,,,,,,,54,,,,,,,,,,,,,,851.7090000029857,,response,,,100,,,,,,Space,keypress(Space),,,,,-- --- ---- --- ------ ----- ------- ---- -- --- ------- --<br>issuing ---------- ------ -- ----- -- ----- -- ---- ------<br>--- ----- --- --- ------ -------- ----- --- ------ ----- --<br>----- ----- ---------- --- --- ------ ------ ---- -- ------<br>------- --- ------ ----- --- ---- ------- -- ---- --- --<br>------- ------,93616.5,93615.70000000298,92747.321,92752.80000000075,92763.991,93630.854,,12,issuing
screen,html.Screen,0_2_1_1_13,2021-12-02T16:20:29.125Z,,,,,,,,,,,,,,,,54,,,,,,,,,,,,,,656.8460000029736,,response,,,100,,,,,,Space,keypress(Space),,,,,-- --- ---- --- ------ ----- ------- ---- -- --- ------- --<br>------- government ------ -- ----- -- ----- -- ---- ------<br>--- ----- --- --- ------ -------- ----- --- ------ ----- --<br>----- ----- ---------- --- --- ------ ------ ---- -- ------<br>------- --- ------ ----- --- ---- ------- -- ---- --- --<br>------- ------,94288.60000000149,94287.70000000298,93614.184,93616.70000000298,93630.854,94297.775,,13,government
screen,html.Screen,0_2_1_1_14,2021-12-02T16:20:30.973Z,,,,,,,,,,,,,,,,54,,,,,,,,,,,,,,1837.825000001496,,response,,,100,,,,,,Space,keypress(Space),,,,,-- --- ---- --- ------ ----- ------- ---- -- --- ------- --<br>------- ---------- bonds. -- ----- -- ----- -- ---- ------<br>--- ----- --- --- ------ -------- ----- --- ------ ----- --<br>----- ----- ---------- --- --- ------ ------ ---- -- ------<br>------- --- ------ ----- --- ---- ------- -- ---- --- --<br>------- ------,96136.40000000224,96135.60000000149,94281.104,94288.80000000075,94297.775,96148.131,,14,bonds.
screen,html.Screen,0_2_1_1_15,2021-12-02T16:20:31.261Z,,,,,,,,,,,,,,,,54,,,,,,,,,,,,,,275.46900000149617,,response,,,100,,,,,,Space,keypress(Space),,,,,-- --- ---- --- ------ ----- ------- ---- -- --- ------- --<br>------- ---------- ------ In ----- -- ----- -- ---- ------<br>--- ----- --- --- ------ -------- ----- --- ------ ----- --<br>----- ----- ---------- --- --- ------ ------ ---- -- ------<br>------- --- ------ ----- --- ---- ------- -- ---- --- --<br>------- ------,96424.30000000075,96423.60000000149,96131.461,96136.70000000298,96148.131,96431.623,,15,In
screen,html.Screen,0_2_1_1_16,2021-12-02T16:20:31.990Z,,,,,,,,,,,,,,,,54,,,,,,,,,,,,,,720.4770000014832,,response,,,100,,,,,,Space,keypress(Space),,,,,"-- --- ---- --- ------ ----- ------- ---- -- --- ------- --<br>------- ---------- ------ -- 1727, -- ----- -- ---- ------<br>--- ----- --- --- ------ -------- ----- --- ------ ----- --<br>----- ----- ---------- --- --- ------ ------ ---- -- ------<br>------- --- ------ ----- --- ---- ------- -- ---- --- --<br>------- ------",97153,97152.10000000149,96414.953,96424.60000000149,96431.623,97165.063,,16,"1727,"
screen,html.Screen,0_2_1_1_17,2021-12-02T16:20:32.525Z,,,,,,,,,,,,,,,,54,,,,,,,,,,,,,,522.5370000014955,,response,,,100,,,,,,Space,keypress(Space),,,,,-- --- ---- --- ------ ----- ------- ---- -- --- ------- --<br>------- ---------- ------ -- ----- in ----- -- ---- ------<br>--- ----- --- --- ------ -------- ----- --- ------ ----- --<br>----- ----- ---------- --- --- ------ ------ ---- -- ------<br>------- --- ------ ----- --- ---- ------- -- ---- --- --<br>------- ------,97688.40000000224,97687.60000000149,97148.393,97153.20000000298,97165.063,97698.732,,17,in
screen,html.Screen,0_2_1_1_18,2021-12-02T16:20:33.237Z,,,,,,,,,,,,,,,,54,,,,,,,,,,,,,,700.7679999999964,,response,,,100,,,,,,Space,keypress(Space),,,,,-- --- ---- --- ------ ----- ------- ---- -- --- ------- --<br>------- ---------- ------ -- ----- -- order -- ---- ------<br>--- ----- --- --- ------ -------- ----- --- ------ ----- --<br>----- ----- ---------- --- --- ------ ------ ---- -- ------<br>------- --- ------ ----- --- ---- ------- -- ---- --- --<br>------- ------,98400.30000000075,98399.5,97682.059,97688.60000000149,97698.732,98415.443,,18,order
screen,html.Screen,0_2_1_1_19,2021-12-02T16:20:33.541Z,,,,,,,,,,,,,,,,54,,,,,,,,,,,,,,288.0570000000007,,response,,,100,,,,,,Space,keypress(Space),,,,,-- --- ---- --- ------ ----- ------- ---- -- --- ------- --<br>------- ---------- ------ -- ----- -- ----- to ---- ------<br>--- ----- --- --- ------ -------- ----- --- ------ ----- --<br>----- ----- ---------- --- --- ------ ------ ---- -- ------<br>------- --- ------ ----- --- ---- ------- -- ---- --- --<br>------- ------,98704.20000000298,98703.5,98398.773,98400.5,98415.443,98715.416,,19,to
screen,html.Screen,0_2_1_1_20,2021-12-02T16:20:34.357Z,,,,,,,,,,,,,,,,54,,,,,,,,,,,,,,803.9840000022377,,response,,,100,,,,,,Space,keypress(Space),,,,,-- --- ---- --- ------ ----- ------- ---- -- --- ------- --<br>------- ---------- ------ -- ----- -- ----- -- save ------<br>--- ----- --- --- ------ -------- ----- --- ------ ----- --<br>----- ----- ---------- --- --- ------ ------ ---- -- ------<br>------- --- ------ ----- --- ---- ------- -- ---- --- --<br>------- ------,99520.20000000298,99519.40000000224,98698.747,98704.5,98715.416,99532.417,,20,save
screen,html.Screen,0_2_1_1_21,2021-12-02T16:20:34.653Z,,,,,,,,,,,,,,,,54,,,,,,,,,,,,,,282.9830000022339,,response,,,100,,,,,,Space,keypress(Space),,,,,"-- --- ---- --- ------ ----- ------- ---- -- --- ------- --<br>------- ---------- ------ -- ----- -- ----- -- ---- money,<br>--- ----- --- --- ------ -------- ----- --- ------ ----- --<br>----- ----- ---------- --- --- ------ ------ ---- -- ------<br>------- --- ------ ----- --- ---- ------- -- ---- --- --<br>------- ------",99816.20000000298,99815.40000000224,99515.746,99520.5,99532.417,99832.375,,21,"money,"
screen,html.Screen,0_2_1_1_22,2021-12-02T16:20:35.221Z,,,,,,,,,,,,,,,,54,,,,,,,,,,,,,,551.0250000022352,,response,,,100,,,,,,Space,keypress(Space),,,,,-- --- ---- --- ------ ----- ------- ---- -- --- ------- --<br>------- ---------- ------ -- ----- -- ----- -- ---- ------<br>the ----- --- --- ------ -------- ----- --- ------ ----- --<br>----- ----- ---------- --- --- ------ ------ ---- -- ------<br>------- --- ------ ----- --- ---- ------- -- ---- --- --<br>------- ------,100384.10000000149,100383.40000000224,99815.706,99816.40000000224,99832.375,100399.345,,22,the
screen,html.Screen,0_2_1_1_23,2021-12-02T16:20:35.597Z,,,,,,,,,,,,,,,,54,,,,,,,,,,,,,,359.9550000007439,,response,,,100,,,,,,Space,keypress(Space),,,,,-- --- ---- --- ------ ----- ------- ---- -- --- ------- --<br>------- ---------- ------ -- ----- -- ----- -- ---- ------<br>--- state --- --- ------ -------- ----- --- ------ ----- --<br>----- ----- ---------- --- --- ------ ------ ---- -- ------<br>------- --- ------ ----- --- ---- ------- -- ---- --- --<br>------- ------,100760.20000000298,100759.30000000075,100382.674,100384.40000000224,100399.345,100765.89,,23,state
screen,html.Screen,0_2_1_1_24,2021-12-02T16:20:35.997Z,,,,,,,,,,,,,,,,54,,,,,,,,,,,,,,393.51000000223576,,response,,,100,,,,,,Space,keypress(Space),,,,,-- --- ---- --- ------ ----- ------- ---- -- --- ------- --<br>------- ---------- ------ -- ----- -- ----- -- ---- ------<br>--- ----- cut --- ------ -------- ----- --- ------ ----- --<br>----- ----- ---------- --- --- ------ ------ ---- -- ------<br>------- --- ------ ----- --- ---- ------- -- ---- --- --<br>------- ------,101160.20000000298,101159.40000000224,100749.222,100760.40000000224,100765.89,101166.251,,24,cut
screen,html.Screen,0_2_1_1_25,2021-12-02T16:20:36.413Z,,,,,,,,,,,,,,,,54,,,,,,,,,,,,,,409.0490000007412,,response,,,100,,,,,,Space,keypress(Space),,,,,-- --- ---- --- ------ ----- ------- ---- -- --- ------- --<br>------- ---------- ------ -- ----- -- ----- -- ---- ------<br>--- ----- --- the ------ -------- ----- --- ------ ----- --<br>----- ----- ---------- --- --- ------ ------ ---- -- ------<br>------- --- ------ ----- --- ---- ------- -- ---- --- --<br>------- ------,101576.20000000298,101575.30000000075,101149.579,101160.40000000224,101166.251,101582.934,,25,the
screen,html.Screen,0_2_1_1_26,2021-12-02T16:20:36.965Z,,,,,,,,,,,,,,,,54,,,,,,,,,,,,,,544.3660000007512,,response,,,100,,,,,,Space,keypress(Space),,,,,-- --- ---- --- ------ ----- ------- ---- -- --- ------- --<br>------- ---------- ------ -- ----- -- ----- -- ---- ------<br>--- ----- --- --- bonds' -------- ----- --- ------ ----- --<br>----- ----- ---------- --- --- ------ ------ ---- -- ------<br>------- --- ------ ----- --- ---- ------- -- ---- --- --<br>------- ------,102128.10000000149,102127.30000000075,101566.264,101576.40000000224,101582.934,102133.062,,26,bonds'
screen,html.Screen,0_2_1_1_27,2021-12-02T16:20:37.381Z,,,,,,,,,,,,,,,,54,,,,,,,,,,,,,,410.1380000029749,,response,,,100,,,,,,Space,keypress(Space),,,,,-- --- ---- --- ------ ----- ------- ---- -- --- ------- --<br>------- ---------- ------ -- ----- -- ----- -- ---- ------<br>--- ----- --- --- ------ interest ----- --- ------ ----- --<br>----- ----- ---------- --- --- ------ ------ ---- -- ------<br>------- --- ------ ----- --- ---- ------- -- ---- --- --<br>------- ------,102544.10000000149,102543.20000000298,102116.392,102128.30000000075,102133.062,102549.848,,27,interest
screen,html.Screen,0_2_1_1_28,2021-12-02T16:20:37.805Z,,,,,,,,,,,,,,,,54,,,,,,,,,,,,,,417.4520000007469,,response,,,100,,,,,,Space,keypress(Space),,,,,-- --- ---- --- ------ ----- ------- ---- -- --- ------- --<br>------- ---------- ------ -- ----- -- ----- -- ---- ------<br>--- ----- --- --- ------ -------- rate. --- ------ ----- --<br>----- ----- ---------- --- --- ------ ------ ---- -- ------<br>------- --- ------ ----- --- ---- ------- -- ---- --- --<br>------- ------,102968.10000000149,102967.30000000075,102533.178,102544.30000000075,102549.848,102983.296,,28,rate.
screen,html.Screen,0_2_1_1_29,2021-12-02T16:20:38.253Z,,,,,,,,,,,,,,,,54,,,,,,,,,,,,,,432.00400000074296,,response,,,100,,,,,,Space,keypress(Space),,,,,-- --- ---- --- ------ ----- ------- ---- -- --- ------- --<br>------- ---------- ------ -- ----- -- ----- -- ---- ------<br>--- ----- --- --- ------ -------- ----- The ------ ----- --<br>----- ----- ---------- --- --- ------ ------ ---- -- ------<br>------- --- ------ ----- --- ---- ------- -- ---- --- --<br>------- ------,103416.10000000149,103415.30000000075,102966.626,102968.30000000075,102983.296,103433.3,,29,The
screen,html.Screen,0_2_1_1_30,2021-12-02T16:20:38.653Z,,,,,,,,,,,,,,,,54,,,,,,,,,,,,,,381.9000000029773,,response,,,100,,,,,,Space,keypress(Space),,,,,-- --- ---- --- ------ ----- ------- ---- -- --- ------- --<br>------- ---------- ------ -- ----- -- ----- -- ---- ------<br>--- ----- --- --- ------ -------- ----- --- market ----- --<br>----- ----- ---------- --- --- ------ ------ ---- -- ------<br>------- --- ------ ----- --- ---- ------- -- ---- --- --<br>------- ------,103816,103815.20000000298,103416.631,103416.30000000075,103433.3,103833.6,,30,market
screen,html.Screen,0_2_1_1_31,2021-12-02T16:20:39.141Z,,,,,,,,,,,,,,,,54,,,,,,,,,,,,,,469.6000000029744,,response,,,100,,,,,,Space,keypress(Space),,,,,-- --- ---- --- ------ ----- ------- ---- -- --- ------- --<br>------- ---------- ------ -- ----- -- ----- -- ---- ------<br>--- ----- --- --- ------ -------- ----- --- ------ value --<br>----- ----- ---------- --- --- ------ ------ ---- -- ------<br>------- --- ------ ----- --- ---- ------- -- ---- --- --<br>------- ------,104303.90000000224,104303.20000000298,103816.928,103816.30000000075,103833.6,104317.025,,31,value
screen,html.Screen,0_2_1_1_32,2021-12-02T16:20:39.525Z,,,,,,,,,,,,,,,,54,,,,,,,,,,,,,,370.17500000298605,,response,,,100,,,,,,Space,keypress(Space),,,,,-- --- ---- --- ------ ----- ------- ---- -- --- ------- --<br>------- ---------- ------ -- ----- -- ----- -- ---- ------<br>--- ----- --- --- ------ -------- ----- --- ------ ----- of<br>----- ----- ---------- --- --- ------ ------ ---- -- ------<br>------- --- ------ ----- --- ---- ------- -- ---- --- --<br>------- ------,104688.10000000149,104687.20000000298,104300.354,104304.20000000298,104317.025,104700.307,,32,of
screen,html.Screen,0_2_1_1_33,2021-12-02T16:20:39.893Z,,,,,,,,,,,,,,,,54,,,,,,,,,,,,,,354.7930000014894,,response,,,100,,,,,,Space,keypress(Space),,,,,-- --- ---- --- ------ ----- ------- ---- -- --- ------- --<br>------- ---------- ------ -- ----- -- ----- -- ---- ------<br>--- ----- --- --- ------ -------- ----- --- ------ ----- --<br>these ----- ---------- --- --- ------ ------ ---- -- ------<br>------- --- ------ ----- --- ---- ------- -- ---- --- --<br>------- ------,105056,105055.10000000149,104683.638,104688.30000000075,104700.307,105067.21,,33,these
screen,html.Screen,0_2_1_1_34,2021-12-02T16:20:40.293Z,,,,,,,,,,,,,,,,54,,,,,,,,,,,,,,387.99000000297383,,response,,,100,,,,,,Space,keypress(Space),,,,,-- --- ---- --- ------ ----- ------- ---- -- --- ------- --<br>------- ---------- ------ -- ----- -- ----- -- ---- ------<br>--- ----- --- --- ------ -------- ----- --- ------ ----- --<br>----- bonds ---------- --- --- ------ ------ ---- -- ------<br>------- --- ------ ----- --- ---- ------- -- ---- --- --<br>------- ------,105455.90000000224,105455.20000000298,105050.539,105056.20000000298,105067.21,105467.318,,34,bonds
screen,html.Screen,0_2_1_1_35,2021-12-02T16:20:40.669Z,,,,,,,,,,,,,,,,54,,,,,,,,,,,,,,363.7820000014908,,response,,,100,,,,,,Space,keypress(Space),,,,,"-- --- ---- --- ------ ----- ------- ---- -- --- ------- --<br>------- ---------- ------ -- ----- -- ----- -- ---- ------<br>--- ----- --- --- ------ -------- ----- --- ------ ----- --<br>----- ----- plummeted, --- --- ------ ------ ---- -- ------<br>------- --- ------ ----- --- ---- ------- -- ---- --- --<br>------- ------",105831.90000000224,105831.10000000149,105450.647,105456.20000000298,105467.318,105834.03,,35,"plummeted,"
screen,html.Screen,0_2_1_1_36,2021-12-02T16:20:41.149Z,,,,,,,,,,,,,,,,54,,,,,,,,,,,,,,477.0700000014913,,response,,,100,,,,,,Space,keypress(Space),,,,,-- --- ---- --- ------ ----- ------- ---- -- --- ------- --<br>------- ---------- ------ -- ----- -- ----- -- ---- ------<br>--- ----- --- --- ------ -------- ----- --- ------ ----- --<br>----- ----- ---------- and --- ------ ------ ---- -- ------<br>------- --- ------ ----- --- ---- ------- -- ---- --- --<br>------- ------,106311.80000000075,106311.10000000149,105817.36,105832.10000000149,105834.03,106317.489,,36,and
screen,html.Screen,0_2_1_1_37,2021-12-02T16:20:41.565Z,,,,,,,,,,,,,,,,54,,,,,,,,,,,,,,409.5109999999986,,response,,,100,,,,,,Space,keypress(Space),,,,,-- --- ---- --- ------ ----- ------- ---- -- --- ------- --<br>------- ---------- ------ -- ----- -- ----- -- ---- ------<br>--- ----- --- --- ------ -------- ----- --- ------ ----- --<br>----- ----- ---------- --- the ------ ------ ---- -- ------<br>------- --- ------ ----- --- ---- ------- -- ---- --- --<br>------- ------,106727.90000000224,106727,106300.819,106312.10000000149,106317.489,106734.252,,37,the
screen,html.Screen,0_2_1_1_38,2021-12-02T16:20:42.053Z,,,,,,,,,,,,,,,,54,,,,,,,,,,,,,,481.14800000224204,,response,,,100,,,,,,Space,keypress(Space),,,,,-- --- ---- --- ------ ----- ------- ---- -- --- ------- --<br>------- ---------- ------ -- ----- -- ----- -- ---- ------<br>--- ----- --- --- ------ -------- ----- --- ------ ----- --<br>----- ----- ---------- --- --- market ------ ---- -- ------<br>------- --- ------ ----- --- ---- ------- -- ---- --- --<br>------- ------,107216.10000000149,107215.40000000224,106717.582,106728,106734.252,107217.756,,38,market
screen,html.Screen,0_2_1_1_39,2021-12-02T16:20:42.509Z,,,,,,,,,,,,,,,,54,,,,,,,,,,,,,,453.24400000000605,,response,,,100,,,,,,Space,keypress(Space),,,,,-- --- ---- --- ------ ----- ------- ---- -- --- ------- --<br>------- ---------- ------ -- ----- -- ----- -- ---- ------<br>--- ----- --- --- ------ -------- ----- --- ------ ----- --<br>----- ----- ---------- --- --- ------ became ---- -- ------<br>------- --- ------ ----- --- ---- ------- -- ---- --- --<br>------- ------,107671.80000000075,107671,107201.085,107216.30000000075,107217.756,107684.493,,39,became
screen,html.Screen,0_2_1_1_40,2021-12-02T16:20:43.037Z,,,,,,,,,,,,,,,,54,,,,,,,,,,,,,,514.5069999999978,,response,,,100,,,,,,Space,keypress(Space),,,,,-- --- ---- --- ------ ----- ------- ---- -- --- ------- --<br>------- ---------- ------ -- ----- -- ----- -- ---- ------<br>--- ----- --- --- ------ -------- ----- --- ------ ----- --<br>----- ----- ---------- --- --- ------ ------ wary -- ------<br>------- --- ------ ----- --- ---- ------- -- ---- --- --<br>------- ------,108199.70000000298,108199,107667.823,107672,107684.493,108201.363,,40,wary
screen,html.Screen,0_2_1_1_41,2021-12-02T16:20:43.525Z,,,,,,,,,,,,,,,,54,,,,,,,,,,,,,,485.5370000022376,,response,,,100,,,,,,Space,keypress(Space),,,,,-- --- ---- --- ------ ----- ------- ---- -- --- ------- --<br>------- ---------- ------ -- ----- -- ----- -- ---- ------<br>--- ----- --- --- ------ -------- ----- --- ------ ----- --<br>----- ----- ---------- --- --- ------ ------ ---- of ------<br>------- --- ------ ----- --- ---- ------- -- ---- --- --<br>------- ------,108687.70000000298,108686.90000000224,108184.692,108200,108201.363,108701.267,,41,of
screen,html.Screen,0_2_1_1_42,2021-12-02T16:20:44.333Z,,,,,,,,,,,,,,,,54,,,,,,,,,,,,,,793.6330000022281,,response,,,100,,,,,,Space,keypress(Space),,,,,-- --- ---- --- ------ ----- ------- ---- -- --- ------- --<br>------- ---------- ------ -- ----- -- ----- -- ---- ------<br>--- ----- --- --- ------ -------- ----- --- ------ ----- --<br>----- ----- ---------- --- --- ------ ------ ---- -- French<br>------- --- ------ ----- --- ---- ------- -- ---- --- --<br>------- ------,109495.70000000298,109494.90000000224,108684.599,108687.90000000224,108701.267,109501.764,,42,French
screen,html.Screen,0_2_1_1_43,2021-12-02T16:20:44.957Z,,,,,,,,,,,,,,,,54,,,,,,,,,,,,,,617.0360000007495,,response,,,100,,,,,,Space,keypress(Space),,,,,-- --- ---- --- ------ ----- ------- ---- -- --- ------- --<br>------- ---------- ------ -- ----- -- ----- -- ---- ------<br>--- ----- --- --- ------ -------- ----- --- ------ ----- --<br>----- ----- ---------- --- --- ------ ------ ---- -- ------<br>credit. --- ------ ----- --- ---- ------- -- ---- --- --<br>------- ------,110119.60000000149,110118.80000000075,109485.092,109495.90000000224,109501.764,110135.13,,43,credit.
screen,html.Screen,0_2_1_1_44,2021-12-02T16:20:45.540Z,,,,,,,,,,,,,,,,54,,,,,,,,,,,,,,567.6700000007404,,response,,,100,,,,,,Space,keypress(Space),,,,,-- --- ---- --- ------ ----- ------- ---- -- --- ------- --<br>------- ---------- ------ -- ----- -- ----- -- ---- ------<br>--- ----- --- --- ------ -------- ----- --- ------ ----- --<br>----- ----- ---------- --- --- ------ ------ ---- -- ------<br>------- The ------ ----- --- ---- ------- -- ---- --- --<br>------- ------,110703.60000000149,110702.80000000075,110118.46,110119.80000000075,110135.13,110718.617,,44,The
screen,html.Screen,0_2_1_1_45,2021-12-02T16:20:46.653Z,,,,,,,,,,,,,,,,54,,,,,,,,,,,,,,1096.1830000007467,,response,,,100,,,,,,Space,keypress(Space),,,,,-- --- ---- --- ------ ----- ------- ---- -- --- ------- --<br>------- ---------- ------ -- ----- -- ----- -- ---- ------<br>--- ----- --- --- ------ -------- ----- --- ------ ----- --<br>----- ----- ---------- --- --- ------ ------ ---- -- ------<br>------- --- French ----- --- ---- ------- -- ---- --- --<br>------- ------,111815.60000000149,111814.80000000075,110701.947,110703.80000000075,110718.617,111818.87,,45,French
screen,html.Screen,0_2_1_1_46,2021-12-02T16:20:47.333Z,,,,,,,,,,,,,,,,54,,,,,,,,,,,,,,675.8300000029849,,response,,,100,,,,,,Space,keypress(Space),,,,,-- --- ---- --- ------ ----- ------- ---- -- --- ------- --<br>------- ---------- ------ -- ----- -- ----- -- ---- ------<br>--- ----- --- --- ------ -------- ----- --- ------ ----- --<br>----- ----- ---------- --- --- ------ ------ ---- -- ------<br>------- --- ------ state --- ---- ------- -- ---- --- --<br>------- ------,112495.70000000298,112494.70000000298,111802.2,111815.90000000224,111818.87,112502.241,,46,state
screen,html.Screen,0_2_1_1_47,2021-12-02T16:20:47.772Z,,,,,,,,,,,,,,,,54,,,,,,,,,,,,,,432.4590000029857,,response,,,100,,,,,,Space,keypress(Space),,,,,-- --- ---- --- ------ ----- ------- ---- -- --- ------- --<br>------- ---------- ------ -- ----- -- ----- -- ---- ------<br>--- ----- --- --- ------ -------- ----- --- ------ ----- --<br>----- ----- ---------- --- --- ------ ------ ---- -- ------<br>------- --- ------ ----- was ---- ------- -- ---- --- --<br>------- ------,112935.5,112934.70000000298,112485.572,112495.90000000224,112502.241,112952.483,,47,was
screen,html.Screen,0_2_1_1_48,2021-12-02T16:20:48.580Z,,,,,,,,,,,,,,,,54,,,,,,,,,,,,,,790.1170000014972,,response,,,100,,,,,,Space,keypress(Space),,,,,-- --- ---- --- ------ ----- ------- ---- -- --- ------- --<br>------- ---------- ------ -- ----- -- ----- -- ---- ------<br>--- ----- --- --- ------ -------- ----- --- ------ ----- --<br>----- ----- ---------- --- --- ------ ------ ---- -- ------<br>------- --- ------ ----- --- left ------- -- ---- --- --<br>------- ------,113743.40000000224,113742.60000000149,112935.813,112935.80000000075,112952.483,113752.784,,48,left
screen,html.Screen,0_2_1_1_49,2021-12-02T16:20:49.292Z,,,,,,,,,,,,,,,,54,,,,,,,,,,,,,,701.8160000014905,,response,,,100,,,,,,Space,keypress(Space),,,,,-- --- ---- --- ------ ----- ------- ---- -- --- ------- --<br>------- ---------- ------ -- ----- -- ----- -- ---- ------<br>--- ----- --- --- ------ -------- ----- --- ------ ----- --<br>----- ----- ---------- --- --- ------ ------ ---- -- ------<br>------- --- ------ ----- --- ---- without -- ---- --- --<br>------- ------,114455.40000000224,114454.60000000149,113736.113,113743.70000000298,113752.784,114469.399,,49,without
screen,html.Screen,0_2_1_1_50,2021-12-02T16:20:49.844Z,,,,,,,,,,,,,,,,54,,,,,,,,,,,,,,537.2010000014852,,response,,,100,,,,,,Space,keypress(Space),,,,,-- --- ---- --- ------ ----- ------- ---- -- --- ------- --<br>------- ---------- ------ -- ----- -- ----- -- ---- ------<br>--- ----- --- --- ------ -------- ----- --- ------ ----- --<br>----- ----- ---------- --- --- ------ ------ ---- -- ------<br>------- --- ------ ----- --- ---- ------- an ---- --- --<br>------- ------,115007.40000000224,115006.60000000149,114452.73,114455.60000000149,114469.399,115019.79,,50,an
screen,html.Screen,0_2_1_1_51,2021-12-02T16:20:50.668Z,,,,,,,,,,,,,,,,54,,,,,,,,,,,,,,810.8100000014965,,response,,,100,,,,,,Space,keypress(Space),,,,,-- --- ---- --- ------ ----- ------- ---- -- --- ------- --<br>------- ---------- ------ -- ----- -- ----- -- ---- ------<br>--- ----- --- --- ------ -------- ----- --- ------ ----- --<br>----- ----- ---------- --- --- ------ ------ ---- -- ------<br>------- --- ------ ----- --- ---- ------- -- easy --- --<br>------- ------,115831.30000000075,115830.60000000149,115003.119,115007.70000000298,115019.79,115836.452,,51,easy
screen,html.Screen,0_2_1_1_52,2021-12-02T16:20:51.180Z,,,,,,,,,,,,,,,,54,,,,,,,,,,,,,,506.0479999999952,,response,,,100,,,,,,Space,keypress(Space),,,,,-- --- ---- --- ------ ----- ------- ---- -- --- ------- --<br>------- ---------- ------ -- ----- -- ----- -- ---- ------<br>--- ----- --- --- ------ -------- ----- --- ------ ----- --<br>----- ----- ---------- --- --- ------ ------ ---- -- ------<br>------- --- ------ ----- --- ---- ------- -- ---- way --<br>------- ------,116343.30000000075,116342.5,115819.783,115831.60000000149,115836.452,116353.354,,52,way
screen,html.Screen,0_2_1_1_53,2021-12-02T16:20:51.508Z,,,,,,,,,,,,,,,,54,,,,,,,,,,,,,,317.14599999999336,,response,,,100,,,,,,Space,keypress(Space),,,,,-- --- ---- --- ------ ----- ------- ---- -- --- ------- --<br>------- ---------- ------ -- ----- -- ----- -- ---- ------<br>--- ----- --- --- ------ -------- ----- --- ------ ----- --<br>----- ----- ---------- --- --- ------ ------ ---- -- ------<br>------- --- ------ ----- --- ---- ------- -- ---- --- of<br>------- ------,116671.30000000075,116670.5,116336.684,116343.5,116353.354,116686.88,,53,of
screen,html.Screen,0_2_1_1_54,2021-12-02T16:20:51.988Z,,,,,,,,,,,,,,,,54,,,,,,,,,,,,,,463.61999999999534,,response,,,100,,,,,,Space,keypress(Space),,,,,-- --- ---- --- ------ ----- ------- ---- -- --- ------- --<br>------- ---------- ------ -- ----- -- ----- -- ---- ------<br>--- ----- --- --- ------ -------- ----- --- ------ ----- --<br>----- ----- ---------- --- --- ------ ------ ---- -- ------<br>------- --- ------ ----- --- ---- ------- -- ---- --- --<br>raising ------,117151.30000000075,117150.5,116670.209,116671.60000000149,116686.88,117153.618,,54,raising
screen,html.Screen,0_2_1_1_55,2021-12-02T16:20:52.429Z,,,,,,,,,,,,,,,,54,,,,,,,,,,,,,,437.28200000223296,,response,,,100,,,,,,Space,keypress(Space),,,,,-- --- ---- --- ------ ----- ------- ---- -- --- ------- --<br>------- ---------- ------ -- ----- -- ----- -- ---- ------<br>--- ----- --- --- ------ -------- ----- --- ------ ----- --<br>----- ----- ---------- --- --- ------ ------ ---- -- ------<br>------- --- ------ ----- --- ---- ------- -- ---- --- --<br>------- money.,117591.70000000298,117590.90000000224,117136.948,117151.5,117153.618,117603.722,,55,money.
Item 100,flow.Loop,0_2_1_1,2021-12-02T16:20:52.429Z,,,,,,,,,,,,,,,,,,,,,,,,,,,,,,31595.407000002233,,completion,,,,E,,,,,,,,,,silence,,117592.10000000149,117590.90000000224,85978.823,85980.20000000298,85995.493,117603.722,,,
Question 1,html.Screen,0_2_1_2,2021-12-02T16:20:56.893Z,,,,,,,,,,,,,,,,,,,,,,,,,,,false,TRUE,,4448.078000000751,,response,,,100,E,,,,,FALSE,click #choice-2,,,,silence,,122053,122051.80000000075,117587.052,117592.30000000075,117603.722,122054.892,,,
Question 2,html.Screen,0_2_1_3,2021-12-02T16:20:59.529Z,,,,,,,,,,,,,,,,,,,,,,,,,,,true,FALSE,,2633.408000000738,,response,,,100,E,,,,,FALSE,click #choice-2,,,,silence,,124689.60000000149,124688.30000000075,122038.222,122053.30000000075,122054.892,124705.557,,,
Item 100,flow.Sequence,0_2_1,2021-12-02T16:20:59.530Z,,,,,,,,,,,,,,,,,,,,,,,,,,,,,,48695.27600000074,,completion,,,,,,,,,,,,,,,,124689.90000000224,124688.30000000075,75976.354,75989.70000000298,75993.024,124705.557,,,
End of Practice,html.Page,0_2_2,2021-12-02T16:21:06.033Z,,,,,,,,,,,,,,,,,,,,,,,,,,,,,,6487.043000001489,,form submission,,,,,,,,,,,,,,,,131193.30000000075,131192.6000000015,124688.887,124690.10000000149,124705.557,131207.195,,,
Practice,flow.Sequence,0_2,2021-12-02T16:21:06.034Z,,,,,,,,,,,,,,,,,,,,,,,,,,,,,,101928.40700000149,,completion,,,,,,,,,,,,,,,,131193.80000000075,131192.6000000015,29247.523,29261.900000002235,29264.193,131207.195,,,
Trap_instruction,html.Page,0_3_0,2021-12-02T16:21:11.069Z,,,,,,,,,,,,,,,,,,,,,,,,,,,,,,5021.605000000738,,form submission,,,,,,,,,,,,,,,,136229.5,136228.80000000075,131190.525,131194.20000000298,131207.195,136258.501,,,
trap_trial,html.Screen,0_3_1,2021-12-02T16:21:14.480Z,,,,,,,,,,,,,,,,,,,,,,,,,,,true,1,,3379.7990000007558,,response,,,,,,,,,1,click #choice-1,,,,,,139639.6000000015,139638.30000000075,136225.161,136229.90000000224,136258.501,139642.503,,,
end of trap trial,html.Page,0_3_2,2021-12-02T16:21:16.666Z,,,,,,,,,,,,,,,,,,,,,,,,,,,,,,2183.1970000029833,,form submission,,,,,,,,,,,,,,,,141826.20000000298,141825.70000000298,139625.833,139639.90000000224,139642.503,141826.543,,,
Trap 1,flow.Sequence,0_3,2021-12-02T16:21:16.667Z,,,,,,,,,,,,,,,,,,,,,,,,,,,,,,10618.505000002973,,completion,,,,,,,,,,,,,,,,141826.6000000015,141825.70000000298,131190.525,131194.1000000015,131207.195,141826.543,,,
Standby,html.Page,0_4_0,2021-12-02T16:21:24.654Z,,,,,,,,,,,,,,,,,,,,,,,,,,,,,,8002.209000000003,,timeout,,,,,,,,,,,,,,,,149813.6000000015,149812.081,141809.873,141827,141826.543,149828.752,,,
Holding screen,html.Screen,0_4_1_0_0,2021-12-02T16:21:31.655Z,,,,,,,,,,,,,,,,,,,,,,,,,,,,,,7001.706999999995,,timeout,,,,,,,,,,,,,,,,156815.30000000075,156813.789,149812.081,149814,149828.752,156830.459,,,
screen,html.Screen,0_4_1_0_1_0,2021-12-02T16:21:32.638Z,,,,,,,,,,,,,,,,15,,,,,,,,,,,,,,966.3410000007425,,response,,,7,E,,,,,Space,keypress(Space),,,,lyrical,Greg --------- ---------- - --- ------- -- --- ------------<br>----- -- -------- ------- ---- ------ - -------- ---- -----<br>--- ------- ---- -- --- -------- --- - ----- ------ ---- --<br>-------- --- -------- -------- --- -------- ---- -- ----- -<br>-------- ---- --- ---------- --------- -- ------- ------ -<br>--------- ----- -----,157798.1000000015,157796.80000000075,156813.789,156815.70000000298,156830.459,157813.855,,0,Greg
screen,html.Screen,0_4_1_0_1_1,2021-12-02T16:21:33.197Z,,,,,,,,,,,,,,,,15,,,,,,,,,,,,,,542.3450000029698,,response,,,7,E,,,,,Space,keypress(Space),,,,lyrical,"---- Anderson, ---------- - --- ------- -- --- ------------<br>----- -- -------- ------- ---- ------ - -------- ---- -----<br>--- ------- ---- -- --- -------- --- - ----- ------ ---- --<br>-------- --- -------- -------- --- -------- ---- -- ----- -<br>-------- ---- --- ---------- --------- -- ------- ------ -<br>--------- ----- -----",158357,158356.20000000298,157797.186,157798.5,157813.855,158364.149,,1,"Anderson,"
screen,html.Screen,0_4_1_0_1_2,2021-12-02T16:21:33.685Z,,,,,,,,,,,,,,,,15,,,,,,,,,,,,,,480.05100000297534,,response,,,7,E,,,,,Space,keypress(Space),,,,lyrical,---- --------- considered - --- ------- -- --- ------------<br>----- -- -------- ------- ---- ------ - -------- ---- -----<br>--- ------- ---- -- --- -------- --- - ----- ------ ---- --<br>-------- --- -------- -------- --- -------- ---- -- ----- -<br>-------- ---- --- ---------- --------- -- ------- ------ -<br>--------- ----- -----,158845,158844.20000000298,158347.479,158357.30000000075,158364.149,158847.669,,2,considered
screen,html.Screen,0_4_1_0_1_3,2021-12-02T16:21:34.093Z,,,,,,,,,,,,,,,,15,,,,,,,,,,,,,,404.5310000029858,,response,,,7,E,,,,,Space,keypress(Space),,,,lyrical,---- --------- ---------- a --- ------- -- --- ------------<br>----- -- -------- ------- ---- ------ - -------- ---- -----<br>--- ------- ---- -- --- -------- --- - ----- ------ ---- --<br>-------- --- -------- -------- --- -------- ---- -- ----- -<br>-------- ---- --- ---------- --------- -- ------- ------ -<br>--------- ----- -----,159253.1000000015,159252.20000000298,158830.998,158845.30000000075,158847.669,159264.49,,3,a
screen,html.Screen,0_4_1_0_1_4,2021-12-02T16:21:34.549Z,,,,,,,,,,,,,,,,15,,,,,,,,,,,,,,443.5100000000093,,response,,,7,E,,,,,Space,keypress(Space),,,,lyrical,---- --------- ---------- - key ------- -- --- ------------<br>----- -- -------- ------- ---- ------ - -------- ---- -----<br>--- ------- ---- -- --- -------- --- - ----- ------ ---- --<br>-------- --- -------- -------- --- -------- ---- -- ----- -<br>-------- ---- --- ---------- --------- -- ------- ------ -<br>--------- ----- -----,159708.80000000075,159708,159247.819,159253.20000000298,159264.49,159714.544,,4,key
screen,html.Screen,0_4_1_0_1_5,2021-12-02T16:21:34.997Z,,,,,,,,,,,,,,,,15,,,,,,,,,,,,,,441.5560000014957,,response,,,7,E,,,,,Space,keypress(Space),,,,lyrical,---- --------- ---------- - --- witness -- --- ------------<br>----- -- -------- ------- ---- ------ - -------- ---- -----<br>--- ------- ---- -- --- -------- --- - ----- ------ ---- --<br>-------- --- -------- -------- --- -------- ---- -- ----- -<br>-------- ---- --- ---------- --------- -- ------- ------ -<br>--------- ----- -----,160157,160156.1000000015,159697.874,159709,159714.544,160164.567,,5,witness
screen,html.Screen,0_4_1_0_1_6,2021-12-02T16:21:35.421Z,,,,,,,,,,,,,,,,15,,,,,,,,,,,,,,415.5330000014801,,response,,,7,E,,,,,Space,keypress(Space),,,,lyrical,---- --------- ---------- - --- ------- by --- ------------<br>----- -- -------- ------- ---- ------ - -------- ---- -----<br>--- ------- ---- -- --- -------- --- - ----- ------ ---- --<br>-------- --- -------- -------- --- -------- ---- -- ----- -<br>-------- ---- --- ---------- --------- -- ------- ------ -<br>--------- ----- -----,160580.90000000224,160580.1000000015,160147.898,160157.20000000298,160164.567,160598.218,,6,by
screen,html.Screen,0_4_1_0_1_7,2021-12-02T16:21:35.845Z,,,,,,,,,,,,,,,,15,,,,,,,,,,,,,,405.88200000149664,,response,,,7,E,,,,,Space,keypress(Space),,,,lyrical,---- --------- ---------- - --- ------- -- the ------------<br>----- -- -------- ------- ---- ------ - -------- ---- -----<br>--- ------- ---- -- --- -------- --- - ----- ------ ---- --<br>-------- --- -------- -------- --- -------- ---- -- ----- -<br>-------- ---- --- ---------- --------- -- ------- ------ -<br>--------- ----- -----,161004.80000000075,161004.1000000015,160581.546,160581.20000000298,160598.218,161014.723,,7,the
screen,html.Screen,0_4_1_0_1_8,2021-12-02T16:21:37.461Z,,,,,,,,,,,,,,,,15,,,,,,,,,,,,,,1605.177000002237,,response,,,7,E,,,,,Space,keypress(Space),,,,lyrical,"---- --------- ---------- - --- ------- -- --- prosecution,<br>----- -- -------- ------- ---- ------ - -------- ---- -----<br>--- ------- ---- -- --- -------- --- - ----- ------ ---- --<br>-------- --- -------- -------- --- -------- ---- -- ----- -<br>-------- ---- --- ---------- --------- -- ------- ------ -<br>--------- ----- -----",162620.80000000075,162619.90000000224,160998.055,161005.20000000298,161014.723,162632.254,,8,"prosecution,"
screen,html.Screen,0_4_1_0_1_9,2021-12-02T16:21:37.940Z,,,,,,,,,,,,,,,,15,,,,,,,,,,,,,,467.24600000001374,,response,,,7,E,,,,,Space,keypress(Space),,,,lyrical,---- --------- ---------- - --- ------- -- --- ------------<br>vowed -- -------- ------- ---- ------ - -------- ---- -----<br>--- ------- ---- -- --- -------- --- - ----- ------ ---- --<br>-------- --- -------- -------- --- -------- ---- -- ----- -<br>-------- ---- --- ---------- --------- -- ------- ------ -<br>--------- ----- -----,163099.90000000224,163099.5,162615.581,162621.1000000015,162632.254,163115.485,,9,vowed
screen,html.Screen,0_4_1_0_1_10,2021-12-02T16:21:38.261Z,,,,,,,,,,,,,,,,15,,,,,,,,,,,,,,304.315000000759,,response,,,7,E,,,,,Space,keypress(Space),,,,lyrical,---- --------- ---------- - --- ------- -- --- ------------<br>----- he -------- ------- ---- ------ - -------- ---- -----<br>--- ------- ---- -- --- -------- --- - ----- ------ ---- --<br>-------- --- -------- -------- --- -------- ---- -- ----- -<br>-------- ---- --- ---------- --------- -- ------- ------ -<br>--------- ----- -----,163420.70000000298,163419.80000000075,163098.814,163099.90000000224,163115.485,163432.167,,10,he
screen,html.Screen,0_4_1_0_1_11,2021-12-02T16:21:38.533Z,,,,,,,,,,,,,,,,15,,,,,,,,,,,,,,259.83300000001327,,response,,,7,E,,,,,Space,keypress(Space),,,,lyrical,---- --------- ---------- - --- ------- -- --- ------------<br>----- -- wouldn't ------- ---- ------ - -------- ---- -----<br>--- ------- ---- -- --- -------- --- - ----- ------ ---- --<br>-------- --- -------- -------- --- -------- ---- -- ----- -<br>-------- ---- --- ---------- --------- -- ------- ------ -<br>--------- ----- -----,163692.80000000075,163692,163415.497,163420.90000000224,163432.167,163698.801,,11,wouldn't
screen,html.Screen,0_4_1_0_1_12,2021-12-02T16:21:39.077Z,,,,,,,,,,,,,,,,15,,,,,,,,,,,,,,537.0990000022284,,response,,,7,E,,,,,Space,keypress(Space),,,,lyrical,---- --------- ---------- - --- ------- -- --- ------------<br>----- -- -------- testify ---- ------ - -------- ---- -----<br>--- ------- ---- -- --- -------- --- - ----- ------ ---- --<br>-------- --- -------- -------- --- -------- ---- -- ----- -<br>-------- ---- --- ---------- --------- -- ------- ------ -<br>--------- ----- -----,164236.70000000298,164235.90000000224,163682.133,163693,163698.801,164249.106,,12,testify
screen,html.Screen,0_4_1_0_1_13,2021-12-02T16:21:39.365Z,,,,,,,,,,,,,,,,15,,,,,,,,,,,,,,274.6940000007453,,response,,,7,E,,,,,Space,keypress(Space),,,,lyrical,---- --------- ---------- - --- ------- -- --- ------------<br>----- -- -------- ------- when ------ - -------- ---- -----<br>--- ------- ---- -- --- -------- --- - ----- ------ ---- --<br>-------- --- -------- -------- --- -------- ---- -- ----- -<br>-------- ---- --- ---------- --------- -- ------- ------ -<br>--------- ----- -----,164524.6000000015,164523.80000000075,164232.434,164236.90000000224,164249.106,164532.414,,13,when
screen,html.Screen,0_4_1_0_1_14,2021-12-02T16:21:39.581Z,,,,,,,,,,,,,,,,15,,,,,,,,,,,,,,207.3860000007553,,response,,,7,E,,,,,Space,keypress(Space),,,,lyrical,---- --------- ---------- - --- ------- -- --- ------------<br>----- -- -------- ------- ---- served - -------- ---- -----<br>--- ------- ---- -- --- -------- --- - ----- ------ ---- --<br>-------- --- -------- -------- --- -------- ---- -- ----- -<br>-------- ---- --- ---------- --------- -- ------- ------ -<br>--------- ----- -----,164740.6000000015,164739.80000000075,164515.744,164524.90000000224,164532.414,164749.247,,14,served
screen,html.Screen,0_4_1_0_1_15,2021-12-02T16:21:40.069Z,,,,,,,,,,,,,,,,15,,,,,,,,,,,,,,478.55300000074203,,response,,,7,E,,,,,Space,keypress(Space),,,,lyrical,---- --------- ---------- - --- ------- -- --- ------------<br>----- -- -------- ------- ---- ------ a -------- ---- -----<br>--- ------- ---- -- --- -------- --- - ----- ------ ---- --<br>-------- --- -------- -------- --- -------- ---- -- ----- -<br>-------- ---- --- ---------- --------- -- ------- ------ -<br>--------- ----- -----,165228.70000000298,165227.80000000075,164732.575,164740.80000000075,164749.247,165232.646,,15,a
screen,html.Screen,0_4_1_0_1_16,2021-12-02T16:21:40.365Z,,,,,,,,,,,,,,,,15,,,,,,,,,,,,,,291.15400000073714,,response,,,7,E,,,,,Space,keypress(Space),,,,lyrical,---- --------- ---------- - --- ------- -- --- ------------<br>----- -- -------- ------- ---- ------ - subpoena ---- -----<br>--- ------- ---- -- --- -------- --- - ----- ------ ---- --<br>-------- --- -------- -------- --- -------- ---- -- ----- -<br>-------- ---- --- ---------- --------- -- ------- ------ -<br>--------- ----- -----,165524.5,165523.80000000075,165215.976,165228.90000000224,165232.646,165532.735,,16,subpoena
screen,html.Screen,0_4_1_0_1_17,2021-12-02T16:21:40.749Z,,,,,,,,,,,,,,,,15,,,,,,,,,,,,,,375.065000000759,,response,,,7,E,,,,,Space,keypress(Space),,,,lyrical,---- --------- ---------- - --- ------- -- --- ------------<br>----- -- -------- ------- ---- ------ - -------- last -----<br>--- ------- ---- -- --- -------- --- - ----- ------ ---- --<br>-------- --- -------- -------- --- -------- ---- -- ----- -<br>-------- ---- --- ---------- --------- -- ------- ------ -<br>--------- ----- -----,165908.6000000015,165907.80000000075,165516.065,165524.80000000075,165532.735,165916.201,,17,last
screen,html.Screen,0_4_1_0_1_18,2021-12-02T16:21:41.076Z,,,,,,,,,,,,,,,,15,,,,,,,,,,,,,,319.5990000007441,,response,,,7,E,,,,,Space,keypress(Space),,,,lyrical,---- --------- ---------- - --- ------- -- --- ------------<br>----- -- -------- ------- ---- ------ - -------- ---- week.<br>--- ------- ---- -- --- -------- --- - ----- ------ ---- --<br>-------- --- -------- -------- --- -------- ---- -- ----- -<br>-------- ---- --- ---------- --------- -- ------- ------ -<br>--------- ----- -----,166236.6000000015,166235.80000000075,165899.53,165908.80000000075,165916.201,166249.427,,18,week.
screen,html.Screen,0_4_1_0_1_19,2021-12-02T16:21:41.564Z,,,,,,,,,,,,,,,,15,,,,,,,,,,,,,,474.373000000749,,response,,,7,E,,,,,Space,keypress(Space),,,,lyrical,---- --------- ---------- - --- ------- -- --- ------------<br>----- -- -------- ------- ---- ------ - -------- ---- -----<br>His ------- ---- -- --- -------- --- - ----- ------ ---- --<br>-------- --- -------- -------- --- -------- ---- -- ----- -<br>-------- ---- --- ---------- --------- -- ------- ------ -<br>--------- ----- -----,166724.5,166723.80000000075,166232.76,166236.80000000075,166249.427,166732.978,,19,His
screen,html.Screen,0_4_1_0_1_20,2021-12-02T16:21:41.964Z,,,,,,,,,,,,,,,,15,,,,,,,,,,,,,,390.72200000297744,,response,,,7,E,,,,,Space,keypress(Space),,,,lyrical,---- --------- ---------- - --- ------- -- --- ------------<br>----- -- -------- ------- ---- ------ - -------- ---- -----<br>--- lawyers ---- -- --- -------- --- - ----- ------ ---- --<br>-------- --- -------- -------- --- -------- ---- -- ----- -<br>-------- ---- --- ---------- --------- -- ------- ------ -<br>--------- ----- -----,167124.5,167123.70000000298,166716.308,166724.80000000075,166732.978,167133.28,,20,lawyers
screen,html.Screen,0_4_1_0_1_21,2021-12-02T16:21:42.308Z,,,,,,,,,,,,,,,,15,,,,,,,,,,,,,,334.4200000029814,,response,,,7,E,,,,,Space,keypress(Space),,,,lyrical,---- --------- ---------- - --- ------- -- --- ------------<br>----- -- -------- ------- ---- ------ - -------- ---- -----<br>--- ------- said -- --- -------- --- - ----- ------ ---- --<br>-------- --- -------- -------- --- -------- ---- -- ----- -<br>-------- ---- --- ---------- --------- -- ------- ------ -<br>--------- ----- -----,167468.5,167467.70000000298,167116.607,167124.80000000075,167133.28,167483.221,,21,said
screen,html.Screen,0_4_1_0_1_22,2021-12-02T16:21:42.733Z,,,,,,,,,,,,,,,,15,,,,,,,,,,,,,,408.87900000149966,,response,,,7,E,,,,,Space,keypress(Space),,,,lyrical,---- --------- ---------- - --- ------- -- --- ------------<br>----- -- -------- ------- ---- ------ - -------- ---- -----<br>--- ------- ---- he --- -------- --- - ----- ------ ---- --<br>-------- --- -------- -------- --- -------- ---- -- ----- -<br>-------- ---- --- ---------- --------- -- ------- ------ -<br>--------- ----- -----,167892.90000000224,167892.1000000015,167466.551,167468.70000000298,167483.221,167899.898,,22,he
screen,html.Screen,0_4_1_0_1_23,2021-12-02T16:21:43.068Z,,,,,,,,,,,,,,,,15,,,,,,,,,,,,,,327.7020000015036,,response,,,7,E,,,,,Space,keypress(Space),,,,lyrical,---- --------- ---------- - --- ------- -- --- ------------<br>----- -- -------- ------- ---- ------ - -------- ---- -----<br>--- ------- ---- -- was -------- --- - ----- ------ ---- --<br>-------- --- -------- -------- --- -------- ---- -- ----- -<br>-------- ---- --- ---------- --------- -- ------- ------ -<br>--------- ----- -----,168228.5,168227.6000000015,167883.229,167893.20000000298,167899.898,168233.382,,23,was
screen,html.Screen,0_4_1_0_1_24,2021-12-02T16:21:43.484Z,,,,,,,,,,,,,,,,15,,,,,,,,,,,,,,410.2180000014778,,response,,,7,E,,,,,Space,keypress(Space),,,,lyrical,---- --------- ---------- - --- ------- -- --- ------------<br>----- -- -------- ------- ---- ------ - -------- ---- -----<br>--- ------- ---- -- --- prepared --- - ----- ------ ---- --<br>-------- --- -------- -------- --- -------- ---- -- ----- -<br>-------- ---- --- ---------- --------- -- ------- ------ -<br>--------- ----- -----,168644.40000000224,168643.6000000015,168216.712,168228.70000000298,168233.382,168650.279,,24,prepared
screen,html.Screen,0_4_1_0_1_25,2021-12-02T16:21:43.892Z,,,,,,,,,,,,,,,,15,,,,,,,,,,,,,,401.32100000148057,,response,,,7,E,,,,,Space,keypress(Space),,,,lyrical,---- --------- ---------- - --- ------- -- --- ------------<br>----- -- -------- ------- ---- ------ - -------- ---- -----<br>--- ------- ---- -- --- -------- for - ----- ------ ---- --<br>-------- --- -------- -------- --- -------- ---- -- ----- -<br>-------- ---- --- ---------- --------- -- ------- ------ -<br>--------- ----- -----,169052.40000000224,169051.6000000015,168633.607,168644.6000000015,168650.279,169066.959,,25,for
screen,html.Screen,0_4_1_0_1_26,2021-12-02T16:21:44.228Z,,,,,,,,,,,,,,,,15,,,,,,,,,,,,,,320.64100000148755,,response,,,7,E,,,,,Space,keypress(Space),,,,lyrical,---- --------- ---------- - --- ------- -- --- ------------<br>----- -- -------- ------- ---- ------ - -------- ---- -----<br>--- ------- ---- -- --- -------- --- a ----- ------ ---- --<br>-------- --- -------- -------- --- -------- ---- -- ----- -<br>-------- ---- --- ---------- --------- -- ------- ------ -<br>--------- ----- -----,169388.40000000224,169387.6000000015,169050.289,169052.6000000015,169066.959,169400.389,,26,a
screen,html.Screen,0_4_1_0_1_27,2021-12-02T16:21:44.628Z,,,,,,,,,,,,,,,,15,,,,,,,,,,,,,,387.21100000149454,,response,,,7,E,,,,,Space,keypress(Space),,,,lyrical,---- --------- ---------- - --- ------- -- --- ------------<br>----- -- -------- ------- ---- ------ - -------- ---- -----<br>--- ------- ---- -- --- -------- --- - third ------ ---- --<br>-------- --- -------- -------- --- -------- ---- -- ----- -<br>-------- ---- --- ---------- --------- -- ------- ------ -<br>--------- ----- -----,169788.40000000224,169787.6000000015,169383.719,169388.6000000015,169400.389,169800.493,,27,third
screen,html.Screen,0_4_1_0_1_28,2021-12-02T16:21:45.084Z,,,,,,,,,,,,,,,,15,,,,,,,,,,,,,,443.00700000001234,,response,,,7,E,,,,,Space,keypress(Space),,,,lyrical,---- --------- ---------- - --- ------- -- --- ------------<br>----- -- -------- ------- ---- ------ - -------- ---- -----<br>--- ------- ---- -- --- -------- --- - ----- prison ---- --<br>-------- --- -------- -------- --- -------- ---- -- ----- -<br>-------- ---- --- ---------- --------- -- ------- ------ -<br>--------- ----- -----,170244.30000000075,170243.5,169783.823,169788.6000000015,169800.493,170250.607,,28,prison
screen,html.Screen,0_4_1_0_1_29,2021-12-02T16:21:45.412Z,,,,,,,,,,,,,,,,15,,,,,,,,,,,,,,320.99300000150106,,response,,,7,E,,,,,Space,keypress(Space),,,,lyrical,---- --------- ---------- - --- ------- -- --- ------------<br>----- -- -------- ------- ---- ------ - -------- ---- -----<br>--- ------- ---- -- --- -------- --- - ----- ------ stay --<br>-------- --- -------- -------- --- -------- ---- -- ----- -<br>-------- ---- --- ---------- --------- -- ------- ------ -<br>--------- ----- -----,170572.30000000075,170571.6000000015,170233.937,170244.5,170250.607,170584.019,,29,stay
screen,html.Screen,0_4_1_0_1_30,2021-12-02T16:21:45.748Z,,,,,,,,,,,,,,,,15,,,,,,,,,,,,,,323.38100000223494,,response,,,7,E,,,,,Space,keypress(Space),,,,lyrical,---- --------- ---------- - --- ------- -- --- ------------<br>----- -- -------- ------- ---- ------ - -------- ---- -----<br>--- ------- ---- -- --- -------- --- - ----- ------ ---- to<br>-------- --- -------- -------- --- -------- ---- -- ----- -<br>-------- ---- --- ---------- --------- -- ------- ------ -<br>--------- ----- -----,170908.20000000298,170907.40000000224,170567.349,170572.5,170584.019,170917.424,,30,to
screen,html.Screen,0_4_1_0_1_31,2021-12-02T16:21:46.508Z,,,,,,,,,,,,,,,,15,,,,,,,,,,,,,,750.0760000000009,,response,,,7,E,,,,,Space,keypress(Space),,,,lyrical,---- --------- ---------- - --- ------- -- --- ------------<br>----- -- -------- ------- ---- ------ - -------- ---- -----<br>--- ------- ---- -- --- -------- --- - ----- ------ ---- --<br>maintain --- -------- -------- --- -------- ---- -- ----- -<br>-------- ---- --- ---------- --------- -- ------- ------ -<br>--------- ----- -----,171668.40000000224,171667.5,170900.754,170908.5,170917.424,171684.195,,31,maintain
screen,html.Screen,0_4_1_0_1_32,2021-12-02T16:21:46.917Z,,,,,,,,,,,,,,,,15,,,,,,,,,,,,,,391.2050000022282,,response,,,7,E,,,,,Space,keypress(Space),,,,lyrical,---- --------- ---------- - --- ------- -- --- ------------<br>----- -- -------- ------- ---- ------ - -------- ---- -----<br>--- ------- ---- -- --- -------- --- - ----- ------ ---- --<br>-------- his -------- -------- --- -------- ---- -- ----- -<br>-------- ---- --- ---------- --------- -- ------- ------ -<br>--------- ----- -----,172077.6000000015,172075.40000000224,171667.526,171668.6000000015,171684.195,172084.523,,32,his
screen,html.Screen,0_4_1_0_1_33,2021-12-02T16:21:47.140Z,,,,,,,,,,,,,,,,15,,,,,,,,,,,,,,214.87700000224868,,response,,,7,E,,,,,Space,keypress(Space),,,,lyrical,---- --------- ---------- - --- ------- -- --- ------------<br>----- -- -------- ------- ---- ------ - -------- ---- -----<br>--- ------- ---- -- --- -------- --- - ----- ------ ---- --<br>-------- --- silence. -------- --- -------- ---- -- ----- -<br>-------- ---- --- ---------- --------- -- ------- ------ -<br>--------- ----- -----,172300.20000000298,172299.40000000224,172067.851,172077.80000000075,172084.523,172301.173,,33,silence.
screen,html.Screen,0_4_1_0_1_34,2021-12-02T16:21:48.284Z,,,,,,,,,,,,,,,,15,,,,,,,,,,,,,,1142.2270000022254,,response,,,7,E,,,,,Space,keypress(Space),,,,lyrical,---- --------- ---------- - --- ------- -- --- ------------<br>----- -- -------- ------- ---- ------ - -------- ---- -----<br>--- ------- ---- -- --- -------- --- - ----- ------ ---- --<br>-------- --- -------- Anderson --- -------- ---- -- ----- -<br>-------- ---- --- ---------- --------- -- ------- ------ -<br>--------- ----- -----,173444.20000000298,173443.40000000224,172284.502,172300.5,172301.173,173451.266,,34,Anderson
screen,html.Screen,0_4_1_0_1_35,2021-12-02T16:21:49.012Z,,,,,,,,,,,,,,,,15,,,,,,,,,,,,,,720.0340000007418,,response,,,7,E,,,,,Space,keypress(Space),,,,lyrical,---- --------- ---------- - --- ------- -- --- ------------<br>----- -- -------- ------- ---- ------ - -------- ---- -----<br>--- ------- ---- -- --- -------- --- - ----- ------ ---- --<br>-------- --- -------- -------- was -------- ---- -- ----- -<br>-------- ---- --- ---------- --------- -- ------- ------ -<br>--------- ----- -----,174172.1000000015,174171.30000000075,173434.597,173444.40000000224,173451.266,174185.121,,35,was
screen,html.Screen,0_4_1_0_1_36,2021-12-02T16:21:49.356Z,,,,,,,,,,,,,,,,15,,,,,,,,,,,,,,330.1790000007313,,response,,,7,E,,,,,Space,keypress(Space),,,,lyrical,---- --------- ---------- - --- ------- -- --- ------------<br>----- -- -------- ------- ---- ------ - -------- ---- -----<br>--- ------- ---- -- --- -------- --- - ----- ------ ---- --<br>-------- --- -------- -------- --- released ---- -- ----- -<br>-------- ---- --- ---------- --------- -- ------- ------ -<br>--------- ----- -----,174516.1000000015,174515.30000000075,174168.448,174172.40000000224,174185.121,174518.305,,36,released
screen,html.Screen,0_4_1_0_1_37,2021-12-02T16:21:49.748Z,,,,,,,,,,,,,,,,15,,,,,,,,,,,,,,388.99500000075204,,response,,,7,E,,,,,Space,keypress(Space),,,,lyrical,---- --------- ---------- - --- ------- -- --- ------------<br>----- -- -------- ------- ---- ------ - -------- ---- -----<br>--- ------- ---- -- --- -------- --- - ----- ------ ---- --<br>-------- --- -------- -------- --- -------- July -- ----- -<br>-------- ---- --- ---------- --------- -- ------- ------ -<br>--------- ----- -----,174908.1000000015,174907.30000000075,174501.635,174516.40000000224,174518.305,174918.494,,37,July
screen,html.Screen,0_4_1_0_1_38,2021-12-02T16:21:50.108Z,,,,,,,,,,,,,,,,15,,,,,,,,,,,,,,348.806000000739,,response,,,7,E,,,,,Space,keypress(Space),,,,lyrical,---- --------- ---------- - --- ------- -- --- ------------<br>----- -- -------- ------- ---- ------ - -------- ---- -----<br>--- ------- ---- -- --- -------- --- - ----- ------ ---- --<br>-------- --- -------- -------- --- -------- ---- 20 ----- -<br>-------- ---- --- ---------- --------- -- ------- ------ -<br>--------- ----- -----,175268.1000000015,175267.30000000075,174901.823,174908.40000000224,174918.494,175285.225,,38,20
screen,html.Screen,0_4_1_0_1_39,2021-12-02T16:21:50.548Z,,,,,,,,,,,,,,,,15,,,,,,,,,,,,,,421.9750000029744,,response,,,7,E,,,,,Space,keypress(Space),,,,lyrical,---- --------- ---------- - --- ------- -- --- ------------<br>----- -- -------- ------- ---- ------ - -------- ---- -----<br>--- ------- ---- -- --- -------- --- - ----- ------ ---- --<br>-------- --- -------- -------- --- -------- ---- -- after -<br>-------- ---- --- ---------- --------- -- ------- ------ -<br>--------- ----- -----,175708.1000000015,175707.20000000298,175268.555,175268.30000000075,175285.225,175718.733,,39,after
screen,html.Screen,0_4_1_0_1_40,2021-12-02T16:21:50.996Z,,,,,,,,,,,,,,,,15,,,,,,,,,,,,,,436.4670000029728,,response,,,7,E,,,,,Space,keypress(Space),,,,lyrical,---- --------- ---------- - --- ------- -- --- ------------<br>----- -- -------- ------- ---- ------ - -------- ---- -----<br>--- ------- ---- -- --- -------- --- - ----- ------ ---- --<br>-------- --- -------- -------- --- -------- ---- -- ----- a<br>-------- ---- --- ---------- --------- -- ------- ------ -<br>--------- ----- -----,176156,176155.20000000298,175702.062,175708.20000000298,175718.733,176168.792,,40,a
screen,html.Screen,0_4_1_0_1_41,2021-12-02T16:21:51.428Z,,,,,,,,,,,,,,,,15,,,,,,,,,,,,,,418.4080000029935,,response,,,7,E,,,,,Space,keypress(Space),,,,lyrical,---- --------- ---------- - --- ------- -- --- ------------<br>----- -- -------- ------- ---- ------ - -------- ---- -----<br>--- ------- ---- -- --- -------- --- - ----- ------ ---- --<br>-------- --- -------- -------- --- -------- ---- -- ----- -<br>two-week ---- --- ---------- --------- -- ------- ------ -<br>--------- ----- -----,176588,176587.20000000298,176152.122,176156.20000000298,176168.792,176602.234,,41,two-week
screen,html.Screen,0_4_1_0_1_42,2021-12-02T16:21:51.820Z,,,,,,,,,,,,,,,,15,,,,,,,,,,,,,,376.9660000029835,,response,,,7,E,,,,,Space,keypress(Space),,,,lyrical,---- --------- ---------- - --- ------- -- --- ------------<br>----- -- -------- ------- ---- ------ - -------- ---- -----<br>--- ------- ---- -- --- -------- --- - ----- ------ ---- --<br>-------- --- -------- -------- --- -------- ---- -- ----- -<br>-------- stay --- ---------- --------- -- ------- ------ -<br>--------- ----- -----,176979.90000000224,176979.20000000298,176585.564,176588.20000000298,176602.234,176985.681,,42,stay
screen,html.Screen,0_4_1_0_1_43,2021-12-02T16:21:52.092Z,,,,,,,,,,,,,,,,15,,,,,,,,,,,,,,265.5190000029688,,response,,,7,E,,,,,Space,keypress(Space),,,,lyrical,---- --------- ---------- - --- ------- -- --- ------------<br>----- -- -------- ------- ---- ------ - -------- ---- -----<br>--- ------- ---- -- --- -------- --- - ----- ------ ---- --<br>-------- --- -------- -------- --- -------- ---- -- ----- -<br>-------- ---- for ---------- --------- -- ------- ------ -<br>--------- ----- -----,177251.90000000224,177251.20000000298,176969.011,176980.1000000015,176985.681,177268.994,,43,for
screen,html.Screen,0_4_1_0_1_44,2021-12-02T16:21:52.284Z,,,,,,,,,,,,,,,,15,,,,,,,,,,,,,,174.10600000148406,,response,,,7,E,,,,,Space,keypress(Space),,,,lyrical,---- --------- ---------- - --- ------- -- --- ------------<br>----- -- -------- ------- ---- ------ - -------- ---- -----<br>--- ------- ---- -- --- -------- --- - ----- ------ ---- --<br>-------- --- -------- -------- --- -------- ---- -- ----- -<br>-------- ---- --- previously --------- -- ------- ------ -<br>--------- ----- -----,177443.90000000224,177443.1000000015,177252.325,177252.20000000298,177268.994,177452.427,,44,previously
screen,html.Screen,0_4_1_0_1_45,2021-12-02T16:21:52.884Z,,,,,,,,,,,,,,,,15,,,,,,,,,,,,,,591.1730000014941,,response,,,7,E,,,,,Space,keypress(Space),,,,lyrical,---- --------- ---------- - --- ------- -- --- ------------<br>----- -- -------- ------- ---- ------ - -------- ---- -----<br>--- ------- ---- -- --- -------- --- - ----- ------ ---- --<br>-------- --- -------- -------- --- -------- ---- -- ----- -<br>-------- ---- --- ---------- declining -- ------- ------ -<br>--------- ----- -----,178044.40000000224,178043.6000000015,177435.757,177444.1000000015,177452.427,178052.733,,45,declining
screen,html.Screen,0_4_1_0_1_46,2021-12-02T16:21:53.220Z,,,,,,,,,,,,,,,,15,,,,,,,,,,,,,,326.36700000148267,,response,,,7,E,,,,,Space,keypress(Space),,,,lyrical,---- --------- ---------- - --- ------- -- --- ------------<br>----- -- -------- ------- ---- ------ - -------- ---- -----<br>--- ------- ---- -- --- -------- --- - ----- ------ ---- --<br>-------- --- -------- -------- --- -------- ---- -- ----- -<br>-------- ---- --- ---------- --------- to ------- ------ -<br>--------- ----- -----,178379.80000000075,178379.1000000015,178036.06,178044.70000000298,178052.733,178386.079,,46,to
screen,html.Screen,0_4_1_0_1_47,2021-12-02T16:21:53.620Z,,,,,,,,,,,,,,,,15,,,,,,,,,,,,,,393.0210000014922,,response,,,7,E,,,,,Space,keypress(Space),,,,lyrical,---- --------- ---------- - --- ------- -- --- ------------<br>----- -- -------- ------- ---- ------ - -------- ---- -----<br>--- ------- ---- -- --- -------- --- - ----- ------ ---- --<br>-------- --- -------- -------- --- -------- ---- -- ----- -<br>-------- ---- --- ---------- --------- -- testify ------ -<br>--------- ----- -----,178779.80000000075,178779.1000000015,178369.408,178380,178386.079,178786.176,,47,testify
screen,html.Screen,0_4_1_0_1_48,2021-12-02T16:21:54.092Z,,,,,,,,,,,,,,,,15,,,,,,,,,,,,,,464.92400000148336,,response,,,7,E,,,,,Space,keypress(Space),,,,lyrical,---- --------- ---------- - --- ------- -- --- ------------<br>----- -- -------- ------- ---- ------ - -------- ---- -----<br>--- ------- ---- -- --- -------- --- - ----- ------ ---- --<br>-------- --- -------- -------- --- -------- ---- -- ----- -<br>-------- ---- --- ---------- --------- -- ------- before -<br>--------- ----- -----,179251.80000000075,179251.1000000015,178769.505,178780,178786.176,179252.776,,48,before
screen,html.Screen,0_4_1_0_1_49,2021-12-02T16:21:54.596Z,,,,,,,,,,,,,,,,15,,,,,,,,,,,,,,502.2239999999874,,response,,,7,E,,,,,Space,keypress(Space),,,,lyrical,---- --------- ---------- - --- ------- -- --- ------------<br>----- -- -------- ------- ---- ------ - -------- ---- -----<br>--- ------- ---- -- --- -------- --- - ----- ------ ---- --<br>-------- --- -------- -------- --- -------- ---- -- ----- -<br>-------- ---- --- ---------- --------- -- ------- ------ a<br>--------- ----- -----,179755.90000000224,179755,179236.108,179252.1000000015,179252.776,179769.666,,49,a
screen,html.Screen,0_4_1_0_1_50,2021-12-02T16:21:54.948Z,,,,,,,,,,,,,,,,15,,,,,,,,,,,,,,337.33400000000256,,response,,,7,E,,,,,Space,keypress(Space),,,,lyrical,---- --------- ---------- - --- ------- -- --- ------------<br>----- -- -------- ------- ---- ------ - -------- ---- -----<br>--- ------- ---- -- --- -------- --- - ----- ------ ---- --<br>-------- --- -------- -------- --- -------- ---- -- ----- -<br>-------- ---- --- ---------- --------- -- ------- ------ -<br>different ----- -----,180107.80000000075,180107,179752.996,179756.20000000298,179769.666,180119.898,,50,different
screen,html.Screen,0_4_1_0_1_51,2021-12-02T16:21:55.316Z,,,,,,,,,,,,,,,,15,,,,,,,,,,,,,,355.1020000000135,,response,,,7,E,,,,,Space,keypress(Space),,,,lyrical,---- --------- ---------- - --- ------- -- --- ------------<br>----- -- -------- ------- ---- ------ - -------- ---- -----<br>--- ------- ---- -- --- -------- --- - ----- ------ ---- --<br>-------- --- -------- -------- --- -------- ---- -- ----- -<br>-------- ---- --- ---------- --------- -- ------- ------ -<br>--------- grand -----,180475.80000000075,180475,180103.226,180108.1000000015,180119.898,180486.5,,51,grand
screen,html.Screen,0_4_1_0_1_52,2021-12-02T16:21:55.804Z,,,,,,,,,,,,,,,,15,,,,,,,,,,,,,,476.5,,response,,,7,E,,,,,Space,keypress(Space),,,,lyrical,---- --------- ---------- - --- ------- -- --- ------------<br>----- -- -------- ------- ---- ------ - -------- ---- -----<br>--- ------- ---- -- --- -------- --- - ----- ------ ---- --<br>-------- --- -------- -------- --- -------- ---- -- ----- -<br>-------- ---- --- ---------- --------- -- ------- ------ -<br>--------- ----- jury.,180963.70000000298,180963,180469.831,180476,180486.5,180970.105,,52,jury.
Item 7,flow.Loop,0_4_1_0_1,2021-12-02T16:21:55.805Z,,,,,,,,,,,,,,,,,,,,,,,,,,,,,,24132.540999999997,,completion,,,,,,,,,,,,,,,,180964.1000000015,180963,156813.789,156815.6000000015,156830.459,180970.105,,,
