sender,sender_type,sender_id,timestamp,meta,,Blues,Classical,Country,Dance,Electronic,Folk,Gospel,Hip-Hop,Jazz,Latin,Musical/Film,New-age,Pop,Provo_ID,R&B,Rap,Reggae,Religious,Rock,Soul,Swing,Traditional,age,artist_name,correct,correctResponse,distraction,duration,education,ended_on,familiarity,gender,item,list,music_frequency,offensiveness,pleasantness,preference,response,response_action,snippet_file,song_name,song_rating,sound,text,time_commit,time_end,time_render,time_run,time_show,time_switch,url,word,word_ID
Instructions,html.Page,0_0,2021-12-10T10:00:50.977Z,"{""labjs_version"":""20.2.3"",""labjs_build"":{""flavor"":""production"",""commit"":""7ea907d66ca8aeef8054924ca5d82ffbe11e34e5""},""location"":""https://run.pavlovia.org/mvasilev/lab_music_b/"",""userAgent"":""Mozilla/5.0 (Windows NT 6.1; Win64; x64) AppleWebKit/537.36 (KHTML, like Gecko) Chrome/96.0.4664.93 Safari/537.36"",""platform"":""Win32"",""language"":""en-US"",""locale"":""en-US"",""timeZone"":""Europe/London"",""timezoneOffset"":0,""screen_width"":1920,""screen_height"":1080,""scroll_width"":1920,""scroll_height"":959,""window_innerWidth"":1920,""window_innerHeight"":1007,""devicePixelRatio"":1}",,,,,,,,,,,,,,,,,,,,,,,,,,,,,23515.578,,form submission,,,,,,,,,,,,,,,,48360.199999928474,48359,24826.725,24842.5,24843.422,48360.429,{},,
Headphones,html.Page,0_1,2021-12-10T10:00:52.995Z,,,,,,,,,,,,,,,,,,,,,,,,,,,,,,2017.1710000238454,,form submission,,,,,,,,,,,,,,,,50378.199999928474,50377.60000002384,48343.774,48360.89999997616,48360.429,50378.115,,,
Holding screen,html.Screen,0_2_0_0,2021-12-10T10:01:02.990Z,,,,,,,,,,,,,,,,,,,,,,,,,,,,,,10002.770000000004,,timeout,,,,,,,,,,,,,,,,60370,60364.215,50361.446,50378.799999952316,50378.115,60380.885,,,
screen,html.Screen,0_2_0_1_0,2021-12-10T10:01:05.261Z,,,,,,,,,,,,,,,,53,,,,,,,,,,,,,,2259.4149999523142,,response,,,99,,,,,,Space,keypress(Space),,,,,When -- ----- -- ------ - ------- --- ----------<br>------------- ------ ------ ---- ---- ------- ----- -- ----<br>-------- ------- -- ---------- --- - --- ----- ----- ----<br>---- --- --- ----- --- ---- ---- ------- ----- ---- -------<br>--- --- -- ----- -- --- ---- -- --- ---- -- ------ ------<br>--- ----- -- ----,62641.699999928474,62640.299999952316,60364.215,60370.5,60380.885,62648.319,,0,When
screen,html.Screen,0_2_0_1_1,2021-12-10T10:01:06.484Z,,,,,,,,,,,,,,,,53,,,,,,,,,,,,,,1215.3809999284713,,response,,,99,,,,,,Space,keypress(Space),,,,,---- it ----- -- ------ - ------- --- ----------<br>------------- ------ ------ ---- ---- ------- ----- -- ----<br>-------- ------- -- ---------- --- - --- ----- ----- ----<br>---- --- --- ----- --- ---- ---- ------- ----- ---- -------<br>--- --- -- ----- -- --- ---- -- --- ---- -- ------ ------<br>--- ----- -- ----,63864.60000002384,63863.699999928474,62631.648,62642.199999928474,62648.319,63881.964,,1,it
screen,html.Screen,0_2_0_1_2,2021-12-10T10:01:07.652Z,,,,,,,,,,,,,,,,53,,,,,,,,,,,,,,1149.7359999284745,,response,,,99,,,,,,Space,keypress(Space),,,,,---- -- comes -- ------ - ------- --- ----------<br>------------- ------ ------ ---- ---- ------- ----- -- ----<br>-------- ------- -- ---------- --- - --- ----- ----- ----<br>---- --- --- ----- --- ---- ---- ------- ----- ---- -------<br>--- --- -- ----- -- --- ---- -- --- ---- -- ------ ------<br>--- ----- -- ----,65032.699999928474,65031.699999928474,63865.293,63865,63881.964,65048.852,,2,comes
screen,html.Screen,0_2_0_1_3,2021-12-10T10:01:08.301Z,,,,,,,,,,,,,,,,53,,,,,,,,,,,,,,630.8479999284755,,response,,,99,,,,,,Space,keypress(Space),,,,,---- -- ----- to ------ - ------- --- ----------<br>------------- ------ ------ ---- ---- ------- ----- -- ----<br>-------- ------- -- ---------- --- - --- ----- ----- ----<br>---- --- --- ----- --- ---- ---- ------- ----- ---- -------<br>--- --- -- ----- -- --- ---- -- --- ---- -- ------ ------<br>--- ----- -- ----,65680.79999995232,65679.69999992847,65032.182,65033.10000002384,65048.852,65682.458,,3,to
screen,html.Screen,0_2_0_1_4,2021-12-10T10:01:09.013Z,,,,,,,,,,,,,,,,53,,,,,,,,,,,,,,709.2419999284757,,response,,,99,,,,,,Space,keypress(Space),,,,,---- -- ----- -- having - ------- --- ----------<br>------------- ------ ------ ---- ---- ------- ----- -- ----<br>-------- ------- -- ---------- --- - --- ----- ----- ----<br>---- --- --- ----- --- ---- ---- ------- ----- ---- -------<br>--- --- -- ----- -- --- ---- -- --- ---- -- ------ ------<br>--- ----- -- ----,66392.89999997616,66391.69999992847,65665.787,65681.29999995232,65682.458,66399.232,,4,having
screen,html.Screen,0_2_0_1_5,2021-12-10T10:01:09.364Z,,,,,,,,,,,,,,,,53,,,,,,,,,,,,,,344.36800002383825,,response,,,99,,,,,,Space,keypress(Space),,,,,---- -- ----- -- ------ a ------- --- ----------<br>------------- ------ ------ ---- ---- ------- ----- -- ----<br>-------- ------- -- ---------- --- - --- ----- ----- ----<br>---- --- --- ----- --- ---- ---- ------- ----- ---- -------<br>--- --- -- ----- -- --- ---- -- --- ---- -- ------ ------<br>--- ----- -- ----,66744.60000002384,66743.60000002384,66382.562,66393.29999995232,66399.232,66749.364,,5,a
screen,html.Screen,0_2_0_1_6,2021-12-10T10:01:10.020Z,,,,,,,,,,,,,,,,53,,,,,,,,,,,,,,650.335999928473,,response,,,99,,,,,,Space,keypress(Space),,,,,---- -- ----- -- ------ - lasting --- ----------<br>------------- ------ ------ ---- ---- ------- ----- -- ----<br>-------- ------- -- ---------- --- - --- ----- ----- ----<br>---- --- --- ----- --- ---- ---- ------- ----- ---- -------<br>--- --- -- ----- -- --- ---- -- --- ---- -- ------ ------<br>--- ----- -- ----,67400.69999992847,67399.69999992847,66732.694,66745.10000002384,66749.364,67416.174,,6,lasting
screen,html.Screen,0_2_0_1_7,2021-12-10T10:01:10.716Z,,,,,,,,,,,,,,,,53,,,,,,,,,,,,,,679.4260000238428,,response,,,99,,,,,,Space,keypress(Space),,,,,---- -- ----- -- ------ - ------- and ----------<br>------------- ------ ------ ---- ---- ------- ----- -- ----<br>-------- ------- -- ---------- --- - --- ----- ----- ----<br>---- --- --- ----- --- ---- ---- ------- ----- ---- -------<br>--- --- -- ----- -- --- ---- -- --- ---- -- ------ ------<br>--- ----- -- ----,68096.60000002384,68095.60000002384,67399.504,67401,67416.174,68116.36,,7,and
screen,html.Screen,0_2_0_1_8,2021-12-10T10:01:11.332Z,,,,,,,,,,,,,,,,53,,,,,,,,,,,,,,595.2400000238413,,response,,,99,,,,,,Space,keypress(Space),,,,,---- -- ----- -- ------ - ------- --- fulfilling<br>------------- ------ ------ ---- ---- ------- ----- -- ----<br>-------- ------- -- ---------- --- - --- ----- ----- ----<br>---- --- --- ----- --- ---- ---- ------- ----- ---- -------<br>--- --- -- ----- -- --- ---- -- --- ---- -- ------ ------<br>--- ----- -- ----,68712.60000002384,68711.60000002384,68099.69,68096.89999997616,68116.36,68716.579,,8,fulfilling
screen,html.Screen,0_2_0_1_9,2021-12-10T10:01:12.092Z,,,,,,,,,,,,,,,,53,,,,,,,,,,,,,,754.9210000000021,,response,,,99,,,,,,Space,keypress(Space),,,,,"---- -- ----- -- ------ - ------- --- ----------<br>relationship, ------ ------ ---- ---- ------- ----- -- ----<br>-------- ------- -- ---------- --- - --- ----- ----- ----<br>---- --- --- ----- --- ---- ---- ------- ----- ---- -------<br>--- --- -- ----- -- --- ---- -- --- ---- -- ------ ------<br>--- ----- -- ----",69472.5,69471.5,68699.908,68713,68716.579,69483.368,,9,"relationship,"
screen,html.Screen,0_2_0_1_10,2021-12-10T10:01:12.508Z,,,,,,,,,,,,,,,,53,,,,,,,,,,,,,,404.1319999999978,,response,,,99,,,,,,Space,keypress(Space),,,,,---- -- ----- -- ------ - ------- --- ----------<br>------------- common ------ ---- ---- ------- ----- -- ----<br>-------- ------- -- ---------- --- - --- ----- ----- ----<br>---- --- --- ----- --- ---- ---- ------- ----- ---- -------<br>--- --- -- ----- -- --- ---- -- --- ---- -- ------ ------<br>--- ----- -- ----,69888.5,69887.5,69466.698,69472.69999992847,69483.368,69900.179,,10,common
screen,html.Screen,0_2_0_1_11,2021-12-10T10:01:13.068Z,,,,,,,,,,,,,,,,53,,,,,,,,,,,,,,547.2209999761544,,response,,,99,,,,,,Space,keypress(Space),,,,,---- -- ----- -- ------ - ------- --- ----------<br>------------- ------ wisdom ---- ---- ------- ----- -- ----<br>-------- ------- -- ---------- --- - --- ----- ----- ----<br>---- --- --- ----- --- ---- ---- ------- ----- ---- -------<br>--- --- -- ----- -- --- ---- -- --- ---- -- ------ ------<br>--- ----- -- ----,70448.5,70447.39999997616,69883.509,69888.79999995232,69900.179,70450.318,,11,wisdom
screen,html.Screen,0_2_0_1_12,2021-12-10T10:01:13.396Z,,,,,,,,,,,,,,,,53,,,,,,,,,,,,,,325.1820000000007,,response,,,99,,,,,,Space,keypress(Space),,,,,---- -- ----- -- ------ - ------- --- ----------<br>------------- ------ ------ says ---- ------- ----- -- ----<br>-------- ------- -- ---------- --- - --- ----- ----- ----<br>---- --- --- ----- --- ---- ---- ------- ----- ---- -------<br>--- --- -- ----- -- --- ---- -- --- ---- -- ------ ------<br>--- ----- -- ----,70776.29999995232,70775.5,70433.648,70448.79999995232,70450.318,70783.785,,12,says
screen,html.Screen,0_2_0_1_13,2021-12-10T10:01:13.908Z,,,,,,,,,,,,,,,,53,,,,,,,,,,,,,,503.61499997615465,,response,,,99,,,,,,Space,keypress(Space),,,,,---- -- ----- -- ------ - ------- --- ----------<br>------------- ------ ------ ---- that ------- ----- -- ----<br>-------- ------- -- ---------- --- - --- ----- ----- ----<br>---- --- --- ----- --- ---- ---- ------- ----- ---- -------<br>--- --- -- ----- -- --- ---- -- --- ---- -- ------ ------<br>--- ----- -- ----,71288.29999995232,71287.39999997616,70767.114,70776.60000002384,70783.785,71300.532,,13,that
screen,html.Screen,0_2_0_1_14,2021-12-10T10:01:14.404Z,,,,,,,,,,,,,,,,53,,,,,,,,,,,,,,482.76799995230976,,response,,,99,,,,,,Space,keypress(Space),,,,,---- -- ----- -- ------ - ------- --- ----------<br>------------- ------ ------ ---- ---- feeling ----- -- ----<br>-------- ------- -- ---------- --- - --- ----- ----- ----<br>---- --- --- ----- --- ---- ---- ------- ----- ---- -------<br>--- --- -- ----- -- --- ---- -- --- ---- -- ------ ------<br>--- ----- -- ----,71784.29999995232,71783.29999995232,71283.862,71288.5,71300.532,71800.714,,14,feeling
screen,html.Screen,0_2_0_1_15,2021-12-10T10:01:15.260Z,,,,,,,,,,,,,,,,53,,,,,,,,,,,,,,838.5859999523091,,response,,,99,,,,,,Space,keypress(Space),,,,,---- -- ----- -- ------ - ------- --- ----------<br>------------- ------ ------ ---- ---- ------- close -- ----<br>-------- ------- -- ---------- --- - --- ----- ----- ----<br>---- --- --- ----- --- ---- ---- ------- ----- ---- -------<br>--- --- -- ----- -- --- ---- -- --- ---- -- ------ ------<br>--- ----- -- ----,72640.19999992847,72639.29999995232,71784.043,71784.60000002384,71800.714,72650.859,,15,close
screen,html.Screen,0_2_0_1_16,2021-12-10T10:01:15.708Z,,,,,,,,,,,,,,,,53,,,,,,,,,,,,,,436.8409999284777,,response,,,99,,,,,,Space,keypress(Space),,,,,---- -- ----- -- ------ - ------- --- ----------<br>------------- ------ ------ ---- ---- ------- ----- to ----<br>-------- ------- -- ---------- --- - --- ----- ----- ----<br>---- --- --- ----- --- ---- ---- ------- ----- ---- -------<br>--- --- -- ----- -- --- ---- -- --- ---- -- ------ ------<br>--- ----- -- ----,73088.5,73087.69999992847,72634.189,72640.5,72650.859,73100.863,,16,to
screen,html.Screen,0_2_0_1_17,2021-12-10T10:01:16.220Z,,,,,,,,,,,,,,,,53,,,,,,,,,,,,,,498.43699995231873,,response,,,99,,,,,,Space,keypress(Space),,,,,---- -- ----- -- ------ - ------- --- ----------<br>------------- ------ ------ ---- ---- ------- ----- -- your<br>-------- ------- -- ---------- --- - --- ----- ----- ----<br>---- --- --- ----- --- ---- ---- ------- ----- ---- -------<br>--- --- -- ----- -- --- ---- -- --- ---- -- ------ ------<br>--- ----- -- ----,73600.10000002384,73599.29999995232,73084.194,73088.79999995232,73100.863,73617.846,,17,your
screen,html.Screen,0_2_0_1_18,2021-12-10T10:01:16.804Z,,,,,,,,,,,,,,,,53,,,,,,,,,,,,,,565.3539999284694,,response,,,99,,,,,,Space,keypress(Space),,,,,---- -- ----- -- ------ - ------- --- ----------<br>------------- ------ ------ ---- ---- ------- ----- -- ----<br>romantic ------- -- ---------- --- - --- ----- ----- ----<br>---- --- --- ----- --- ---- ---- ------- ----- ---- -------<br>--- --- -- ----- -- --- ---- -- --- ---- -- ------ ------<br>--- ----- -- ----,74184.19999992847,74183.19999992847,73601.175,73600.39999997616,73617.846,74201.337,,18,romantic
screen,html.Screen,0_2_0_1_19,2021-12-10T10:01:17.252Z,,,,,,,,,,,,,,,,53,,,,,,,,,,,,,,429.8629999284749,,response,,,99,,,,,,Space,keypress(Space),,,,,---- -- ----- -- ------ - ------- --- ----------<br>------------- ------ ------ ---- ---- ------- ----- -- ----<br>-------- partner -- ---------- --- - --- ----- ----- ----<br>---- --- --- ----- --- ---- ---- ------- ----- ---- -------<br>--- --- -- ----- -- --- ---- -- --- ---- -- ------ ------<br>--- ----- -- ----,74632.10000002384,74631.19999992847,74184.666,74184.5,74201.337,74634.712,,19,partner
screen,html.Screen,0_2_0_1_20,2021-12-10T10:01:17.644Z,,,,,,,,,,,,,,,,53,,,,,,,,,,,,,,388.58799995231675,,response,,,99,,,,,,Space,keypress(Space),,,,,---- -- ----- -- ------ - ------- --- ----------<br>------------- ------ ------ ---- ---- ------- ----- -- ----<br>-------- ------- is ---------- --- - --- ----- ----- ----<br>---- --- --- ----- --- ---- ---- ------- ----- ---- -------<br>--- --- -- ----- -- --- ---- -- --- ---- -- ------ ------<br>--- ----- -- ----,75024.29999995232,75023.29999995232,74618.042,74632.39999997616,74634.712,75034.877,,20,is
screen,html.Screen,0_2_0_1_21,2021-12-10T10:01:18.268Z,,,,,,,,,,,,,,,,53,,,,,,,,,,,,,,612.3229999284813,,response,,,99,,,,,,Space,keypress(Space),,,,,---- -- ----- -- ------ - ------- --- ----------<br>------------- ------ ------ ---- ---- ------- ----- -- ----<br>-------- ------- -- paramount. --- - --- ----- ----- ----<br>---- --- --- ----- --- ---- ---- ------- ----- ---- -------<br>--- --- -- ----- -- --- ---- -- --- ---- -- ------ ------<br>--- ----- -- ----,75648,75647.19999992847,75018.206,75024.5,75034.877,75651.71,,21,paramount.
screen,html.Screen,0_2_0_1_22,2021-12-10T10:01:18.772Z,,,,,,,,,,,,,,,,53,,,,,,,,,,,,,,499.39000002383546,,response,,,99,,,,,,Space,keypress(Space),,,,,---- -- ----- -- ------ - ------- --- ----------<br>------------- ------ ------ ---- ---- ------- ----- -- ----<br>-------- ------- -- ---------- But - --- ----- ----- ----<br>---- --- --- ----- --- ---- ---- ------- ----- ---- -------<br>--- --- -- ----- -- --- ---- -- --- ---- -- ------ ------<br>--- ----- -- ----,76152.10000002384,76151.10000002384,75635.039,75648.60000002384,75651.71,76168.456,,22,But
screen,html.Screen,0_2_0_1_23,2021-12-10T10:01:19.092Z,,,,,,,,,,,,,,,,53,,,,,,,,,,,,,,302.64400002383627,,response,,,99,,,,,,Space,keypress(Space),,,,,---- -- ----- -- ------ - ------- --- ----------<br>------------- ------ ------ ---- ---- ------- ----- -- ----<br>-------- ------- -- ---------- --- a --- ----- ----- ----<br>---- --- --- ----- --- ---- ---- ------- ----- ---- -------<br>--- --- -- ----- -- --- ---- -- --- ---- -- ------ ------<br>--- ----- -- ----,76472.10000002384,76471.10000002384,76151.786,76152.5,76168.456,76485.263,,23,a
screen,html.Screen,0_2_0_1_24,2021-12-10T10:01:19.524Z,,,,,,,,,,,,,,,,53,,,,,,,,,,,,,,417.83700002383557,,response,,,99,,,,,,Space,keypress(Space),,,,,---- -- ----- -- ------ - ------- --- ----------<br>------------- ------ ------ ---- ---- ------- ----- -- ----<br>-------- ------- -- ---------- --- - new ----- ----- ----<br>---- --- --- ----- --- ---- ---- ------- ----- ---- -------<br>--- --- -- ----- -- --- ---- -- --- ---- -- ------ ------<br>--- ----- -- ----,76904,76903.10000002384,76468.592,76472.29999995232,76485.263,76918.677,,24,new
screen,html.Screen,0_2_0_1_25,2021-12-10T10:01:20.052Z,,,,,,,,,,,,,,,,53,,,,,,,,,,,,,,512.323000000004,,response,,,99,,,,,,Space,keypress(Space),,,,,---- -- ----- -- ------ - ------- --- ----------<br>------------- ------ ------ ---- ---- ------- ----- -- ----<br>-------- ------- -- ---------- --- - --- study ----- ----<br>---- --- --- ----- --- ---- ---- ------- ----- ---- -------<br>--- --- -- ----- -- --- ---- -- --- ---- -- ------ ------<br>--- ----- -- ----,77432,77431,76902.007,76904.39999997616,76918.677,77435.462,,25,study
screen,html.Screen,0_2_0_1_26,2021-12-10T10:01:20.476Z,,,,,,,,,,,,,,,,53,,,,,,,,,,,,,,419.53800000000047,,response,,,99,,,,,,Space,keypress(Space),,,,,---- -- ----- -- ------ - ------- --- ----------<br>------------- ------ ------ ---- ---- ------- ----- -- ----<br>-------- ------- -- ---------- --- - --- ----- finds ----<br>---- --- --- ----- --- ---- ---- ------- ----- ---- -------<br>--- --- -- ----- -- --- ---- -- --- ---- -- ------ ------<br>--- ----- -- ----,77855.79999995232,77855,77418.792,77432.60000002384,77435.462,77868.874,,26,finds
screen,html.Screen,0_2_0_1_27,2021-12-10T10:01:21.020Z,,,,,,,,,,,,,,,,53,,,,,,,,,,,,,,530.2260000238457,,response,,,99,,,,,,Space,keypress(Space),,,,,---- -- ----- -- ------ - ------- --- ----------<br>------------- ------ ------ ---- ---- ------- ----- -- ----<br>-------- ------- -- ---------- --- - --- ----- ----- that<br>---- --- --- ----- --- ---- ---- ------- ----- ---- -------<br>--- --- -- ----- -- --- ---- -- --- ---- -- ------ ------<br>--- ----- -- ----,78399.89999997616,78399.10000002384,77852.204,77856.10000002384,77868.874,78402.434,,27,that
screen,html.Screen,0_2_0_1_28,2021-12-10T10:01:21.468Z,,,,,,,,,,,,,,,,53,,,,,,,,,,,,,,444.56600000000617,,response,,,99,,,,,,Space,keypress(Space),,,,,---- -- ----- -- ------ - ------- --- ----------<br>------------- ------ ------ ---- ---- ------- ----- -- ----<br>-------- ------- -- ---------- --- - --- ----- ----- ----<br>it's --- --- ----- --- ---- ---- ------- ----- ---- -------<br>--- --- -- ----- -- --- ---- -- --- ---- -- ------ ------<br>--- ----- -- ----,78847.79999995232,78847,78385.763,78400.19999992847,78402.434,78852.497,,28,it's
screen,html.Screen,0_2_0_1_29,2021-12-10T10:01:21.876Z,,,,,,,,,,,,,,,,53,,,,,,,,,,,,,,402.502999999997,,response,,,99,,,,,,Space,keypress(Space),,,,,---- -- ----- -- ------ - ------- --- ----------<br>------------- ------ ------ ---- ---- ------- ----- -- ----<br>-------- ------- -- ---------- --- - --- ----- ----- ----<br>---- not --- ----- --- ---- ---- ------- ----- ---- -------<br>--- --- -- ----- -- --- ---- -- --- ---- -- ------ ------<br>--- ----- -- ----,79255.79999995232,79255,78835.827,78848.10000002384,78852.497,79269.271,,29,not
screen,html.Screen,0_2_0_1_30,2021-12-10T10:01:22.340Z,,,,,,,,,,,,,,,,53,,,,,,,,,,,,,,449.72900000000664,,response,,,99,,,,,,Space,keypress(Space),,,,,---- -- ----- -- ------ - ------- --- ----------<br>------------- ------ ------ ---- ---- ------- ----- -- ----<br>-------- ------- -- ---------- --- - --- ----- ----- ----<br>---- --- how ----- --- ---- ---- ------- ----- ---- -------<br>--- --- -- ----- -- --- ---- -- --- ---- -- ------ ------<br>--- ----- -- ----,79719.89999997616,79719,79252.601,79256,79269.271,79736.105,,30,how
screen,html.Screen,0_2_0_1_31,2021-12-10T10:01:22.868Z,,,,,,,,,,,,,,,,53,,,,,,,,,,,,,,510.8950000000041,,response,,,99,,,,,,Space,keypress(Space),,,,,---- -- ----- -- ------ - ------- --- ----------<br>------------- ------ ------ ---- ---- ------- ----- -- ----<br>-------- ------- -- ---------- --- - --- ----- ----- ----<br>---- --- --- close --- ---- ---- ------- ----- ---- -------<br>--- --- -- ----- -- --- ---- -- --- ---- -- ------ ------<br>--- ----- -- ----,80247.79999995232,80247,79719.434,79720.10000002384,79736.105,80252.868,,31,close
screen,html.Screen,0_2_0_1_32,2021-12-10T10:01:23.308Z,,,,,,,,,,,,,,,,53,,,,,,,,,,,,,,434.1319999999978,,response,,,99,,,,,,Space,keypress(Space),,,,,---- -- ----- -- ------ - ------- --- ----------<br>------------- ------ ------ ---- ---- ------- ----- -- ----<br>-------- ------- -- ---------- --- - --- ----- ----- ----<br>---- --- --- ----- you ---- ---- ------- ----- ---- -------<br>--- --- -- ----- -- --- ---- -- --- ---- -- ------ ------<br>--- ----- -- ----,80688,80687,80236.198,80248.10000002384,80252.868,80702.992,,32,you
screen,html.Screen,0_2_0_1_33,2021-12-10T10:01:23.748Z,,,,,,,,,,,,,,,,53,,,,,,,,,,,,,,423.9079999761598,,response,,,99,,,,,,Space,keypress(Space),,,,,---- -- ----- -- ------ - ------- --- ----------<br>------------- ------ ------ ---- ---- ------- ----- -- ----<br>-------- ------- -- ---------- --- - --- ----- ----- ----<br>---- --- --- ----- --- feel ---- ------- ----- ---- -------<br>--- --- -- ----- -- --- ---- -- --- ---- -- ------ ------<br>--- ----- -- ----,81127.79999995232,81126.89999997616,80686.322,80688.19999992847,80702.992,81136.424,,33,feel
screen,html.Screen,0_2_0_1_34,2021-12-10T10:01:24.196Z,,,,,,,,,,,,,,,,53,,,,,,,,,,,,,,438.57600000000093,,response,,,99,,,,,,Space,keypress(Space),,,,,---- -- ----- -- ------ - ------- --- ----------<br>------------- ------ ------ ---- ---- ------- ----- -- ----<br>-------- ------- -- ---------- --- - --- ----- ----- ----<br>---- --- --- ----- --- ---- that ------- ----- ---- -------<br>--- --- -- ----- -- --- ---- -- --- ---- -- ------ ------<br>--- ----- -- ----,81575.89999997616,81575,81119.754,81128.10000002384,81136.424,81586.533,,34,that
screen,html.Screen,0_2_0_1_35,2021-12-10T10:01:24.611Z,,,,,,,,,,,,,,,,53,,,,,,,,,,,,,,404.2669999523205,,response,,,99,,,,,,Space,keypress(Space),,,,,---- -- ----- -- ------ - ------- --- ----------<br>------------- ------ ------ ---- ---- ------- ----- -- ----<br>-------- ------- -- ---------- --- - --- ----- ----- ----<br>---- --- --- ----- --- ---- ---- matters ----- ---- -------<br>--- --- -- ----- -- --- ---- -- --- ---- -- ------ ------<br>--- ----- -- ----,81991.69999992847,81990.79999995232,81569.863,81576.19999992847,81586.533,82003.36,,35,matters
screen,html.Screen,0_2_0_1_36,2021-12-10T10:01:25.012Z,,,,,,,,,,,,,,,,53,,,,,,,,,,,,,,387.53999997615756,,response,,,99,,,,,,Space,keypress(Space),,,,,"---- -- ----- -- ------ - ------- --- ----------<br>------------- ------ ------ ---- ---- ------- ----- -- ----<br>-------- ------- -- ---------- --- - --- ----- ----- ----<br>---- --- --- ----- --- ---- ---- ------- most, ---- -------<br>--- --- -- ----- -- --- ---- -- --- ---- -- ------ ------<br>--- ----- -- ----",82391.89999997616,82390.89999997616,81986.689,81992,82003.36,82403.472,,36,"most,"
screen,html.Screen,0_2_0_1_37,2021-12-10T10:01:25.499Z,,,,,,,,,,,,,,,,53,,,,,,,,,,,,,,475.327999952322,,response,,,99,,,,,,Space,keypress(Space),,,,,---- -- ----- -- ------ - ------- --- ----------<br>------------- ------ ------ ---- ---- ------- ----- -- ----<br>-------- ------- -- ---------- --- - --- ----- ----- ----<br>---- --- --- ----- --- ---- ---- ------- ----- it's -------<br>--- --- -- ----- -- --- ---- -- --- ---- -- ------ ------<br>--- ----- -- ----,82879.69999992847,82878.79999995232,82386.801,82392.10000002384,82403.472,82886.727,,37,it's
screen,html.Screen,0_2_0_1_38,2021-12-10T10:01:26.004Z,,,,,,,,,,,,,,,,53,,,,,,,,,,,,,,496.3730000238429,,response,,,99,,,,,,Space,keypress(Space),,,,,---- -- ----- -- ------ - ------- --- ----------<br>------------- ------ ------ ---- ---- ------- ----- -- ----<br>-------- ------- -- ---------- --- - --- ----- ----- ----<br>---- --- --- ----- --- ---- ---- ------- ----- ---- whether<br>--- --- -- ----- -- --- ---- -- --- ---- -- ------ ------<br>--- ----- -- ----,83383.79999995232,83383.10000002384,82870.059,82880,82886.727,83387.122,,38,whether
screen,html.Screen,0_2_0_1_39,2021-12-10T10:01:26.467Z,,,,,,,,,,,,,,,,53,,,,,,,,,,,,,,459.67799995231326,,response,,,99,,,,,,Space,keypress(Space),,,,,---- -- ----- -- ------ - ------- --- ----------<br>------------- ------ ------ ---- ---- ------- ----- -- ----<br>-------- ------- -- ---------- --- - --- ----- ----- ----<br>---- --- --- ----- --- ---- ---- ------- ----- ---- -------<br>you --- -- ----- -- --- ---- -- --- ---- -- ------ ------<br>--- ----- -- ----,83847.60000002384,83846.79999995232,83370.45,83384.10000002384,83387.122,83853.807,,39,you
screen,html.Screen,0_2_0_1_40,2021-12-10T10:01:26.923Z,,,,,,,,,,,,,,,,53,,,,,,,,,,,,,,448.8929999284737,,response,,,99,,,,,,Space,keypress(Space),,,,,---- -- ----- -- ------ - ------- --- ----------<br>------------- ------ ------ ---- ---- ------- ----- -- ----<br>-------- ------- -- ---------- --- - --- ----- ----- ----<br>---- --- --- ----- --- ---- ---- ------- ----- ---- -------<br>--- are -- ----- -- --- ---- -- --- ---- -- ------ ------<br>--- ----- -- ----,84303.5,84302.69999992847,83837.137,83847.79999995232,83853.807,84320.583,,40,are
screen,html.Screen,0_2_0_1_41,2021-12-10T10:01:27.347Z,,,,,,,,,,,,,,,,53,,,,,,,,,,,,,,406.1169999284757,,response,,,99,,,,,,Space,keypress(Space),,,,,---- -- ----- -- ------ - ------- --- ----------<br>------------- ------ ------ ---- ---- ------- ----- -- ----<br>-------- ------- -- ---------- --- - --- ----- ----- ----<br>---- --- --- ----- --- ---- ---- ------- ----- ---- -------<br>--- --- as ----- -- --- ---- -- --- ---- -- ------ ------<br>--- ----- -- ----,84727.60000002384,84726.69999992847,84303.913,84303.79999995232,84320.583,84737.413,,41,as
screen,html.Screen,0_2_0_1_42,2021-12-10T10:01:27.795Z,,,,,,,,,,,,,,,,53,,,,,,,,,,,,,,437.28699992847396,,response,,,99,,,,,,Space,keypress(Space),,,,,---- -- ----- -- ------ - ------- --- ----------<br>------------- ------ ------ ---- ---- ------- ----- -- ----<br>-------- ------- -- ---------- --- - --- ----- ----- ----<br>---- --- --- ----- --- ---- ---- ------- ----- ---- -------<br>--- --- -- close -- --- ---- -- --- ---- -- ------ ------<br>--- ----- -- ----,85175.5,85174.69999992847,84720.742,84727.89999997616,84737.413,85187.495,,42,close
screen,html.Screen,0_2_0_1_43,2021-12-10T10:01:28.275Z,,,,,,,,,,,,,,,,53,,,,,,,,,,,,,,467.2049999284791,,response,,,99,,,,,,Space,keypress(Space),,,,,---- -- ----- -- ------ - ------- --- ----------<br>------------- ------ ------ ---- ---- ------- ----- -- ----<br>-------- ------- -- ---------- --- - --- ----- ----- ----<br>---- --- --- ----- --- ---- ---- ------- ----- ---- -------<br>--- --- -- ----- as --- ---- -- --- ---- -- ------ ------<br>--- ----- -- ----,85655.60000002384,85654.69999992847,85170.825,85175.79999995232,85187.495,85670.95,,43,as
screen,html.Screen,0_2_0_1_44,2021-12-10T10:01:28.747Z,,,,,,,,,,,,,,,,53,,,,,,,,,,,,,,455.74999992847734,,response,,,99,,,,,,Space,keypress(Space),,,,,---- -- ----- -- ------ - ------- --- ----------<br>------------- ------ ------ ---- ---- ------- ----- -- ----<br>-------- ------- -- ---------- --- - --- ----- ----- ----<br>---- --- --- ----- --- ---- ---- ------- ----- ---- -------<br>--- --- -- ----- -- you ---- -- --- ---- -- ------ ------<br>--- ----- -- ----,86127.5,86126.69999992847,85654.28,85655.69999992847,85670.95,86137.723,,44,you
screen,html.Screen,0_2_0_1_45,2021-12-10T10:01:29.243Z,,,,,,,,,,,,,,,,53,,,,,,,,,,,,,,484.77700000000186,,response,,,99,,,,,,Space,keypress(Space),,,,,---- -- ----- -- ------ - ------- --- ----------<br>------------- ------ ------ ---- ---- ------- ----- -- ----<br>-------- ------- -- ---------- --- - --- ----- ----- ----<br>---- --- --- ----- --- ---- ---- ------- ----- ---- -------<br>--- --- -- ----- -- --- want -- --- ---- -- ------ ------<br>--- ----- -- ----,86623.29999995232,86622.5,86121.053,86127.69999992847,86137.723,86637.857,,45,want
screen,html.Screen,0_2_0_1_46,2021-12-10T10:01:29.723Z,,,,,,,,,,,,,,,,53,,,,,,,,,,,,,,464.6429999999964,,response,,,99,,,,,,Space,keypress(Space),,,,,---- -- ----- -- ------ - ------- --- ----------<br>------------- ------ ------ ---- ---- ------- ----- -- ----<br>-------- ------- -- ---------- --- - --- ----- ----- ----<br>---- --- --- ----- --- ---- ---- ------- ----- ---- -------<br>--- --- -- ----- -- --- ---- to --- ---- -- ------ ------<br>--- ----- -- ----,87103.60000002384,87102.5,86621.187,86623.5,86637.857,87104.54,,46,to
screen,html.Screen,0_2_0_1_47,2021-12-10T10:01:30.171Z,,,,,,,,,,,,,,,,53,,,,,,,,,,,,,,446.06000002384826,,response,,,99,,,,,,Space,keypress(Space),,,,,"---- -- ----- -- ------ - ------- --- ----------<br>------------- ------ ------ ---- ---- ------- ----- -- ----<br>-------- ------- -- ---------- --- - --- ----- ----- ----<br>---- --- --- ----- --- ---- ---- ------- ----- ---- -------<br>--- --- -- ----- -- --- ---- -- be, ---- -- ------ ------<br>--- ----- -- ----",87551.39999997616,87550.60000002384,87087.871,87103.79999995232,87104.54,87554.777,,47,"be,"
screen,html.Screen,0_2_0_1_48,2021-12-10T10:01:30.651Z,,,,,,,,,,,,,,,,53,,,,,,,,,,,,,,475.72299999999814,,response,,,99,,,,,,Space,keypress(Space),,,,,---- -- ----- -- ------ - ------- --- ----------<br>------------- ------ ------ ---- ---- ------- ----- -- ----<br>-------- ------- -- ---------- --- - --- ----- ----- ----<br>---- --- --- ----- --- ---- ---- ------- ----- ---- -------<br>--- --- -- ----- -- --- ---- -- --- even -- ------ ------<br>--- ----- -- ----,88031.39999997616,88030.5,87538.106,87551.60000002384,87554.777,88054.993,,48,even
screen,html.Screen,0_2_0_1_49,2021-12-10T10:01:31.107Z,,,,,,,,,,,,,,,,53,,,,,,,,,,,,,,431.5069999999978,,response,,,99,,,,,,Space,keypress(Space),,,,,---- -- ----- -- ------ - ------- --- ----------<br>------------- ------ ------ ---- ---- ------- ----- -- ----<br>-------- ------- -- ---------- --- - --- ----- ----- ----<br>---- --- --- ----- --- ---- ---- ------- ----- ---- -------<br>--- --- -- ----- -- --- ---- -- --- ---- if ------ ------<br>--- ----- -- ----,88487.39999997616,88486.5,88038.321,88031.60000002384,88054.993,88505.01,,49,if
screen,html.Screen,0_2_0_1_50,2021-12-10T10:01:31.635Z,,,,,,,,,,,,,,,,53,,,,,,,,,,,,,,509.5900000238471,,response,,,99,,,,,,Space,keypress(Space),,,,,---- -- ----- -- ------ - ------- --- ----------<br>------------- ------ ------ ---- ---- ------- ----- -- ----<br>-------- ------- -- ---------- --- - --- ----- ----- ----<br>---- --- --- ----- --- ---- ---- ------- ----- ---- -------<br>--- --- -- ----- -- --- ---- -- --- ---- -- that's ------<br>--- ----- -- ----,89015.5,89014.60000002384,88488.34,88487.60000002384,88505.01,89021.797,,50,that's
screen,html.Screen,0_2_0_1_51,2021-12-10T10:01:32.099Z,,,,,,,,,,,,,,,,53,,,,,,,,,,,,,,456.6029999761522,,response,,,99,,,,,,Space,keypress(Space),,,,,---- -- ----- -- ------ - ------- --- ----------<br>------------- ------ ------ ---- ---- ------- ----- -- ----<br>-------- ------- -- ---------- --- - --- ----- ----- ----<br>---- --- --- ----- --- ---- ---- ------- ----- ---- -------<br>--- --- -- ----- -- --- ---- -- --- ---- -- ------ really<br>--- ----- -- ----,89479.29999995232,89478.39999997616,89005.127,89015.69999992847,89021.797,89488.655,,51,really
screen,html.Screen,0_2_0_1_52,2021-12-10T10:01:32.603Z,,,,,,,,,,,,,,,,53,,,,,,,,,,,,,,493.7449999761593,,response,,,99,,,,,,Space,keypress(Space),,,,,---- -- ----- -- ------ - ------- --- ----------<br>------------- ------ ------ ---- ---- ------- ----- -- ----<br>-------- ------- -- ---------- --- - --- ----- ----- ----<br>---- --- --- ----- --- ---- ---- ------- ----- ---- -------<br>--- --- -- ----- -- --- ---- -- --- ---- -- ------ ------<br>not ----- -- ----,89983.29999995232,89982.39999997616,89471.984,89479.60000002384,89488.655,89988.74,,52,not
screen,html.Screen,0_2_0_1_53,2021-12-10T10:01:33.171Z,,,,,,,,,,,,,,,,53,,,,,,,,,,,,,,561.6599999761529,,response,,,99,,,,,,Space,keypress(Space),,,,,---- -- ----- -- ------ - ------- --- ----------<br>------------- ------ ------ ---- ---- ------- ----- -- ----<br>-------- ------- -- ---------- --- - --- ----- ----- ----<br>---- --- --- ----- --- ---- ---- ------- ----- ---- -------<br>--- --- -- ----- -- --- ---- -- --- ---- -- ------ ------<br>--- close -- ----,90551.29999995232,90550.39999997616,89972.07,89983.60000002384,89988.74,90555.552,,53,close
screen,html.Screen,0_2_0_1_54,2021-12-10T10:01:33.635Z,,,,,,,,,,,,,,,,53,,,,,,,,,,,,,,458.8479999761621,,response,,,99,,,,,,Space,keypress(Space),,,,,---- -- ----- -- ------ - ------- --- ----------<br>------------- ------ ------ ---- ---- ------- ----- -- ----<br>-------- ------- -- ---------- --- - --- ----- ----- ----<br>---- --- --- ----- --- ---- ---- ------- ----- ---- -------<br>--- --- -- ----- -- --- ---- -- --- ---- -- ------ ------<br>--- ----- at ----,91015.10000002384,91014.39999997616,90538.882,90551.5,90555.552,91022.343,,54,at
screen,html.Screen,0_2_0_1_55,2021-12-10T10:01:34.051Z,,,,,,,,,,,,,,,,53,,,,,,,,,,,,,,407.9569999523228,,response,,,99,,,,,,Space,keypress(Space),,,,,---- -- ----- -- ------ - ------- --- ----------<br>------------- ------ ------ ---- ---- ------- ----- -- ----<br>-------- ------- -- ---------- --- - --- ----- ----- ----<br>---- --- --- ----- --- ---- ---- ------- ----- ---- -------<br>--- --- -- ----- -- --- ---- -- --- ---- -- ------ ------<br>--- ----- -- all.,91431.10000002384,91430.29999995232,91005.673,91015.5,91022.343,91439.123,,55,all.
Item 99,flow.Loop,0_2_0_1,2021-12-10T10:01:34.056Z,,,,,,,,,,,,,,,,,,,,,,,,,,,,,,31049.414999952314,,completion,,,,B,,,,,,,,,,silence,,91436.10000002384,91430.29999995232,60364.215,60370.39999997616,60380.885,91439.123,,,
Question 1,html.Screen,0_2_0_2,2021-12-10T10:01:47.971Z,,,,,,,,,,,,,,,,,,,,,,,,,,,true,FALSE,,13910.376999999993,,response,,,99,B,,,,,FALSE,click #choice-2,,,,silence,,105350.89999997616,105349.5,91422.453,91436.39999997616,91439.123,105359.379,,,
Question 2,html.Screen,0_2_0_3,2021-12-10T10:01:52.586Z,,,,,,,,,,,,,,,,,,,,,,,,,,,true,TRUE,,4605.820999928474,,response,,,99,B,,,,,TRUE,click #choice-1,,,,silence,,109966.39999997616,109965.19999992847,105342.709,105351.19999992847,105359.379,109977.206,,,
Item 99,flow.Sequence,0_2_0,2021-12-10T10:01:52.587Z,,,,,,,,,,,,,,,,,,,,,,,,,,,,,,59587.08499992848,,completion,,,,,,,,,,,,,,,,109966.79999995232,109965.19999992847,50361.446,50378.699999928474,50378.115,109977.206,,,
Holding screen,html.Screen,0_2_1_0,2021-12-10T10:02:02.584Z,,,,,,,,,,,,,,,,,,,,,,,,,,,,,,10002.557,,timeout,,,,,,,,,,,,,,,,119964.10000002384,119963.093,109960.538,109967.19999992847,109977.206,119979.763,,,
screen,html.Screen,0_2_1_1_0,2021-12-10T10:02:04.549Z,,,,,,,,,,,,,,,,54,,,,,,,,,,,,,,1945.53699995231,,response,,,100,,,,,,Space,keypress(Space),,,,,At --- ---- --- ------ ----- ------- ---- -- --- ------- --<br>------- ---------- ------ -- ----- -- ----- -- ---- ------<br>--- ----- --- --- ------ -------- ----- --- ------ ----- --<br>----- ----- ---------- --- --- ------ ------ ---- -- ------<br>------- --- ------ ----- --- ---- ------- -- ---- --- --<br>------- ------,121926.39999997616,121925.29999995232,119963.093,119964.69999992847,119979.763,121947.059,,0,At
screen,html.Screen,0_2_1_1_1,2021-12-10T10:02:05.109Z,,,,,,,,,,,,,,,,54,,,,,,,,,,,,,,537.6409999284806,,response,,,100,,,,,,Space,keypress(Space),,,,,-- the ---- --- ------ ----- ------- ---- -- --- ------- --<br>------- ---------- ------ -- ----- -- ----- -- ---- ------<br>--- ----- --- --- ------ -------- ----- --- ------ ----- --<br>----- ----- ---------- --- --- ------ ------ ---- -- ------<br>------- --- ------ ----- --- ---- ------- -- ---- --- --<br>------- ------,122485.5,122484.69999992847,121930.388,121926.60000002384,121947.059,122497.231,,1,the
screen,html.Screen,0_2_1_1_2,2021-12-10T10:02:05.605Z,,,,,,,,,,,,,,,,54,,,,,,,,,,,,,,483.5689999523165,,response,,,100,,,,,,Space,keypress(Space),,,,,-- --- time --- ------ ----- ------- ---- -- --- ------- --<br>------- ---------- ------ -- ----- -- ----- -- ---- ------<br>--- ----- --- --- ------ -------- ----- --- ------ ----- --<br>----- ----- ---------- --- --- ------ ------ ---- -- ------<br>------- --- ------ ----- --- ---- ------- -- ---- --- --<br>------- ------,122981.5,122980.79999995232,122480.56,122485.89999997616,122497.231,122997.268,,2,time
screen,html.Screen,0_2_1_1_3,2021-12-10T10:02:06.197Z,,,,,,,,,,,,,,,,54,,,,,,,,,,,,,,575.431999928478,,response,,,100,,,,,,Space,keypress(Space),,,,,-- --- ---- the ------ ----- ------- ---- -- --- ------- --<br>------- ---------- ------ -- ----- -- ----- -- ---- ------<br>--- ----- --- --- ------ -------- ----- --- ------ ----- --<br>----- ----- ---------- --- --- ------ ------ ---- -- ------<br>------- --- ------ ----- --- ---- ------- -- ---- --- --<br>------- ------,123573.5,123572.69999992847,122980.598,122981.79999995232,122997.268,123580.905,,3,the
screen,html.Screen,0_2_1_1_4,2021-12-10T10:02:07.053Z,,,,,,,,,,,,,,,,54,,,,,,,,,,,,,,847.695000023843,,response,,,100,,,,,,Space,keypress(Space),,,,,-- --- ---- --- French ----- ------- ---- -- --- ------- --<br>------- ---------- ------ -- ----- -- ----- -- ---- ------<br>--- ----- --- --- ------ -------- ----- --- ------ ----- --<br>----- ----- ---------- --- --- ------ ------ ---- -- ------<br>------- --- ------ ----- --- ---- ------- -- ---- --- --<br>------- ------,124429.5,124428.60000002384,123564.233,123573.79999995232,123580.905,124431.006,,4,French
screen,html.Screen,0_2_1_1_5,2021-12-10T10:02:07.805Z,,,,,,,,,,,,,,,,54,,,,,,,,,,,,,,749.5940000238479,,response,,,100,,,,,,Space,keypress(Space),,,,,-- --- ---- --- ------ crown ------- ---- -- --- ------- --<br>------- ---------- ------ -- ----- -- ----- -- ---- ------<br>--- ----- --- --- ------ -------- ----- --- ------ ----- --<br>----- ----- ---------- --- --- ------ ------ ---- -- ------<br>------- --- ------ ----- --- ---- ------- -- ---- --- --<br>------- ------,125181.60000002384,125180.60000002384,124414.336,124429.89999997616,124431.006,125197.802,,5,crown
screen,html.Screen,0_2_1_1_6,2021-12-10T10:02:08.493Z,,,,,,,,,,,,,,,,54,,,,,,,,,,,,,,670.7980000238458,,response,,,100,,,,,,Space,keypress(Space),,,,,-- --- ---- --- ------ ----- secured ---- -- --- ------- --<br>------- ---------- ------ -- ----- -- ----- -- ---- ------<br>--- ----- --- --- ------ -------- ----- --- ------ ----- --<br>----- ----- ---------- --- --- ------ ------ ---- -- ------<br>------- --- ------ ----- --- ---- ------- -- ---- --- --<br>------- ------,125869.39999997616,125868.60000002384,125181.132,125181.79999995232,125197.802,125881.461,,6,secured
screen,html.Screen,0_2_1_1_7,2021-12-10T10:02:09.036Z,,,,,,,,,,,,,,,,54,,,,,,,,,,,,,,531.0390000000043,,response,,,100,,,,,,Space,keypress(Space),,,,,-- --- ---- --- ------ ----- ------- much -- --- ------- --<br>------- ---------- ------ -- ----- -- ----- -- ---- ------<br>--- ----- --- --- ------ -------- ----- --- ------ ----- --<br>----- ----- ---------- --- --- ------ ------ ---- -- ------<br>------- --- ------ ----- --- ---- ------- -- ---- --- --<br>------- ------,126413.39999997616,126412.5,125864.79,125869.69999992847,125881.461,126414.881,,7,much
screen,html.Screen,0_2_1_1_8,2021-12-10T10:02:09.684Z,,,,,,,,,,,,,,,,54,,,,,,,,,,,,,,645.5189999761642,,response,,,100,,,,,,Space,keypress(Space),,,,,-- --- ---- --- ------ ----- ------- ---- of --- ------- --<br>------- ---------- ------ -- ----- -- ----- -- ---- ------<br>--- ----- --- --- ------ -------- ----- --- ------ ----- --<br>----- ----- ---------- --- --- ------ ------ ---- -- ------<br>------- --- ------ ----- --- ---- ------- -- ---- --- --<br>------- ------,127061.29999995232,127060.39999997616,126398.211,126413.60000002384,126414.881,127065.05,,8,of
screen,html.Screen,0_2_1_1_9,2021-12-10T10:02:10.228Z,,,,,,,,,,,,,,,,54,,,,,,,,,,,,,,539.4499999999971,,response,,,100,,,,,,Space,keypress(Space),,,,,-- --- ---- --- ------ ----- ------- ---- -- its ------- --<br>------- ---------- ------ -- ----- -- ----- -- ---- ------<br>--- ----- --- --- ------ -------- ----- --- ------ ----- --<br>----- ----- ---------- --- --- ------ ------ ---- -- ------<br>------- --- ------ ----- --- ---- ------- -- ---- --- --<br>------- ------,127605.29999995232,127604.5,127048.38,127061.60000002384,127065.05,127615.067,,9,its
screen,html.Screen,0_2_1_1_10,2021-12-10T10:02:11.428Z,,,,,,,,,,,,,,,,54,,,,,,,,,,,,,,1189.3329999761627,,response,,,100,,,,,,Space,keypress(Space),,,,,-- --- ---- --- ------ ----- ------- ---- -- --- revenue --<br>------- ---------- ------ -- ----- -- ----- -- ---- ------<br>--- ----- --- --- ------ -------- ----- --- ------ ----- --<br>----- ----- ---------- --- --- ------ ------ ---- -- ------<br>------- --- ------ ----- --- ---- ------- -- ---- --- --<br>------- ------,128805.19999992847,128804.39999997616,127598.398,127605.5,127615.067,128815.547,,10,revenue
screen,html.Screen,0_2_1_1_11,2021-12-10T10:02:11.916Z,,,,,,,,,,,,,,,,54,,,,,,,,,,,,,,476.8529999761522,,response,,,100,,,,,,Space,keypress(Space),,,,,-- --- ---- --- ------ ----- ------- ---- -- --- ------- by<br>------- ---------- ------ -- ----- -- ----- -- ---- ------<br>--- ----- --- --- ------ -------- ----- --- ------ ----- --<br>----- ----- ---------- --- --- ------ ------ ---- -- ------<br>------- --- ------ ----- --- ---- ------- -- ---- --- --<br>------- ------,129293.29999995232,129292.39999997616,128798.876,128805.39999997616,128815.547,129298.979,,11,by
screen,html.Screen,0_2_1_1_12,2021-12-10T10:02:12.532Z,,,,,,,,,,,,,,,,54,,,,,,,,,,,,,,609.3209999523096,,response,,,100,,,,,,Space,keypress(Space),,,,,-- --- ---- --- ------ ----- ------- ---- -- --- ------- --<br>issuing ---------- ------ -- ----- -- ----- -- ---- ------<br>--- ----- --- --- ------ -------- ----- --- ------ ----- --<br>----- ----- ---------- --- --- ------ ------ ---- -- ------<br>------- --- ------ ----- --- ---- ------- -- ---- --- --<br>------- ------,129909.19999992847,129908.29999995232,129282.308,129293.60000002384,129298.979,129915.71,,12,issuing
screen,html.Screen,0_2_1_1_13,2021-12-10T10:02:13.116Z,,,,,,,,,,,,,,,,54,,,,,,,,,,,,,,576.5899999523099,,response,,,100,,,,,,Space,keypress(Space),,,,,-- --- ---- --- ------ ----- ------- ---- -- --- ------- --<br>------- government ------ -- ----- -- ----- -- ---- ------<br>--- ----- --- --- ------ -------- ----- --- ------ ----- --<br>----- ----- ---------- --- --- ------ ------ ---- -- ------<br>------- --- ------ ----- --- ---- ------- -- ---- --- --<br>------- ------,130493.29999995232,130492.29999995232,129899.04,129909.5,129915.71,130499.39,,13,government
screen,html.Screen,0_2_1_1_14,2021-12-10T10:02:13.668Z,,,,,,,,,,,,,,,,54,,,,,,,,,,,,,,544.9099999523169,,response,,,100,,,,,,Space,keypress(Space),,,,,-- --- ---- --- ------ ----- ------- ---- -- --- ------- --<br>------- ---------- bonds. -- ----- -- ----- -- ---- ------<br>--- ----- --- --- ------ -------- ----- --- ------ ----- --<br>----- ----- ---------- --- --- ------ ------ ---- -- ------<br>------- --- ------ ----- --- ---- ------- -- ---- --- --<br>------- ------,131045.19999992847,131044.29999995232,130482.718,130493.60000002384,130499.39,131049.481,,14,bonds.
screen,html.Screen,0_2_1_1_15,2021-12-10T10:02:14.180Z,,,,,,,,,,,,,,,,54,,,,,,,,,,,,,,506.8189999523165,,response,,,100,,,,,,Space,keypress(Space),,,,,-- --- ---- --- ------ ----- ------- ---- -- --- ------- --<br>------- ---------- ------ In ----- -- ----- -- ---- ------<br>--- ----- --- --- ------ -------- ----- --- ------ ----- --<br>----- ----- ---------- --- --- ------ ------ ---- -- ------<br>------- --- ------ ----- --- ---- ------- -- ---- --- --<br>------- ------,131557,131556.29999995232,131032.81,131045.5,131049.481,131566.214,,15,In
screen,html.Screen,0_2_1_1_16,2021-12-10T10:02:15.533Z,,,,,,,,,,,,,,,,54,,,,,,,,,,,,,,1342.3860000238346,,response,,,100,,,,,,Space,keypress(Space),,,,,"-- --- ---- --- ------ ----- ------- ---- -- --- ------- --<br>------- ---------- ------ -- 1727, -- ----- -- ---- ------<br>--- ----- --- --- ------ -------- ----- --- ------ ----- --<br>----- ----- ---------- --- --- ------ ------ ---- -- ------<br>------- --- ------ ----- --- ---- ------- -- ---- --- --<br>------- ------",132909.5,132908.60000002384,131549.544,131557.29999995232,131566.214,132916.524,,16,"1727,"
screen,html.Screen,0_2_1_1_17,2021-12-10T10:02:16.292Z,,,,,,,,,,,,,,,,54,,,,,,,,,,,,,,751.6759999284695,,response,,,100,,,,,,Space,keypress(Space),,,,,-- --- ---- --- ------ ----- ------- ---- -- --- ------- --<br>------- ---------- ------ -- ----- in ----- -- ---- ------<br>--- ----- --- --- ------ -------- ----- --- ------ ----- --<br>----- ----- ---------- --- --- ------ ------ ---- -- ------<br>------- --- ------ ----- --- ---- ------- -- ---- --- --<br>------- ------,133669,133668.19999992847,132899.854,132909.79999995232,132916.524,133683.392,,17,in
screen,html.Screen,0_2_1_1_18,2021-12-10T10:02:17.804Z,,,,,,,,,,,,,,,,54,,,,,,,,,,,,,,1496.7080000238493,,response,,,100,,,,,,Space,keypress(Space),,,,,-- --- ---- --- ------ ----- ------- ---- -- --- ------- --<br>------- ---------- ------ -- ----- -- order -- ---- ------<br>--- ----- --- --- ------ -------- ----- --- ------ ----- --<br>----- ----- ---------- --- --- ------ ------ ---- -- ------<br>------- --- ------ ----- --- ---- ------- -- ---- --- --<br>------- ------,135181.10000002384,135180.10000002384,133666.722,133669.29999995232,133683.392,135183.69,,18,order
screen,html.Screen,0_2_1_1_19,2021-12-10T10:02:18.236Z,,,,,,,,,,,,,,,,54,,,,,,,,,,,,,,428.3099999999977,,response,,,100,,,,,,Space,keypress(Space),,,,,-- --- ---- --- ------ ----- ------- ---- -- --- ------- --<br>------- ---------- ------ -- ----- -- ----- to ---- ------<br>--- ----- --- --- ------ -------- ----- --- ------ ----- --<br>----- ----- ---------- --- --- ------ ------ ---- -- ------<br>------- --- ------ ----- --- ---- ------- -- ---- --- --<br>------- ------,135612.89999997616,135612,135167.02,135181.39999997616,135183.69,135617.407,,19,to
screen,html.Screen,0_2_1_1_20,2021-12-10T10:02:18.900Z,,,,,,,,,,,,,,,,54,,,,,,,,,,,,,,658.5929999999935,,response,,,100,,,,,,Space,keypress(Space),,,,,-- --- ---- --- ------ ----- ------- ---- -- --- ------- --<br>------- ---------- ------ -- ----- -- ----- -- save ------<br>--- ----- --- --- ------ -------- ----- --- ------ ----- --<br>----- ----- ---------- --- --- ------ ------ ---- -- ------<br>------- --- ------ ----- --- ---- ------- -- ---- --- --<br>------- ------,136276.89999997616,136276,135600.735,135613.19999992847,135617.407,136284.096,,20,save
screen,html.Screen,0_2_1_1_21,2021-12-10T10:02:19.620Z,,,,,,,,,,,,,,,,54,,,,,,,,,,,,,,711.9040000000095,,response,,,100,,,,,,Space,keypress(Space),,,,,"-- --- ---- --- ------ ----- ------- ---- -- --- ------- --<br>------- ---------- ------ -- ----- -- ----- -- ---- money,<br>--- ----- --- --- ------ -------- ----- --- ------ ----- --<br>----- ----- ---------- --- --- ------ ------ ---- -- ------<br>------- --- ------ ----- --- ---- ------- -- ---- --- --<br>------- ------",136996.79999995232,136996,136267.426,136277.10000002384,136284.096,137000.952,,21,"money,"
screen,html.Screen,0_2_1_1_22,2021-12-10T10:02:20.268Z,,,,,,,,,,,,,,,,54,,,,,,,,,,,,,,642.9479999761679,,response,,,100,,,,,,Space,keypress(Space),,,,,-- --- ---- --- ------ ----- ------- ---- -- --- ------- --<br>------- ---------- ------ -- ----- -- ----- -- ---- ------<br>the ----- --- --- ------ -------- ----- --- ------ ----- --<br>----- ----- ---------- --- --- ------ ------ ---- -- ------<br>------- --- ------ ----- --- ---- ------- -- ---- --- --<br>------- ------,137644.79999995232,137643.89999997616,136984.282,136997.10000002384,137000.952,137651.126,,22,the
screen,html.Screen,0_2_1_1_23,2021-12-10T10:02:20.916Z,,,,,,,,,,,,,,,,54,,,,,,,,,,,,,,640.7739999761689,,response,,,100,,,,,,Space,keypress(Space),,,,,-- --- ---- --- ------ ----- ------- ---- -- --- ------- --<br>------- ---------- ------ -- ----- -- ----- -- ---- ------<br>--- state --- --- ------ -------- ----- --- ------ ----- --<br>----- ----- ---------- --- --- ------ ------ ---- -- ------<br>------- --- ------ ----- --- ---- ------- -- ---- --- --<br>------- ------,138292.69999992847,138291.89999997616,137634.456,137645,137651.126,138301.278,,23,state
screen,html.Screen,0_2_1_1_24,2021-12-10T10:02:21.828Z,,,,,,,,,,,,,,,,54,,,,,,,,,,,,,,902.5219999523251,,response,,,100,,,,,,Space,keypress(Space),,,,,-- --- ---- --- ------ ----- ------- ---- -- --- ------- --<br>------- ---------- ------ -- ----- -- ----- -- ---- ------<br>--- ----- cut --- ------ -------- ----- --- ------ ----- --<br>----- ----- ---------- --- --- ------ ------ ---- -- ------<br>------- --- ------ ----- --- ---- ------- -- ---- --- --<br>------- ------,139204.69999992847,139203.79999995232,138284.608,138292.89999997616,138301.278,139218.257,,24,cut
screen,html.Screen,0_2_1_1_25,2021-12-10T10:02:22.668Z,,,,,,,,,,,,,,,,54,,,,,,,,,,,,,,825.542999952304,,response,,,100,,,,,,Space,keypress(Space),,,,,-- --- ---- --- ------ ----- ------- ---- -- --- ------- --<br>------- ---------- ------ -- ----- -- ----- -- ---- ------<br>--- ----- --- the ------ -------- ----- --- ------ ----- --<br>----- ----- ---------- --- --- ------ ------ ---- -- ------<br>------- --- ------ ----- --- ---- ------- -- ---- --- --<br>------- ------,140044.60000002384,140043.79999995232,139201.586,139205,139218.257,140051.723,,25,the
screen,html.Screen,0_2_1_1_26,2021-12-10T10:02:23.588Z,,,,,,,,,,,,,,,,54,,,,,,,,,,,,,,911.9769999284763,,response,,,100,,,,,,Space,keypress(Space),,,,,-- --- ---- --- ------ ----- ------- ---- -- --- ------- --<br>------- ---------- ------ -- ----- -- ----- -- ---- ------<br>--- ----- --- --- bonds' -------- ----- --- ------ ----- --<br>----- ----- ---------- --- --- ------ ------ ---- -- ------<br>------- --- ------ ----- --- ---- ------- -- ---- --- --<br>------- ------,140964.60000002384,140963.69999992847,140035.053,140045,140051.723,140968.647,,26,bonds'
screen,html.Screen,0_2_1_1_27,2021-12-10T10:02:24.491Z,,,,,,,,,,,,,,,,54,,,,,,,,,,,,,,898.5529999284772,,response,,,100,,,,,,Space,keypress(Space),,,,,-- --- ---- --- ------ ----- ------- ---- -- --- ------- --<br>------- ---------- ------ -- ----- -- ----- -- ---- ------<br>--- ----- --- --- ------ interest ----- --- ------ ----- --<br>----- ----- ---------- --- --- ------ ------ ---- -- ------<br>------- --- ------ ----- --- ---- ------- -- ---- --- --<br>------- ------,141867.60000002384,141867.19999992847,140951.977,140964.89999997616,140968.647,141868.857,,27,interest
screen,html.Screen,0_2_1_1_28,2021-12-10T10:02:25.195Z,,,,,,,,,,,,,,,,54,,,,,,,,,,,,,,702.4429999523272,,response,,,100,,,,,,Space,keypress(Space),,,,,-- --- ---- --- ------ ----- ------- ---- -- --- ------- --<br>------- ---------- ------ -- ----- -- ----- -- ---- ------<br>--- ----- --- --- ------ -------- rate. --- ------ ----- --<br>----- ----- ---------- --- --- ------ ------ ---- -- ------<br>------- --- ------ ----- --- ---- ------- -- ---- --- --<br>------- ------,142571.69999992847,142571.29999995232,141852.187,141867.69999992847,141868.857,142585.696,,28,rate.
screen,html.Screen,0_2_1_1_29,2021-12-10T10:02:25.780Z,,,,,,,,,,,,,,,,54,,,,,,,,,,,,,,570.3040000000037,,response,,,100,,,,,,Space,keypress(Space),,,,,-- --- ---- --- ------ ----- ------- ---- -- --- ------- --<br>------- ---------- ------ -- ----- -- ----- -- ---- ------<br>--- ----- --- --- ------ -------- ----- The ------ ----- --<br>----- ----- ---------- --- --- ------ ------ ---- -- ------<br>------- --- ------ ----- --- ---- ------- -- ---- --- --<br>------- ------,143156.89999997616,143156,142569.026,142571.79999995232,142585.696,143169.09,,29,The
screen,html.Screen,0_2_1_1_30,2021-12-10T10:02:26.524Z,,,,,,,,,,,,,,,,54,,,,,,,,,,,,,,730.5100000238454,,response,,,100,,,,,,Space,keypress(Space),,,,,-- --- ---- --- ------ ----- ------- ---- -- --- ------- --<br>------- ---------- ------ -- ----- -- ----- -- ---- ------<br>--- ----- --- --- ------ -------- ----- --- market ----- --<br>----- ----- ---------- --- --- ------ ------ ---- -- ------<br>------- --- ------ ----- --- ---- ------- -- ---- --- --<br>------- ------,143900.5,143899.60000002384,143152.421,143157.29999995232,143169.09,143902.689,,30,market
screen,html.Screen,0_2_1_1_31,2021-12-10T10:02:27.092Z,,,,,,,,,,,,,,,,54,,,,,,,,,,,,,,564.9110000238288,,response,,,100,,,,,,Space,keypress(Space),,,,,-- --- ---- --- ------ ----- ------- ---- -- --- ------- --<br>------- ---------- ------ -- ----- -- ----- -- ---- ------<br>--- ----- --- --- ------ -------- ----- --- ------ value --<br>----- ----- ---------- --- --- ------ ------ ---- -- ------<br>------- --- ------ ----- --- ---- ------- -- ---- --- --<br>------- ------,144468.5,144467.60000002384,143886.019,143900.79999995232,143902.689,144469.699,,31,value
screen,html.Screen,0_2_1_1_32,2021-12-10T10:02:27.596Z,,,,,,,,,,,,,,,,54,,,,,,,,,,,,,,501.9010000238486,,response,,,100,,,,,,Space,keypress(Space),,,,,-- --- ---- --- ------ ----- ------- ---- -- --- ------- --<br>------- ---------- ------ -- ----- -- ----- -- ---- ------<br>--- ----- --- --- ------ -------- ----- --- ------ ----- of<br>----- ----- ---------- --- --- ------ ------ ---- -- ------<br>------- --- ------ ----- --- ---- ------- -- ---- --- --<br>------- ------,144972.39999997616,144971.60000002384,144453.027,144468.69999992847,144469.699,144986.382,,32,of
screen,html.Screen,0_2_1_1_33,2021-12-10T10:02:28.155Z,,,,,,,,,,,,,,,,54,,,,,,,,,,,,,,545.1179999999877,,response,,,100,,,,,,Space,keypress(Space),,,,,-- --- ---- --- ------ ----- ------- ---- -- --- ------- --<br>------- ---------- ------ -- ----- -- ----- -- ---- ------<br>--- ----- --- --- ------ -------- ----- --- ------ ----- --<br>these ----- ---------- --- --- ------ ------ ---- -- ------<br>------- --- ------ ----- --- ---- ------- -- ---- --- --<br>------- ------,145532.29999995232,145531.5,144969.712,144972.69999992847,144986.382,145536.525,,33,these
screen,html.Screen,0_2_1_1_34,2021-12-10T10:02:28.741Z,,,,,,,,,,,,,,,,54,,,,,,,,,,,,,,578.9750000000058,,response,,,100,,,,,,Space,keypress(Space),,,,,-- --- ---- --- ------ ----- ------- ---- -- --- ------- --<br>------- ---------- ------ -- ----- -- ----- -- ---- ------<br>--- ----- --- --- ------ -------- ----- --- ------ ----- --<br>----- bonds ---------- --- --- ------ ------ ---- -- ------<br>------- --- ------ ----- --- ---- ------- -- ---- --- --<br>------- ------,146117.89999997616,146115.5,145519.855,145532.69999992847,145536.525,146119.99,,34,bonds
screen,html.Screen,0_2_1_1_35,2021-12-10T10:02:29.411Z,,,,,,,,,,,,,,,,54,,,,,,,,,,,,,,667.5100000000093,,response,,,100,,,,,,Space,keypress(Space),,,,,"-- --- ---- --- ------ ----- ------- ---- -- --- ------- --<br>------- ---------- ------ -- ----- -- ----- -- ---- ------<br>--- ----- --- --- ------ -------- ----- --- ------ ----- --<br>----- ----- plummeted, --- --- ------ ------ ---- -- ------<br>------- --- ------ ----- --- ---- ------- -- ---- --- --<br>------- ------",146788.39999997616,146787.5,146103.32,146118.19999992847,146119.99,146803.509,,35,"plummeted,"
screen,html.Screen,0_2_1_1_36,2021-12-10T10:02:29.963Z,,,,,,,,,,,,,,,,54,,,,,,,,,,,,,,535.8909999761672,,response,,,100,,,,,,Space,keypress(Space),,,,,-- --- ---- --- ------ ----- ------- ---- -- --- ------- --<br>------- ---------- ------ -- ----- -- ----- -- ---- ------<br>--- ----- --- --- ------ -------- ----- --- ------ ----- --<br>----- ----- ---------- and --- ------ ------ ---- -- ------<br>------- --- ------ ----- --- ---- ------- -- ---- --- --<br>------- ------,147340.29999995232,147339.39999997616,146786.839,146788.60000002384,146803.509,147353.636,,36,and
screen,html.Screen,0_2_1_1_37,2021-12-10T10:02:30.604Z,,,,,,,,,,,,,,,,54,,,,,,,,,,,,,,625.9640000238433,,response,,,100,,,,,,Space,keypress(Space),,,,,-- --- ---- --- ------ ----- ------- ---- -- --- ------- --<br>------- ---------- ------ -- ----- -- ----- -- ---- ------<br>--- ----- --- --- ------ -------- ----- --- ------ ----- --<br>----- ----- ---------- --- the ------ ------ ---- -- ------<br>------- --- ------ ----- --- ---- ------- -- ---- --- --<br>------- ------,147980.39999997616,147979.60000002384,147336.966,147340.60000002384,147353.636,147987.203,,37,the
screen,html.Screen,0_2_1_1_38,2021-12-10T10:02:31.203Z,,,,,,,,,,,,,,,,54,,,,,,,,,,,,,,592.1969999761495,,response,,,100,,,,,,Space,keypress(Space),,,,,-- --- ---- --- ------ ----- ------- ---- -- --- ------- --<br>------- ---------- ------ -- ----- -- ----- -- ---- ------<br>--- ----- --- --- ------ -------- ----- --- ------ ----- --<br>----- ----- ---------- --- --- market ------ ---- -- ------<br>------- --- ------ ----- --- ---- ------- -- ---- --- --<br>------- ------,148580.29999995232,148579.39999997616,147970.532,147980.69999992847,147987.203,148587.176,,38,market
screen,html.Screen,0_2_1_1_39,2021-12-10T10:02:31.955Z,,,,,,,,,,,,,,,,54,,,,,,,,,,,,,,744.1239999523095,,response,,,100,,,,,,Space,keypress(Space),,,,,-- --- ---- --- ------ ----- ------- ---- -- --- ------- --<br>------- ---------- ------ -- ----- -- ----- -- ---- ------<br>--- ----- --- --- ------ -------- ----- --- ------ ----- --<br>----- ----- ---------- --- --- ------ became ---- -- ------<br>------- --- ------ ----- --- ---- ------- -- ---- --- --<br>------- ------,149332.19999992847,149331.29999995232,148570.507,148580.5,148587.176,149337.546,,39,became
screen,html.Screen,0_2_1_1_40,2021-12-10T10:02:32.907Z,,,,,,,,,,,,,,,,54,,,,,,,,,,,,,,945.7539999523142,,response,,,100,,,,,,Space,keypress(Space),,,,,-- --- ---- --- ------ ----- ------- ---- -- --- ------- --<br>------- ---------- ------ -- ----- -- ----- -- ---- ------<br>--- ----- --- --- ------ -------- ----- --- ------ ----- --<br>----- ----- ---------- --- --- ------ ------ wary -- ------<br>------- --- ------ ----- --- ---- ------- -- ---- --- --<br>------- ------,150284.10000002384,150283.29999995232,149320.875,149332.5,149337.546,150287.795,,40,wary
screen,html.Screen,0_2_1_1_41,2021-12-10T10:02:33.443Z,,,,,,,,,,,,,,,,54,,,,,,,,,,,,,,531.4049999284616,,response,,,100,,,,,,Space,keypress(Space),,,,,-- --- ---- --- ------ ----- ------- ---- -- --- ------- --<br>------- ---------- ------ -- ----- -- ----- -- ---- ------<br>--- ----- --- --- ------ -------- ----- --- ------ ----- --<br>----- ----- ---------- --- --- ------ ------ ---- of ------<br>------- --- ------ ----- --- ---- ------- -- ---- --- --<br>------- ------,150820.10000002384,150819.19999992847,150271.124,150284.39999997616,150287.795,150821.223,,41,of
screen,html.Screen,0_2_1_1_42,2021-12-10T10:02:33.955Z,,,,,,,,,,,,,,,,54,,,,,,,,,,,,,,510.07699995231815,,response,,,100,,,,,,Space,keypress(Space),,,,,-- --- ---- --- ------ ----- ------- ---- -- --- ------- --<br>------- ---------- ------ -- ----- -- ----- -- ---- ------<br>--- ----- --- --- ------ -------- ----- --- ------ ----- --<br>----- ----- ---------- --- --- ------ ------ ---- -- French<br>------- --- ------ ----- --- ---- ------- -- ---- --- --<br>------- ------,151332.10000002384,151331.29999995232,150804.553,150820.39999997616,150821.223,151338.033,,42,French
screen,html.Screen,0_2_1_1_43,2021-12-10T10:02:34.627Z,,,,,,,,,,,,,,,,54,,,,,,,,,,,,,,665.1669999284786,,response,,,100,,,,,,Space,keypress(Space),,,,,-- --- ---- --- ------ ----- ------- ---- -- --- ------- --<br>------- ---------- ------ -- ----- -- ----- -- ---- ------<br>--- ----- --- --- ------ -------- ----- --- ------ ----- --<br>----- ----- ---------- --- --- ------ ------ ---- -- ------<br>credit. --- ------ ----- --- ---- ------- -- ---- --- --<br>------- ------,152004.10000002384,152003.19999992847,151321.363,151332.29999995232,151338.033,152021.539,,43,credit.
screen,html.Screen,0_2_1_1_44,2021-12-10T10:02:35.115Z,,,,,,,,,,,,,,,,54,,,,,,,,,,,,,,469.5610000238521,,response,,,100,,,,,,Space,keypress(Space),,,,,-- --- ---- --- ------ ----- ------- ---- -- --- ------- --<br>------- ---------- ------ -- ----- -- ----- -- ---- ------<br>--- ----- --- --- ------ -------- ----- --- ------ ----- --<br>----- ----- ---------- --- --- ------ ------ ---- -- ------<br>------- The ------ ----- --- ---- ------- -- ---- --- --<br>------- ------,152491.89999997616,152491.10000002384,152004.869,152004.29999995232,152021.539,152504.9,,44,The
screen,html.Screen,0_2_1_1_45,2021-12-10T10:02:35.595Z,,,,,,,,,,,,,,,,54,,,,,,,,,,,,,,466.2000000238477,,response,,,100,,,,,,Space,keypress(Space),,,,,-- --- ---- --- ------ ----- ------- ---- -- --- ------- --<br>------- ---------- ------ -- ----- -- ----- -- ---- ------<br>--- ----- --- --- ------ -------- ----- --- ------ ----- --<br>----- ----- ---------- --- --- ------ ------ ---- -- ------<br>------- --- French ----- --- ---- ------- -- ---- --- --<br>------- ------,152971.89999997616,152971.10000002384,152488.231,152492.19999992847,152504.9,152988.53,,45,French
screen,html.Screen,0_2_1_1_46,2021-12-10T10:02:36.099Z,,,,,,,,,,,,,,,,54,,,,,,,,,,,,,,486.97000000000116,,response,,,100,,,,,,Space,keypress(Space),,,,,-- --- ---- --- ------ ----- ------- ---- -- --- ------- --<br>------- ---------- ------ -- ----- -- ----- -- ---- ------<br>--- ----- --- --- ------ -------- ----- --- ------ ----- --<br>----- ----- ---------- --- --- ------ ------ ---- -- ------<br>------- --- ------ state --- ---- ------- -- ---- --- --<br>------- ------,153476.39999997616,153475.5,152971.859,152972.19999992847,152988.53,153488.589,,46,state
screen,html.Screen,0_2_1_1_47,2021-12-10T10:02:36.587Z,,,,,,,,,,,,,,,,54,,,,,,,,,,,,,,474.51100002383464,,response,,,100,,,,,,Space,keypress(Space),,,,,-- --- ---- --- ------ ----- ------- ---- -- --- ------- --<br>------- ---------- ------ -- ----- -- ----- -- ---- ------<br>--- ----- --- --- ------ -------- ----- --- ------ ----- --<br>----- ----- ---------- --- --- ------ ------ ---- -- ------<br>------- --- ------ ----- was ---- ------- -- ---- --- --<br>------- ------,153964,153963.10000002384,153471.919,153476.60000002384,153488.589,153972.056,,47,was
screen,html.Screen,0_2_1_1_48,2021-12-10T10:02:37.227Z,,,,,,,,,,,,,,,,54,,,,,,,,,,,,,,630.9439999999886,,response,,,100,,,,,,Space,keypress(Space),,,,,-- --- ---- --- ------ ----- ------- ---- -- --- ------- --<br>------- ---------- ------ -- ----- -- ----- -- ---- ------<br>--- ----- --- --- ------ -------- ----- --- ------ ----- --<br>----- ----- ---------- --- --- ------ ------ ---- -- ------<br>------- --- ------ ----- --- left ------- -- ---- --- --<br>------- ------,154604.10000002384,154603,153955.386,153964.19999992847,153972.056,154605.513,,48,left
screen,html.Screen,0_2_1_1_49,2021-12-10T10:02:37.899Z,,,,,,,,,,,,,,,,54,,,,,,,,,,,,,,669.4869999999937,,response,,,100,,,,,,Space,keypress(Space),,,,,-- --- ---- --- ------ ----- ------- ---- -- --- ------- --<br>------- ---------- ------ -- ----- -- ----- -- ---- ------<br>--- ----- --- --- ------ -------- ----- --- ------ ----- --<br>----- ----- ---------- --- --- ------ ------ ---- -- ------<br>------- --- ------ ----- --- ---- without -- ---- --- --<br>------- ------,155275.79999995232,155275,154588.843,154604.29999995232,154605.513,155289.02,,49,without
screen,html.Screen,0_2_1_1_50,2021-12-10T10:02:38.715Z,,,,,,,,,,,,,,,,54,,,,,,,,,,,,,,801.8799999761686,,response,,,100,,,,,,Space,keypress(Space),,,,,-- --- ---- --- ------ ----- ------- ---- -- --- ------- --<br>------- ---------- ------ -- ----- -- ----- -- ---- ------<br>--- ----- --- --- ------ -------- ----- --- ------ ----- --<br>----- ----- ---------- --- --- ------ ------ ---- -- ------<br>------- --- ------ ----- --- ---- ------- an ---- --- --<br>------- ------,156091.79999995232,156090.89999997616,155272.35,155276.10000002384,155289.02,156105.978,,50,an
screen,html.Screen,0_2_1_1_51,2021-12-10T10:02:39.171Z,,,,,,,,,,,,,,,,54,,,,,,,,,,,,,,440.92199997615535,,response,,,100,,,,,,Space,keypress(Space),,,,,-- --- ---- --- ------ ----- ------- ---- -- --- ------- --<br>------- ---------- ------ -- ----- -- ----- -- ---- ------<br>--- ----- --- --- ------ -------- ----- --- ------ ----- --<br>----- ----- ---------- --- --- ------ ------ ---- -- ------<br>------- --- ------ ----- --- ---- ------- -- easy --- --<br>------- ------,156547.69999992847,156546.89999997616,156089.307,156092,156105.978,156556.053,,51,easy
screen,html.Screen,0_2_1_1_52,2021-12-10T10:02:39.627Z,,,,,,,,,,,,,,,,54,,,,,,,,,,,,,,446.74699995230185,,response,,,100,,,,,,Space,keypress(Space),,,,,-- --- ---- --- ------ ----- ------- ---- -- --- ------- --<br>------- ---------- ------ -- ----- -- ----- -- ---- ------<br>--- ----- --- --- ------ -------- ----- --- ------ ----- --<br>----- ----- ---------- --- --- ------ ------ ---- -- ------<br>------- --- ------ ----- --- ---- ------- -- ---- way --<br>------- ------,157003.69999992847,157002.79999995232,156539.383,156547.89999997616,156556.053,157006.173,,52,way
screen,html.Screen,0_2_1_1_53,2021-12-10T10:02:40.115Z,,,,,,,,,,,,,,,,54,,,,,,,,,,,,,,484.72699997614836,,response,,,100,,,,,,Space,keypress(Space),,,,,-- --- ---- --- ------ ----- ------- ---- -- --- ------- --<br>------- ---------- ------ -- ----- -- ----- -- ---- ------<br>--- ----- --- --- ------ -------- ----- --- ------ ----- --<br>----- ----- ---------- --- --- ------ ------ ---- -- ------<br>------- --- ------ ----- --- ---- ------- -- ---- --- of<br>------- ------,157491.69999992847,157490.89999997616,156989.503,157003.89999997616,157006.173,157506.194,,53,of
screen,html.Screen,0_2_1_1_54,2021-12-10T10:02:40.211Z,,,,,,,,,,,,,,,,54,,,,,,,,,,,,,,80.70599997616955,,response,,,100,,,,,,Space,keypress(Space),,,,,-- --- ---- --- ------ ----- ------- ---- -- --- ------- --<br>------- ---------- ------ -- ----- -- ----- -- ---- ------<br>--- ----- --- --- ------ -------- ----- --- ------ ----- --<br>----- ----- ---------- --- --- ------ ------ ---- -- ------<br>------- --- ------ ----- --- ---- ------- -- ---- --- --<br>raising ------,157587.69999992847,157586.89999997616,157489.525,157491.89999997616,157506.194,157589.697,,54,raising
screen,html.Screen,0_2_1_1_55,2021-12-10T10:02:40.771Z,,,,,,,,,,,,,,,,54,,,,,,,,,,,,,,557.2029999761726,,response,,,100,,,,,,Space,keypress(Space),,,,,-- --- ---- --- ------ ----- ------- ---- -- --- ------- --<br>------- ---------- ------ -- ----- -- ----- -- ---- ------<br>--- ----- --- --- ------ -------- ----- --- ------ ----- --<br>----- ----- ---------- --- --- ------ ------ ---- -- ------<br>------- --- ------ ----- --- ---- ------- -- ---- --- --<br>------- money.,158147.69999992847,158146.89999997616,157573.026,157588,157589.697,158156.506,,55,money.
Item 100,flow.Loop,0_2_1_1,2021-12-10T10:02:40.771Z,,,,,,,,,,,,,,,,,,,,,,,,,,,,,,38167.13699997615,,completion,,,,B,,,,,,,,,,silence,,158148.19999992847,158146.89999997616,119963.093,119964.60000002384,119979.763,158156.506,,,
Question 1,html.Screen,0_2_1_2,2021-12-10T10:02:44.435Z,,,,,,,,,,,,,,,,,,,,,,,,,,,true,TRUE,,3653.893999976164,,response,,,100,B,,,,,TRUE,click #choice-1,,,,silence,,161811.69999992847,161810.39999997616,158139.835,158148.39999997616,158156.506,161824.188,,,
Question 2,html.Screen,0_2_1_3,2021-12-10T10:02:46.459Z,,,,,,,,,,,,,,,,,,,,,,,,,,,true,FALSE,,2010.2119999761635,,response,,,100,B,,,,,FALSE,click #choice-2,,,,silence,,163835.60000002384,163834.39999997616,161807.516,161812,161824.188,163840.924,,,
Item 100,flow.Sequence,0_2_1,2021-12-10T10:02:46.459Z,,,,,,,,,,,,,,,,,,,,,,,,,,,,,,53857.19399997615,,completion,,,,,,,,,,,,,,,,163835.89999997616,163834.39999997616,109960.538,109967,109977.206,163840.924,,,
End of Practice,html.Page,0_2_2,2021-12-10T10:02:50.044Z,,,,,,,,,,,,,,,,,,,,,,,,,,,,,,3578.875999952317,,form submission,,,,,,,,,,,,,,,,167420.5,167419.79999995232,163824.26,163836.10000002384,163840.924,167425.712,,,
Practice,flow.Sequence,0_2,2021-12-10T10:02:50.044Z,,,,,,,,,,,,,,,,,,,,,,,,,,,,,,117041.68499995233,,completion,,,,,,,,,,,,,,,,167420.89999997616,167419.79999995232,50361.446,50378.60000002384,50378.115,167425.712,,,
Trap_instruction,html.Page,0_3_0,2021-12-10T10:02:52.067Z,,,,,,,,,,,,,,,,,,,,,,,,,,,,,,2017.987999928475,,form submission,,,,,,,,,,,,,,,,169444.19999992847,169443.69999992847,167409.033,167421.29999995232,167425.712,169492.605,,,
trap_trial,html.Screen,0_3_1,2021-12-10T10:02:55.410Z,,,,,,,,,,,,,,,,,,,,,,,,,,,true,1,,3293.2949999761477,,response,,,,,,,,,1,click #choice-1,,,,,,172787.19999992847,172785.89999997616,169442.595,169444.5,169492.605,172793.588,,,
end of trap trial,html.Page,0_3_2,2021-12-10T10:02:58.203Z,,,,,,,,,,,,,,,,,,,,,,,,,,,,,,2785.912000000011,,form submission,,,,,,,,,,,,,,,,175580,175579.5,172776.917,172787.5,172793.588,175594.328,,,
Trap 1,flow.Sequence,0_3,2021-12-10T10:02:58.204Z,,,,,,,,,,,,,,,,,,,,,,,,,,,,,,8153.7880000000005,,completion,,,,,,,,,,,,,,,,175580.5,175579.5,167409.033,167421.19999992847,167425.712,175594.328,,,
Standby,html.Page,0_4_0,2021-12-10T10:03:06.207Z,,,,,,,,,,,,,,,,,,,,,,,,,,,,,,8001.598999999987,,timeout,,,,,,,,,,,,,,,,183580.29999995232,183579.257,175577.658,175580.89999997616,175594.328,183595.927,,,
Holding screen,html.Screen,0_4_1_0_0,2021-12-10T10:03:13.209Z,,,,,,,,,,,,,,,,,,,,,,,,,,,,,,7002.366999999998,,timeout,,,,,,,,,,,,,,,,190582.79999995232,190581.623,183579.257,183580.69999992847,183595.927,190598.294,,,
screen,html.Screen,0_4_1_0_1_0,2021-12-10T10:03:14.213Z,,,,,,,,,,,,,,,,2,,,,,,,,,,,,,,987.3060000238474,,response,,,1,B,,,,,Space,keypress(Space),,,,lyrical,Two ---- ------ --- ------- ---------- ------- ----------<br>--- --------- --- ----------- ------- ----- ------- ---<br>--------- ---- -- --- ---- -- --------- -- ---- -------<br>-- --------- ------ --- ----- ------ ---- --- --------- --<br>------ - ---- -- --- ----------- ------- ---- ----- -----<br>--- -------- - ------ ---- -- ----- ---- --- --- -----------<br>-- -------,191586.69999992847,191585.60000002384,190581.623,190583.29999995232,190598.294,191615.146,,0,Two
screen,html.Screen,0_4_1_0_1_1,2021-12-10T10:03:14.844Z,,,,,,,,,,,,,,,,2,,,,,,,,,,,,,,601.8539999999921,,response,,,1,B,,,,,Space,keypress(Space),,,,lyrical,--- days ------ --- ------- ---------- ------- ----------<br>--- --------- --- ----------- ------- ----- ------- ---<br>--------- ---- -- --- ---- -- --------- -- ---- -------<br>-- --------- ------ --- ----- ------ ---- --- --------- --<br>------ - ---- -- --- ----------- ------- ---- ----- -----<br>--- -------- - ------ ---- -- ----- ---- --- --- -----------<br>-- -------,192218,192217,191598.476,191587,191615.146,192231.829,,1,days
screen,html.Screen,0_4_1_0_1_2,2021-12-10T10:03:15.524Z,,,,,,,,,,,,,,,,2,,,,,,,,,,,,,,665.1710000000021,,response,,,1,B,,,,,Space,keypress(Space),,,,lyrical,"--- ---- later, --- ------- ---------- ------- ----------<br>--- --------- --- ----------- ------- ----- ------- ---<br>--------- ---- -- --- ---- -- --------- -- ---- -------<br>-- --------- ------ --- ----- ------ ---- --- --------- --<br>------ - ---- -- --- ----------- ------- ---- ----- -----<br>--- -------- - ------ ---- -- ----- ---- --- --- -----------<br>-- -------",192897.79999995232,192897,192215.16,192218.39999997616,192231.829,192898.963,,2,"later,"
screen,html.Screen,0_4_1_0_1_3,2021-12-10T10:03:16.196Z,,,,,,,,,,,,,,,,2,,,,,,,,,,,,,,670.0370000000112,,response,,,1,B,,,,,Space,keypress(Space),,,,lyrical,--- ---- ------ the ------- ---------- ------- ----------<br>--- --------- --- ----------- ------- ----- ------- ---<br>--------- ---- -- --- ---- -- --------- -- ---- -------<br>-- --------- ------ --- ----- ------ ---- --- --------- --<br>------ - ---- -- --- ----------- ------- ---- ----- -----<br>--- -------- - ------ ---- -- ----- ---- --- --- -----------<br>-- -------,193570,193569,192882.291,192898.19999992847,192898.963,193582.35,,3,the
screen,html.Screen,0_4_1_0_1_4,2021-12-10T10:03:17.372Z,,,,,,,,,,,,,,,,2,,,,,,,,,,,,,,1162.6499999999942,,response,,,1,B,,,,,Space,keypress(Space),,,,lyrical,--- ---- ------ --- British ---------- ------- ----------<br>--- --------- --- ----------- ------- ----- ------- ---<br>--------- ---- -- --- ---- -- --------- -- ---- -------<br>-- --------- ------ --- ----- ------ ---- --- --------- --<br>------ - ---- -- --- ----------- ------- ---- ----- -----<br>--- -------- - ------ ---- -- ----- ---- --- --- -----------<br>-- -------,194745.79999995232,194745,193565.68,193570.29999995232,193582.35,194749.289,,4,British
screen,html.Screen,0_4_1_0_1_5,2021-12-10T10:03:18.532Z,,,,,,,,,,,,,,,,2,,,,,,,,,,,,,,1155.6109999761684,,response,,,1,B,,,,,Space,keypress(Space),,,,lyrical,--- ---- ------ --- ------- astronomer ------- ----------<br>--- --------- --- ----------- ------- ----- ------- ---<br>--------- ---- -- --- ---- -- --------- -- ---- -------<br>-- --------- ------ --- ----- ------ ---- --- --------- --<br>------ - ---- -- --- ----------- ------- ---- ----- -----<br>--- -------- - ------ ---- -- ----- ---- --- --- -----------<br>-- -------,195905.79999995232,195904.89999997616,194732.619,194746.19999992847,194749.289,195916.199,,5,astronomer
screen,html.Screen,0_4_1_0_1_6,2021-12-10T10:03:19.108Z,,,,,,,,,,,,,,,,2,,,,,,,,,,,,,,564.7009999761649,,response,,,1,B,,,,,Space,keypress(Space),,,,lyrical,--- ---- ------ --- ------- ---------- Richard ----------<br>--- --------- --- ----------- ------- ----- ------- ---<br>--------- ---- -- --- ---- -- --------- -- ---- -------<br>-- --------- ------ --- ----- ------ ---- --- --------- --<br>------ - ---- -- --- ----------- ------- ---- ----- -----<br>--- -------- - ------ ---- -- ----- ---- --- --- -----------<br>-- -------,196481.69999992847,196480.89999997616,195899.529,195906,195916.199,196483.102,,6,Richard
screen,html.Screen,0_4_1_0_1_7,2021-12-10T10:03:19.780Z,,,,,,,,,,,,,,,,2,,,,,,,,,,,,,,669.6979999523028,,response,,,1,B,,,,,Space,keypress(Space),,,,lyrical,--- ---- ------ --- ------- ---------- ------- Carrington<br>--- --------- --- ----------- ------- ----- ------- ---<br>--------- ---- -- --- ---- -- --------- -- ---- -------<br>-- --------- ------ --- ----- ------ ---- --- --------- --<br>------ - ---- -- --- ----------- ------- ---- ----- -----<br>--- -------- - ------ ---- -- ----- ---- --- --- -----------<br>-- -------,197153.69999992847,197152.79999995232,196466.432,196482,196483.102,197166.61,,7,Carrington
screen,html.Screen,0_4_1_0_1_8,2021-12-10T10:03:20.372Z,,,,,,,,,,,,,,,,2,,,,,,,,,,,,,,578.1899999523303,,response,,,1,B,,,,,Space,keypress(Space),,,,lyrical,--- ---- ------ --- ------- ---------- ------- ----------<br>was --------- --- ----------- ------- ----- ------- ---<br>--------- ---- -- --- ---- -- --------- -- ---- -------<br>-- --------- ------ --- ----- ------ ---- --- --------- --<br>------ - ---- -- --- ----------- ------- ---- ----- -----<br>--- -------- - ------ ---- -- ----- ---- --- --- -----------<br>-- -------,197745.60000002384,197744.79999995232,197149.94,197153.89999997616,197166.61,197749.979,,8,was
screen,html.Screen,0_4_1_0_1_9,2021-12-10T10:03:21.156Z,,,,,,,,,,,,,,,,2,,,,,,,,,,,,,,778.8209999523242,,response,,,1,B,,,,,Space,keypress(Space),,,,lyrical,--- ---- ------ --- ------- ---------- ------- ----------<br>--- observing --- ----------- ------- ----- ------- ---<br>--------- ---- -- --- ---- -- --------- -- ---- -------<br>-- --------- ------ --- ----- ------ ---- --- --------- --<br>------ - ---- -- --- ----------- ------- ---- ----- -----<br>--- -------- - ------ ---- -- ----- ---- --- --- -----------<br>-- -------,198529.60000002384,198528.79999995232,197733.31,197745.89999997616,197749.979,198533.695,,9,observing
screen,html.Screen,0_4_1_0_1_10,2021-12-10T10:03:21.860Z,,,,,,,,,,,,,,,,2,,,,,,,,,,,,,,699.304999999993,,response,,,1,B,,,,,Space,keypress(Space),,,,lyrical,--- ---- ------ --- ------- ---------- ------- ----------<br>--- --------- the ----------- ------- ----- ------- ---<br>--------- ---- -- --- ---- -- --------- -- ---- -------<br>-- --------- ------ --- ----- ------ ---- --- --------- --<br>------ - ---- -- --- ----------- ------- ---- ----- -----<br>--- -------- - ------ ---- -- ----- ---- --- --- -----------<br>-- -------,199233.79999995232,199233,198517.024,198529.89999997616,198533.695,199250.548,,10,the
screen,html.Screen,0_4_1_0_1_11,2021-12-10T10:03:22.788Z,,,,,,,,,,,,,,,,2,,,,,,,,,,,,,,910.1519999284646,,response,,,1,B,,,,,Space,keypress(Space),,,,lyrical,--- ---- ------ --- ------- ---------- ------- ----------<br>--- --------- --- interesting ------- ----- ------- ---<br>--------- ---- -- --- ---- -- --------- -- ---- -------<br>-- --------- ------ --- ----- ------ ---- --- --------- --<br>------ - ---- -- --- ----------- ------- ---- ----- -----<br>--- -------- - ------ ---- -- ----- ---- --- --- -----------<br>-- -------,200161.69999992847,200160.69999992847,199233.877,199234.19999992847,199250.548,200167.233,,11,interesting
screen,html.Screen,0_4_1_0_1_12,2021-12-10T10:03:24.300Z,,,,,,,,,,,,,,,,2,,,,,,,,,,,,,,1505.6669999761507,,response,,,1,B,,,,,Space,keypress(Space),,,,lyrical,--- ---- ------ --- ------- ---------- ------- ----------<br>--- --------- --- ----------- sunspot ----- ------- ---<br>--------- ---- -- --- ---- -- --------- -- ---- -------<br>-- --------- ------ --- ----- ------ ---- --- --------- --<br>------ - ---- -- --- ----------- ------- ---- ----- -----<br>--- -------- - ------ ---- -- ----- ---- --- --- -----------<br>-- -------,201673.79999995232,201672.89999997616,200150.564,200161.89999997616,200167.233,201684.36,,12,sunspot
screen,html.Screen,0_4_1_0_1_13,2021-12-10T10:03:25.068Z,,,,,,,,,,,,,,,,2,,,,,,,,,,,,,,756.2400000238558,,response,,,1,B,,,,,Space,keypress(Space),,,,lyrical,--- ---- ------ --- ------- ---------- ------- ----------<br>--- --------- --- ----------- ------- group ------- ---<br>--------- ---- -- --- ---- -- --------- -- ---- -------<br>-- --------- ------ --- ----- ------ ---- --- --------- --<br>------ - ---- -- --- ----------- ------- ---- ----- -----<br>--- -------- - ------ ---- -- ----- ---- --- --- -----------<br>-- -------,202441.39999997616,202440.60000002384,201667.69,201674.10000002384,201684.36,202451.268,,13,group
screen,html.Screen,0_4_1_0_1_14,2021-12-10T10:03:25.756Z,,,,,,,,,,,,,,,,2,,,,,,,,,,,,,,677.2319999999891,,response,,,1,B,,,,,Space,keypress(Space),,,,lyrical,--- ---- ------ --- ------- ---------- ------- ----------<br>--- --------- --- ----------- ------- ----- through ---<br>--------- ---- -- --- ---- -- --------- -- ---- -------<br>-- --------- ------ --- ----- ------ ---- --- --------- --<br>------ - ---- -- --- ----------- ------- ---- ----- -----<br>--- -------- - ------ ---- -- ----- ---- --- --- -----------<br>-- -------,203129.39999997616,203128.5,202434.598,202441.60000002384,202451.268,203134.886,,14,through
screen,html.Screen,0_4_1_0_1_15,2021-12-10T10:03:26.420Z,,,,,,,,,,,,,,,,2,,,,,,,,,,,,,,657.6140000000014,,response,,,1,B,,,,,Space,keypress(Space),,,,lyrical,--- ---- ------ --- ------- ---------- ------- ----------<br>--- --------- --- ----------- ------- ----- ------- his<br>--------- ---- -- --- ---- -- --------- -- ---- -------<br>-- --------- ------ --- ----- ------ ---- --- --------- --<br>------ - ---- -- --- ----------- ------- ---- ----- -----<br>--- -------- - ------ ---- -- ----- ---- --- --- -----------<br>-- -------,203793.29999995232,203792.5,203118.215,203129.5,203134.886,203801.671,,15,his
screen,html.Screen,0_4_1_0_1_16,2021-12-10T10:03:27.156Z,,,,,,,,,,,,,,,,2,,,,,,,,,,,,,,726.728999976156,,response,,,1,B,,,,,Space,keypress(Space),,,,lyrical,--- ---- ------ --- ------- ---------- ------- ----------<br>--- --------- --- ----------- ------- ----- ------- ---<br>telescope ---- -- --- ---- -- --------- -- ---- -------<br>-- --------- ------ --- ----- ------ ---- --- --------- --<br>------ - ---- -- --- ----------- ------- ---- ----- -----<br>--- -------- - ------ ---- -- ----- ---- --- --- -----------<br>-- -------,204529.29999995232,204528.39999997616,203785.001,203793.60000002384,203801.671,204535.19,,16,telescope
screen,html.Screen,0_4_1_0_1_17,2021-12-10T10:03:27.740Z,,,,,,,,,,,,,,,,2,,,,,,,,,,,,,,577.2099999761558,,response,,,1,B,,,,,Space,keypress(Space),,,,lyrical,--- ---- ------ --- ------- ---------- ------- ----------<br>--- --------- --- ----------- ------- ----- ------- ---<br>--------- when -- --- ---- -- --------- -- ---- -------<br>-- --------- ------ --- ----- ------ ---- --- --------- --<br>------ - ---- -- --- ----------- ------- ---- ----- -----<br>--- -------- - ------ ---- -- ----- ---- --- --- -----------<br>-- -------,205113.29999995232,205112.39999997616,204518.52,204529.69999992847,204535.19,205118.561,,17,when
screen,html.Screen,0_4_1_0_1_18,2021-12-10T10:03:28.283Z,,,,,,,,,,,,,,,,2,,,,,,,,,,,,,,537.7389999523293,,response,,,1,B,,,,,Space,keypress(Space),,,,lyrical,--- ---- ------ --- ------- ---------- ------- ----------<br>--- --------- --- ----------- ------- ----- ------- ---<br>--------- ---- he --- ---- -- --------- -- ---- -------<br>-- --------- ------ --- ----- ------ ---- --- --------- --<br>------ - ---- -- --- ----------- ------- ---- ----- -----<br>--- -------- - ------ ---- -- ----- ---- --- --- -----------<br>-- -------,205657.19999992847,205656.29999995232,205101.892,205113.60000002384,205118.561,205668.874,,18,he
screen,html.Screen,0_4_1_0_1_19,2021-12-10T10:03:28.827Z,,,,,,,,,,,,,,,,2,,,,,,,,,,,,,,531.5259999761474,,response,,,1,B,,,,,Space,keypress(Space),,,,lyrical,--- ---- ------ --- ------- ---------- ------- ----------<br>--- --------- --- ----------- ------- ----- ------- ---<br>--------- ---- -- saw ---- -- --------- -- ---- -------<br>-- --------- ------ --- ----- ------ ---- --- --------- --<br>------ - ---- -- --- ----------- ------- ---- ----- -----<br>--- -------- - ------ ---- -- ----- ---- --- --- -----------<br>-- -------,206201.19999992847,206200.39999997616,205652.203,205657.39999997616,205668.874,206202.345,,19,saw
screen,html.Screen,0_4_1_0_1_20,2021-12-10T10:03:29.387Z,,,,,,,,,,,,,,,,2,,,,,,,,,,,,,,557.9549999523151,,response,,,1,B,,,,,Space,keypress(Space),,,,lyrical,--- ---- ------ --- ------- ---------- ------- ----------<br>--- --------- --- ----------- ------- ----- ------- ---<br>--------- ---- -- --- what -- --------- -- ---- -------<br>-- --------- ------ --- ----- ------ ---- --- --------- --<br>------ - ---- -- --- ----------- ------- ---- ----- -----<br>--- -------- - ------ ---- -- ----- ---- --- --- -----------<br>-- -------,206761.10000002384,206760.29999995232,206185.674,206201.39999997616,206202.345,206769.006,,20,what
screen,html.Screen,0_4_1_0_1_21,2021-12-10T10:03:29.955Z,,,,,,,,,,,,,,,,2,,,,,,,,,,,,,,559.2939999523223,,response,,,1,B,,,,,Space,keypress(Space),,,,lyrical,--- ---- ------ --- ------- ---------- ------- ----------<br>--- --------- --- ----------- ------- ----- ------- ---<br>--------- ---- -- --- ---- he --------- -- ---- -------<br>-- --------- ------ --- ----- ------ ---- --- --------- --<br>------ - ---- -- --- ----------- ------- ---- ----- -----<br>--- -------- - ------ ---- -- ----- ---- --- --- -----------<br>-- -------,207329.29999995232,207328.29999995232,206752.337,206761.29999995232,206769.006,207335.888,,21,he
screen,html.Screen,0_4_1_0_1_22,2021-12-10T10:03:30.955Z,,,,,,,,,,,,,,,,2,,,,,,,,,,,,,,992.3119999284681,,response,,,1,B,,,,,Space,keypress(Space),,,,lyrical,--- ---- ------ --- ------- ---------- ------- ----------<br>--- --------- --- ----------- ------- ----- ------- ---<br>--------- ---- -- --- ---- -- described -- ---- -------<br>-- --------- ------ --- ----- ------ ---- --- --------- --<br>------ - ---- -- --- ----------- ------- ---- ----- -----<br>--- -------- - ------ ---- -- ----- ---- --- --- -----------<br>-- -------,208329.10000002384,208328.19999992847,207319.218,207329.39999997616,207335.888,208352.91,,22,described
screen,html.Screen,0_4_1_0_1_23,2021-12-10T10:03:31.555Z,,,,,,,,,,,,,,,,2,,,,,,,,,,,,,,575.3899999523128,,response,,,1,B,,,,,Space,keypress(Space),,,,lyrical,--- ---- ------ --- ------- ---------- ------- ----------<br>--- --------- --- ----------- ------- ----- ------- ---<br>--------- ---- -- --- ---- -- --------- as ---- -------<br>-- --------- ------ --- ----- ------ ---- --- --------- --<br>------ - ---- -- --- ----------- ------- ---- ----- -----<br>--- -------- - ------ ---- -- ----- ---- --- --- -----------<br>-- -------,208929.10000002384,208928.29999995232,208336.239,208329.29999995232,208352.91,208936.331,,23,as
screen,html.Screen,0_4_1_0_1_24,2021-12-10T10:03:32.299Z,,,,,,,,,,,,,,,,2,,,,,,,,,,,,,,735.7690000238363,,response,,,1,B,,,,,Space,keypress(Space),,,,lyrical,"--- ---- ------ --- ------- ---------- ------- ----------<br>--- --------- --- ----------- ------- ----- ------- ---<br>--------- ---- -- --- ---- -- --------- -- ""two -------<br>-- --------- ------ --- ----- ------ ---- --- --------- --<br>------ - ---- -- --- ----------- ------- ---- ----- -----<br>--- -------- - ------ ---- -- ----- ---- --- --- -----------<br>-- -------",209672.89999997616,209672.10000002384,208919.661,208929.29999995232,208936.331,209703.2,,24,"""two"
screen,html.Screen,0_4_1_0_1_25,2021-12-10T10:03:32.963Z,,,,,,,,,,,,,,,,2,,,,,,,,,,,,,,632.9000000238302,,response,,,1,B,,,,,Space,keypress(Space),,,,lyrical,--- ---- ------ --- ------- ---------- ------- ----------<br>--- --------- --- ----------- ------- ----- ------- ---<br>--------- ---- -- --- ---- -- --------- -- ---- patches<br>-- --------- ------ --- ----- ------ ---- --- --------- --<br>------ - ---- -- --- ----------- ------- ---- ----- -----<br>--- -------- - ------ ---- -- ----- ---- --- --- -----------<br>-- -------,210336.89999997616,210336.10000002384,209686.53,209673.10000002384,209703.2,210353.375,,25,patches
screen,html.Screen,0_4_1_0_1_26,2021-12-10T10:03:33.475Z,,,,,,,,,,,,,,,,2,,,,,,,,,,,,,,494.72500002384186,,response,,,1,B,,,,,Space,keypress(Space),,,,lyrical,--- ---- ------ --- ------- ---------- ------- ----------<br>--- --------- --- ----------- ------- ----- ------- ---<br>--------- ---- -- --- ---- -- --------- -- ---- -------<br>of --------- ------ --- ----- ------ ---- --- --------- --<br>------ - ---- -- --- ----------- ------- ---- ----- -----<br>--- -------- - ------ ---- -- ----- ---- --- --- -----------<br>-- -------,210848.89999997616,210848.10000002384,210336.705,210337.19999992847,210353.375,210853.569,,26,of
screen,html.Screen,0_4_1_0_1_27,2021-12-10T10:03:34.243Z,,,,,,,,,,,,,,,,2,,,,,,,,,,,,,,762.4310000000114,,response,,,1,B,,,,,Space,keypress(Space),,,,lyrical,--- ---- ------ --- ------- ---------- ------- ----------<br>--- --------- --- ----------- ------- ----- ------- ---<br>--------- ---- -- --- ---- -- --------- -- ---- -------<br>-- intensely ------ --- ----- ------ ---- --- --------- --<br>------ - ---- -- --- ----------- ------- ---- ----- -----<br>--- -------- - ------ ---- -- ----- ---- --- --- -----------<br>-- -------,211616.89999997616,211616,210836.898,210849.19999992847,210853.569,211620.376,,27,intensely
screen,html.Screen,0_4_1_0_1_28,2021-12-10T10:03:35.187Z,,,,,,,,,,,,,,,,2,,,,,,,,,,,,,,940.0239999761689,,response,,,1,B,,,,,Space,keypress(Space),,,,lyrical,--- ---- ------ --- ------- ---------- ------- ----------<br>--- --------- --- ----------- ------- ----- ------- ---<br>--------- ---- -- --- ---- -- --------- -- ---- -------<br>-- --------- bright --- ----- ------ ---- --- --------- --<br>------ - ---- -- --- ----------- ------- ---- ----- -----<br>--- -------- - ------ ---- -- ----- ---- --- --- -----------<br>-- -------,212561.19999992847,212560.39999997616,211603.706,211617.10000002384,211620.376,212570.426,,28,bright
screen,html.Screen,0_4_1_0_1_29,2021-12-10T10:03:35.803Z,,,,,,,,,,,,,,,,2,,,,,,,,,,,,,,605.4739999761514,,response,,,1,B,,,,,Space,keypress(Space),,,,lyrical,--- ---- ------ --- ------- ---------- ------- ----------<br>--- --------- --- ----------- ------- ----- ------- ---<br>--------- ---- -- --- ---- -- --------- -- ---- -------<br>-- --------- ------ and ----- ------ ---- --- --------- --<br>------ - ---- -- --- ----------- ------- ---- ----- -----<br>--- -------- - ------ ---- -- ----- ---- --- --- -----------<br>-- -------,213176.69999992847,213175.89999997616,212553.757,212561.5,212570.426,213187.54,,29,and
screen,html.Screen,0_4_1_0_1_30,2021-12-10T10:03:36.755Z,,,,,,,,,,,,,,,,2,,,,,,,,,,,,,,940.35999997615,,response,,,1,B,,,,,Space,keypress(Space),,,,lyrical,--- ---- ------ --- ------- ---------- ------- ----------<br>--- --------- --- ----------- ------- ----- ------- ---<br>--------- ---- -- --- ---- -- --------- -- ---- -------<br>-- --------- ------ --- white ------ ---- --- --------- --<br>------ - ---- -- --- ----------- ------- ---- ----- -----<br>--- -------- - ------ ---- -- ----- ---- --- --- -----------<br>-- -------,214128.69999992847,214127.89999997616,213170.869,213177,213187.54,214137.605,,30,white
screen,html.Screen,0_4_1_0_1_31,2021-12-10T10:03:37.315Z,,,,,,,,,,,,,,,,2,,,,,,,,,,,,,,550.4950000238314,,response,,,1,B,,,,,Space,keypress(Space),,,,lyrical,"--- ---- ------ --- ------- ---------- ------- ----------<br>--- --------- --- ----------- ------- ----- ------- ---<br>--------- ---- -- --- ---- -- --------- -- ---- -------<br>-- --------- ------ --- ----- light"" ---- --- --------- --<br>------ - ---- -- --- ----------- ------- ---- ----- -----<br>--- -------- - ------ ---- -- ----- ---- --- --- -----------<br>-- -------",214689,214688.10000002384,214120.935,214129,214137.605,214704.566,,31,"light"""
screen,html.Screen,0_4_1_0_1_32,2021-12-10T10:03:37.803Z,,,,,,,,,,,,,,,,2,,,,,,,,,,,,,,471.23399995232467,,response,,,1,B,,,,,Space,keypress(Space),,,,lyrical,--- ---- ------ --- ------- ---------- ------- ----------<br>--- --------- --- ----------- ------- ----- ------- ---<br>--------- ---- -- --- ---- -- --------- -- ---- -------<br>-- --------- ------ --- ----- ------ over --- --------- --<br>------ - ---- -- --- ----------- ------- ---- ----- -----<br>--- -------- - ------ ---- -- ----- ---- --- --- -----------<br>-- -------,215176.60000002384,215175.79999995232,214687.895,214689.29999995232,214704.566,215187.941,,32,over
screen,html.Screen,0_4_1_0_1_33,2021-12-10T10:03:38.379Z,,,,,,,,,,,,,,,,2,,,,,,,,,,,,,,563.9589999761665,,response,,,1,B,,,,,Space,keypress(Space),,,,lyrical,--- ---- ------ --- ------- ---------- ------- ----------<br>--- --------- --- ----------- ------- ----- ------- ---<br>--------- ---- -- --- ---- -- --------- -- ---- -------<br>-- --------- ------ --- ----- ------ ---- the --------- --<br>------ - ---- -- --- ----------- ------- ---- ----- -----<br>--- -------- - ------ ---- -- ----- ---- --- --- -----------<br>-- -------,215752.60000002384,215751.89999997616,215171.271,215176.89999997616,215187.941,215754.847,,33,the
screen,html.Screen,0_4_1_0_1_34,2021-12-10T10:03:39.171Z,,,,,,,,,,,,,,,,2,,,,,,,,,,,,,,788.9529999523074,,response,,,1,B,,,,,Space,keypress(Space),,,,lyrical,--- ---- ------ --- ------- ---------- ------- ----------<br>--- --------- --- ----------- ------- ----- ------- ---<br>--------- ---- -- --- ---- -- --------- -- ---- -------<br>-- --------- ------ --- ----- ------ ---- --- sunspots. --<br>------ - ---- -- --- ----------- ------- ---- ----- -----<br>--- -------- - ------ ---- -- ----- ---- --- --- -----------<br>-- -------,216544.60000002384,216543.79999995232,215738.176,215752.89999997616,215754.847,216554.846,,34,sunspots.
screen,html.Screen,0_4_1_0_1_35,2021-12-10T10:03:39.796Z,,,,,,,,,,,,,,,,2,,,,,,,,,,,,,,612.9539999523258,,response,,,1,B,,,,,Space,keypress(Space),,,,lyrical,--- ---- ------ --- ------- ---------- ------- ----------<br>--- --------- --- ----------- ------- ----- ------- ---<br>--------- ---- -- --- ---- -- --------- -- ---- -------<br>-- --------- ------ --- ----- ------ ---- --- --------- He<br>------ - ---- -- --- ----------- ------- ---- ----- -----<br>--- -------- - ------ ---- -- ----- ---- --- --- -----------<br>-- -------,217170.10000002384,217167.79999995232,216538.177,216544.89999997616,216554.846,217171.915,,35,He
screen,html.Screen,0_4_1_0_1_36,2021-12-10T10:03:40.435Z,,,,,,,,,,,,,,,,2,,,,,,,,,,,,,,635.8849999523081,,response,,,1,B,,,,,Space,keypress(Space),,,,lyrical,--- ---- ------ --- ------- ---------- ------- ----------<br>--- --------- --- ----------- ------- ----- ------- ---<br>--------- ---- -- --- ---- -- --------- -- ---- -------<br>-- --------- ------ --- ----- ------ ---- --- --------- --<br>jotted - ---- -- --- ----------- ------- ---- ----- -----<br>--- -------- - ------ ---- -- ----- ---- --- --- -----------<br>-- -------,217808.60000002384,217807.79999995232,217155.243,217170.5,217171.915,217821.986,,36,jotted
screen,html.Screen,0_4_1_0_1_37,2021-12-10T10:03:40.883Z,,,,,,,,,,,,,,,,2,,,,,,,,,,,,,,433.71399992847,,response,,,1,B,,,,,Space,keypress(Space),,,,lyrical,--- ---- ------ --- ------- ---------- ------- ----------<br>--- --------- --- ----------- ------- ----- ------- ---<br>--------- ---- -- --- ---- -- --------- -- ---- -------<br>-- --------- ------ --- ----- ------ ---- --- --------- --<br>------ a ---- -- --- ----------- ------- ---- ----- -----<br>--- -------- - ------ ---- -- ----- ---- --- --- -----------<br>-- -------,218256.5,218255.69999992847,217805.316,217808.79999995232,217821.986,218272.005,,37,a
screen,html.Screen,0_4_1_0_1_38,2021-12-10T10:03:41.578Z,,,,,,,,,,,,,,,,2,,,,,,,,,,,,,,679.2949999523116,,response,,,1,B,,,,,Space,keypress(Space),,,,lyrical,--- ---- ------ --- ------- ---------- ------- ----------<br>--- --------- --- ----------- ------- ----- ------- ---<br>--------- ---- -- --- ---- -- --------- -- ---- -------<br>-- --------- ------ --- ----- ------ ---- --- --------- --<br>------ - note -- --- ----------- ------- ---- ----- -----<br>--- -------- - ------ ---- -- ----- ---- --- --- -----------<br>-- -------,218951.69999992847,218951.29999995232,218255.336,218256.79999995232,218272.005,218955.734,,38,note
screen,html.Screen,0_4_1_0_1_39,2021-12-10T10:03:42.203Z,,,,,,,,,,,,,,,,2,,,,,,,,,,,,,,619.8660000238451,,response,,,1,B,,,,,Space,keypress(Space),,,,lyrical,--- ---- ------ --- ------- ---------- ------- ----------<br>--- --------- --- ----------- ------- ----- ------- ---<br>--------- ---- -- --- ---- -- --------- -- ---- -------<br>-- --------- ------ --- ----- ------ ---- --- --------- --<br>------ - ---- in --- ----------- ------- ---- ----- -----<br>--- -------- - ------ ---- -- ----- ---- --- --- -----------<br>-- -------,219576.5,219575.60000002384,218939.062,218951.69999992847,218955.734,219589.126,,39,in
screen,html.Screen,0_4_1_0_1_40,2021-12-10T10:03:42.867Z,,,,,,,,,,,,,,,,2,,,,,,,,,,,,,,650.4740000238526,,response,,,1,B,,,,,Space,keypress(Space),,,,lyrical,--- ---- ------ --- ------- ---------- ------- ----------<br>--- --------- --- ----------- ------- ----- ------- ---<br>--------- ---- -- --- ---- -- --------- -- ---- -------<br>-- --------- ------ --- ----- ------ ---- --- --------- --<br>------ - ---- -- his ----------- ------- ---- ----- -----<br>--- -------- - ------ ---- -- ----- ---- --- --- -----------<br>-- -------,220240.5,220239.60000002384,219572.456,219576.60000002384,219589.126,220255.81,,40,his
screen,html.Screen,0_4_1_0_1_41,2021-12-10T10:03:43.851Z,,,,,,,,,,,,,,,,2,,,,,,,,,,,,,,967.7900000238442,,response,,,1,B,,,,,Space,keypress(Space),,,,lyrical,--- ---- ------ --- ------- ---------- ------- ----------<br>--- --------- --- ----------- ------- ----- ------- ---<br>--------- ---- -- --- ---- -- --------- -- ---- -------<br>-- --------- ------ --- ----- ------ ---- --- --------- --<br>------ - ---- -- --- painstaking ------- ---- ----- -----<br>--- -------- - ------ ---- -- ----- ---- --- --- -----------<br>-- -------,221224.39999997616,221223.60000002384,220239.141,220240.69999992847,220255.81,221239.579,,41,painstaking
screen,html.Screen,0_4_1_0_1_42,2021-12-10T10:03:44.795Z,,,,,,,,,,,,,,,,2,,,,,,,,,,,,,,927.9210000000021,,response,,,1,B,,,,,Space,keypress(Space),,,,lyrical,--- ---- ------ --- ------- ---------- ------- ----------<br>--- --------- --- ----------- ------- ----- ------- ---<br>--------- ---- -- --- ---- -- --------- -- ---- -------<br>-- --------- ------ --- ----- ------ ---- --- --------- --<br>------ - ---- -- --- ----------- record. ---- ----- -----<br>--- -------- - ------ ---- -- ----- ---- --- --- -----------<br>-- -------,222168.5,222167.5,221222.908,221224.60000002384,221239.579,222173.194,,42,record.
screen,html.Screen,0_4_1_0_1_43,2021-12-10T10:03:45.435Z,,,,,,,,,,,,,,,,2,,,,,,,,,,,,,,634.6059999523277,,response,,,1,B,,,,,Space,keypress(Space),,,,lyrical,--- ---- ------ --- ------- ---------- ------- ----------<br>--- --------- --- ----------- ------- ----- ------- ---<br>--------- ---- -- --- ---- -- --------- -- ---- -------<br>-- --------- ------ --- ----- ------ ---- --- --------- --<br>------ - ---- -- --- ----------- ------- That ----- -----<br>--- -------- - ------ ---- -- ----- ---- --- --- -----------<br>-- -------,222808.60000002384,222807.79999995232,222156.523,222168.69999992847,222173.194,222823.198,,43,That
screen,html.Screen,0_4_1_0_1_44,2021-12-10T10:03:46.211Z,,,,,,,,,,,,,,,,2,,,,,,,,,,,,,,760.301999999996,,response,,,1,B,,,,,Space,keypress(Space),,,,lyrical,--- ---- ------ --- ------- ---------- ------- ----------<br>--- --------- --- ----------- ------- ----- ------- ---<br>--------- ---- -- --- ---- -- --------- -- ---- -------<br>-- --------- ------ --- ----- ------ ---- --- --------- --<br>------ - ---- -- --- ----------- ------- ---- night -----<br>--- -------- - ------ ---- -- ----- ---- --- --- -----------<br>-- -------,223584.29999995232,223583.5,222806.528,222808.89999997616,222823.198,223590.232,,44,night
screen,html.Screen,0_4_1_0_1_45,2021-12-10T10:03:46.835Z,,,,,,,,,,,,,,,,2,,,,,,,,,,,,,,617.2680000000109,,response,,,1,B,,,,,Space,keypress(Space),,,,lyrical,--- ---- ------ --- ------- ---------- ------- ----------<br>--- --------- --- ----------- ------- ----- ------- ---<br>--------- ---- -- --- ---- -- --------- -- ---- -------<br>-- --------- ------ --- ----- ------ ---- --- --------- --<br>------ - ---- -- --- ----------- ------- ---- ----- there<br>--- -------- - ------ ---- -- ----- ---- --- --- -----------<br>-- -------,224208.29999995232,224207.5,223573.561,223584.5,223590.232,224223.658,,45,there
screen,html.Screen,0_4_1_0_1_46,2021-12-10T10:03:47.538Z,,,,,,,,,,,,,,,,2,,,,,,,,,,,,,,687.7419999761623,,response,,,1,B,,,,,Space,keypress(Space),,,,lyrical,--- ---- ------ --- ------- ---------- ------- ----------<br>--- --------- --- ----------- ------- ----- ------- ---<br>--------- ---- -- --- ---- -- --------- -- ---- -------<br>-- --------- ------ --- ----- ------ ---- --- --------- --<br>------ - ---- -- --- ----------- ------- ---- ----- -----<br>was -------- - ------ ---- -- ----- ---- --- --- -----------<br>-- -------,224912.10000002384,224911.39999997616,224206.988,224208.5,224223.658,224923.904,,46,was
screen,html.Screen,0_4_1_0_1_47,2021-12-10T10:03:48.298Z,,,,,,,,,,,,,,,,2,,,,,,,,,,,,,,747.4959999761486,,response,,,1,B,,,,,Space,keypress(Space),,,,lyrical,--- ---- ------ --- ------- ---------- ------- ----------<br>--- --------- --- ----------- ------- ----- ------- ---<br>--------- ---- -- --- ---- -- --------- -- ---- -------<br>-- --------- ------ --- ----- ------ ---- --- --------- --<br>------ - ---- -- --- ----------- ------- ---- ----- -----<br>--- scarcely - ------ ---- -- ----- ---- --- --- -----------<br>-- -------,225672.10000002384,225671.39999997616,224907.233,224912.39999997616,224923.904,225674.019,,47,scarcely
screen,html.Screen,0_4_1_0_1_48,2021-12-10T10:03:48.874Z,,,,,,,,,,,,,,,,2,,,,,,,,,,,,,,573.1809999284742,,response,,,1,B,,,,,Space,keypress(Space),,,,lyrical,--- ---- ------ --- ------- ---------- ------- ----------<br>--- --------- --- ----------- ------- ----- ------- ---<br>--------- ---- -- --- ---- -- --------- -- ---- -------<br>-- --------- ------ --- ----- ------ ---- --- --------- --<br>------ - ---- -- --- ----------- ------- ---- ----- -----<br>--- -------- a ------ ---- -- ----- ---- --- --- -----------<br>-- -------,226248,226247.19999992847,225657.349,225672.39999997616,225674.019,226257.499,,48,a
screen,html.Screen,0_4_1_0_1_49,2021-12-10T10:03:49.450Z,,,,,,,,,,,,,,,,2,,,,,,,,,,,,,,565.8009999523056,,response,,,1,B,,,,,Space,keypress(Space),,,,lyrical,--- ---- ------ --- ------- ---------- ------- ----------<br>--- --------- --- ----------- ------- ----- ------- ---<br>--------- ---- -- --- ---- -- --------- -- ---- -------<br>-- --------- ------ --- ----- ------ ---- --- --------- --<br>------ - ---- -- --- ----------- ------- ---- ----- -----<br>--- -------- - square ---- -- ----- ---- --- --- -----------<br>-- -------,226824.10000002384,226823.29999995232,226240.829,226248.19999992847,226257.499,226841.057,,49,square
