sender,sender_type,sender_id,timestamp,meta,,Blues,Classical,Country,Dance,Electronic,Folk,Gospel,Hip-Hop,Jazz,Latin,Musical/Film,New-age,Pop,Provo_ID,R&B,Rap,Reggae,Religious,Rock,Soul,Swing,Traditional,age,artist_name,correct,correctResponse,distraction,duration,education,ended_on,familiarity,gender,item,list,music_frequency,offensiveness,pleasantness,preference,response,response_action,snippet_file,song_name,song_rating,sound,text,time_commit,time_end,time_render,time_run,time_show,time_switch,url,word,word_ID
Instructions,html.Page,0_0,2021-11-05T11:11:15.953Z,"{""labjs_version"":""20.2.3"",""labjs_build"":{""flavor"":""production"",""commit"":""7ea907d66ca8aeef8054924ca5d82ffbe11e34e5""},""location"":""https://run.pavlovia.org/mvasilev/lab_music_c/"",""userAgent"":""Mozilla/5.0 (Windows NT 6.1; Win64; x64) AppleWebKit/537.36 (KHTML, like Gecko) Chrome/95.0.4638.69 Safari/537.36"",""platform"":""Win32"",""language"":""en-US"",""locale"":""en-US"",""timeZone"":""Europe/London"",""timezoneOffset"":0,""screen_width"":1920,""screen_height"":1080,""scroll_width"":1920,""scroll_height"":959,""window_innerWidth"":1920,""window_innerHeight"":1007,""devicePixelRatio"":1}",,,,,,,,,,,,,,,,,,,,,,,,,,,,,26833.944,,form submission,,,,,,,,,,,,,,,,52801.79999999702,52800.5,25933.216,25953.09999999404,25966.556,52800.915,{},,
Headphones,html.Page,0_1,2021-11-05T11:11:19.962Z,,,,,,,,,,,,,,,,,,,,,,,,,,,,,,4009.1849999940387,,form submission,,,,,,,,,,,,,,,,56810.59999999404,56810.09999999404,52784.249,52802.5,52800.915,56821.259,,,
Holding screen,html.Screen,0_2_0_0,2021-11-05T11:11:29.973Z,,,,,,,,,,,,,,,,,,,,,,,,,,,,,,10007.464,,timeout,,,,,,,,,,,,,,,,66818.19999998808,66812.054,56804.536,56811.29999999702,56821.259,66828.723,,,
screen,html.Screen,0_2_0_1_0,2021-11-05T11:11:31.004Z,,,,,,,,,,,,,,,,53,,,,,,,,,,,,,,1019.4769999880809,,response,,,99,,,,,,Space,keypress(Space),,,,,When -- ----- -- ------ - ------- --- ----------<br>------------- ------ ------ ---- ---- ------- ----- -- ----<br>-------- ------- -- ---------- --- - --- ----- ----- ----<br>---- --- --- ----- --- ---- ---- ------- ----- ---- -------<br>--- --- -- ----- -- --- ---- -- --- ---- -- ------ ------<br>--- ----- -- ----,67849.59999999404,67848.19999998808,66812.054,66818.59999999404,66828.723,67862.765,,0,When
screen,html.Screen,0_2_0_1_1,2021-11-05T11:11:31.516Z,,,,,,,,,,,,,,,,53,,,,,,,,,,,,,,497.53499999702035,,response,,,99,,,,,,Space,keypress(Space),,,,,---- it ----- -- ------ - ------- --- ----------<br>------------- ------ ------ ---- ---- ------- ----- -- ----<br>-------- ------- -- ---------- --- - --- ----- ----- ----<br>---- --- --- ----- --- ---- ---- ------- ----- ---- -------<br>--- --- -- ----- -- --- ---- -- --- ---- -- ------ ------<br>--- ----- -- ----,68361.29999999702,68360.29999999702,67846.093,67850.09999999404,67862.765,68362.698,,1,it
screen,html.Screen,0_2_0_1_2,2021-11-05T11:11:31.964Z,,,,,,,,,,,,,,,,53,,,,,,,,,,,,,,445.70199999105535,,response,,,99,,,,,,Space,keypress(Space),,,,,---- -- comes -- ------ - ------- --- ----------<br>------------- ------ ------ ---- ---- ------- ----- -- ----<br>-------- ------- -- ---------- --- - --- ----- ----- ----<br>---- --- --- ----- --- ---- ---- ------- ----- ---- -------<br>--- --- -- ----- -- --- ---- -- --- ---- -- ------ ------<br>--- ----- -- ----,68809.29999999702,68808.39999999106,68346.028,68361.5,68362.698,68812.922,,2,comes
screen,html.Screen,0_2_0_1_3,2021-11-05T11:11:32.436Z,,,,,,,,,,,,,,,,53,,,,,,,,,,,,,,467.37799999701383,,response,,,99,,,,,,Space,keypress(Space),,,,,---- -- ----- to ------ - ------- --- ----------<br>------------- ------ ------ ---- ---- ------- ----- -- ----<br>-------- ------- -- ---------- --- - --- ----- ----- ----<br>---- --- --- ----- --- ---- ---- ------- ----- ---- -------<br>--- --- -- ----- -- --- ---- -- --- ---- -- ------ ------<br>--- ----- -- ----,69281.39999999106,69280.29999999702,68796.251,68809.59999999404,68812.922,69296.33,,3,to
screen,html.Screen,0_2_0_1_4,2021-11-05T11:11:32.876Z,,,,,,,,,,,,,,,,53,,,,,,,,,,,,,,424.2699999940378,,response,,,99,,,,,,Space,keypress(Space),,,,,---- -- ----- -- having - ------- --- ----------<br>------------- ------ ------ ---- ---- ------- ----- -- ----<br>-------- ------- -- ---------- --- - --- ----- ----- ----<br>---- --- --- ----- --- ---- ---- ------- ----- ---- -------<br>--- --- -- ----- -- --- ---- -- --- ---- -- ------ ------<br>--- ----- -- ----,69721.69999998808,69720.59999999404,69279.66,69281.79999999702,69296.33,69746.339,,4,having
screen,html.Screen,0_2_0_1_5,2021-11-05T11:11:33.292Z,,,,,,,,,,,,,,,,53,,,,,,,,,,,,,,390.1609999999928,,response,,,99,,,,,,Space,keypress(Space),,,,,---- -- ----- -- ------ a ------- --- ----------<br>------------- ------ ------ ---- ---- ------- ----- -- ----<br>-------- ------- -- ---------- --- - --- ----- ----- ----<br>---- --- --- ----- --- ---- ---- ------- ----- ---- -------<br>--- --- -- ----- -- --- ---- -- --- ---- -- ------ ------<br>--- ----- -- ----,70137.5,70136.5,69729.67,69722.09999999404,69746.339,70163.329,,5,a
screen,html.Screen,0_2_0_1_6,2021-11-05T11:11:33.884Z,,,,,,,,,,,,,,,,53,,,,,,,,,,,,,,564.9709999970219,,response,,,99,,,,,,Space,keypress(Space),,,,,---- -- ----- -- ------ - lasting --- ----------<br>------------- ------ ------ ---- ---- ------- ----- -- ----<br>-------- ------- -- ---------- --- - --- ----- ----- ----<br>---- --- --- ----- --- ---- ---- ------- ----- ---- -------<br>--- --- -- ----- -- --- ---- -- --- ---- -- ------ ------<br>--- ----- -- ----,70729.19999998808,70728.29999999702,70146.657,70138,70163.329,70730.089,,6,lasting
screen,html.Screen,0_2_0_1_7,2021-11-05T11:11:34.364Z,,,,,,,,,,,,,,,,53,,,,,,,,,,,,,,478.3109999910521,,response,,,99,,,,,,Space,keypress(Space),,,,,---- -- ----- -- ------ - ------- and ----------<br>------------- ------ ------ ---- ---- ------- ----- -- ----<br>-------- ------- -- ---------- --- - --- ----- ----- ----<br>---- --- --- ----- --- ---- ---- ------- ----- ---- -------<br>--- --- -- ----- -- --- ---- -- --- ---- -- ------ ------<br>--- ----- -- ----,71209.69999998808,71208.39999999106,70713.418,70729.59999999404,70730.089,71230.177,,7,and
screen,html.Screen,0_2_0_1_8,2021-11-05T11:11:34.996Z,,,,,,,,,,,,,,,,53,,,,,,,,,,,,,,610.022999988083,,response,,,99,,,,,,Space,keypress(Space),,,,,---- -- ----- -- ------ - ------- --- fulfilling<br>------------- ------ ------ ---- ---- ------- ----- -- ----<br>-------- ------- -- ---------- --- - --- ----- ----- ----<br>---- --- --- ----- --- ---- ---- ------- ----- ---- -------<br>--- --- -- ----- -- --- ---- -- --- ---- -- ------ ------<br>--- ----- -- ----,71841.39999999106,71840.19999998808,71213.507,71210.09999999404,71230.177,71846.994,,8,fulfilling
screen,html.Screen,0_2_0_1_9,2021-11-05T11:11:35.508Z,,,,,,,,,,,,,,,,53,,,,,,,,,,,,,,505.1059999940335,,response,,,99,,,,,,Space,keypress(Space),,,,,"---- -- ----- -- ------ - ------- --- ----------<br>relationship, ------ ------ ---- ---- ------- ----- -- ----<br>-------- ------- -- ---------- --- - --- ----- ----- ----<br>---- --- --- ----- --- ---- ---- ------- ----- ---- -------<br>--- --- -- ----- -- --- ---- -- --- ---- -- ------ ------<br>--- ----- -- ----",72353.09999999404,72352.09999999404,71830.324,71841.59999999404,71846.994,72363.863,,9,"relationship,"
screen,html.Screen,0_2_0_1_10,2021-11-05T11:11:35.907Z,,,,,,,,,,,,,,,,53,,,,,,,,,,,,,,388.236999994042,,response,,,99,,,,,,Space,keypress(Space),,,,,---- -- ----- -- ------ - ------- --- ----------<br>------------- common ------ ---- ---- ------- ----- -- ----<br>-------- ------- -- ---------- --- - --- ----- ----- ----<br>---- --- --- ----- --- ---- ---- ------- ----- ---- -------<br>--- --- -- ----- -- --- ---- -- --- ---- -- ------ ------<br>--- ----- -- ----,72753,72752.09999999404,72347.192,72353.5,72363.863,72763.981,,10,common
screen,html.Screen,0_2_0_1_11,2021-11-05T11:11:36.539Z,,,,,,,,,,,,,,,,53,,,,,,,,,,,,,,620.1189999940398,,response,,,99,,,,,,Space,keypress(Space),,,,,---- -- ----- -- ------ - ------- --- ----------<br>------------- ------ wisdom ---- ---- ------- ----- -- ----<br>-------- ------- -- ---------- --- - --- ----- ----- ----<br>---- --- --- ----- --- ---- ---- ------- ----- ---- -------<br>--- --- -- ----- -- --- ---- -- --- ---- -- ------ ------<br>--- ----- -- ----,73385,73384.09999999404,72747.31,72753.19999998808,72763.981,73397.304,,11,wisdom
screen,html.Screen,0_2_0_1_12,2021-11-05T11:11:36.955Z,,,,,,,,,,,,,,,,53,,,,,,,,,,,,,,402.7959999940358,,response,,,99,,,,,,Space,keypress(Space),,,,,---- -- ----- -- ------ - ------- --- ----------<br>------------- ------ ------ says ---- ------- ----- -- ----<br>-------- ------- -- ---------- --- - --- ----- ----- ----<br>---- --- --- ----- --- ---- ---- ------- ----- ---- -------<br>--- --- -- ----- -- --- ---- -- --- ---- -- ------ ------<br>--- ----- -- ----,73801,73800.09999999404,73380.635,73385.29999999702,73397.304,73814.308,,12,says
screen,html.Screen,0_2_0_1_13,2021-11-05T11:11:37.371Z,,,,,,,,,,,,,,,,53,,,,,,,,,,,,,,401.791999994035,,response,,,99,,,,,,Space,keypress(Space),,,,,---- -- ----- -- ------ - ------- --- ----------<br>------------- ------ ------ ---- that ------- ----- -- ----<br>-------- ------- -- ---------- --- - --- ----- ----- ----<br>---- --- --- ----- --- ---- ---- ------- ----- ---- -------<br>--- --- -- ----- -- --- ---- -- --- ---- -- ------ ------<br>--- ----- -- ----,74216.89999999106,74216.09999999404,73797.636,73801.19999998808,73814.308,74231.024,,13,that
screen,html.Screen,0_2_0_1_14,2021-11-05T11:11:37.859Z,,,,,,,,,,,,,,,,53,,,,,,,,,,,,,,472.9759999999951,,response,,,99,,,,,,Space,keypress(Space),,,,,---- -- ----- -- ------ - ------- --- ----------<br>------------- ------ ------ ---- ---- feeling ----- -- ----<br>-------- ------- -- ---------- --- - --- ----- ----- ----<br>---- --- --- ----- --- ---- ---- ------- ----- ---- -------<br>--- --- -- ----- -- --- ---- -- --- ---- -- ------ ------<br>--- ----- -- ----,74704.89999999106,74704,74214.353,74217.19999998808,74231.024,74714.486,,14,feeling
screen,html.Screen,0_2_0_1_15,2021-11-05T11:11:38.307Z,,,,,,,,,,,,,,,,53,,,,,,,,,,,,,,437.6139999940351,,response,,,99,,,,,,Space,keypress(Space),,,,,---- -- ----- -- ------ - ------- --- ----------<br>------------- ------ ------ ---- ---- ------- close -- ----<br>-------- ------- -- ---------- --- - --- ----- ----- ----<br>---- --- --- ----- --- ---- ---- ------- ----- ---- -------<br>--- --- -- ----- -- --- ---- -- --- ---- -- ------ ------<br>--- ----- -- ----,75152.89999999106,75152.09999999404,74697.815,74705.19999998808,74714.486,75164.605,,15,close
screen,html.Screen,0_2_0_1_16,2021-11-05T11:11:38.724Z,,,,,,,,,,,,,,,,53,,,,,,,,,,,,,,403.8950000000041,,response,,,99,,,,,,Space,keypress(Space),,,,,---- -- ----- -- ------ - ------- --- ----------<br>------------- ------ ------ ---- ---- ------- ----- to ----<br>-------- ------- -- ---------- --- - --- ----- ----- ----<br>---- --- --- ----- --- ---- ---- ------- ----- ---- -------<br>--- --- -- ----- -- --- ---- -- --- ---- -- ------ ------<br>--- ----- -- ----,75569.29999999702,75568.5,75147.934,75153.09999999404,75164.605,75581.4,,16,to
screen,html.Screen,0_2_0_1_17,2021-11-05T11:11:39.179Z,,,,,,,,,,,,,,,,53,,,,,,,,,,,,,,442.6000000000058,,response,,,99,,,,,,Space,keypress(Space),,,,,---- -- ----- -- ------ - ------- --- ----------<br>------------- ------ ------ ---- ---- ------- ----- -- your<br>-------- ------- -- ---------- --- - --- ----- ----- ----<br>---- --- --- ----- --- ---- ---- ------- ----- ---- -------<br>--- --- -- ----- -- --- ---- -- --- ---- -- ------ ------<br>--- ----- -- ----,76024.79999999702,76024,75564.729,75569.5,75581.4,76031.475,,17,your
screen,html.Screen,0_2_0_1_18,2021-11-05T11:11:39.755Z,,,,,,,,,,,,,,,,53,,,,,,,,,,,,,,568.5249999999942,,response,,,99,,,,,,Space,keypress(Space),,,,,---- -- ----- -- ------ - ------- --- ----------<br>------------- ------ ------ ---- ---- ------- ----- -- ----<br>romantic ------- -- ---------- --- - --- ----- ----- ----<br>---- --- --- ----- --- ---- ---- ------- ----- ---- -------<br>--- --- -- ----- -- --- ---- -- --- ---- -- ------ ------<br>--- ----- -- ----,76600.79999999702,76600,76014.805,76025.09999999404,76031.475,76615.003,,18,romantic
screen,html.Screen,0_2_0_1_19,2021-11-05T11:11:40.203Z,,,,,,,,,,,,,,,,53,,,,,,,,,,,,,,432.89699999106233,,response,,,99,,,,,,Space,keypress(Space),,,,,---- -- ----- -- ------ - ------- --- ----------<br>------------- ------ ------ ---- ---- ------- ----- -- ----<br>-------- partner -- ---------- --- - --- ----- ----- ----<br>---- --- --- ----- --- ---- ---- ------- ----- ---- -------<br>--- --- -- ----- -- --- ---- -- --- ---- -- ------ ------<br>--- ----- -- ----,77048.69999998808,77047.89999999106,76598.332,76601.09999999404,76615.003,77065.085,,19,partner
screen,html.Screen,0_2_0_1_20,2021-11-05T11:11:40.699Z,,,,,,,,,,,,,,,,53,,,,,,,,,,,,,,478.9149999999936,,response,,,99,,,,,,Space,keypress(Space),,,,,---- -- ----- -- ------ - ------- --- ----------<br>------------- ------ ------ ---- ---- ------- ----- -- ----<br>-------- ------- is ---------- --- - --- ----- ----- ----<br>---- --- --- ----- --- ---- ---- ------- ----- ---- -------<br>--- --- -- ----- -- --- ---- -- --- ---- -- ------ ------<br>--- ----- -- ----,77544.79999999702,77544,77048.415,77049,77065.085,77548.539,,20,is
screen,html.Screen,0_2_0_1_21,2021-11-05T11:11:41.163Z,,,,,,,,,,,,,,,,53,,,,,,,,,,,,,,459.4609999999957,,response,,,99,,,,,,Space,keypress(Space),,,,,---- -- ----- -- ------ - ------- --- ----------<br>------------- ------ ------ ---- ---- ------- ----- -- ----<br>-------- ------- -- paramount. --- - --- ----- ----- ----<br>---- --- --- ----- --- ---- ---- ------- ----- ---- -------<br>--- --- -- ----- -- --- ---- -- --- ---- -- ------ ------<br>--- ----- -- ----,78008.79999999702,78008,77531.869,77545,77548.539,78015.369,,21,paramount.
screen,html.Screen,0_2_0_1_22,2021-11-05T11:11:42.443Z,,,,,,,,,,,,,,,,53,,,,,,,,,,,,,,1272.5309999910532,,response,,,99,,,,,,Space,keypress(Space),,,,,---- -- ----- -- ------ - ------- --- ----------<br>------------- ------ ------ ---- ---- ------- ----- -- ----<br>-------- ------- -- ---------- But - --- ----- ----- ----<br>---- --- --- ----- --- ---- ---- ------- ----- ---- -------<br>--- --- -- ----- -- --- ---- -- --- ---- -- ------ ------<br>--- ----- -- ----,79288.69999998808,79287.89999999106,77998.698,78009.19999998808,78015.369,79299.045,,22,But
screen,html.Screen,0_2_0_1_23,2021-11-05T11:11:43.067Z,,,,,,,,,,,,,,,,53,,,,,,,,,,,,,,612.854999991061,,response,,,99,,,,,,Space,keypress(Space),,,,,---- -- ----- -- ------ - ------- --- ----------<br>------------- ------ ------ ---- ---- ------- ----- -- ----<br>-------- ------- -- ---------- --- a --- ----- ----- ----<br>---- --- --- ----- --- ---- ---- ------- ----- ---- -------<br>--- --- -- ----- -- --- ---- -- --- ---- -- ------ ------<br>--- ----- -- ----,79912.69999998808,79911.89999999106,79282.374,79289,79299.045,79915.814,,23,a
screen,html.Screen,0_2_0_1_24,2021-11-05T11:11:43.491Z,,,,,,,,,,,,,,,,53,,,,,,,,,,,,,,420.3859999880806,,response,,,99,,,,,,Space,keypress(Space),,,,,---- -- ----- -- ------ - ------- --- ----------<br>------------- ------ ------ ---- ---- ------- ----- -- ----<br>-------- ------- -- ---------- --- - new ----- ----- ----<br>---- --- --- ----- --- ---- ---- ------- ----- ---- -------<br>--- --- -- ----- -- --- ---- -- --- ---- -- ------ ------<br>--- ----- -- ----,80337.09999999404,80336.19999998808,79899.144,79913,79915.814,80349.329,,24,new
screen,html.Screen,0_2_0_1_25,2021-11-05T11:11:43.995Z,,,,,,,,,,,,,,,,53,,,,,,,,,,,,,,490.47099999702186,,response,,,99,,,,,,Space,keypress(Space),,,,,---- -- ----- -- ------ - ------- --- ----------<br>------------- ------ ------ ---- ---- ------- ----- -- ----<br>-------- ------- -- ---------- --- - --- study ----- ----<br>---- --- --- ----- --- ---- ---- ------- ----- ---- -------<br>--- --- -- ----- -- --- ---- -- --- ---- -- ------ ------<br>--- ----- -- ----,80840.69999998808,80839.79999999702,80332.658,80337.29999999702,80349.329,80849.483,,25,study
screen,html.Screen,0_2_0_1_26,2021-11-05T11:11:44.667Z,,,,,,,,,,,,,,,,53,,,,,,,,,,,,,,662.3169999970269,,response,,,99,,,,,,Space,keypress(Space),,,,,---- -- ----- -- ------ - ------- --- ----------<br>------------- ------ ------ ---- ---- ------- ----- -- ----<br>-------- ------- -- ---------- --- - --- ----- finds ----<br>---- --- --- ----- --- ---- ---- ------- ----- ---- -------<br>--- --- -- ----- -- --- ---- -- --- ---- -- ------ ------<br>--- ----- -- ----,81512.59999999404,81511.79999999702,80832.812,80840.89999999106,80849.483,81516.242,,26,finds
screen,html.Screen,0_2_0_1_27,2021-11-05T11:11:45.099Z,,,,,,,,,,,,,,,,53,,,,,,,,,,,,,,427.5579999970214,,response,,,99,,,,,,Space,keypress(Space),,,,,---- -- ----- -- ------ - ------- --- ----------<br>------------- ------ ------ ---- ---- ------- ----- -- ----<br>-------- ------- -- ---------- --- - --- ----- ----- that<br>---- --- --- ----- --- ---- ---- ------- ----- ---- -------<br>--- --- -- ----- -- --- ---- -- --- ---- -- ------ ------<br>--- ----- -- ----,81944.59999999404,81943.79999999702,81499.572,81512.79999999702,81516.242,81949.766,,27,that
screen,html.Screen,0_2_0_1_28,2021-11-05T11:11:45.651Z,,,,,,,,,,,,,,,,53,,,,,,,,,,,,,,546.0339999970165,,response,,,99,,,,,,Space,keypress(Space),,,,,---- -- ----- -- ------ - ------- --- ----------<br>------------- ------ ------ ---- ---- ------- ----- -- ----<br>-------- ------- -- ---------- --- - --- ----- ----- ----<br>it's --- --- ----- --- ---- ---- ------- ----- ---- -------<br>--- --- -- ----- -- --- ---- -- --- ---- -- ------ ------<br>--- ----- -- ----,82496.5,82495.79999999702,81933.095,81944.89999999106,81949.766,82499.773,,28,it's
screen,html.Screen,0_2_0_1_29,2021-11-05T11:11:46.091Z,,,,,,,,,,,,,,,,53,,,,,,,,,,,,,,435.926999988078,,response,,,99,,,,,,Space,keypress(Space),,,,,---- -- ----- -- ------ - ------- --- ----------<br>------------- ------ ------ ---- ---- ------- ----- -- ----<br>-------- ------- -- ---------- --- - --- ----- ----- ----<br>---- not --- ----- --- ---- ---- ------- ----- ---- -------<br>--- --- -- ----- -- --- ---- -- --- ---- -- ------ ------<br>--- ----- -- ----,82936.5,82935.69999998808,82483.104,82496.79999999702,82499.773,82950.136,,29,not
screen,html.Screen,0_2_0_1_30,2021-11-05T11:11:46.499Z,,,,,,,,,,,,,,,,53,,,,,,,,,,,,,,393.66399999702116,,response,,,99,,,,,,Space,keypress(Space),,,,,---- -- ----- -- ------ - ------- --- ----------<br>------------- ------ ------ ---- ---- ------- ----- -- ----<br>-------- ------- -- ---------- --- - --- ----- ----- ----<br>---- --- how ----- --- ---- ---- ------- ----- ---- -------<br>--- --- -- ----- -- --- ---- -- --- ---- -- ------ ------<br>--- ----- -- ----,83344.5,83343.79999999702,82933.463,82936.79999999702,82950.136,83350.114,,30,how
screen,html.Screen,0_2_0_1_31,2021-11-05T11:11:46.907Z,,,,,,,,,,,,,,,,53,,,,,,,,,,,,,,401.68599999701837,,response,,,99,,,,,,Space,keypress(Space),,,,,---- -- ----- -- ------ - ------- --- ----------<br>------------- ------ ------ ---- ---- ------- ----- -- ----<br>-------- ------- -- ---------- --- - --- ----- ----- ----<br>---- --- --- close --- ---- ---- ------- ----- ---- -------<br>--- --- -- ----- -- --- ---- -- --- ---- -- ------ ------<br>--- ----- -- ----,83752.5,83751.79999999702,83333.444,83344.69999998808,83350.114,83766.754,,31,close
screen,html.Screen,0_2_0_1_32,2021-11-05T11:11:47.283Z,,,,,,,,,,,,,,,,53,,,,,,,,,,,,,,360.94599998807826,,response,,,99,,,,,,Space,keypress(Space),,,,,---- -- ----- -- ------ - ------- --- ----------<br>------------- ------ ------ ---- ---- ------- ----- -- ----<br>-------- ------- -- ---------- --- - --- ----- ----- ----<br>---- --- --- ----- you ---- ---- ------- ----- ---- -------<br>--- --- -- ----- -- --- ---- -- --- ---- -- ------ ------<br>--- ----- -- ----,84128.5,84127.69999998808,83750.086,83752.79999999702,83766.754,84133.805,,32,you
screen,html.Screen,0_2_0_1_33,2021-11-05T11:11:47.683Z,,,,,,,,,,,,,,,,53,,,,,,,,,,,,,,393.89499998808606,,response,,,99,,,,,,Space,keypress(Space),,,,,---- -- ----- -- ------ - ------- --- ----------<br>------------- ------ ------ ---- ---- ------- ----- -- ----<br>-------- ------- -- ---------- --- - --- ----- ----- ----<br>---- --- --- ----- --- feel ---- ------- ----- ---- -------<br>--- --- -- ----- -- --- ---- -- --- ---- -- ------ ------<br>--- ----- -- ----,84528.89999999106,84527.69999998808,84117.132,84128.69999998808,84133.805,84533.701,,33,feel
screen,html.Screen,0_2_0_1_34,2021-11-05T11:11:48.027Z,,,,,,,,,,,,,,,,53,,,,,,,,,,,,,,337.99899998807814,,response,,,99,,,,,,Space,keypress(Space),,,,,---- -- ----- -- ------ - ------- --- ----------<br>------------- ------ ------ ---- ---- ------- ----- -- ----<br>-------- ------- -- ---------- --- - --- ----- ----- ----<br>---- --- --- ----- --- ---- that ------- ----- ---- -------<br>--- --- -- ----- -- --- ---- -- --- ---- -- ------ ------<br>--- ----- -- ----,84872.39999999106,84871.69999998808,84517.032,84529.09999999404,84533.701,84883.904,,34,that
screen,html.Screen,0_2_0_1_35,2021-11-05T11:11:48.459Z,,,,,,,,,,,,,,,,53,,,,,,,,,,,,,,419.69599999404454,,response,,,99,,,,,,Space,keypress(Space),,,,,---- -- ----- -- ------ - ------- --- ----------<br>------------- ------ ------ ---- ---- ------- ----- -- ----<br>-------- ------- -- ---------- --- - --- ----- ----- ----<br>---- --- --- ----- --- ---- ---- matters ----- ---- -------<br>--- --- -- ----- -- --- ---- -- --- ---- -- ------ ------<br>--- ----- -- ----,85304.39999999106,85303.59999999404,84867.233,84872.69999998808,84883.904,85317.303,,35,matters
screen,html.Screen,0_2_0_1_36,2021-11-05T11:11:48.827Z,,,,,,,,,,,,,,,,53,,,,,,,,,,,,,,354.79699999403965,,response,,,99,,,,,,Space,keypress(Space),,,,,"---- -- ----- -- ------ - ------- --- ----------<br>------------- ------ ------ ---- ---- ------- ----- -- ----<br>-------- ------- -- ---------- --- - --- ----- ----- ----<br>---- --- --- ----- --- ---- ---- ------- most, ---- -------<br>--- --- -- ----- -- --- ---- -- --- ---- -- ------ ------<br>--- ----- -- ----",85672.79999999702,85672.09999999404,85300.633,85304.69999998808,85317.303,85684.114,,36,"most,"
screen,html.Screen,0_2_0_1_37,2021-11-05T11:11:49.211Z,,,,,,,,,,,,,,,,53,,,,,,,,,,,,,,371.48599999403814,,response,,,99,,,,,,Space,keypress(Space),,,,,---- -- ----- -- ------ - ------- --- ----------<br>------------- ------ ------ ---- ---- ------- ----- -- ----<br>-------- ------- -- ---------- --- - --- ----- ----- ----<br>---- --- --- ----- --- ---- ---- ------- ----- it's -------<br>--- --- -- ----- -- --- ---- -- --- ---- -- ------ ------<br>--- ----- -- ----,86056.5,86055.59999999404,85667.443,85673.09999999404,85684.114,86067.507,,37,it's
screen,html.Screen,0_2_0_1_38,2021-11-05T11:11:49.595Z,,,,,,,,,,,,,,,,53,,,,,,,,,,,,,,372.09299999404175,,response,,,99,,,,,,Space,keypress(Space),,,,,---- -- ----- -- ------ - ------- --- ----------<br>------------- ------ ------ ---- ---- ------- ----- -- ----<br>-------- ------- -- ---------- --- - --- ----- ----- ----<br>---- --- --- ----- --- ---- ---- ------- ----- ---- whether<br>--- --- -- ----- -- --- ---- -- --- ---- -- ------ ------<br>--- ----- -- ----,86440.39999999106,86439.59999999404,86050.837,86056.69999998808,86067.507,86450.971,,38,whether
screen,html.Screen,0_2_0_1_39,2021-11-05T11:11:49.987Z,,,,,,,,,,,,,,,,53,,,,,,,,,,,,,,380.528999999995,,response,,,99,,,,,,Space,keypress(Space),,,,,---- -- ----- -- ------ - ------- --- ----------<br>------------- ------ ------ ---- ---- ------- ----- -- ----<br>-------- ------- -- ---------- --- - --- ----- ----- ----<br>---- --- --- ----- --- ---- ---- ------- ----- ---- -------<br>you --- -- ----- -- --- ---- -- --- ---- -- ------ ------<br>--- ----- -- ----,86832.39999999106,86831.5,86434.3,86440.69999998808,86450.971,86834.409,,39,you
screen,html.Screen,0_2_0_1_40,2021-11-05T11:11:50.363Z,,,,,,,,,,,,,,,,53,,,,,,,,,,,,,,373.09100000000035,,response,,,99,,,,,,Space,keypress(Space),,,,,---- -- ----- -- ------ - ------- --- ----------<br>------------- ------ ------ ---- ---- ------- ----- -- ----<br>-------- ------- -- ---------- --- - --- ----- ----- ----<br>---- --- --- ----- --- ---- ---- ------- ----- ---- -------<br>--- are -- ----- -- --- ---- -- --- ---- -- ------ ------<br>--- ----- -- ----,87208.29999999702,87207.5,86817.738,86832.59999999404,86834.409,87217.734,,40,are
screen,html.Screen,0_2_0_1_41,2021-11-05T11:11:50.731Z,,,,,,,,,,,,,,,,53,,,,,,,,,,,,,,357.76600000000326,,response,,,99,,,,,,Space,keypress(Space),,,,,---- -- ----- -- ------ - ------- --- ----------<br>------------- ------ ------ ---- ---- ------- ----- -- ----<br>-------- ------- -- ---------- --- - --- ----- ----- ----<br>---- --- --- ----- --- ---- ---- ------- ----- ---- -------<br>--- --- as ----- -- --- ---- -- --- ---- -- ------ ------<br>--- ----- -- ----,87576.29999999702,87575.5,87201.065,87208.59999999404,87217.734,87584.651,,41,as
screen,html.Screen,0_2_0_1_42,2021-11-05T11:11:51.115Z,,,,,,,,,,,,,,,,53,,,,,,,,,,,,,,374.849000000002,,response,,,99,,,,,,Space,keypress(Space),,,,,---- -- ----- -- ------ - ------- --- ----------<br>------------- ------ ------ ---- ---- ------- ----- -- ----<br>-------- ------- -- ---------- --- - --- ----- ----- ----<br>---- --- --- ----- --- ---- ---- ------- ----- ---- -------<br>--- --- -- close -- --- ---- -- --- ---- -- ------ ------<br>--- ----- -- ----,87960.39999999106,87959.5,87567.979,87576.59999999404,87584.651,87968.049,,42,close
screen,html.Screen,0_2_0_1_43,2021-11-05T11:11:51.531Z,,,,,,,,,,,,,,,,53,,,,,,,,,,,,,,407.45100000000093,,response,,,99,,,,,,Space,keypress(Space),,,,,---- -- ----- -- ------ - ------- --- ----------<br>------------- ------ ------ ---- ---- ------- ----- -- ----<br>-------- ------- -- ---------- --- - --- ----- ----- ----<br>---- --- --- ----- --- ---- ---- ------- ----- ---- -------<br>--- --- -- ----- as --- ---- -- --- ---- -- ------ ------<br>--- ----- -- ----,88376.29999999702,88375.5,87951.378,87960.5,87968.049,88384.777,,43,as
screen,html.Screen,0_2_0_1_44,2021-11-05T11:11:51.915Z,,,,,,,,,,,,,,,,53,,,,,,,,,,,,,,374.62299999105744,,response,,,99,,,,,,Space,keypress(Space),,,,,---- -- ----- -- ------ - ------- --- ----------<br>------------- ------ ------ ---- ---- ------- ----- -- ----<br>-------- ------- -- ---------- --- - --- ----- ----- ----<br>---- --- --- ----- --- ---- ---- ------- ----- ---- -------<br>--- --- -- ----- -- you ---- -- --- ---- -- ------ ------<br>--- ----- -- ----,88760.19999998808,88759.39999999106,88368.107,88376.5,88384.777,88768.262,,44,you
screen,html.Screen,0_2_0_1_45,2021-11-05T11:11:52.259Z,,,,,,,,,,,,,,,,53,,,,,,,,,,,,,,335.23799999999756,,response,,,99,,,,,,Space,keypress(Space),,,,,---- -- ----- -- ------ - ------- --- ----------<br>------------- ------ ------ ---- ---- ------- ----- -- ----<br>-------- ------- -- ---------- --- - --- ----- ----- ----<br>---- --- --- ----- --- ---- ---- ------- ----- ---- -------<br>--- --- -- ----- -- --- want -- --- ---- -- ------ ------<br>--- ----- -- ----,89104.29999999702,89103.5,88751.591,88760.39999999106,88768.262,89118.357,,45,want
screen,html.Screen,0_2_0_1_46,2021-11-05T11:11:52.635Z,,,,,,,,,,,,,,,,53,,,,,,,,,,,,,,361.0429999910557,,response,,,99,,,,,,Space,keypress(Space),,,,,---- -- ----- -- ------ - ------- --- ----------<br>------------- ------ ------ ---- ---- ------- ----- -- ----<br>-------- ------- -- ---------- --- - --- ----- ----- ----<br>---- --- --- ----- --- ---- ---- ------- ----- ---- -------<br>--- --- -- ----- -- --- ---- to --- ---- -- ------ ------<br>--- ----- -- ----,89480.19999998808,89479.39999999106,89101.686,89104.5,89118.357,89485.127,,46,to
screen,html.Screen,0_2_0_1_47,2021-11-05T11:11:53.035Z,,,,,,,,,,,,,,,,53,,,,,,,,,,,,,,394.2729999910662,,response,,,99,,,,,,Space,keypress(Space),,,,,"---- -- ----- -- ------ - ------- --- ----------<br>------------- ------ ------ ---- ---- ------- ----- -- ----<br>-------- ------- -- ---------- --- - --- ----- ----- ----<br>---- --- --- ----- --- ---- ---- ------- ----- ---- -------<br>--- --- -- ----- -- --- ---- -- be, ---- -- ------ ------<br>--- ----- -- ----",89880.19999998808,89879.39999999106,89468.456,89480.39999999106,89485.127,89885.238,,47,"be,"
screen,html.Screen,0_2_0_1_48,2021-11-05T11:11:53.362Z,,,,,,,,,,,,,,,,53,,,,,,,,,,,,,,322.0619999970222,,response,,,99,,,,,,Space,keypress(Space),,,,,---- -- ----- -- ------ - ------- --- ----------<br>------------- ------ ------ ---- ---- ------- ----- -- ----<br>-------- ------- -- ---------- --- - --- ----- ----- ----<br>---- --- --- ----- --- ---- ---- ------- ----- ---- -------<br>--- --- -- ----- -- --- ---- -- --- even -- ------ ------<br>--- ----- -- ----,90208.09999999404,90207.29999999702,89868.567,89880.39999999106,89885.238,90218.661,,48,even
screen,html.Screen,0_2_0_1_49,2021-11-05T11:11:53.731Z,,,,,,,,,,,,,,,,53,,,,,,,,,,,,,,356.638999997027,,response,,,99,,,,,,Space,keypress(Space),,,,,---- -- ----- -- ------ - ------- --- ----------<br>------------- ------ ------ ---- ---- ------- ----- -- ----<br>-------- ------- -- ---------- --- - --- ----- ----- ----<br>---- --- --- ----- --- ---- ---- ------- ----- ---- -------<br>--- --- -- ----- -- --- ---- -- --- ---- if ------ ------<br>--- ----- -- ----,90576.19999998808,90575.29999999702,90201.99,90208.29999999702,90218.661,90585.395,,49,if
screen,html.Screen,0_2_0_1_50,2021-11-05T11:11:54.099Z,,,,,,,,,,,,,,,,53,,,,,,,,,,,,,,357.9049999970157,,response,,,99,,,,,,Space,keypress(Space),,,,,---- -- ----- -- ------ - ------- --- ----------<br>------------- ------ ------ ---- ---- ------- ----- -- ----<br>-------- ------- -- ---------- --- - --- ----- ----- ----<br>---- --- --- ----- --- ---- ---- ------- ----- ---- -------<br>--- --- -- ----- -- --- ---- -- --- ---- -- that's ------<br>--- ----- -- ----,90944.19999998808,90943.29999999702,90568.725,90576.39999999106,90585.395,90952.197,,50,that's
screen,html.Screen,0_2_0_1_51,2021-11-05T11:11:54.515Z,,,,,,,,,,,,,,,,53,,,,,,,,,,,,,,407.10299999701965,,response,,,99,,,,,,Space,keypress(Space),,,,,---- -- ----- -- ------ - ------- --- ----------<br>------------- ------ ------ ---- ---- ------- ----- -- ----<br>-------- ------- -- ---------- --- - --- ----- ----- ----<br>---- --- --- ----- --- ---- ---- ------- ----- ---- -------<br>--- --- -- ----- -- --- ---- -- --- ---- -- ------ really<br>--- ----- -- ----,91360.09999999404,91359.29999999702,90935.526,90944.39999999106,90952.197,91368.908,,51,really
screen,html.Screen,0_2_0_1_52,2021-11-05T11:11:54.930Z,,,,,,,,,,,,,,,,53,,,,,,,,,,,,,,406.39199999702396,,response,,,99,,,,,,Space,keypress(Space),,,,,---- -- ----- -- ------ - ------- --- ----------<br>------------- ------ ------ ---- ---- ------- ----- -- ----<br>-------- ------- -- ---------- --- - --- ----- ----- ----<br>---- --- --- ----- --- ---- ---- ------- ----- ---- -------<br>--- --- -- ----- -- --- ---- -- --- ---- -- ------ ------<br>not ----- -- ----,91776.19999998808,91775.29999999702,91352.238,91360.39999999106,91368.908,91785.752,,52,not
screen,html.Screen,0_2_0_1_53,2021-11-05T11:11:55.275Z,,,,,,,,,,,,,,,,53,,,,,,,,,,,,,,333.54799999702664,,response,,,99,,,,,,Space,keypress(Space),,,,,---- -- ----- -- ------ - ------- --- ----------<br>------------- ------ ------ ---- ---- ------- ----- -- ----<br>-------- ------- -- ---------- --- - --- ----- ----- ----<br>---- --- --- ----- --- ---- ---- ------- ----- ---- -------<br>--- --- -- ----- -- --- ---- -- --- ---- -- ------ ------<br>--- close -- ----,92120.09999999404,92119.29999999702,91769.081,91776.39999999106,91785.752,92135.812,,53,close
screen,html.Screen,0_2_0_1_54,2021-11-05T11:11:55.643Z,,,,,,,,,,,,,,,,53,,,,,,,,,,,,,,351.4879999970144,,response,,,99,,,,,,Space,keypress(Space),,,,,---- -- ----- -- ------ - ------- --- ----------<br>------------- ------ ------ ---- ---- ------- ----- -- ----<br>-------- ------- -- ---------- --- - --- ----- ----- ----<br>---- --- --- ----- --- ---- ---- ------- ----- ---- -------<br>--- --- -- ----- -- --- ---- -- --- ---- -- ------ ------<br>--- ----- at ----,92488.09999999404,92487.29999999702,92119.142,92120.29999999702,92135.812,92502.603,,54,at
screen,html.Screen,0_2_0_1_55,2021-11-05T11:11:56.202Z,,,,,,,,,,,,,,,,53,,,,,,,,,,,,,,544.696999997017,,response,,,99,,,,,,Space,keypress(Space),,,,,---- -- ----- -- ------ - ------- --- ----------<br>------------- ------ ------ ---- ---- ------- ----- -- ----<br>-------- ------- -- ---------- --- - --- ----- ----- ----<br>---- --- --- ----- --- ---- ---- ------- ----- ---- -------<br>--- --- -- ----- -- --- ---- -- --- ---- -- ------ ------<br>--- ----- -- all.,93048.09999999404,93047.29999999702,92485.932,92488.29999999702,92502.603,93069.418,,55,all.
Item 99,flow.Loop,0_2_0_1,2021-11-05T11:11:56.207Z,,,,,,,,,,,,,,,,,,,,,,,,,,,,,,26218.57699999702,,completion,,,,C,,,,,,,,,,silence,,93052.5,93047.29999999702,66812.054,66818.59999999404,66828.723,93069.418,,,
Question 1,html.Screen,0_2_0_2,2021-11-05T11:12:01.443Z,,,,,,,,,,,,,,,,,,,,,,,,,,,false,FALSE,,5217.481999991054,,response,,,99,C,,,,,TRUE,click #choice-1,,,,silence,,98288.29999999702,98286.89999999106,93052.747,93052.69999998808,93069.418,98304.035,,,
Question 2,html.Screen,0_2_0_3,2021-11-05T11:12:09.914Z,,,,,,,,,,,,,,,,,,,,,,,,,,,true,TRUE,,8454.464999999997,,response,,,99,C,,,,,TRUE,click #choice-1,,,,silence,,106759.79999999702,106758.5,98287.367,98288.59999999404,98304.035,106773.111,,,
Item 99,flow.Sequence,0_2_0,2021-11-05T11:12:09.915Z,,,,,,,,,,,,,,,,,,,,,,,,,,,,,,49937.241,,completion,,,,,,,,,,,,,,,,106760.29999999702,106758.5,56804.536,56811.09999999404,56821.259,106773.111,,,
Holding screen,html.Screen,0_2_1_0,2021-11-05T11:12:19.914Z,,,,,,,,,,,,,,,,,,,,,,,,,,,,,,10002.485,,timeout,,,,,,,,,,,,,,,,116760,116758.926,106756.44,106760.79999999702,106773.111,116775.596,,,
screen,html.Screen,0_2_1_1_0,2021-11-05T11:12:20.794Z,,,,,,,,,,,,,,,,54,,,,,,,,,,,,,,862.6039999880741,,response,,,100,,,,,,Space,keypress(Space),,,,,At --- ---- --- ------ ----- ------- ---- -- --- ------- --<br>------- ---------- ------ -- ----- -- ----- -- ---- ------<br>--- ----- --- --- ------ -------- ----- --- ------ ----- --<br>----- ----- ---------- --- --- ------ ------ ---- -- ------<br>------- --- ------ ----- --- ---- ------- -- ---- --- --<br>------- ------,117639.09999999404,117638.19999998808,116758.926,116760.39999999106,116775.596,117642.731,,0,At
screen,html.Screen,0_2_1_1_1,2021-11-05T11:12:21.209Z,,,,,,,,,,,,,,,,54,,,,,,,,,,,,,,411.4689999880793,,response,,,100,,,,,,Space,keypress(Space),,,,,-- the ---- --- ------ ----- ------- ---- -- --- ------- --<br>------- ---------- ------ -- ----- -- ----- -- ---- ------<br>--- ----- --- --- ------ -------- ----- --- ------ ----- --<br>----- ----- ---------- --- --- ------ ------ ---- -- ------<br>------- --- ------ ----- --- ---- ------- -- ---- --- --<br>------- ------,118055,118054.19999998808,117626.06,117639.39999999106,117642.731,118059.345,,1,the
screen,html.Screen,0_2_1_1_2,2021-11-05T11:12:21.625Z,,,,,,,,,,,,,,,,54,,,,,,,,,,,,,,410.8549999880779,,response,,,100,,,,,,Space,keypress(Space),,,,,-- --- time --- ------ ----- ------- ---- -- --- ------- --<br>------- ---------- ------ -- ----- -- ----- -- ---- ------<br>--- ----- --- --- ------ -------- ----- --- ------ ----- --<br>----- ----- ---------- --- --- ------ ------ ---- -- ------<br>------- --- ------ ----- --- ---- ------- -- ---- --- --<br>------- ------,118471,118470.19999998808,118042.675,118055.19999998808,118059.345,118476.219,,2,time
screen,html.Screen,0_2_1_1_3,2021-11-05T11:12:22.017Z,,,,,,,,,,,,,,,,54,,,,,,,,,,,,,,385.98099998808175,,response,,,100,,,,,,Space,keypress(Space),,,,,-- --- ---- the ------ ----- ------- ---- -- --- ------- --<br>------- ---------- ------ -- ----- -- ----- -- ---- ------<br>--- ----- --- --- ------ -------- ----- --- ------ ----- --<br>----- ----- ---------- --- --- ------ ------ ---- -- ------<br>------- --- ------ ----- --- ---- ------- -- ---- --- --<br>------- ------,118863,118862.19999998808,118459.548,118471.29999999702,118476.219,118876.418,,3,the
screen,html.Screen,0_2_1_1_4,2021-11-05T11:12:22.425Z,,,,,,,,,,,,,,,,54,,,,,,,,,,,,,,393.78199998807395,,response,,,100,,,,,,Space,keypress(Space),,,,,-- --- ---- --- French ----- ------- ---- -- --- ------- --<br>------- ---------- ------ -- ----- -- ----- -- ---- ------<br>--- ----- --- --- ------ -------- ----- --- ------ ----- --<br>----- ----- ---------- --- --- ------ ------ ---- -- ------<br>------- --- ------ ----- --- ---- ------- -- ---- --- --<br>------- ------,119271,119270.19999998808,118859.746,118863.29999999702,118876.418,119276.48,,4,French
screen,html.Screen,0_2_1_1_5,2021-11-05T11:12:22.817Z,,,,,,,,,,,,,,,,54,,,,,,,,,,,,,,385.71999998808315,,response,,,100,,,,,,Space,keypress(Space),,,,,-- --- ---- --- ------ crown ------- ---- -- --- ------- --<br>------- ---------- ------ -- ----- -- ----- -- ---- ------<br>--- ----- --- --- ------ -------- ----- --- ------ ----- --<br>----- ----- ---------- --- --- ------ ------ ---- -- ------<br>------- --- ------ ----- --- ---- ------- -- ---- --- --<br>------- ------,119663,119662.19999998808,119259.809,119271.19999998808,119276.48,119676.53,,5,crown
screen,html.Screen,0_2_1_1_6,2021-11-05T11:12:23.233Z,,,,,,,,,,,,,,,,54,,,,,,,,,,,,,,401.66999998808024,,response,,,100,,,,,,Space,keypress(Space),,,,,-- --- ---- --- ------ ----- secured ---- -- --- ------- --<br>------- ---------- ------ -- ----- -- ----- -- ---- ------<br>--- ----- --- --- ------ -------- ----- --- ------ ----- --<br>----- ----- ---------- --- --- ------ ------ ---- -- ------<br>------- --- ------ ----- --- ---- ------- -- ---- --- --<br>------- ------,120079,120078.19999998808,119659.86,119663.19999998808,119676.53,120093.357,,6,secured
screen,html.Screen,0_2_1_1_7,2021-11-05T11:12:23.653Z,,,,,,,,,,,,,,,,54,,,,,,,,,,,,,,401.2429999940359,,response,,,100,,,,,,Space,keypress(Space),,,,,-- --- ---- --- ------ ----- ------- much -- --- ------- --<br>------- ---------- ------ -- ----- -- ----- -- ---- ------<br>--- ----- --- --- ------ -------- ----- --- ------ ----- --<br>----- ----- ---------- --- --- ------ ------ ---- -- ------<br>------- --- ------ ----- --- ---- ------- -- ---- --- --<br>------- ------,120495.39999999106,120494.59999999404,120076.686,120080,120093.357,120510.129,,7,much
screen,html.Screen,0_2_1_1_8,2021-11-05T11:12:24.061Z,,,,,,,,,,,,,,,,54,,,,,,,,,,,,,,392.4709999940387,,response,,,100,,,,,,Space,keypress(Space),,,,,-- --- ---- --- ------ ----- ------- ---- of --- ------- --<br>------- ---------- ------ -- ----- -- ----- -- ---- ------<br>--- ----- --- --- ------ -------- ----- --- ------ ----- --<br>----- ----- ---------- --- --- ------ ------ ---- -- ------<br>------- --- ------ ----- --- ---- ------- -- ---- --- --<br>------- ------,120903.29999999702,120902.59999999404,120493.458,120495.59999999404,120510.129,120910.249,,8,of
screen,html.Screen,0_2_1_1_9,2021-11-05T11:12:24.428Z,,,,,,,,,,,,,,,,54,,,,,,,,,,,,,,359.8509999940434,,response,,,100,,,,,,Space,keypress(Space),,,,,-- --- ---- --- ------ ----- ------- ---- -- its ------- --<br>------- ---------- ------ -- ----- -- ----- -- ---- ------<br>--- ----- --- --- ------ -------- ----- --- ------ ----- --<br>----- ----- ---------- --- --- ------ ------ ---- -- ------<br>------- --- ------ ----- --- ---- ------- -- ---- --- --<br>------- ------,121271,121270.09999999404,120893.578,120903.59999999404,120910.249,121276.957,,9,its
screen,html.Screen,0_2_1_1_10,2021-11-05T11:12:24.796Z,,,,,,,,,,,,,,,,54,,,,,,,,,,,,,,361.14299999404466,,response,,,100,,,,,,Space,keypress(Space),,,,,-- --- ---- --- ------ ----- ------- ---- -- --- revenue --<br>------- ---------- ------ -- ----- -- ----- -- ---- ------<br>--- ----- --- --- ------ -------- ----- --- ------ ----- --<br>----- ----- ---------- --- --- ------ ------ ---- -- ------<br>------- --- ------ ----- --- ---- ------- -- ---- --- --<br>------- ------,121638.79999999702,121638.09999999404,121260.287,121271.09999999404,121276.957,121643.781,,10,revenue
screen,html.Screen,0_2_1_1_11,2021-11-05T11:12:25.220Z,,,,,,,,,,,,,,,,54,,,,,,,,,,,,,,418.31899999403686,,response,,,100,,,,,,Space,keypress(Space),,,,,-- --- ---- --- ------ ----- ------- ---- -- --- ------- by<br>------- ---------- ------ -- ----- -- ----- -- ---- ------<br>--- ----- --- --- ------ -------- ----- --- ------ ----- --<br>----- ----- ---------- --- --- ------ ------ ---- -- ------<br>------- --- ------ ----- --- ---- ------- -- ---- --- --<br>------- ------,122062.89999999106,122062.09999999404,121627.11,121639,121643.781,122077.185,,11,by
screen,html.Screen,0_2_1_1_12,2021-11-05T11:12:25.588Z,,,,,,,,,,,,,,,,54,,,,,,,,,,,,,,352.8150000000023,,response,,,100,,,,,,Space,keypress(Space),,,,,-- --- ---- --- ------ ----- ------- ---- -- --- ------- --<br>issuing ---------- ------ -- ----- -- ----- -- ---- ------<br>--- ----- --- --- ------ -------- ----- --- ------ ----- --<br>----- ----- ---------- --- --- ------ ------ ---- -- ------<br>------- --- ------ ----- --- ---- ------- -- ---- --- --<br>------- ------,122430.79999999702,122430,122060.515,122063,122077.185,122443.934,,12,issuing
screen,html.Screen,0_2_1_1_13,2021-11-05T11:12:25.964Z,,,,,,,,,,,,,,,,54,,,,,,,,,,,,,,362.06600000000617,,response,,,100,,,,,,Space,keypress(Space),,,,,-- --- ---- --- ------ ----- ------- ---- -- --- ------- --<br>------- government ------ -- ----- -- ----- -- ---- ------<br>--- ----- --- --- ------ -------- ----- --- ------ ----- --<br>----- ----- ---------- --- --- ------ ------ ---- -- ------<br>------- --- ------ ----- --- ---- ------- -- ---- --- --<br>------- ------,122806.79999999702,122806,122427.264,122431.09999999404,122443.934,122810.754,,13,government
screen,html.Screen,0_2_1_1_14,2021-11-05T11:12:26.388Z,,,,,,,,,,,,,,,,54,,,,,,,,,,,,,,419.2459999999992,,response,,,100,,,,,,Space,keypress(Space),,,,,-- --- ---- --- ------ ----- ------- ---- -- --- ------- --<br>------- ---------- bonds. -- ----- -- ----- -- ---- ------<br>--- ----- --- --- ------ -------- ----- --- ------ ----- --<br>----- ----- ---------- --- --- ------ ------ ---- -- ------<br>------- --- ------ ----- --- ---- ------- -- ---- --- --<br>------- ------,123230.79999999702,123230,122794.083,122807,122810.754,123244.155,,14,bonds.
screen,html.Screen,0_2_1_1_15,2021-11-05T11:12:26.836Z,,,,,,,,,,,,,,,,54,,,,,,,,,,,,,,433.74499999106047,,response,,,100,,,,,,Space,keypress(Space),,,,,-- --- ---- --- ------ ----- ------- ---- -- --- ------- --<br>------- ---------- ------ In ----- -- ----- -- ---- ------<br>--- ----- --- --- ------ -------- ----- --- ------ ----- --<br>----- ----- ---------- --- --- ------ ------ ---- -- ------<br>------- --- ------ ----- --- ---- ------- -- ---- --- --<br>------- ------,123678.69999998808,123677.89999999106,123227.485,123231,123244.155,123694.175,,15,In
screen,html.Screen,0_2_1_1_16,2021-11-05T11:12:27.164Z,,,,,,,,,,,,,,,,54,,,,,,,,,,,,,,311.7249999910564,,response,,,100,,,,,,Space,keypress(Space),,,,,"-- --- ---- --- ------ ----- ------- ---- -- --- ------- --<br>------- ---------- ------ -- 1727, -- ----- -- ---- ------<br>--- ----- --- --- ------ -------- ----- --- ------ ----- --<br>----- ----- ---------- --- --- ------ ------ ---- -- ------<br>------- --- ------ ----- --- ---- ------- -- ---- --- --<br>------- ------",124006.79999999702,124005.89999999106,123677.506,123679,123694.175,124011.167,,16,"1727,"
screen,html.Screen,0_2_1_1_17,2021-11-05T11:12:27.676Z,,,,,,,,,,,,,,,,54,,,,,,,,,,,,,,506.732999991058,,response,,,100,,,,,,Space,keypress(Space),,,,,-- --- ---- --- ------ ----- ------- ---- -- --- ------- --<br>------- ---------- ------ -- ----- in ----- -- ---- ------<br>--- ----- --- --- ------ -------- ----- --- ------ ----- --<br>----- ----- ---------- --- --- ------ ------ ---- -- ------<br>------- --- ------ ----- --- ---- ------- -- ---- --- --<br>------- ------,124519.09999999404,124517.89999999106,123994.494,124007,124011.167,124527.837,,17,in
screen,html.Screen,0_2_1_1_18,2021-11-05T11:12:28.204Z,,,,,,,,,,,,,,,,54,,,,,,,,,,,,,,517.9629999970202,,response,,,100,,,,,,Space,keypress(Space),,,,,-- --- ---- --- ------ ----- ------- ---- -- --- ------- --<br>------- ---------- ------ -- ----- -- order -- ---- ------<br>--- ----- --- --- ------ -------- ----- --- ------ ----- --<br>----- ----- ---------- --- --- ------ ------ ---- -- ------<br>------- --- ------ ----- --- ---- ------- -- ---- --- --<br>------- ------,125046.59999999404,125045.79999999702,124511.167,124519.39999999106,124527.837,125061.352,,18,order
screen,html.Screen,0_2_1_1_19,2021-11-05T11:12:28.556Z,,,,,,,,,,,,,,,,54,,,,,,,,,,,,,,336.4479999970208,,response,,,100,,,,,,Space,keypress(Space),,,,,-- --- ---- --- ------ ----- ------- ---- -- --- ------- --<br>------- ---------- ------ -- ----- -- ----- to ---- ------<br>--- ----- --- --- ------ -------- ----- --- ------ ----- --<br>----- ----- ---------- --- --- ------ ------ ---- -- ------<br>------- --- ------ ----- --- ---- ------- -- ---- --- --<br>------- ------,125398.59999999404,125397.79999999702,125044.681,125046.89999999106,125061.352,125411.389,,19,to
screen,html.Screen,0_2_1_1_20,2021-11-05T11:12:28.956Z,,,,,,,,,,,,,,,,54,,,,,,,,,,,,,,386.4109999970242,,response,,,100,,,,,,Space,keypress(Space),,,,,-- --- ---- --- ------ ----- ------- ---- -- --- ------- --<br>------- ---------- ------ -- ----- -- ----- -- save ------<br>--- ----- --- --- ------ -------- ----- --- ------ ----- --<br>----- ----- ---------- --- --- ------ ------ ---- -- ------<br>------- --- ------ ----- --- ---- ------- -- ---- --- --<br>------- ------,125798.59999999404,125797.79999999702,125394.719,125398.89999999106,125411.389,125811.571,,20,save
screen,html.Screen,0_2_1_1_21,2021-11-05T11:12:29.316Z,,,,,,,,,,,,,,,,54,,,,,,,,,,,,,,346.2289999970235,,response,,,100,,,,,,Space,keypress(Space),,,,,"-- --- ---- --- ------ ----- ------- ---- -- --- ------- --<br>------- ---------- ------ -- ----- -- ----- -- ---- money,<br>--- ----- --- --- ------ -------- ----- --- ------ ----- --<br>----- ----- ---------- --- --- ------ ------ ---- -- ------<br>------- --- ------ ----- --- ---- ------- -- ---- --- --<br>------- ------",126158.5,126157.79999999702,125794.9,125798.79999999702,125811.571,126161.595,,21,"money,"
screen,html.Screen,0_2_1_1_22,2021-11-05T11:12:29.676Z,,,,,,,,,,,,,,,,54,,,,,,,,,,,,,,356.2049999970186,,response,,,100,,,,,,Space,keypress(Space),,,,,-- --- ---- --- ------ ----- ------- ---- -- --- ------- --<br>------- ---------- ------ -- ----- -- ----- -- ---- ------<br>the ----- --- --- ------ -------- ----- --- ------ ----- --<br>----- ----- ---------- --- --- ------ ------ ---- -- ------<br>------- --- ------ ----- --- ---- ------- -- ---- --- --<br>------- ------,126518.59999999404,126517.79999999702,126144.925,126158.79999999702,126161.595,126528.37,,22,the
screen,html.Screen,0_2_1_1_23,2021-11-05T11:12:30.084Z,,,,,,,,,,,,,,,,54,,,,,,,,,,,,,,397.3299999880837,,response,,,100,,,,,,Space,keypress(Space),,,,,-- --- ---- --- ------ ----- ------- ---- -- --- ------- --<br>------- ---------- ------ -- ----- -- ----- -- ---- ------<br>--- state --- --- ------ -------- ----- --- ------ ----- --<br>----- ----- ---------- --- --- ------ ------ ---- -- ------<br>------- --- ------ ----- --- ---- ------- -- ---- --- --<br>------- ------,126926.59999999404,126925.69999998808,126511.7,126518.89999999106,126528.37,126928.531,,23,state
screen,html.Screen,0_2_1_1_24,2021-11-05T11:12:30.460Z,,,,,,,,,,,,,,,,54,,,,,,,,,,,,,,373.2689999970171,,response,,,100,,,,,,Space,keypress(Space),,,,,-- --- ---- --- ------ ----- ------- ---- -- --- ------- --<br>------- ---------- ------ -- ----- -- ----- -- ---- ------<br>--- ----- cut --- ------ -------- ----- --- ------ ----- --<br>----- ----- ---------- --- --- ------ ------ ---- -- ------<br>------- --- ------ ----- --- ---- ------- -- ---- --- --<br>------- ------,127302.5,127301.79999999702,126911.86,126926.89999999106,126928.531,127311.968,,24,cut
screen,html.Screen,0_2_1_1_25,2021-11-05T11:12:30.852Z,,,,,,,,,,,,,,,,54,,,,,,,,,,,,,,381.8319999970263,,response,,,100,,,,,,Space,keypress(Space),,,,,-- --- ---- --- ------ ----- ------- ---- -- --- ------- --<br>------- ---------- ------ -- ----- -- ----- -- ---- ------<br>--- ----- --- the ------ -------- ----- --- ------ ----- --<br>----- ----- ---------- --- --- ------ ------ ---- -- ------<br>------- --- ------ ----- --- ---- ------- -- ---- --- --<br>------- ------,127694.59999999404,127693.79999999702,127295.297,127302.79999999702,127311.968,127712.035,,25,the
screen,html.Screen,0_2_1_1_26,2021-11-05T11:12:31.220Z,,,,,,,,,,,,,,,,54,,,,,,,,,,,,,,349.7649999970163,,response,,,100,,,,,,Space,keypress(Space),,,,,-- --- ---- --- ------ ----- ------- ---- -- --- ------- --<br>------- ---------- ------ -- ----- -- ----- -- ---- ------<br>--- ----- --- --- bonds' -------- ----- --- ------ ----- --<br>----- ----- ---------- --- --- ------ ------ ---- -- ------<br>------- --- ------ ----- --- ---- ------- -- ---- --- --<br>------- ------,128062.59999999404,128061.79999999702,127695.365,127694.79999999702,127712.035,128078.831,,26,bonds'
screen,html.Screen,0_2_1_1_27,2021-11-05T11:12:31.564Z,,,,,,,,,,,,,,,,54,,,,,,,,,,,,,,326.9689999970142,,response,,,100,,,,,,Space,keypress(Space),,,,,-- --- ---- --- ------ ----- ------- ---- -- --- ------- --<br>------- ---------- ------ -- ----- -- ----- -- ---- ------<br>--- ----- --- --- ------ interest ----- --- ------ ----- --<br>----- ----- ---------- --- --- ------ ------ ---- -- ------<br>------- --- ------ ----- --- ---- ------- -- ---- --- --<br>------- ------,128406.5,128405.79999999702,128062.16,128062.79999999702,128078.831,128412.253,,27,interest
screen,html.Screen,0_2_1_1_28,2021-11-05T11:12:31.908Z,,,,,,,,,,,,,,,,54,,,,,,,,,,,,,,337.5469999970228,,response,,,100,,,,,,Space,keypress(Space),,,,,-- --- ---- --- ------ ----- ------- ---- -- --- ------- --<br>------- ---------- ------ -- ----- -- ----- -- ---- ------<br>--- ----- --- --- ------ -------- rate. --- ------ ----- --<br>----- ----- ---------- --- --- ------ ------ ---- -- ------<br>------- --- ------ ----- --- ---- ------- -- ---- --- --<br>------- ------,128750.5,128749.79999999702,128395.582,128406.79999999702,128412.253,128762.36,,28,rate.
screen,html.Screen,0_2_1_1_29,2021-11-05T11:12:32.284Z,,,,,,,,,,,,,,,,54,,,,,,,,,,,,,,363.3399999880785,,response,,,100,,,,,,Space,keypress(Space),,,,,-- --- ---- --- ------ ----- ------- ---- -- --- ------- --<br>------- ---------- ------ -- ----- -- ----- -- ---- ------<br>--- ----- --- --- ------ -------- ----- The ------ ----- --<br>----- ----- ---------- --- --- ------ ------ ---- -- ------<br>------- --- ------ ----- --- ---- ------- -- ---- --- --<br>------- ------,129126.5,129125.69999998808,128745.689,128750.79999999702,128762.36,129129.077,,29,The
screen,html.Screen,0_2_1_1_30,2021-11-05T11:12:32.772Z,,,,,,,,,,,,,,,,54,,,,,,,,,,,,,,484.722999997015,,response,,,100,,,,,,Space,keypress(Space),,,,,-- --- ---- --- ------ ----- ------- ---- -- --- ------- --<br>------- ---------- ------ -- ----- -- ----- -- ---- ------<br>--- ----- --- --- ------ -------- ----- --- market ----- --<br>----- ----- ---------- --- --- ------ ------ ---- -- ------<br>------- --- ------ ----- --- ---- ------- -- ---- --- --<br>------- ------,129614.5,129613.79999999702,129112.407,129126.69999998808,129129.077,129629.269,,30,market
screen,html.Screen,0_2_1_1_31,2021-11-05T11:12:33.092Z,,,,,,,,,,,,,,,,54,,,,,,,,,,,,,,304.43099998807884,,response,,,100,,,,,,Space,keypress(Space),,,,,-- --- ---- --- ------ ----- ------- ---- -- --- ------- --<br>------- ---------- ------ -- ----- -- ----- -- ---- ------<br>--- ----- --- --- ------ -------- ----- --- ------ value --<br>----- ----- ---------- --- --- ------ ------ ---- -- ------<br>------- --- ------ ----- --- ---- ------- -- ---- --- --<br>------- ------,129934.5,129933.69999998808,129612.598,129614.69999998808,129629.269,129945.978,,31,value
screen,html.Screen,0_2_1_1_32,2021-11-05T11:12:33.508Z,,,,,,,,,,,,,,,,54,,,,,,,,,,,,,,403.7219999880763,,response,,,100,,,,,,Space,keypress(Space),,,,,-- --- ---- --- ------ ----- ------- ---- -- --- ------- --<br>------- ---------- ------ -- ----- -- ----- -- ---- ------<br>--- ----- --- --- ------ -------- ----- --- ------ ----- of<br>----- ----- ---------- --- --- ------ ------ ---- -- ------<br>------- --- ------ ----- --- ---- ------- -- ---- --- --<br>------- ------,130350.5,130349.69999998808,129929.308,129934.69999998808,129945.978,130362.781,,32,of
screen,html.Screen,0_2_1_1_33,2021-11-05T11:12:34.092Z,,,,,,,,,,,,,,,,54,,,,,,,,,,,,,,571.3189999940369,,response,,,100,,,,,,Space,keypress(Space),,,,,-- --- ---- --- ------ ----- ------- ---- -- --- ------- --<br>------- ---------- ------ -- ----- -- ----- -- ---- ------<br>--- ----- --- --- ------ -------- ----- --- ------ ----- --<br>these ----- ---------- --- --- ------ ------ ---- -- ------<br>------- --- ------ ----- --- ---- ------- -- ---- --- --<br>------- ------,130934.89999999106,130934.09999999404,130346.11,130350.79999999702,130362.781,130946.223,,33,these
screen,html.Screen,0_2_1_1_34,2021-11-05T11:12:34.460Z,,,,,,,,,,,,,,,,54,,,,,,,,,,,,,,355.3769999940414,,response,,,100,,,,,,Space,keypress(Space),,,,,-- --- ---- --- ------ ----- ------- ---- -- --- ------- --<br>------- ---------- ------ -- ----- -- ----- -- ---- ------<br>--- ----- --- --- ------ -------- ----- --- ------ ----- --<br>----- bonds ---------- --- --- ------ ------ ---- -- ------<br>------- --- ------ ----- --- ---- ------- -- ---- --- --<br>------- ------,131302.5,131301.59999999404,130929.553,130935.09999999404,130946.223,131312.994,,34,bonds
screen,html.Screen,0_2_1_1_35,2021-11-05T11:12:34.900Z,,,,,,,,,,,,,,,,54,,,,,,,,,,,,,,428.705999988073,,response,,,100,,,,,,Space,keypress(Space),,,,,"-- --- ---- --- ------ ----- ------- ---- -- --- ------- --<br>------- ---------- ------ -- ----- -- ----- -- ---- ------<br>--- ----- --- --- ------ -------- ----- --- ------ ----- --<br>----- ----- plummeted, --- --- ------ ------ ---- -- ------<br>------- --- ------ ----- --- ---- ------- -- ---- --- --<br>------- ------",131742.39999999106,131741.69999998808,131296.324,131302.69999998808,131312.994,131746.478,,35,"plummeted,"
screen,html.Screen,0_2_1_1_36,2021-11-05T11:12:35.428Z,,,,,,,,,,,,,,,,54,,,,,,,,,,,,,,523.1219999940367,,response,,,100,,,,,,Space,keypress(Space),,,,,-- --- ---- --- ------ ----- ------- ---- -- --- ------- --<br>------- ---------- ------ -- ----- -- ----- -- ---- ------<br>--- ----- --- --- ------ -------- ----- --- ------ ----- --<br>----- ----- ---------- and --- ------ ------ ---- -- ------<br>------- --- ------ ----- --- ---- ------- -- ---- --- --<br>------- ------,132270.5,132269.59999999404,131729.807,131742.59999999404,131746.478,132279.97,,36,and
screen,html.Screen,0_2_1_1_37,2021-11-05T11:12:35.972Z,,,,,,,,,,,,,,,,54,,,,,,,,,,,,,,533.6299999940384,,response,,,100,,,,,,Space,keypress(Space),,,,,-- --- ---- --- ------ ----- ------- ---- -- --- ------- --<br>------- ---------- ------ -- ----- -- ----- -- ---- ------<br>--- ----- --- --- ------ -------- ----- --- ------ ----- --<br>----- ----- ---------- --- the ------ ------ ---- -- ------<br>------- --- ------ ----- --- ---- ------- -- ---- --- --<br>------- ------,132814.39999999106,132813.59999999404,132263.299,132270.69999998808,132279.97,132829.94,,37,the
screen,html.Screen,0_2_1_1_38,2021-11-05T11:12:36.364Z,,,,,,,,,,,,,,,,54,,,,,,,,,,,,,,375.5599999999977,,response,,,100,,,,,,Space,keypress(Space),,,,,-- --- ---- --- ------ ----- ------- ---- -- --- ------- --<br>------- ---------- ------ -- ----- -- ----- -- ---- ------<br>--- ----- --- --- ------ -------- ----- --- ------ ----- --<br>----- ----- ---------- --- --- market ------ ---- -- ------<br>------- --- ------ ----- --- ---- ------- -- ---- --- --<br>------- ------,133206.29999999702,133205.5,132813.271,132816.09999999404,132829.94,133213.46,,38,market
screen,html.Screen,0_2_1_1_39,2021-11-05T11:12:36.732Z,,,,,,,,,,,,,,,,54,,,,,,,,,,,,,,360.04000000000815,,response,,,100,,,,,,Space,keypress(Space),,,,,-- --- ---- --- ------ ----- ------- ---- -- --- ------- --<br>------- ---------- ------ -- ----- -- ----- -- ---- ------<br>--- ----- --- --- ------ -------- ----- --- ------ ----- --<br>----- ----- ---------- --- --- ------ became ---- -- ------<br>------- --- ------ ----- --- ---- ------- -- ---- --- --<br>------- ------,133574.39999999106,133573.5,133196.79,133206.59999999404,133213.46,133580.262,,39,became
screen,html.Screen,0_2_1_1_40,2021-11-05T11:12:37.108Z,,,,,,,,,,,,,,,,54,,,,,,,,,,,,,,369.33799999405164,,response,,,100,,,,,,Space,keypress(Space),,,,,-- --- ---- --- ------ ----- ------- ---- -- --- ------- --<br>------- ---------- ------ -- ----- -- ----- -- ---- ------<br>--- ----- --- --- ------ -------- ----- --- ------ ----- --<br>----- ----- ---------- --- --- ------ ------ wary -- ------<br>------- --- ------ ----- --- ---- ------- -- ---- --- --<br>------- ------,133950.29999999702,133949.59999999404,133563.591,133574.59999999404,133580.262,133963.826,,40,wary
screen,html.Screen,0_2_1_1_41,2021-11-05T11:12:37.532Z,,,,,,,,,,,,,,,,54,,,,,,,,,,,,,,409.7739999940386,,response,,,100,,,,,,Space,keypress(Space),,,,,-- --- ---- --- ------ ----- ------- ---- -- --- ------- --<br>------- ---------- ------ -- ----- -- ----- -- ---- ------<br>--- ----- --- --- ------ -------- ----- --- ------ ----- --<br>----- ----- ---------- --- --- ------ ------ ---- of ------<br>------- --- ------ ----- --- ---- ------- -- ---- --- --<br>------- ------,134374.29999999702,134373.59999999404,133947.153,133950.5,133963.826,134380.48,,41,of
screen,html.Screen,0_2_1_1_42,2021-11-05T11:12:37.900Z,,,,,,,,,,,,,,,,54,,,,,,,,,,,,,,361.0199999999895,,response,,,100,,,,,,Space,keypress(Space),,,,,-- --- ---- --- ------ ----- ------- ---- -- --- ------- --<br>------- ---------- ------ -- ----- -- ----- -- ---- ------<br>--- ----- --- --- ------ -------- ----- --- ------ ----- --<br>----- ----- ---------- --- --- ------ ------ ---- -- French<br>------- --- ------ ----- --- ---- ------- -- ---- --- --<br>------- ------,134742.39999999106,134741.5,134363.81,134374.59999999404,134380.48,134747.286,,42,French
screen,html.Screen,0_2_1_1_43,2021-11-05T11:12:38.340Z,,,,,,,,,,,,,,,,54,,,,,,,,,,,,,,434.1139999910665,,response,,,100,,,,,,Space,keypress(Space),,,,,-- --- ---- --- ------ ----- ------- ---- -- --- ------- --<br>------- ---------- ------ -- ----- -- ----- -- ---- ------<br>--- ----- --- --- ------ -------- ----- --- ------ ----- --<br>----- ----- ---------- --- --- ------ ------ ---- -- ------<br>credit. --- ------ ----- --- ---- ------- -- ---- --- --<br>------- ------,135182.29999999702,135181.39999999106,134730.615,134742.59999999404,134747.286,135197.407,,43,credit.
screen,html.Screen,0_2_1_1_44,2021-11-05T11:12:38.956Z,,,,,,,,,,,,,,,,54,,,,,,,,,,,,,,600.0929999999935,,response,,,100,,,,,,Space,keypress(Space),,,,,-- --- ---- --- ------ ----- ------- ---- -- --- ------- --<br>------- ---------- ------ -- ----- -- ----- -- ---- ------<br>--- ----- --- --- ------ -------- ----- --- ------ ----- --<br>----- ----- ---------- --- --- ------ ------ ---- -- ------<br>------- The ------ ----- --- ---- ------- -- ---- --- --<br>------- ------,135798.29999999702,135797.5,135180.736,135182.5,135197.407,135814.254,,44,The
screen,html.Screen,0_2_1_1_45,2021-11-05T11:12:39.404Z,,,,,,,,,,,,,,,,54,,,,,,,,,,,,,,431.14599999107304,,response,,,100,,,,,,Space,keypress(Space),,,,,-- --- ---- --- ------ ----- ------- ---- -- --- ------- --<br>------- ---------- ------ -- ----- -- ----- -- ---- ------<br>--- ----- --- --- ------ -------- ----- --- ------ ----- --<br>----- ----- ---------- --- --- ------ ------ ---- -- ------<br>------- --- French ----- --- ---- ------- -- ---- --- --<br>------- ------,136246.19999998808,136245.39999999106,135797.583,135798.59999999404,135814.254,136247.696,,45,French
screen,html.Screen,0_2_1_1_46,2021-11-05T11:12:39.812Z,,,,,,,,,,,,,,,,54,,,,,,,,,,,,,,405.70399999106303,,response,,,100,,,,,,Space,keypress(Space),,,,,-- --- ---- --- ------ ----- ------- ---- -- --- ------- --<br>------- ---------- ------ -- ----- -- ----- -- ---- ------<br>--- ----- --- --- ------ -------- ----- --- ------ ----- --<br>----- ----- ---------- --- --- ------ ------ ---- -- ------<br>------- --- ------ state --- ---- ------- -- ---- --- --<br>------- ------,136654.29999999702,136653.39999999106,136231.025,136246.5,136247.696,136664.48,,46,state
screen,html.Screen,0_2_1_1_47,2021-11-05T11:12:40.195Z,,,,,,,,,,,,,,,,54,,,,,,,,,,,,,,372.9199999910488,,response,,,100,,,,,,Space,keypress(Space),,,,,-- --- ---- --- ------ ----- ------- ---- -- --- ------- --<br>------- ---------- ------ -- ----- -- ----- -- ---- ------<br>--- ----- --- --- ------ -------- ----- --- ------ ----- --<br>----- ----- ---------- --- --- ------ ------ ---- -- ------<br>------- --- ------ ----- was ---- ------- -- ---- --- --<br>------- ------,137038.19999998808,137037.39999999106,136647.809,136654.5,136664.48,137047.879,,47,was
screen,html.Screen,0_2_1_1_48,2021-11-05T11:12:40.676Z,,,,,,,,,,,,,,,,54,,,,,,,,,,,,,,469.4209999970335,,response,,,100,,,,,,Space,keypress(Space),,,,,-- --- ---- --- ------ ----- ------- ---- -- --- ------- --<br>------- ---------- ------ -- ----- -- ----- -- ---- ------<br>--- ----- --- --- ------ -------- ----- --- ------ ----- --<br>----- ----- ---------- --- --- ------ ------ ---- -- ------<br>------- --- ------ ----- --- left ------- -- ---- --- --<br>------- ------,137518.59999999404,137517.29999999702,137031.209,137038.39999999106,137047.879,137531.33,,48,left
screen,html.Screen,0_2_1_1_49,2021-11-05T11:12:41.147Z,,,,,,,,,,,,,,,,54,,,,,,,,,,,,,,457.9699999970326,,response,,,100,,,,,,Space,keypress(Space),,,,,-- --- ---- --- ------ ----- ------- ---- -- --- ------- --<br>------- ---------- ------ -- ----- -- ----- -- ---- ------<br>--- ----- --- --- ------ -------- ----- --- ------ ----- --<br>----- ----- ---------- --- --- ------ ------ ---- -- ------<br>------- --- ------ ----- --- ---- without -- ---- --- --<br>------- ------,137990.09999999404,137989.29999999702,137514.66,137518.89999999106,137531.33,137998.001,,49,without
screen,html.Screen,0_2_1_1_50,2021-11-05T11:12:41.507Z,,,,,,,,,,,,,,,,54,,,,,,,,,,,,,,351.2989999970305,,response,,,100,,,,,,Space,keypress(Space),,,,,-- --- ---- --- ------ ----- ------- ---- -- --- ------- --<br>------- ---------- ------ -- ----- -- ----- -- ---- ------<br>--- ----- --- --- ------ -------- ----- --- ------ ----- --<br>----- ----- ---------- --- --- ------ ------ ---- -- ------<br>------- --- ------ ----- --- ---- ------- an ---- --- --<br>------- ------,138350.09999999404,138349.29999999702,137981.332,137990.39999999106,137998.001,138364.973,,50,an
screen,html.Screen,0_2_1_1_51,2021-11-05T11:12:41.899Z,,,,,,,,,,,,,,,,54,,,,,,,,,,,,,,376.32699999702163,,response,,,100,,,,,,Space,keypress(Space),,,,,-- --- ---- --- ------ ----- ------- ---- -- --- ------- --<br>------- ---------- ------ -- ----- -- ----- -- ---- ------<br>--- ----- --- --- ------ -------- ----- --- ------ ----- --<br>----- ----- ---------- --- --- ------ ------ ---- -- ------<br>------- --- ------ ----- --- ---- ------- -- easy --- --<br>------- ------,138742.19999998808,138741.29999999702,138348.301,138350.29999999702,138364.973,138748.36,,51,easy
screen,html.Screen,0_2_1_1_52,2021-11-05T11:12:42.251Z,,,,,,,,,,,,,,,,54,,,,,,,,,,,,,,344.93999999703374,,response,,,100,,,,,,Space,keypress(Space),,,,,-- --- ---- --- ------ ----- ------- ---- -- --- ------- --<br>------- ---------- ------ -- ----- -- ----- -- ---- ------<br>--- ----- --- --- ------ -------- ----- --- ------ ----- --<br>----- ----- ---------- --- --- ------ ------ ---- -- ------<br>------- --- ------ ----- --- ---- ------- -- ---- way --<br>------- ------,139094.09999999404,139093.29999999702,138731.689,138742.39999999106,138748.36,139098.454,,52,way
screen,html.Screen,0_2_1_1_53,2021-11-05T11:12:42.683Z,,,,,,,,,,,,,,,,54,,,,,,,,,,,,,,426.84599999702186,,response,,,100,,,,,,Space,keypress(Space),,,,,-- --- ---- --- ------ ----- ------- ---- -- --- ------- --<br>------- ---------- ------ -- ----- -- ----- -- ---- ------<br>--- ----- --- --- ------ -------- ----- --- ------ ----- --<br>----- ----- ---------- --- --- ------ ------ ---- -- ------<br>------- --- ------ ----- --- ---- ------- -- ---- --- of<br>------- ------,139526.09999999404,139525.29999999702,139081.783,139094.29999999702,139098.454,139531.907,,53,of
screen,html.Screen,0_2_1_1_54,2021-11-05T11:12:43.179Z,,,,,,,,,,,,,,,,54,,,,,,,,,,,,,,489.29299998807255,,response,,,100,,,,,,Space,keypress(Space),,,,,-- --- ---- --- ------ ----- ------- ---- -- --- ------- --<br>------- ---------- ------ -- ----- -- ----- -- ---- ------<br>--- ----- --- --- ------ -------- ----- --- ------ ----- --<br>----- ----- ---------- --- --- ------ ------ ---- -- ------<br>------- --- ------ ----- --- ---- ------- -- ---- --- --<br>raising ------,140022.19999998808,140021.19999998808,139515.236,139526.39999999106,139531.907,140032.001,,54,raising
screen,html.Screen,0_2_1_1_55,2021-11-05T11:12:43.755Z,,,,,,,,,,,,,,,,54,,,,,,,,,,,,,,565.0989999940502,,response,,,100,,,,,,Space,keypress(Space),,,,,-- --- ---- --- ------ ----- ------- ---- -- --- ------- --<br>------- ---------- ------ -- ----- -- ----- -- ---- ------<br>--- ----- --- --- ------ -------- ----- --- ------ ----- --<br>----- ----- ---------- --- --- ------ ------ ---- -- ------<br>------- --- ------ ----- --- ---- ------- -- ---- --- --<br>------- money.,140597.89999999106,140597.09999999404,140015.331,140022.39999999106,140032.001,140615.526,,55,money.
Item 100,flow.Loop,0_2_1_1,2021-11-05T11:12:43.756Z,,,,,,,,,,,,,,,,,,,,,,,,,,,,,,23821.503999994035,,completion,,,,C,,,,,,,,,,silence,,140598.39999999106,140597.09999999404,116758.926,116760.19999998808,116775.596,140615.526,,,
Question 1,html.Screen,0_2_1_2,2021-11-05T11:12:47.659Z,,,,,,,,,,,,,,,,,,,,,,,,,,,true,TRUE,,3885.3739999910467,,response,,,100,C,,,,,TRUE,click #choice-1,,,,silence,,144502.09999999404,144500.89999999106,140598.855,140598.59999999404,140615.526,144516.579,,,
Question 2,html.Screen,0_2_1_3,2021-11-05T11:12:50.419Z,,,,,,,,,,,,,,,,,,,,,,,,,,,false,FALSE,,2744.120999988081,,response,,,100,C,,,,,TRUE,click #choice-1,,,,silence,,147261.79999999702,147260.69999998808,144499.908,144502.39999999106,144516.579,147267.304,,,
Item 100,flow.Sequence,0_2_1,2021-11-05T11:12:50.420Z,,,,,,,,,,,,,,,,,,,,,,,,,,,,,,40487.588999988075,,completion,,,,,,,,,,,,,,,,147262.29999999702,147260.69999998808,106756.44,106760.59999999404,106773.111,147267.304,,,
End of Practice,html.Page,0_2_2,2021-11-05T11:12:54.084Z,,,,,,,,,,,,,,,,,,,,,,,,,,,,,,3658.795999994036,,form submission,,,,,,,,,,,,,,,,150926.69999998808,150926.09999999404,147250.633,147262.59999999404,147267.304,150934.717,,,
Practice,flow.Sequence,0_2,2021-11-05T11:12:54.084Z,,,,,,,,,,,,,,,,,,,,,,,,,,,,,,94104.84099999405,,completion,,,,,,,,,,,,,,,,150927.09999999404,150926.09999999404,56804.536,56811.09999999404,56821.259,150934.717,,,
Trap_instruction,html.Page,0_3_0,2021-11-05T11:13:03.123Z,,,,,,,,,,,,,,,,,,,,,,,,,,,,,,9030.782999999996,,form submission,,,,,,,,,,,,,,,,159965.89999999106,159965.5,150918.047,150927.39999999106,150934.717,160003.945,,,
trap_trial,html.Screen,0_3_1,2021-11-05T11:13:06.650Z,,,,,,,,,,,,,,,,,,,,,,,,,,,true,1,,3487.9549999910523,,response,,,,,,,,,1,click #choice-1,,,,,,163493.09999999404,163491.89999999106,159953.932,159966.09999999404,160003.945,163504.931,,,
end of trap trial,html.Page,0_3_2,2021-11-05T11:13:08.779Z,,,,,,,,,,,,,,,,,,,,,,,,,,,,,,2116.468999991048,,form submission,,,,,,,,,,,,,,,,165621.79999999702,165621.39999999106,163488.26,163493.39999999106,163504.931,165622.174,,,
Trap 1,flow.Sequence,0_3,2021-11-05T11:13:08.779Z,,,,,,,,,,,,,,,,,,,,,,,,,,,,,,14686.682999991055,,completion,,,,,,,,,,,,,,,,165622.09999999404,165621.39999999106,150918.047,150927.29999999702,150934.717,165622.174,,,
Standby,html.Page,0_4_0,2021-11-05T11:13:16.766Z,,,,,,,,,,,,,,,,,,,,,,,,,,,,,,8002.179999999993,,timeout,,,,,,,,,,,,,,,,173609.09999999404,173607.683,165605.503,165622.39999999106,165622.174,173624.354,,,
Holding screen,html.Screen,0_4_1_0_0,2021-11-05T11:13:23.770Z,,,,,,,,,,,,,,,,,,,,,,,,,,,,,,7001.918000000005,,timeout,,,,,,,,,,,,,,,,180610.79999999702,180609.601,173607.683,173609.5,173624.354,180626.272,,,
screen,html.Screen,0_4_1_0_1_0,2021-11-05T11:13:24.613Z,,,,,,,,,,,,,,,,48,,,,,,,,,,,,,,825.6279999910621,,response,,,10,C,,,,,Space,keypress(Space),,,,instrumental,As -- --- ------ ------- --------- ----------- --------<br>--------- -------- --- ------- -- ------- ---- -- ------<br>-- --- -------- -------- ---------- ---- ---- ---- ------<br>-- --------- -- ---- -- --- -- --- ------- -- - -----<br>---------- -- -- -- ---- ----- -- ------ -- --- ------<br>-------,181452.69999998808,181451.89999999106,180609.601,180611.19999998808,180626.272,181459.674,,0,As
screen,html.Screen,0_4_1_0_1_1,2021-11-05T11:13:24.996Z,,,,,,,,,,,,,,,,48,,,,,,,,,,,,,,375.72599999106023,,response,,,10,C,,,,,Space,keypress(Space),,,,instrumental,-- in --- ------ ------- --------- ----------- --------<br>--------- -------- --- ------- -- ------- ---- -- ------<br>-- --- -------- -------- ---------- ---- ---- ---- ------<br>-- --------- -- ---- -- --- -- --- ------- -- - -----<br>---------- -- -- -- ---- ----- -- ------ -- --- ------<br>-------,181836.29999999702,181835.39999999106,181443.004,181453.09999999404,181459.674,181843.254,,1,in
screen,html.Screen,0_4_1_0_1_2,2021-11-05T11:13:25.500Z,,,,,,,,,,,,,,,,48,,,,,,,,,,,,,,496.14599999107304,,response,,,10,C,,,,,Space,keypress(Space),,,,instrumental,-- -- the ------ ------- --------- ----------- --------<br>--------- -------- --- ------- -- ------- ---- -- ------<br>-- --- -------- -------- ---------- ---- ---- ---- ------<br>-- --------- -- ---- -- --- -- --- ------- -- - -----<br>---------- -- -- -- ---- ----- -- ------ -- --- ------<br>-------,182340.19999998808,182339.39999999106,181826.583,181836.59999999404,181843.254,182343.411,,2,the
screen,html.Screen,0_4_1_0_1_3,2021-11-05T11:13:25.820Z,,,,,,,,,,,,,,,,48,,,,,,,,,,,,,,315.9889999910665,,response,,,10,C,,,,,Space,keypress(Space),,,,instrumental,-- -- --- United ------- --------- ----------- --------<br>--------- -------- --- ------- -- ------- ---- -- ------<br>-- --- -------- -------- ---------- ---- ---- ---- ------<br>-- --------- -- ---- -- --- -- --- ------- -- - -----<br>---------- -- -- -- ---- ----- -- ------ -- --- ------<br>-------,182660.19999998808,182659.39999999106,182326.74,182340.5,182343.411,182676.851,,3,United
screen,html.Screen,0_4_1_0_1_4,2021-11-05T11:13:26.180Z,,,,,,,,,,,,,,,,48,,,,,,,,,,,,,,342.5489999910642,,response,,,10,C,,,,,Space,keypress(Space),,,,instrumental,"-- -- --- ------ States, --------- ----------- --------<br>--------- -------- --- ------- -- ------- ---- -- ------<br>-- --- -------- -------- ---------- ---- ---- ---- ------<br>-- --------- -- ---- -- --- -- --- ------- -- - -----<br>---------- -- -- -- ---- ----- -- ------ -- --- ------<br>-------",183020.5,183019.39999999106,182660.18,182660.59999999404,182676.851,183026.812,,4,"States,"
screen,html.Screen,0_4_1_0_1_5,2021-11-05T11:13:26.596Z,,,,,,,,,,,,,,,,48,,,,,,,,,,,,,,408.58799999105395,,response,,,10,C,,,,,Space,keypress(Space),,,,instrumental,-- -- --- ------ ------- Colombian ----------- --------<br>--------- -------- --- ------- -- ------- ---- -- ------<br>-- --- -------- -------- ---------- ---- ---- ---- ------<br>-- --------- -- ---- -- --- -- --- ------- -- - -----<br>---------- -- -- -- ---- ----- -- ------ -- --- ------<br>-------,183436.19999998808,183435.39999999106,183010.143,183020.79999999702,183026.812,183443.808,,5,Colombian
screen,html.Screen,0_4_1_0_1_6,2021-11-05T11:13:27.044Z,,,,,,,,,,,,,,,,48,,,,,,,,,,,,,,439.4919999970298,,response,,,10,C,,,,,Space,keypress(Space),,,,instrumental,-- -- --- ------ ------- --------- legislation --------<br>--------- -------- --- ------- -- ------- ---- -- ------<br>-- --- -------- -------- ---------- ---- ---- ---- ------<br>-- --------- -- ---- -- --- -- --- ------- -- - -----<br>---------- -- -- -- ---- ----- -- ------ -- --- ------<br>-------,183884.19999998808,183883.29999999702,183427.135,183436.5,183443.808,183893.635,,6,legislation
screen,html.Screen,0_4_1_0_1_7,2021-11-05T11:13:27.604Z,,,,,,,,,,,,,,,,48,,,,,,,,,,,,,,549.6649999970105,,response,,,10,C,,,,,Space,keypress(Space),,,,instrumental,-- -- --- ------ ------- --------- ----------- requires<br>--------- -------- --- ------- -- ------- ---- -- ------<br>-- --- -------- -------- ---------- ---- ---- ---- ------<br>-- --------- -- ---- -- --- -- --- ------- -- - -----<br>---------- -- -- -- ---- ----- -- ------ -- --- ------<br>-------,184444.19999998808,184443.29999999702,183876.967,183884.59999999404,183893.635,184460.703,,7,requires
screen,html.Screen,0_4_1_0_1_8,2021-11-05T11:13:28.028Z,,,,,,,,,,,,,,,,48,,,,,,,,,,,,,,406.59699999701115,,response,,,10,C,,,,,Space,keypress(Space),,,,instrumental,-- -- --- ------ ------- --------- ----------- --------<br>travelers -------- --- ------- -- ------- ---- -- ------<br>-- --- -------- -------- ---------- ---- ---- ---- ------<br>-- --------- -- ---- -- --- -- --- ------- -- - -----<br>---------- -- -- -- ---- ----- -- ------ -- --- ------<br>-------,184868.09999999404,184867.29999999702,184444.031,184444.59999999404,184460.703,184877.423,,8,travelers
screen,html.Screen,0_4_1_0_1_9,2021-11-05T11:13:28.516Z,,,,,,,,,,,,,,,,48,,,,,,,,,,,,,,477.7769999880693,,response,,,10,C,,,,,Space,keypress(Space),,,,instrumental,-- -- --- ------ ------- --------- ----------- --------<br>--------- entering --- ------- -- ------- ---- -- ------<br>-- --- -------- -------- ---------- ---- ---- ---- ------<br>-- --------- -- ---- -- --- -- --- ------- -- - -----<br>---------- -- -- -- ---- ----- -- ------ -- --- ------<br>-------,185356.19999998808,185355.19999998808,184860.752,184868.39999999106,184877.423,185360.889,,9,entering
screen,html.Screen,0_4_1_0_1_10,2021-11-05T11:13:28.932Z,,,,,,,,,,,,,,,,48,,,,,,,,,,,,,,410.21099999404396,,response,,,10,C,,,,,Space,keypress(Space),,,,instrumental,-- -- --- ------ ------- --------- ----------- --------<br>--------- -------- the ------- -- ------- ---- -- ------<br>-- --- -------- -------- ---------- ---- ---- ---- ------<br>-- --------- -- ---- -- --- -- --- ------- -- - -----<br>---------- -- -- -- ---- ----- -- ------ -- --- ------<br>-------,185771.89999999106,185771.09999999404,185344.218,185356.39999999106,185360.889,185777.633,,10,the
screen,html.Screen,0_4_1_0_1_11,2021-11-05T11:13:29.340Z,,,,,,,,,,,,,,,,48,,,,,,,,,,,,,,401.56699998807744,,response,,,10,C,,,,,Space,keypress(Space),,,,instrumental,-- -- --- ------ ------- --------- ----------- --------<br>--------- -------- --- country -- ------- ---- -- ------<br>-- --- -------- -------- ---------- ---- ---- ---- ------<br>-- --------- -- ---- -- --- -- --- ------- -- - -----<br>---------- -- -- -- ---- ----- -- ------ -- --- ------<br>-------,186180.09999999404,186179.19999998808,185760.963,185772.19999998808,185777.633,186194.459,,11,country
screen,html.Screen,0_4_1_0_1_12,2021-11-05T11:13:29.676Z,,,,,,,,,,,,,,,,48,,,,,,,,,,,,,,320.8409999970172,,response,,,10,C,,,,,Space,keypress(Space),,,,instrumental,-- -- --- ------ ------- --------- ----------- --------<br>--------- -------- --- ------- to ------- ---- -- ------<br>-- --- -------- -------- ---------- ---- ---- ---- ------<br>-- --------- -- ---- -- --- -- --- ------- -- - -----<br>---------- -- -- -- ---- ----- -- ------ -- --- ------<br>-------,186516,186515.29999999702,186177.788,186180.39999999106,186194.459,186527.814,,12,to
screen,html.Screen,0_4_1_0_1_13,2021-11-05T11:13:30.204Z,,,,,,,,,,,,,,,,48,,,,,,,,,,,,,,515.385999988066,,response,,,10,C,,,,,Space,keypress(Space),,,,instrumental,-- -- --- ------ ------- --------- ----------- --------<br>--------- -------- --- ------- -- declare ---- -- ------<br>-- --- -------- -------- ---------- ---- ---- ---- ------<br>-- --------- -- ---- -- --- -- --- ------- -- - -----<br>---------- -- -- -- ---- ----- -- ------ -- --- ------<br>-------,187044.09999999404,187043.19999998808,186511.144,186516.29999999702,186527.814,187061.368,,13,declare
screen,html.Screen,0_4_1_0_1_14,2021-11-05T11:13:30.556Z,,,,,,,,,,,,,,,,48,,,,,,,,,,,,,,333.8319999880914,,response,,,10,C,,,,,Space,keypress(Space),,,,instrumental,-- -- --- ------ ------- --------- ----------- --------<br>--------- -------- --- ------- -- ------- cash -- ------<br>-- --- -------- -------- ---------- ---- ---- ---- ------<br>-- --------- -- ---- -- --- -- --- ------- -- - -----<br>---------- -- -- -- ---- ----- -- ------ -- --- ------<br>-------,187396,187395.19999998808,187044.697,187044.39999999106,187061.368,187411.397,,14,cash
screen,html.Screen,0_4_1_0_1_15,2021-11-05T11:13:30.980Z,,,,,,,,,,,,,,,,48,,,,,,,,,,,,,,407.80299998808187,,response,,,10,C,,,,,Space,keypress(Space),,,,instrumental,-- -- --- ------ ------- --------- ----------- --------<br>--------- -------- --- ------- -- ------- ---- in ------<br>-- --- -------- -------- ---------- ---- ---- ---- ------<br>-- --------- -- ---- -- --- -- --- ------- -- - -----<br>---------- -- -- -- ---- ----- -- ------ -- --- ------<br>-------,187820,187819.19999998808,187394.727,187396.29999999702,187411.397,187828.216,,15,in
screen,html.Screen,0_4_1_0_1_16,2021-11-05T11:13:31.444Z,,,,,,,,,,,,,,,,48,,,,,,,,,,,,,,454.9839999880933,,response,,,10,C,,,,,Space,keypress(Space),,,,instrumental,-- -- --- ------ ------- --------- ----------- --------<br>--------- -------- --- ------- -- ------- ---- -- excess<br>-- --- -------- -------- ---------- ---- ---- ---- ------<br>-- --------- -- ---- -- --- -- --- ------- -- - -----<br>---------- -- -- -- ---- ----- -- ------ -- --- ------<br>-------,188283.89999999106,188283.19999998808,187811.545,187820.29999999702,187828.216,188295.02,,16,excess
screen,html.Screen,0_4_1_0_1_17,2021-11-05T11:13:31.844Z,,,,,,,,,,,,,,,,48,,,,,,,,,,,,,,388.07999999405,,response,,,10,C,,,,,Space,keypress(Space),,,,instrumental,-- -- --- ------ ------- --------- ----------- --------<br>--------- -------- --- ------- -- ------- ---- -- ------<br>of --- -------- -------- ---------- ---- ---- ---- ------<br>-- --------- -- ---- -- --- -- --- ------- -- - -----<br>---------- -- -- -- ---- ----- -- ------ -- --- ------<br>-------,188683.89999999106,188683.09999999404,188278.349,188284.09999999404,188295.02,188694.992,,17,of
screen,html.Screen,0_4_1_0_1_18,2021-11-05T11:13:32.268Z,,,,,,,,,,,,,,,,48,,,,,,,,,,,,,,412.10799999404117,,response,,,10,C,,,,,Space,keypress(Space),,,,instrumental,-- -- --- ------ ------- --------- ----------- --------<br>--------- -------- --- ------- -- ------- ---- -- ------<br>-- ten -------- -------- ---------- ---- ---- ---- ------<br>-- --------- -- ---- -- --- -- --- ------- -- - -----<br>---------- -- -- -- ---- ----- -- ------ -- --- ------<br>-------,189107.89999999106,189107.09999999404,188678.323,188684.09999999404,188694.992,189111.913,,18,ten
screen,html.Screen,0_4_1_0_1_19,2021-11-05T11:13:32.731Z,,,,,,,,,,,,,,,,48,,,,,,,,,,,,,,458.98699999105884,,response,,,10,C,,,,,Space,keypress(Space),,,,instrumental,-- -- --- ------ ------- --------- ----------- --------<br>--------- -------- --- ------- -- ------- ---- -- ------<br>-- --- thousand -------- ---------- ---- ---- ---- ------<br>-- --------- -- ---- -- --- -- --- ------- -- - -----<br>---------- -- -- -- ---- ----- -- ------ -- --- ------<br>-------,189571.79999999702,189570.89999999106,189095.242,189108.09999999404,189111.913,189578.686,,19,thousand
screen,html.Screen,0_4_1_0_1_20,2021-11-05T11:13:33.100Z,,,,,,,,,,,,,,,,48,,,,,,,,,,,,,,360.4139999940526,,response,,,10,C,,,,,Space,keypress(Space),,,,instrumental,-- -- --- ------ ------- --------- ----------- --------<br>--------- -------- --- ------- -- ------- ---- -- ------<br>-- --- -------- dollars. ---------- ---- ---- ---- ------<br>-- --------- -- ---- -- --- -- --- ------- -- - -----<br>---------- -- -- -- ---- ----- -- ------ -- --- ------<br>-------,189939.79999999702,189939.09999999404,189562.015,189572,189578.686,189945.453,,20,dollars.
screen,html.Screen,0_4_1_0_1_21,2021-11-05T11:13:34.068Z,,,,,,,,,,,,,,,,48,,,,,,,,,,,,,,961.5469999999914,,response,,,10,C,,,,,Space,keypress(Space),,,,instrumental,-- -- --- ------ ------- --------- ----------- --------<br>--------- -------- --- ------- -- ------- ---- -- ------<br>-- --- -------- -------- Concealing ---- ---- ---- ------<br>-- --------- -- ---- -- --- -- --- ------- -- - -----<br>---------- -- -- -- ---- ----- -- ------ -- --- ------<br>-------,190908,190907,189928.782,189940.09999999404,189945.453,190912.376,,21,Concealing
screen,html.Screen,0_4_1_0_1_22,2021-11-05T11:13:34.556Z,,,,,,,,,,,,,,,,48,,,,,,,,,,,,,,482.6240000000107,,response,,,10,C,,,,,Space,keypress(Space),,,,instrumental,-- -- --- ------ ------- --------- ----------- --------<br>--------- -------- --- ------- -- ------- ---- -- ------<br>-- --- -------- -------- ---------- more ---- ---- ------<br>-- --------- -- ---- -- --- -- --- ------- -- - -----<br>---------- -- -- -- ---- ----- -- ------ -- --- ------<br>-------,191395.79999999702,191395,190895.705,190908.19999998808,190912.376,191412.514,,22,more
screen,html.Screen,0_4_1_0_1_23,2021-11-05T11:13:34.957Z,,,,,,,,,,,,,,,,48,,,,,,,,,,,,,,382.8859999910637,,response,,,10,C,,,,,Space,keypress(Space),,,,instrumental,-- -- --- ------ ------- --------- ----------- --------<br>--------- -------- --- ------- -- ------- ---- -- ------<br>-- --- -------- -------- ---------- ---- than ---- ------<br>-- --------- -- ---- -- --- -- --- ------- -- - -----<br>---------- -- -- -- ---- ----- -- ------ -- --- ------<br>-------,191797.39999999106,191795.39999999106,191395.843,191396.09999999404,191412.514,191812.586,,23,than
screen,html.Screen,0_4_1_0_1_24,2021-11-05T11:13:35.411Z,,,,,,,,,,,,,,,,48,,,,,,,,,,,,,,438.31399999104906,,response,,,10,C,,,,,Space,keypress(Space),,,,instrumental,-- -- --- ------ ------- --------- ----------- --------<br>--------- -------- --- ------- -- ------- ---- -- ------<br>-- --- -------- -------- ---------- ---- ---- that ------<br>-- --------- -- ---- -- --- -- --- ------- -- - -----<br>---------- -- -- -- ---- ----- -- ------ -- --- ------<br>-------,192251.59999999404,192250.89999999106,191795.916,191797.69999998808,191812.586,192262.742,,24,that
screen,html.Screen,0_4_1_0_1_25,2021-11-05T11:13:35.835Z,,,,,,,,,,,,,,,,48,,,,,,,,,,,,,,412.25800000000163,,response,,,10,C,,,,,Space,keypress(Space),,,,instrumental,-- -- --- ------ ------- --------- ----------- --------<br>--------- -------- --- ------- -- ------- ---- -- ------<br>-- --- -------- -------- ---------- ---- ---- ---- amount<br>-- --------- -- ---- -- --- -- --- ------- -- - -----<br>---------- -- -- -- ---- ----- -- ------ -- --- ------<br>-------,192675.79999999702,192675,192246.071,192251.89999999106,192262.742,192679.382,,25,amount
screen,html.Screen,0_4_1_0_1_26,2021-11-05T11:13:36.299Z,,,,,,,,,,,,,,,,48,,,,,,,,,,,,,,459.51799999104696,,response,,,10,C,,,,,Space,keypress(Space),,,,instrumental,-- -- --- ------ ------- --------- ----------- --------<br>--------- -------- --- ------- -- ------- ---- -- ------<br>-- --- -------- -------- ---------- ---- ---- ---- ------<br>to --------- -- ---- -- --- -- --- ------- -- - -----<br>---------- -- -- -- ---- ----- -- ------ -- --- ------<br>-------,193139.69999998808,193138.89999999106,192662.713,192676,192679.382,193146.27,,26,to
screen,html.Screen,0_4_1_0_1_27,2021-11-05T11:13:36.731Z,,,,,,,,,,,,,,,,48,,,,,,,,,,,,,,424.52999999703025,,response,,,10,C,,,,,Space,keypress(Space),,,,instrumental,-- -- --- ------ ------- --------- ----------- --------<br>--------- -------- --- ------- -- ------- ---- -- ------<br>-- --- -------- -------- ---------- ---- ---- ---- ------<br>-- transport -- ---- -- --- -- --- ------- -- - -----<br>---------- -- -- -- ---- ----- -- ------ -- --- ------<br>-------,193571.59999999404,193570.79999999702,193129.599,193140,193146.27,193579.812,,27,transport
screen,html.Screen,0_4_1_0_1_28,2021-11-05T11:13:37.235Z,,,,,,,,,,,,,,,,48,,,,,,,,,,,,,,495.08799999105395,,response,,,10,C,,,,,Space,keypress(Space),,,,instrumental,-- -- --- ------ ------- --------- ----------- --------<br>--------- -------- --- ------- -- ------- ---- -- ------<br>-- --- -------- -------- ---------- ---- ---- ---- ------<br>-- --------- it ---- -- --- -- --- ------- -- - -----<br>---------- -- -- -- ---- ----- -- ------ -- --- ------<br>-------,194075.69999998808,194074.89999999106,193563.14,193571.79999999702,193579.812,194079.744,,28,it
screen,html.Screen,0_4_1_0_1_29,2021-11-05T11:13:37.699Z,,,,,,,,,,,,,,,,48,,,,,,,,,,,,,,459.0559999970137,,response,,,10,C,,,,,Space,keypress(Space),,,,instrumental,-- -- --- ------ ------- --------- ----------- --------<br>--------- -------- --- ------- -- ------- ---- -- ------<br>-- --- -------- -------- ---------- ---- ---- ---- ------<br>-- --------- -- into -- --- -- --- ------- -- - -----<br>---------- -- -- -- ---- ----- -- ------ -- --- ------<br>-------,194539.69999998808,194538.79999999702,194063.075,194075.89999999106,194079.744,194546.771,,29,into
screen,html.Screen,0_4_1_0_1_30,2021-11-05T11:13:38.171Z,,,,,,,,,,,,,,,,48,,,,,,,,,,,,,,463.92899998807115,,response,,,10,C,,,,,Space,keypress(Space),,,,instrumental,-- -- --- ------ ------- --------- ----------- --------<br>--------- -------- --- ------- -- ------- ---- -- ------<br>-- --- -------- -------- ---------- ---- ---- ---- ------<br>-- --------- -- ---- or --- -- --- ------- -- - -----<br>---------- -- -- -- ---- ----- -- ------ -- --- ------<br>-------,195011.5,195010.69999998808,194530.099,194539.89999999106,194546.771,195013.483,,30,or
screen,html.Screen,0_4_1_0_1_31,2021-11-05T11:13:38.611Z,,,,,,,,,,,,,,,,48,,,,,,,,,,,,,,437.2169999880716,,response,,,10,C,,,,,Space,keypress(Space),,,,instrumental,-- -- --- ------ ------- --------- ----------- --------<br>--------- -------- --- ------- -- ------- ---- -- ------<br>-- --- -------- -------- ---------- ---- ---- ---- ------<br>-- --------- -- ---- -- out -- --- ------- -- - -----<br>---------- -- -- -- ---- ----- -- ------ -- --- ------<br>-------,195451.5,195450.69999998808,194996.812,195011.79999999702,195013.483,195463.46,,31,out
screen,html.Screen,0_4_1_0_1_32,2021-11-05T11:13:39.028Z,,,,,,,,,,,,,,,,48,,,,,,,,,,,,,,403.7399999880872,,response,,,10,C,,,,,Space,keypress(Space),,,,instrumental,-- -- --- ------ ------- --------- ----------- --------<br>--------- -------- --- ------- -- ------- ---- -- ------<br>-- --- -------- -------- ---------- ---- ---- ---- ------<br>-- --------- -- ---- -- --- of --- ------- -- - -----<br>---------- -- -- -- ---- ----- -- ------ -- --- ------<br>-------,195868,195867.19999998808,195446.791,195451.69999998808,195463.46,195880.44,,32,of
screen,html.Screen,0_4_1_0_1_33,2021-11-05T11:13:39.355Z,,,,,,,,,,,,,,,,48,,,,,,,,,,,,,,314.35999999701744,,response,,,10,C,,,,,Space,keypress(Space),,,,instrumental,-- -- --- ------ ------- --------- ----------- --------<br>--------- -------- --- ------- -- ------- ---- -- ------<br>-- --- -------- -------- ---------- ---- ---- ---- ------<br>-- --------- -- ---- -- --- -- the ------- -- - -----<br>---------- -- -- -- ---- ----- -- ------ -- --- ------<br>-------,196195.59999999404,196194.79999999702,195863.768,195868.29999999702,195880.44,196197.017,,33,the
screen,html.Screen,0_4_1_0_1_34,2021-11-05T11:13:39.772Z,,,,,,,,,,,,,,,,48,,,,,,,,,,,,,,414.082999994047,,response,,,10,C,,,,,Space,keypress(Space),,,,instrumental,-- -- --- ------ ------- --------- ----------- --------<br>--------- -------- --- ------- -- ------- ---- -- ------<br>-- --- -------- -------- ---------- ---- ---- ---- ------<br>-- --------- -- ---- -- --- -- --- country -- - -----<br>---------- -- -- -- ---- ----- -- ------ -- --- ------<br>-------,196612,196611.09999999404,196180.348,196195.79999999702,196197.017,196614.006,,34,country
screen,html.Screen,0_4_1_0_1_35,2021-11-05T11:13:40.163Z,,,,,,,,,,,,,,,,48,,,,,,,,,,,,,,388.6939999880851,,response,,,10,C,,,,,Space,keypress(Space),,,,instrumental,-- -- --- ------ ------- --------- ----------- --------<br>--------- -------- --- ------- -- ------- ---- -- ------<br>-- --- -------- -------- ---------- ---- ---- ---- ------<br>-- --------- -- ---- -- --- -- --- ------- is - -----<br>---------- -- -- -- ---- ----- -- ------ -- --- ------<br>-------,197003.59999999404,197002.69999998808,196597.333,196612.19999998808,196614.006,197013.852,,35,is
screen,html.Screen,0_4_1_0_1_36,2021-11-05T11:13:40.611Z,,,,,,,,,,,,,,,,48,,,,,,,,,,,,,,436.74799999402603,,response,,,10,C,,,,,Space,keypress(Space),,,,instrumental,-- -- --- ------ ------- --------- ----------- --------<br>--------- -------- --- ------- -- ------- ---- -- ------<br>-- --- -------- -------- ---------- ---- ---- ---- ------<br>-- --------- -- ---- -- --- -- --- ------- -- a -----<br>---------- -- -- -- ---- ----- -- ------ -- --- ------<br>-------,197451.39999999106,197450.59999999404,196997.184,197003.69999998808,197013.852,197464.141,,36,a
screen,html.Screen,0_4_1_0_1_37,2021-11-05T11:13:42.395Z,,,,,,,,,,,,,,,,48,,,,,,,,,,,,,,1770.5589999880758,,response,,,10,C,,,,,Space,keypress(Space),,,,instrumental,-- -- --- ------ ------- --------- ----------- --------<br>--------- -------- --- ------- -- ------- ---- -- ------<br>-- --- -------- -------- ---------- ---- ---- ---- ------<br>-- --------- -- ---- -- --- -- --- ------- -- - crime<br>---------- -- -- -- ---- ----- -- ------ -- --- ------<br>-------,199235.5,199234.69999998808,197447.47,197451.69999998808,197464.141,199247.925,,37,crime
screen,html.Screen,0_4_1_0_1_38,2021-11-05T11:13:43.699Z,,,,,,,,,,,,,,,,48,,,,,,,,,,,,,,1290.6749999940512,,response,,,10,C,,,,,Space,keypress(Space),,,,instrumental,-- -- --- ------ ------- --------- ----------- --------<br>--------- -------- --- ------- -- ------- ---- -- ------<br>-- --- -------- -------- ---------- ---- ---- ---- ------<br>-- --------- -- ---- -- --- -- --- ------- -- - -----<br>punishable -- -- -- ---- ----- -- ------ -- --- ------<br>-------,200539.39999999106,200538.59999999404,199231.254,199235.79999999702,199247.925,200548.311,,38,punishable
screen,html.Screen,0_4_1_0_1_39,2021-11-05T11:13:44.163Z,,,,,,,,,,,,,,,,48,,,,,,,,,,,,,,454.2889999940526,,response,,,10,C,,,,,Space,keypress(Space),,,,instrumental,-- -- --- ------ ------- --------- ----------- --------<br>--------- -------- --- ------- -- ------- ---- -- ------<br>-- --- -------- -------- ---------- ---- ---- ---- ------<br>-- --------- -- ---- -- --- -- --- ------- -- - -----<br>---------- by -- -- ---- ----- -- ------ -- --- ------<br>-------,201003.39999999106,201002.59999999404,200531.64,200539.59999999404,200548.311,201015.084,,39,by
screen,html.Screen,0_4_1_0_1_40,2021-11-05T11:13:44.731Z,,,,,,,,,,,,,,,,48,,,,,,,,,,,,,,555.3159999910567,,response,,,10,C,,,,,Space,keypress(Space),,,,instrumental,-- -- --- ------ ------- --------- ----------- --------<br>--------- -------- --- ------- -- ------- ---- -- ------<br>-- --- -------- -------- ---------- ---- ---- ---- ------<br>-- --------- -- ---- -- --- -- --- ------- -- - -----<br>---------- -- up -- ---- ----- -- ------ -- --- ------<br>-------,201571.09999999404,201570.39999999106,200998.413,201003.59999999404,201015.084,201581.911,,40,up
screen,html.Screen,0_4_1_0_1_41,2021-11-05T11:13:45.068Z,,,,,,,,,,,,,,,,48,,,,,,,,,,,,,,324.9889999910665,,response,,,10,C,,,,,Space,keypress(Space),,,,instrumental,-- -- --- ------ ------- --------- ----------- --------<br>--------- -------- --- ------- -- ------- ---- -- ------<br>-- --- -------- -------- ---------- ---- ---- ---- ------<br>-- --------- -- ---- -- --- -- --- ------- -- - -----<br>---------- -- -- to ---- ----- -- ------ -- --- ------<br>-------,201907.79999999702,201906.89999999106,201565.24,201571.39999999106,201581.911,201915.338,,41,to
screen,html.Screen,0_4_1_0_1_42,2021-11-05T11:13:45.555Z,,,,,,,,,,,,,,,,48,,,,,,,,,,,,,,479.2619999940507,,response,,,10,C,,,,,Space,keypress(Space),,,,instrumental,-- -- --- ------ ------- --------- ----------- --------<br>--------- -------- --- ------- -- ------- ---- -- ------<br>-- --- -------- -------- ---------- ---- ---- ---- ------<br>-- --------- -- ---- -- --- -- --- ------- -- - -----<br>---------- -- -- -- five ----- -- ------ -- --- ------<br>-------,202395.29999999702,202394.59999999404,201898.667,201908.09999999404,201915.338,202398.659,,42,five
screen,html.Screen,0_4_1_0_1_43,2021-11-05T11:13:45.947Z,,,,,,,,,,,,,,,,48,,,,,,,,,,,,,,387.8409999999858,,response,,,10,C,,,,,Space,keypress(Space),,,,instrumental,-- -- --- ------ ------- --------- ----------- --------<br>--------- -------- --- ------- -- ------- ---- -- ------<br>-- --- -------- -------- ---------- ---- ---- ---- ------<br>-- --------- -- ---- -- --- -- --- ------- -- - -----<br>---------- -- -- -- ---- years -- ------ -- --- ------<br>-------,202787.29999999702,202786.5,202381.99,202395.5,202398.659,202799.038,,43,years
screen,html.Screen,0_4_1_0_1_44,2021-11-05T11:13:46.355Z,,,,,,,,,,,,,,,,48,,,,,,,,,,,,,,395.46199999999953,,response,,,10,C,,,,,Space,keypress(Space),,,,instrumental,-- -- --- ------ ------- --------- ----------- --------<br>--------- -------- --- ------- -- ------- ---- -- ------<br>-- --- -------- -------- ---------- ---- ---- ---- ------<br>-- --------- -- ---- -- --- -- --- ------- -- - -----<br>---------- -- -- -- ---- ----- in ------ -- --- ------<br>-------,203195.29999999702,203194.5,202782.365,202787.5,202799.038,203198.975,,44,in
screen,html.Screen,0_4_1_0_1_45,2021-11-05T11:13:46.707Z,,,,,,,,,,,,,,,,48,,,,,,,,,,,,,,347.5249999999942,,response,,,10,C,,,,,Space,keypress(Space),,,,instrumental,-- -- --- ------ ------- --------- ----------- --------<br>--------- -------- --- ------- -- ------- ---- -- ------<br>-- --- -------- -------- ---------- ---- ---- ---- ------<br>-- --------- -- ---- -- --- -- --- ------- -- - -----<br>---------- -- -- -- ---- ----- -- prison -- --- ------<br>-------,203547.29999999702,203546.5,203182.305,203195.5,203198.975,203549.132,,45,prison
screen,html.Screen,0_4_1_0_1_46,2021-11-05T11:13:47.083Z,,,,,,,,,,,,,,,,48,,,,,,,,,,,,,,373.26799999104696,,response,,,10,C,,,,,Space,keypress(Space),,,,instrumental,-- -- --- ------ ------- --------- ----------- --------<br>--------- -------- --- ------- -- ------- ---- -- ------<br>-- --- -------- -------- ---------- ---- ---- ---- ------<br>-- --------- -- ---- -- --- -- --- ------- -- - -----<br>---------- -- -- -- ---- ----- -- ------ in --- ------<br>-------,203923.19999998808,203922.39999999106,203532.461,203547.59999999404,203549.132,203932.52,,46,in
screen,html.Screen,0_4_1_0_1_47,2021-11-05T11:13:47.563Z,,,,,,,,,,,,,,,,48,,,,,,,,,,,,,,469.8799999910698,,response,,,10,C,,,,,Space,keypress(Space),,,,instrumental,-- -- --- ------ ------- --------- ----------- --------<br>--------- -------- --- ------- -- ------- ---- -- ------<br>-- --- -------- -------- ---------- ---- ---- ---- ------<br>-- --------- -- ---- -- --- -- --- ------- -- - -----<br>---------- -- -- -- ---- ----- -- ------ -- the ------<br>-------,204403.29999999702,204402.39999999106,203915.85,203923.5,203932.52,204416.026,,47,the
screen,html.Screen,0_4_1_0_1_48,2021-11-05T11:13:48.203Z,,,,,,,,,,,,,,,,48,,,,,,,,,,,,,,626.3739999910467,,response,,,10,C,,,,,Space,keypress(Space),,,,instrumental,-- -- --- ------ ------- --------- ----------- --------<br>--------- -------- --- ------- -- ------- ---- -- ------<br>-- --- -------- -------- ---------- ---- ---- ---- ------<br>-- --------- -- ---- -- --- -- --- ------- -- - -----<br>---------- -- -- -- ---- ----- -- ------ -- --- United<br>-------,205043.19999998808,205042.39999999106,204399.355,204403.5,204416.026,205049.279,,48,United
screen,html.Screen,0_4_1_0_1_49,2021-11-05T11:13:48.883Z,,,,,,,,,,,,,,,,48,,,,,,,,,,,,,,673.1209999910498,,response,,,10,C,,,,,Space,keypress(Space),,,,instrumental,-- -- --- ------ ------- --------- ----------- --------<br>--------- -------- --- ------- -- ------- ---- -- ------<br>-- --- -------- -------- ---------- ---- ---- ---- ------<br>-- --------- -- ---- -- --- -- --- ------- -- - -----<br>---------- -- -- -- ---- ----- -- ------ -- --- ------<br>States.,205723.19999998808,205722.39999999106,205032.611,205043.5,205049.279,205733.114,,49,States.
Item 10,flow.Loop,0_4_1_0_1,2021-11-05T11:13:48.883Z,,,,,,,,,,,,,,,,,,,,,,,,,,,,,,25096.127999991062,,completion,,,,,,,,,,,,,,,,205723.59999999404,205722.39999999106,180609.601,180611.09999999404,180626.272,205733.114,,,
Question 1,html.Screen,0_4_1_0_2,2021-11-05T11:13:57.707Z,,,,,,,,,,,,,,,,,,,,,,,,,,,true,TRUE,,8812.685999997018,,response,,,10,C,,,,,TRUE,click #choice-1,,,,instrumental,,214547,214545.79999999702,205716.442,205723.79999999702,205733.114,214552.536,,,
Question 2,html.Screen,0_4_1_0_3,2021-11-05T11:14:01.706Z,,,,,,,,,,,,,,,,,,,,,,,,,,,true,TRUE,,3993.0639999940468,,response,,,10,C,,,,,TRUE,click #choice-1,,,,instrumental,,218546.69999998808,218545.59999999404,214535.85,214547.19999998808,214552.536,218553.039,,,
Item 10,flow.Sequence,0_4_1_0,2021-11-05T11:14:01.708Z,,,,,,,,,,,,,,,,,,,,,,,,,,,,,,44921.24599999405,,completion,,,,,,,,,,,,,,,,218548.39999999106,218545.59999999404,173607.683,173609.39999999106,173624.354,218553.039,,,
Holding screen,html.Screen,0_4_1_1_0,2021-11-05T11:14:08.699Z,,,,,,,,,,,,,,,,,,,,,,,,,,,,,,7001.813000000024,,timeout,,,,,,,,,,,,,,,,225539.29999999702,225538.182,218536.369,218548.69999998808,218553.039,225554.852,,,
screen,html.Screen,0_4_1_1_1_0,2021-11-05T11:14:10.083Z,,,,,,,,,,,,,,,,15,,,,,,,,,,,,,,1367.1479999999865,,response,,,7,C,,,,,Space,keypress(Space),,,,instrumental,Greg --------- ---------- - --- ------- -- --- ------------<br>----- -- -------- ------- ---- ------ - -------- ---- -----<br>--- ------- ---- -- --- -------- --- - ----- ------ ---- --<br>-------- --- -------- -------- --- -------- ---- -- ----- -<br>-------- ---- --- ---------- --------- -- ------- ------ -<br>--------- ----- -----,226922.79999999702,226922,225538.182,225540,225554.852,226938.559,,0,Greg
screen,html.Screen,0_4_1_1_1_1,2021-11-05T11:14:10.698Z,,,,,,,,,,,,,,,,15,,,,,,,,,,,,,,598.8409999910509,,response,,,7,C,,,,,Space,keypress(Space),,,,instrumental,"---- Anderson, ---------- - --- ------- -- --- ------------<br>----- -- -------- ------- ---- ------ - -------- ---- -----<br>--- ------- ---- -- --- -------- --- - ----- ------ ---- --<br>-------- --- -------- -------- --- -------- ---- -- ----- -<br>-------- ---- --- ---------- --------- -- ------- ------ -<br>--------- ----- -----",227538.19999998808,227537.39999999106,226921.889,226923.09999999404,226938.559,227555.548,,1,"Anderson,"
screen,html.Screen,0_4_1_1_1_2,2021-11-05T11:14:11.162Z,,,,,,,,,,,,,,,,15,,,,,,,,,,,,,,445.8519999910495,,response,,,7,C,,,,,Space,keypress(Space),,,,instrumental,---- --------- considered - --- ------- -- --- ------------<br>----- -- -------- ------- ---- ------ - -------- ---- -----<br>--- ------- ---- -- --- -------- --- - ----- ------ ---- --<br>-------- --- -------- -------- --- -------- ---- -- ----- -<br>-------- ---- --- ---------- --------- -- ------- ------ -<br>--------- ----- -----,228002.19999998808,228001.39999999106,227538.877,227538.5,227555.548,228005.695,,2,considered
