sender,sender_type,sender_id,timestamp,meta,,Blues,Classical,Country,Dance,Electronic,Folk,Gospel,Hip-Hop,Jazz,Latin,Musical/Film,New-age,Pop,Provo_ID,R&B,Rap,Reggae,Religious,Rock,Soul,Swing,Traditional,age,artist_name,correct,correctResponse,distraction,duration,education,ended_on,familiarity,gender,item,list,music_frequency,offensiveness,pleasantness,preference,response,response_action,snippet_file,song_name,song_rating,sound,text,time_commit,time_end,time_render,time_run,time_show,time_switch,url,word,word_ID
Instructions,html.Page,0_0,2021-11-26T12:35:07.645Z,"{""labjs_version"":""20.2.3"",""labjs_build"":{""flavor"":""production"",""commit"":""7ea907d66ca8aeef8054924ca5d82ffbe11e34e5""},""location"":""https://run.pavlovia.org/mvasilev/lab_music_a/"",""userAgent"":""Mozilla/5.0 (Windows NT 6.1; Win64; x64) AppleWebKit/537.36 (KHTML, like Gecko) Chrome/96.0.4664.45 Safari/537.36"",""platform"":""Win32"",""language"":""en-US"",""locale"":""en-US"",""timeZone"":""Europe/London"",""timezoneOffset"":0,""screen_width"":1920,""screen_height"":1080,""scroll_width"":1920,""scroll_height"":959,""window_innerWidth"":1920,""window_innerHeight"":1007,""devicePixelRatio"":1}",,,,,,,,,,,,,,,,,,,,,,,,,,,,,38910.97900000037,,form submission,,,,,,,,,,,,,,,,52574.199999999255,52573.40000000037,13629.091,13642.099999999627,13662.421,52575.178,{},,
Headphones,html.Page,0_1,2021-11-26T12:35:11.457Z,,,,,,,,,,,,,,,,,,,,,,,,,,,,,,3810.2220000003726,,form submission,,,,,,,,,,,,,,,,56385.699999999255,56385.40000000037,52558.498,52574.699999999255,52575.178,56394.088,,,
Holding screen,html.Screen,0_2_0_0,2021-11-26T12:35:21.453Z,,,,,,,,,,,,,,,,,,,,,,,,,,,,,,9999.445999999996,,timeout,,,,,,,,,,,,,,,,66380.19999999925,66376.869,56377.423,56386.199999999255,56394.088,66393.534,,,
screen,html.Screen,0_2_0_1_0,2021-11-26T12:35:22.322Z,,,,,,,,,,,,,,,,53,,,,,,,,,,,,,,855.1659999992553,,response,,,99,,,,,,Space,keypress(Space),,,,,When -- ----- -- ------ - ------- --- ----------<br>------------- ------ ------ ---- ---- ------- ----- -- ----<br>-------- ------- -- ---------- --- - --- ----- ----- ----<br>---- --- --- ----- --- ---- ---- ------- ----- ---- -------<br>--- --- -- ----- -- --- ---- -- --- ---- -- ------ ------<br>--- ----- -- ----,67249.80000000075,67248.69999999925,66376.869,66380.40000000037,66393.534,67260.223,,0,When
screen,html.Screen,0_2_0_1_1,2021-11-26T12:35:22.834Z,,,,,,,,,,,,,,,,53,,,,,,,,,,,,,,500.4769999992568,,response,,,99,,,,,,Space,keypress(Space),,,,,---- it ----- -- ------ - ------- --- ----------<br>------------- ------ ------ ---- ---- ------- ----- -- ----<br>-------- ------- -- ---------- --- - --- ----- ----- ----<br>---- --- --- ----- --- ---- ---- ------- ----- ---- -------<br>--- --- -- ----- -- --- ---- -- --- ---- -- ------ ------<br>--- ----- -- ----,67761.30000000075,67760.69999999925,67243.558,67250,67260.223,67776.884,,1,it
screen,html.Screen,0_2_0_1_2,2021-11-26T12:35:23.402Z,,,,,,,,,,,,,,,,53,,,,,,,,,,,,,,551.715999999622,,response,,,99,,,,,,Space,keypress(Space),,,,,---- -- comes -- ------ - ------- --- ----------<br>------------- ------ ------ ---- ---- ------- ----- -- ----<br>-------- ------- -- ---------- --- - --- ----- ----- ----<br>---- --- --- ----- --- ---- ---- ------- ----- ---- -------<br>--- --- -- ----- -- --- ---- -- --- ---- -- ------ ------<br>--- ----- -- ----,68329.30000000075,68328.59999999963,67760.219,67761.5,67776.884,68343.395,,2,comes
screen,html.Screen,0_2_0_1_3,2021-11-26T12:35:23.826Z,,,,,,,,,,,,,,,,53,,,,,,,,,,,,,,409.2049999996234,,response,,,99,,,,,,Space,keypress(Space),,,,,---- -- ----- to ------ - ------- --- ----------<br>------------- ------ ------ ---- ---- ------- ----- -- ----<br>-------- ------- -- ---------- --- - --- ----- ----- ----<br>---- --- --- ----- --- ---- ---- ------- ----- ---- -------<br>--- --- -- ----- -- --- ---- -- --- ---- -- ------ ------<br>--- ----- -- ----,68753.30000000075,68752.59999999963,68326.731,68329.40000000037,68343.395,68760.187,,3,to
screen,html.Screen,0_2_0_1_4,2021-11-26T12:35:24.362Z,,,,,,,,,,,,,,,,53,,,,,,,,,,,,,,528.4129999996221,,response,,,99,,,,,,Space,keypress(Space),,,,,---- -- ----- -- having - ------- --- ----------<br>------------- ------ ------ ---- ---- ------- ----- -- ----<br>-------- ------- -- ---------- --- - --- ----- ----- ----<br>---- --- --- ----- --- ---- ---- ------- ----- ---- -------<br>--- --- -- ----- -- --- ---- -- --- ---- -- ------ ------<br>--- ----- -- ----,69289.40000000037,69288.59999999963,68743.521,68753.59999999963,68760.187,69293.499,,4,having
screen,html.Screen,0_2_0_1_5,2021-11-26T12:35:24.682Z,,,,,,,,,,,,,,,,53,,,,,,,,,,,,,,315.00100000000384,,response,,,99,,,,,,Space,keypress(Space),,,,,---- -- ----- -- ------ a ------- --- ----------<br>------------- ------ ------ ---- ---- ------- ----- -- ----<br>-------- ------- -- ---------- --- - --- ----- ----- ----<br>---- --- --- ----- --- ---- ---- ------- ----- ---- -------<br>--- --- -- ----- -- --- ---- -- --- ---- -- ------ ------<br>--- ----- -- ----,69609.19999999925,69608.5,69276.833,69289.59999999963,69293.499,69610.131,,5,a
screen,html.Screen,0_2_0_1_6,2021-11-26T12:35:25.210Z,,,,,,,,,,,,,,,,53,,,,,,,,,,,,,,526.369000000006,,response,,,99,,,,,,Space,keypress(Space),,,,,---- -- ----- -- ------ - lasting --- ----------<br>------------- ------ ------ ---- ---- ------- ----- -- ----<br>-------- ------- -- ---------- --- - --- ----- ----- ----<br>---- --- --- ----- --- ---- ---- ------- ----- ---- -------<br>--- --- -- ----- -- --- ---- -- --- ---- -- ------ ------<br>--- ----- -- ----,70137.19999999925,70136.5,69593.466,69609.5,69610.131,70143.46,,6,lasting
screen,html.Screen,0_2_0_1_7,2021-11-26T12:35:25.850Z,,,,,,,,,,,,,,,,53,,,,,,,,,,,,,,633.0399999999936,,response,,,99,,,,,,Space,keypress(Space),,,,,---- -- ----- -- ------ - ------- and ----------<br>------------- ------ ------ ---- ---- ------- ----- -- ----<br>-------- ------- -- ---------- --- - --- ----- ----- ----<br>---- --- --- ----- --- ---- ---- ------- ----- ---- -------<br>--- --- -- ----- -- --- ---- -- --- ---- -- ------ ------<br>--- ----- -- ----,70777.19999999925,70776.5,70126.794,70137.40000000037,70143.46,70793.321,,7,and
screen,html.Screen,0_2_0_1_8,2021-11-26T12:35:26.418Z,,,,,,,,,,,,,,,,53,,,,,,,,,,,,,,551.0790000003763,,response,,,99,,,,,,Space,keypress(Space),,,,,---- -- ----- -- ------ - ------- --- fulfilling<br>------------- ------ ------ ---- ---- ------- ----- -- ----<br>-------- ------- -- ---------- --- - --- ----- ----- ----<br>---- --- --- ----- --- ---- ---- ------- ----- ---- -------<br>--- --- -- ----- -- --- ---- -- --- ---- -- ------ ------<br>--- ----- -- ----,71345.19999999925,71344.40000000037,70776.657,70777.40000000037,70793.321,71360.036,,8,fulfilling
screen,html.Screen,0_2_0_1_9,2021-11-26T12:35:27.018Z,,,,,,,,,,,,,,,,53,,,,,,,,,,,,,,584.3640000003797,,response,,,99,,,,,,Space,keypress(Space),,,,,"---- -- ----- -- ------ - ------- --- ----------<br>relationship, ------ ------ ---- ---- ------- ----- -- ----<br>-------- ------- -- ---------- --- - --- ----- ----- ----<br>---- --- --- ----- --- ---- ---- ------- ----- ---- -------<br>--- --- -- ----- -- --- ---- -- --- ---- -- ------ ------<br>--- ----- -- ----",71945.19999999925,71944.40000000037,71343.371,71345.40000000037,71360.036,71959.995,,9,"relationship,"
screen,html.Screen,0_2_0_1_10,2021-11-26T12:35:27.466Z,,,,,,,,,,,,,,,,53,,,,,,,,,,,,,,432.3050000007497,,response,,,99,,,,,,Space,keypress(Space),,,,,---- -- ----- -- ------ - ------- --- ----------<br>------------- common ------ ---- ---- ------- ----- -- ----<br>-------- ------- -- ---------- --- - --- ----- ----- ----<br>---- --- --- ----- --- ---- ---- ------- ----- ---- -------<br>--- --- -- ----- -- --- ---- -- --- ---- -- ------ ------<br>--- ----- -- ----,72393,72392.30000000075,71943.33,71945.30000000075,71959.995,72409.974,,10,common
screen,html.Screen,0_2_0_1_11,2021-11-26T12:35:27.914Z,,,,,,,,,,,,,,,,53,,,,,,,,,,,,,,430.3260000007431,,response,,,99,,,,,,Space,keypress(Space),,,,,---- -- ----- -- ------ - ------- --- ----------<br>------------- ------ wisdom ---- ---- ------- ----- -- ----<br>-------- ------- -- ---------- --- - --- ----- ----- ----<br>---- --- --- ----- --- ---- ---- ------- ----- ---- -------<br>--- --- -- ----- -- --- ---- -- --- ---- -- ------ ------<br>--- ----- -- ----,72841,72840.30000000075,72393.309,72393.19999999925,72409.974,72843.289,,11,wisdom
screen,html.Screen,0_2_0_1_12,2021-11-26T12:35:28.722Z,,,,,,,,,,,,,,,,53,,,,,,,,,,,,,,805.1110000003682,,response,,,99,,,,,,Space,keypress(Space),,,,,---- -- ----- -- ------ - ------- --- ----------<br>------------- ------ ------ says ---- ------- ----- -- ----<br>-------- ------- -- ---------- --- - --- ----- ----- ----<br>---- --- --- ----- --- ---- ---- ------- ----- ---- -------<br>--- --- -- ----- -- --- ---- -- --- ---- -- ------ ------<br>--- ----- -- ----,73649.09999999963,73648.40000000037,72826.624,72841.19999999925,72843.289,73659.896,,12,says
screen,html.Screen,0_2_0_1_13,2021-11-26T12:35:29.106Z,,,,,,,,,,,,,,,,53,,,,,,,,,,,,,,372.60400000000664,,response,,,99,,,,,,Space,keypress(Space),,,,,---- -- ----- -- ------ - ------- --- ----------<br>------------- ------ ------ ---- that ------- ----- -- ----<br>-------- ------- -- ---------- --- - --- ----- ----- ----<br>---- --- --- ----- --- ---- ---- ------- ----- ---- -------<br>--- --- -- ----- -- --- ---- -- --- ---- -- ------ ------<br>--- ----- -- ----,74033.19999999925,74032.5,73643.231,73649.19999999925,73659.896,74043.247,,13,that
screen,html.Screen,0_2_0_1_14,2021-11-26T12:35:29.634Z,,,,,,,,,,,,,,,,53,,,,,,,,,,,,,,517.053000000742,,response,,,99,,,,,,Space,keypress(Space),,,,,---- -- ----- -- ------ - ------- --- ----------<br>------------- ------ ------ ---- ---- feeling ----- -- ----<br>-------- ------- -- ---------- --- - --- ----- ----- ----<br>---- --- --- ----- --- ---- ---- ------- ----- ---- -------<br>--- --- -- ----- -- --- ---- -- --- ---- -- ------ ------<br>--- ----- -- ----,74560.90000000037,74560.30000000075,74026.582,74033.40000000037,74043.247,74576.536,,14,feeling
screen,html.Screen,0_2_0_1_15,2021-11-26T12:35:30.209Z,,,,,,,,,,,,,,,,53,,,,,,,,,,,,,,559.6639999992622,,response,,,99,,,,,,Space,keypress(Space),,,,,---- -- ----- -- ------ - ------- --- ----------<br>------------- ------ ------ ---- ---- ------- close -- ----<br>-------- ------- -- ---------- --- - --- ----- ----- ----<br>---- --- --- ----- --- ---- ---- ------- ----- ---- -------<br>--- --- -- ----- -- --- ---- -- --- ---- -- ------ ------<br>--- ----- -- ----,75136.80000000075,75136.19999999925,74559.871,74561.09999999963,74576.536,75143.184,,15,close
screen,html.Screen,0_2_0_1_16,2021-11-26T12:35:30.553Z,,,,,,,,,,,,,,,,53,,,,,,,,,,,,,,337.0159999992611,,response,,,99,,,,,,Space,keypress(Space),,,,,---- -- ----- -- ------ - ------- --- ----------<br>------------- ------ ------ ---- ---- ------- ----- to ----<br>-------- ------- -- ---------- --- - --- ----- ----- ----<br>---- --- --- ----- --- ---- ---- ------- ----- ---- -------<br>--- --- -- ----- -- --- ---- -- --- ---- -- ------ ------<br>--- ----- -- ----,75480.80000000075,75480.19999999925,75126.519,75137,75143.184,75493.186,,16,to
screen,html.Screen,0_2_0_1_17,2021-11-26T12:35:30.961Z,,,,,,,,,,,,,,,,53,,,,,,,,,,,,,,395.01399999925343,,response,,,99,,,,,,Space,keypress(Space),,,,,---- -- ----- -- ------ - ------- --- ----------<br>------------- ------ ------ ---- ---- ------- ----- -- your<br>-------- ------- -- ---------- --- - --- ----- ----- ----<br>---- --- --- ----- --- ---- ---- ------- ----- ---- -------<br>--- --- -- ----- -- --- ---- -- --- ---- -- ------ ------<br>--- ----- -- ----,75888.80000000075,75888.19999999925,75476.521,75481,75493.186,75893.15,,17,your
screen,html.Screen,0_2_0_1_18,2021-11-26T12:35:31.465Z,,,,,,,,,,,,,,,,53,,,,,,,,,,,,,,499.04999999926076,,response,,,99,,,,,,Space,keypress(Space),,,,,---- -- ----- -- ------ - ------- --- ----------<br>------------- ------ ------ ---- ---- ------- ----- -- ----<br>romantic ------- -- ---------- --- - --- ----- ----- ----<br>---- --- --- ----- --- ---- ---- ------- ----- ---- -------<br>--- --- -- ----- -- --- ---- -- --- ---- -- ------ ------<br>--- ----- -- ----,76392.80000000075,76392.19999999925,75876.485,75889,75893.15,76409.784,,18,romantic
screen,html.Screen,0_2_0_1_19,2021-11-26T12:35:32.057Z,,,,,,,,,,,,,,,,53,,,,,,,,,,,,,,574.4159999992553,,response,,,99,,,,,,Space,keypress(Space),,,,,---- -- ----- -- ------ - ------- --- ----------<br>------------- ------ ------ ---- ---- ------- ----- -- ----<br>-------- partner -- ---------- --- - --- ----- ----- ----<br>---- --- --- ----- --- ---- ---- ------- ----- ---- -------<br>--- --- -- ----- -- --- ---- -- --- ---- -- ------ ------<br>--- ----- -- ----,76984.80000000075,76984.19999999925,76393.119,76393,76409.784,76993.082,,19,partner
screen,html.Screen,0_2_0_1_20,2021-11-26T12:35:32.465Z,,,,,,,,,,,,,,,,53,,,,,,,,,,,,,,399.0179999996326,,response,,,99,,,,,,Space,keypress(Space),,,,,---- -- ----- -- ------ - ------- --- ----------<br>------------- ------ ------ ---- ---- ------- ----- -- ----<br>-------- ------- is ---------- --- - --- ----- ----- ----<br>---- --- --- ----- --- ---- ---- ------- ----- ---- -------<br>--- --- -- ----- -- --- ---- -- --- ---- -- ------ ------<br>--- ----- -- ----,77392.69999999925,77392.09999999963,76976.417,76985,76993.082,77409.736,,20,is
screen,html.Screen,0_2_0_1_21,2021-11-26T12:35:33.057Z,,,,,,,,,,,,,,,,53,,,,,,,,,,,,,,574.363999999623,,response,,,99,,,,,,Space,keypress(Space),,,,,---- -- ----- -- ------ - ------- --- ----------<br>------------- ------ ------ ---- ---- ------- ----- -- ----<br>-------- ------- -- paramount. --- - --- ----- ----- ----<br>---- --- --- ----- --- ---- ---- ------- ----- ---- -------<br>--- --- -- ----- -- --- ---- -- --- ---- -- ------ ------<br>--- ----- -- ----,77984.80000000075,77984.09999999963,77393.071,77392.90000000037,77409.736,77993.036,,21,paramount.
screen,html.Screen,0_2_0_1_22,2021-11-26T12:35:33.657Z,,,,,,,,,,,,,,,,53,,,,,,,,,,,,,,591.1639999992622,,response,,,99,,,,,,Space,keypress(Space),,,,,---- -- ----- -- ------ - ------- --- ----------<br>------------- ------ ------ ---- ---- ------- ----- -- ----<br>-------- ------- -- ---------- But - --- ----- ----- ----<br>---- --- --- ----- --- ---- ---- ------- ----- ---- -------<br>--- --- -- ----- -- --- ---- -- --- ---- -- ------ ------<br>--- ----- -- ----,78584.80000000075,78584.19999999925,77976.371,77985.09999999963,77993.036,78593,,22,But
screen,html.Screen,0_2_0_1_23,2021-11-26T12:35:34.065Z,,,,,,,,,,,,,,,,53,,,,,,,,,,,,,,399,,response,,,99,,,,,,Space,keypress(Space),,,,,---- -- ----- -- ------ - ------- --- ----------<br>------------- ------ ------ ---- ---- ------- ----- -- ----<br>-------- ------- -- ---------- --- a --- ----- ----- ----<br>---- --- --- ----- --- ---- ---- ------- ----- ---- -------<br>--- --- -- ----- -- --- ---- -- --- ---- -- ------ ------<br>--- ----- -- ----,78992.59999999963,78992,78576.335,78585,78593,79009.656,,23,a
screen,html.Screen,0_2_0_1_24,2021-11-26T12:35:34.513Z,,,,,,,,,,,,,,,,53,,,,,,,,,,,,,,430.3439999999973,,response,,,99,,,,,,Space,keypress(Space),,,,,---- -- ----- -- ------ - ------- --- ----------<br>------------- ------ ------ ---- ---- ------- ----- -- ----<br>-------- ------- -- ---------- --- - new ----- ----- ----<br>---- --- --- ----- --- ---- ---- ------- ----- ---- -------<br>--- --- -- ----- -- --- ---- -- --- ---- -- ------ ------<br>--- ----- -- ----,79440.59999999963,79440,78992.991,78992.80000000075,79009.656,79442.906,,24,new
screen,html.Screen,0_2_0_1_25,2021-11-26T12:35:35.105Z,,,,,,,,,,,,,,,,53,,,,,,,,,,,,,,589.0939999999973,,response,,,99,,,,,,Space,keypress(Space),,,,,---- -- ----- -- ------ - ------- --- ----------<br>------------- ------ ------ ---- ---- ------- ----- -- ----<br>-------- ------- -- ---------- --- - --- study ----- ----<br>---- --- --- ----- --- ---- ---- ------- ----- ---- -------<br>--- --- -- ----- -- --- ---- -- --- ---- -- ------ ------<br>--- ----- -- ----,80032.59999999963,80032,79426.242,79440.80000000075,79442.906,80042.921,,25,study
screen,html.Screen,0_2_0_1_26,2021-11-26T12:35:35.705Z,,,,,,,,,,,,,,,,53,,,,,,,,,,,,,,589.0789999999979,,response,,,99,,,,,,Space,keypress(Space),,,,,---- -- ----- -- ------ - ------- --- ----------<br>------------- ------ ------ ---- ---- ------- ----- -- ----<br>-------- ------- -- ---------- --- - --- ----- finds ----<br>---- --- --- ----- --- ---- ---- ------- ----- ---- -------<br>--- --- -- ----- -- --- ---- -- --- ---- -- ------ ------<br>--- ----- -- ----,80632.59999999963,80632,80026.256,80032.80000000075,80042.921,80642.877,,26,finds
screen,html.Screen,0_2_0_1_27,2021-11-26T12:35:36.185Z,,,,,,,,,,,,,,,,53,,,,,,,,,,,,,,469.12300000000687,,response,,,99,,,,,,Space,keypress(Space),,,,,---- -- ----- -- ------ - ------- --- ----------<br>------------- ------ ------ ---- ---- ------- ----- -- ----<br>-------- ------- -- ---------- --- - --- ----- ----- that<br>---- --- --- ----- --- ---- ---- ------- ----- ---- -------<br>--- --- -- ----- -- --- ---- -- --- ---- -- ------ ------<br>--- ----- -- ----,81112.5,81112,80626.212,80632.80000000075,80642.877,81126.192,,27,that
screen,html.Screen,0_2_0_1_28,2021-11-26T12:35:36.825Z,,,,,,,,,,,,,,,,53,,,,,,,,,,,,,,625.8080000000045,,response,,,99,,,,,,Space,keypress(Space),,,,,---- -- ----- -- ------ - ------- --- ----------<br>------------- ------ ------ ---- ---- ------- ----- -- ----<br>-------- ------- -- ---------- --- - --- ----- ----- ----<br>it's --- --- ----- --- ---- ---- ------- ----- ---- -------<br>--- --- -- ----- -- --- ---- -- --- ---- -- ------ ------<br>--- ----- -- ----,81752.59999999963,81752,81109.527,81112.69999999925,81126.192,81759.506,,28,it's
screen,html.Screen,0_2_0_1_29,2021-11-26T12:35:37.561Z,,,,,,,,,,,,,,,,53,,,,,,,,,,,,,,728.3940000003786,,response,,,99,,,,,,Space,keypress(Space),,,,,---- -- ----- -- ------ - ------- --- ----------<br>------------- ------ ------ ---- ---- ------- ----- -- ----<br>-------- ------- -- ---------- --- - --- ----- ----- ----<br>---- not --- ----- --- ---- ---- ------- ----- ---- -------<br>--- --- -- ----- -- --- ---- -- --- ---- -- ------ ------<br>--- ----- -- ----,82488.59999999963,82487.90000000037,81742.841,81752.80000000075,81759.506,82492.702,,29,not
screen,html.Screen,0_2_0_1_30,2021-11-26T12:35:37.945Z,,,,,,,,,,,,,,,,53,,,,,,,,,,,,,,379.0980000007403,,response,,,99,,,,,,Space,keypress(Space),,,,,---- -- ----- -- ------ - ------- --- ----------<br>------------- ------ ------ ---- ---- ------- ----- -- ----<br>-------- ------- -- ---------- --- - --- ----- ----- ----<br>---- --- how ----- --- ---- ---- ------- ----- ---- -------<br>--- --- -- ----- -- --- ---- -- --- ---- -- ------ ------<br>--- ----- -- ----,82872.40000000037,82871.80000000075,82476.038,82488.69999999925,82492.702,82876.178,,30,how
screen,html.Screen,0_2_0_1_31,2021-11-26T12:35:38.225Z,,,,,,,,,,,,,,,,53,,,,,,,,,,,,,,275.72200000037265,,response,,,99,,,,,,Space,keypress(Space),,,,,---- -- ----- -- ------ - ------- --- ----------<br>------------- ------ ------ ---- ---- ------- ----- -- ----<br>-------- ------- -- ---------- --- - --- ----- ----- ----<br>---- --- --- close --- ---- ---- ------- ----- ---- -------<br>--- --- -- ----- -- --- ---- -- --- ---- -- ------ ------<br>--- ----- -- ----,83152.5,83151.90000000037,82859.512,82872.59999999963,82876.178,83159.376,,31,close
screen,html.Screen,0_2_0_1_32,2021-11-26T12:35:38.809Z,,,,,,,,,,,,,,,,53,,,,,,,,,,,,,,576.4240000007412,,response,,,99,,,,,,Space,keypress(Space),,,,,---- -- ----- -- ------ - ------- --- ----------<br>------------- ------ ------ ---- ---- ------- ----- -- ----<br>-------- ------- -- ---------- --- - --- ----- ----- ----<br>---- --- --- ----- you ---- ---- ------- ----- ---- -------<br>--- --- -- ----- -- --- ---- -- --- ---- -- ------ ------<br>--- ----- -- ----,83736.5,83735.80000000075,83142.712,83152.69999999925,83159.376,83742.769,,32,you
screen,html.Screen,0_2_0_1_33,2021-11-26T12:35:39.377Z,,,,,,,,,,,,,,,,53,,,,,,,,,,,,,,561.2309999999998,,response,,,99,,,,,,Space,keypress(Space),,,,,---- -- ----- -- ------ - ------- --- ----------<br>------------- ------ ------ ---- ---- ------- ----- -- ----<br>-------- ------- -- ---------- --- - --- ----- ----- ----<br>---- --- --- ----- --- feel ---- ------- ----- ---- -------<br>--- --- -- ----- -- --- ---- -- --- ---- -- ------ ------<br>--- ----- -- ----,84304.69999999925,84304,83726.103,83736.59999999963,83742.769,84309.494,,33,feel
screen,html.Screen,0_2_0_1_34,2021-11-26T12:35:40.041Z,,,,,,,,,,,,,,,,53,,,,,,,,,,,,,,658.306000000739,,response,,,99,,,,,,Space,keypress(Space),,,,,---- -- ----- -- ------ - ------- --- ----------<br>------------- ------ ------ ---- ---- ------- ----- -- ----<br>-------- ------- -- ---------- --- - --- ----- ----- ----<br>---- --- --- ----- --- ---- that ------- ----- ---- -------<br>--- --- -- ----- -- --- ---- -- --- ---- -- ------ ------<br>--- ----- -- ----,84968.40000000037,84967.80000000075,84292.827,84304.90000000037,84309.494,84975.984,,34,that
screen,html.Screen,0_2_0_1_35,2021-11-26T12:35:40.513Z,,,,,,,,,,,,,,,,53,,,,,,,,,,,,,,463.8160000007483,,response,,,99,,,,,,Space,keypress(Space),,,,,---- -- ----- -- ------ - ------- --- ----------<br>------------- ------ ------ ---- ---- ------- ----- -- ----<br>-------- ------- -- ---------- --- - --- ----- ----- ----<br>---- --- --- ----- --- ---- ---- matters ----- ---- -------<br>--- --- -- ----- -- --- ---- -- --- ---- -- ------ ------<br>--- ----- -- ----,85440.30000000075,85439.80000000075,84959.319,84968.59999999963,84975.984,85442.715,,35,matters
screen,html.Screen,0_2_0_1_36,2021-11-26T12:35:41.225Z,,,,,,,,,,,,,,,,53,,,,,,,,,,,,,,708.9849999992584,,response,,,99,,,,,,Space,keypress(Space),,,,,"---- -- ----- -- ------ - ------- --- ----------<br>------------- ------ ------ ---- ---- ------- ----- -- ----<br>-------- ------- -- ---------- --- - --- ----- ----- ----<br>---- --- --- ----- --- ---- ---- ------- most, ---- -------<br>--- --- -- ----- -- --- ---- -- --- ---- -- ------ ------<br>--- ----- -- ----",86152.59999999963,86151.69999999925,85426.049,85440.5,85442.715,86159.2,,36,"most,"
screen,html.Screen,0_2_0_1_37,2021-11-26T12:35:41.809Z,,,,,,,,,,,,,,,,53,,,,,,,,,,,,,,576.4999999992579,,response,,,99,,,,,,Space,keypress(Space),,,,,---- -- ----- -- ------ - ------- --- ----------<br>------------- ------ ------ ---- ---- ------- ----- -- ----<br>-------- ------- -- ---------- --- - --- ----- ----- ----<br>---- --- --- ----- --- ---- ---- ------- ----- it's -------<br>--- --- -- ----- -- --- ---- -- --- ---- -- ------ ------<br>--- ----- -- ----,86736.40000000037,86735.69999999925,86142.536,86152.69999999925,86159.2,86742.687,,37,it's
screen,html.Screen,0_2_0_1_38,2021-11-26T12:35:42.265Z,,,,,,,,,,,,,,,,53,,,,,,,,,,,,,,449.0129999992496,,response,,,99,,,,,,Space,keypress(Space),,,,,---- -- ----- -- ------ - ------- --- ----------<br>------------- ------ ------ ---- ---- ------- ----- -- ----<br>-------- ------- -- ---------- --- - --- ----- ----- ----<br>---- --- --- ----- --- ---- ---- ------- ----- ---- whether<br>--- --- -- ----- -- --- ---- -- --- ---- -- ------ ------<br>--- ----- -- ----,87192.19999999925,87191.69999999925,86726.021,86736.5,86742.687,87209.245,,38,whether
screen,html.Screen,0_2_0_1_39,2021-11-26T12:35:42.985Z,,,,,,,,,,,,,,,,53,,,,,,,,,,,,,,702.4549999992596,,response,,,99,,,,,,Space,keypress(Space),,,,,---- -- ----- -- ------ - ------- --- ----------<br>------------- ------ ------ ---- ---- ------- ----- -- ----<br>-------- ------- -- ---------- --- - --- ----- ----- ----<br>---- --- --- ----- --- ---- ---- ------- ----- ---- -------<br>you --- -- ----- -- --- ---- -- --- ---- -- ------ ------<br>--- ----- -- ----,87912.19999999925,87911.69999999925,87192.58,87192.40000000037,87209.245,87925.879,,39,you
screen,html.Screen,0_2_0_1_40,2021-11-26T12:35:43.577Z,,,,,,,,,,,,,,,,53,,,,,,,,,,,,,,577.7209999996267,,response,,,99,,,,,,Space,keypress(Space),,,,,---- -- ----- -- ------ - ------- --- ----------<br>------------- ------ ------ ---- ---- ------- ----- -- ----<br>-------- ------- -- ---------- --- - --- ----- ----- ----<br>---- --- --- ----- --- ---- ---- ------- ----- ---- -------<br>--- are -- ----- -- --- ---- -- --- ---- -- ------ ------<br>--- ----- -- ----,88504.09999999963,88503.59999999963,87909.214,87912.5,87925.879,88509.179,,40,are
screen,html.Screen,0_2_0_1_41,2021-11-26T12:35:44.025Z,,,,,,,,,,,,,,,,53,,,,,,,,,,,,,,442.42099999962375,,response,,,99,,,,,,Space,keypress(Space),,,,,---- -- ----- -- ------ - ------- --- ----------<br>------------- ------ ------ ---- ---- ------- ----- -- ----<br>-------- ------- -- ---------- --- - --- ----- ----- ----<br>---- --- --- ----- --- ---- ---- ------- ----- ---- -------<br>--- --- as ----- -- --- ---- -- --- ---- -- ------ ------<br>--- ----- -- ----,88952.09999999963,88951.59999999963,88492.514,88504.30000000075,88509.179,88959.043,,41,as
screen,html.Screen,0_2_0_1_42,2021-11-26T12:35:44.809Z,,,,,,,,,,,,,,,,53,,,,,,,,,,,,,,776.4569999999949,,response,,,99,,,,,,Space,keypress(Space),,,,,---- -- ----- -- ------ - ------- --- ----------<br>------------- ------ ------ ---- ---- ------- ----- -- ----<br>-------- ------- -- ---------- --- - --- ----- ----- ----<br>---- --- --- ----- --- ---- ---- ------- ----- ---- -------<br>--- --- -- close -- --- ---- -- --- ---- -- ------ ------<br>--- ----- -- ----,89736.09999999963,89735.5,88942.379,88952.19999999925,88959.043,89742.575,,42,close
screen,html.Screen,0_2_0_1_43,2021-11-26T12:35:45.457Z,,,,,,,,,,,,,,,,53,,,,,,,,,,,,,,640.9250000000029,,response,,,99,,,,,,Space,keypress(Space),,,,,---- -- ----- -- ------ - ------- --- ----------<br>------------- ------ ------ ---- ---- ------- ----- -- ----<br>-------- ------- -- ---------- --- - --- ----- ----- ----<br>---- --- --- ----- --- ---- ---- ------- ----- ---- -------<br>--- --- -- ----- as --- ---- -- --- ---- -- ------ ------<br>--- ----- -- ----,90384.19999999925,90383.5,89725.908,89736.30000000075,89742.575,90392.409,,43,as
screen,html.Screen,0_2_0_1_44,2021-11-26T12:35:46.329Z,,,,,,,,,,,,,,,,53,,,,,,,,,,,,,,863.0910000000003,,response,,,99,,,,,,Space,keypress(Space),,,,,---- -- ----- -- ------ - ------- --- ----------<br>------------- ------ ------ ---- ---- ------- ----- -- ----<br>-------- ------- -- ---------- --- - --- ----- ----- ----<br>---- --- --- ----- --- ---- ---- ------- ----- ---- -------<br>--- --- -- ----- -- you ---- -- --- ---- -- ------ ------<br>--- ----- -- ----,91256.09999999963,91255.5,90375.744,90384.30000000075,90392.409,91259.042,,44,you
screen,html.Screen,0_2_0_1_45,2021-11-26T12:35:47.401Z,,,,,,,,,,,,,,,,53,,,,,,,,,,,,,,1068.4579999999987,,response,,,99,,,,,,Space,keypress(Space),,,,,---- -- ----- -- ------ - ------- --- ----------<br>------------- ------ ------ ---- ---- ------- ----- -- ----<br>-------- ------- -- ---------- --- - --- ----- ----- ----<br>---- --- --- ----- --- ---- ---- ------- ----- ---- -------<br>--- --- -- ----- -- --- want -- --- ---- -- ------ ------<br>--- ----- -- ----,92328,92327.5,91242.377,91256.30000000075,91259.042,92342.306,,45,want
screen,html.Screen,0_2_0_1_46,2021-11-26T12:35:47.865Z,,,,,,,,,,,,,,,,53,,,,,,,,,,,,,,449.0940000003757,,response,,,99,,,,,,Space,keypress(Space),,,,,---- -- ----- -- ------ - ------- --- ----------<br>------------- ------ ------ ---- ---- ------- ----- -- ----<br>-------- ------- -- ---------- --- - --- ----- ----- ----<br>---- --- --- ----- --- ---- ---- ------- ----- ---- -------<br>--- --- -- ----- -- --- ---- to --- ---- -- ------ ------<br>--- ----- -- ----,92792,92791.40000000037,92325.641,92328.30000000075,92342.306,92808.993,,46,to
screen,html.Screen,0_2_0_1_47,2021-11-26T12:35:48.609Z,,,,,,,,,,,,,,,,53,,,,,,,,,,,,,,726.4070000003703,,response,,,99,,,,,,Space,keypress(Space),,,,,"---- -- ----- -- ------ - ------- --- ----------<br>------------- ------ ------ ---- ---- ------- ----- -- ----<br>-------- ------- -- ---------- --- - --- ----- ----- ----<br>---- --- --- ----- --- ---- ---- ------- ----- ---- -------<br>--- --- -- ----- -- --- ---- -- be, ---- -- ------ ------<br>--- ----- -- ----",93536,93535.40000000037,92792.328,92792.30000000075,92808.993,93542.227,,47,"be,"
screen,html.Screen,0_2_0_1_48,2021-11-26T12:35:49.177Z,,,,,,,,,,,,,,,,53,,,,,,,,,,,,,,561.0730000007461,,response,,,99,,,,,,Space,keypress(Space),,,,,---- -- ----- -- ------ - ------- --- ----------<br>------------- ------ ------ ---- ---- ------- ----- -- ----<br>-------- ------- -- ---------- --- - --- ----- ----- ----<br>---- --- --- ----- --- ---- ---- ------- ----- ---- -------<br>--- --- -- ----- -- --- ---- -- --- even -- ------ ------<br>--- ----- -- ----,94104.09999999963,94103.30000000075,93525.562,93536.19999999925,93542.227,94108.876,,48,even
screen,html.Screen,0_2_0_1_49,2021-11-26T12:35:49.649Z,,,,,,,,,,,,,,,,53,,,,,,,,,,,,,,466.72399999962363,,response,,,99,,,,,,Space,keypress(Space),,,,,---- -- ----- -- ------ - ------- --- ----------<br>------------- ------ ------ ---- ---- ------- ----- -- ----<br>-------- ------- -- ---------- --- - --- ----- ----- ----<br>---- --- --- ----- --- ---- ---- ------- ----- ---- -------<br>--- --- -- ----- -- --- ---- -- --- ---- if ------ ------<br>--- ----- -- ----,94576.19999999925,94575.59999999963,94092.211,94104.40000000037,94108.876,94592.269,,49,if
screen,html.Screen,0_2_0_1_50,2021-11-26T12:35:50.569Z,,,,,,,,,,,,,,,,53,,,,,,,,,,,,,,903.0310000007448,,response,,,99,,,,,,Space,keypress(Space),,,,,---- -- ----- -- ------ - ------- --- ----------<br>------------- ------ ------ ---- ---- ------- ----- -- ----<br>-------- ------- -- ---------- --- - --- ----- ----- ----<br>---- --- --- ----- --- ---- ---- ------- ----- ---- -------<br>--- --- -- ----- -- --- ---- -- --- ---- -- that's ------<br>--- ----- -- ----,95495.90000000037,95495.30000000075,94575.603,94576.5,94592.269,95508.796,,50,that's
screen,html.Screen,0_2_0_1_51,2021-11-26T12:35:51.017Z,,,,,,,,,,,,,,,,53,,,,,,,,,,,,,,434.40399999925285,,response,,,99,,,,,,Space,keypress(Space),,,,,---- -- ----- -- ------ - ------- --- ----------<br>------------- ------ ------ ---- ---- ------- ----- -- ----<br>-------- ------- -- ---------- --- - --- ----- ----- ----<br>---- --- --- ----- --- ---- ---- ------- ----- ---- -------<br>--- --- -- ----- -- --- ---- -- --- ---- -- ------ really<br>--- ----- -- ----,95944,95943.19999999925,95492.131,95496.09999999963,95508.796,95958.793,,51,really
screen,html.Screen,0_2_0_1_52,2021-11-26T12:35:51.440Z,,,,,,,,,,,,,,,,53,,,,,,,,,,,,,,408.4069999992498,,response,,,99,,,,,,Space,keypress(Space),,,,,---- -- ----- -- ------ - ------- --- ----------<br>------------- ------ ------ ---- ---- ------- ----- -- ----<br>-------- ------- -- ---------- --- - --- ----- ----- ----<br>---- --- --- ----- --- ---- ---- ------- ----- ---- -------<br>--- --- -- ----- -- --- ---- -- --- ---- -- ------ ------<br>not ----- -- ----,96367.80000000075,96367.19999999925,95942.128,95944.09999999963,95958.793,96375.472,,52,not
screen,html.Screen,0_2_0_1_53,2021-11-26T12:35:51.793Z,,,,,,,,,,,,,,,,53,,,,,,,,,,,,,,343.72799999926065,,response,,,99,,,,,,Space,keypress(Space),,,,,---- -- ----- -- ------ - ------- --- ----------<br>------------- ------ ------ ---- ---- ------- ----- -- ----<br>-------- ------- -- ---------- --- - --- ----- ----- ----<br>---- --- --- ----- --- ---- ---- ------- ----- ---- -------<br>--- --- -- ----- -- --- ---- -- --- ---- -- ------ ------<br>--- close -- ----,96720,96719.19999999925,96358.807,96367.90000000037,96375.472,96725.466,,53,close
screen,html.Screen,0_2_0_1_54,2021-11-26T12:35:52.129Z,,,,,,,,,,,,,,,,53,,,,,,,,,,,,,,329.7339999992546,,response,,,99,,,,,,Space,keypress(Space),,,,,---- -- ----- -- ------ - ------- --- ----------<br>------------- ------ ------ ---- ---- ------- ----- -- ----<br>-------- ------- -- ---------- --- - --- ----- ----- ----<br>---- --- --- ----- --- ---- ---- ------- ----- ---- -------<br>--- --- -- ----- -- --- ---- -- --- ---- -- ------ ------<br>--- ----- at ----,97055.80000000075,97055.19999999925,96708.801,96720.09999999963,96725.466,97058.699,,54,at
screen,html.Screen,0_2_0_1_55,2021-11-26T12:35:53.216Z,,,,,,,,,,,,,,,,53,,,,,,,,,,,,,,1084.5009999992617,,response,,,99,,,,,,Space,keypress(Space),,,,,---- -- ----- -- ------ - ------- --- ----------<br>------------- ------ ------ ---- ---- ------- ----- -- ----<br>-------- ------- -- ---------- --- - --- ----- ----- ----<br>---- --- --- ----- --- ---- ---- ------- ----- ---- -------<br>--- --- -- ----- -- --- ---- -- --- ---- -- ------ ------<br>--- ----- -- all.,98143.80000000075,98143.19999999925,97042.035,97056.09999999963,97058.699,98158.661,,55,all.
Item 99,flow.Loop,0_2_0_1,2021-11-26T12:35:53.219Z,,,,,,,,,,,,,,,,,,,,,,,,,,,,,,31749.665999999255,,completion,,,,A,,,,,,,,,,silence,,98146.59999999963,98143.19999999925,66376.869,66380.40000000037,66393.534,98158.661,,,
Question 1,html.Screen,0_2_0_2,2021-11-26T12:35:59.886Z,,,,,,,,,,,,,,,,,,,,,,,,,,,true,FALSE,,6653.73900000038,,response,,,99,A,,,,,FALSE,click #choice-2,,,,silence,,104813.30000000075,104812.40000000037,98141.996,98146.80000000075,98158.661,104825.124,,,
Question 2,html.Screen,0_2_0_3,2021-11-26T12:36:07.628Z,,,,,,,,,,,,,,,,,,,,,,,,,,,true,TRUE,,7728.876000000004,,response,,,99,A,,,,,TRUE,click #choice-1,,,,silence,,112554.80000000075,112554,104808.457,104813.5,104825.124,112557.962,,,
Item 99,flow.Sequence,0_2_0,2021-11-26T12:36:07.628Z,,,,,,,,,,,,,,,,,,,,,,,,,,,,,,56159.912,,completion,,,,,,,,,,,,,,,,112555.09999999963,112554,56377.423,56386.09999999963,56394.088,112557.962,,,
Holding screen,html.Screen,0_2_1_0,2021-11-26T12:36:17.618Z,,,,,,,,,,,,,,,,,,,,,,,,,,,,,,9999.508000000002,,timeout,,,,,,,,,,,,,,,,122542.30000000075,122540.805,112541.297,112555.40000000037,112557.962,122557.47,,,
screen,html.Screen,0_2_1_1_0,2021-11-26T12:36:18.714Z,,,,,,,,,,,,,,,,54,,,,,,,,,,,,,,1080.6299999996263,,response,,,100,,,,,,Space,keypress(Space),,,,,At --- ---- --- ------ ----- ------- ---- -- --- ------- --<br>------- ---------- ------ -- ----- -- ----- -- ---- ------<br>--- ----- --- --- ------ -------- ----- --- ------ ----- --<br>----- ----- ---------- --- --- ------ ------ ---- -- ------<br>------- --- ------ ----- --- ---- ------- -- ---- --- --<br>------- ------,123638.80000000075,123638.09999999963,122540.805,122542.5,122557.47,123640.746,,0,At
screen,html.Screen,0_2_1_1_1,2021-11-26T12:36:19.194Z,,,,,,,,,,,,,,,,54,,,,,,,,,,,,,,477.15400000037334,,response,,,100,,,,,,Space,keypress(Space),,,,,-- the ---- --- ------ ----- ------- ---- -- --- ------- --<br>------- ---------- ------ -- ----- -- ----- -- ---- ------<br>--- ----- --- --- ------ -------- ----- --- ------ ----- --<br>----- ----- ---------- --- --- ------ ------ ---- -- ------<br>------- --- ------ ----- --- ---- ------- -- ---- --- --<br>------- ------,124118.40000000037,124117.90000000037,123624.081,123639,123640.746,124124.084,,1,the
screen,html.Screen,0_2_1_1_2,2021-11-26T12:36:19.746Z,,,,,,,,,,,,,,,,54,,,,,,,,,,,,,,545.7160000007425,,response,,,100,,,,,,Space,keypress(Space),,,,,-- --- time --- ------ ----- ------- ---- -- --- ------- --<br>------- ---------- ------ -- ----- -- ----- -- ---- ------<br>--- ----- --- --- ------ -------- ----- --- ------ ----- --<br>----- ----- ---------- --- --- ------ ------ ---- -- ------<br>------- --- ------ ----- --- ---- ------- -- ---- --- --<br>------- ------,124670.40000000037,124669.80000000075,124107.419,124118.69999999925,124124.084,124674.033,,2,time
screen,html.Screen,0_2_1_1_3,2021-11-26T12:36:20.202Z,,,,,,,,,,,,,,,,54,,,,,,,,,,,,,,451.76700000074925,,response,,,100,,,,,,Space,keypress(Space),,,,,-- --- ---- the ------ ----- ------- ---- -- --- ------- --<br>------- ---------- ------ -- ----- -- ----- -- ---- ------<br>--- ----- --- --- ------ -------- ----- --- ------ ----- --<br>----- ----- ---------- --- --- ------ ------ ---- -- ------<br>------- --- ------ ----- --- ---- ------- -- ---- --- --<br>------- ------,125126.30000000075,125125.80000000075,124657.368,124670.59999999963,124674.033,125140.689,,3,the
screen,html.Screen,0_2_1_1_4,2021-11-26T12:36:20.650Z,,,,,,,,,,,,,,,,54,,,,,,,,,,,,,,433.11100000074657,,response,,,100,,,,,,Space,keypress(Space),,,,,-- --- ---- --- French ----- ------- ---- -- --- ------- --<br>------- ---------- ------ -- ----- -- ----- -- ---- ------<br>--- ----- --- --- ------ -------- ----- --- ------ ----- --<br>----- ----- ---------- --- --- ------ ------ ---- -- ------<br>------- --- ------ ----- --- ---- ------- -- ---- --- --<br>------- ------,125574.40000000037,125573.80000000075,125124.024,125126.5,125140.689,125590.751,,4,French
screen,html.Screen,0_2_1_1_5,2021-11-26T12:36:20.986Z,,,,,,,,,,,,,,,,54,,,,,,,,,,,,,,319.0490000007412,,response,,,100,,,,,,Space,keypress(Space),,,,,-- --- ---- --- ------ crown ------- ---- -- --- ------- --<br>------- ---------- ------ -- ----- -- ----- -- ---- ------<br>--- ----- --- --- ------ -------- ----- --- ------ ----- --<br>----- ----- ---------- --- --- ------ ------ ---- -- ------<br>------- --- ------ ----- --- ---- ------- -- ---- --- --<br>------- ------,125910.40000000037,125909.80000000075,125574.085,125574.59999999963,125590.751,125924.018,,5,crown
screen,html.Screen,0_2_1_1_6,2021-11-26T12:36:21.490Z,,,,,,,,,,,,,,,,54,,,,,,,,,,,,,,489.68199999925855,,response,,,100,,,,,,Space,keypress(Space),,,,,-- --- ---- --- ------ ----- secured ---- -- --- ------- --<br>------- ---------- ------ -- ----- -- ----- -- ---- ------<br>--- ----- --- --- ------ -------- ----- --- ------ ----- --<br>----- ----- ---------- --- --- ------ ------ ---- -- ------<br>------- --- ------ ----- --- ---- ------- -- ---- --- --<br>------- ------,126414.30000000075,126413.69999999925,125907.353,125910.59999999963,125924.018,126423.999,,6,secured
screen,html.Screen,0_2_1_1_7,2021-11-26T12:36:21.970Z,,,,,,,,,,,,,,,,54,,,,,,,,,,,,,,469.7009999992588,,response,,,100,,,,,,Space,keypress(Space),,,,,-- --- ---- --- ------ ----- ------- much -- --- ------- --<br>------- ---------- ------ -- ----- -- ----- -- ---- ------<br>--- ----- --- --- ------ -------- ----- --- ------ ----- --<br>----- ----- ---------- --- --- ------ ------ ---- -- ------<br>------- --- ------ ----- --- ---- ------- -- ---- --- --<br>------- ------,126894.30000000075,126893.69999999925,126407.334,126414.5,126423.999,126907.192,,7,much
screen,html.Screen,0_2_1_1_8,2021-11-26T12:36:22.378Z,,,,,,,,,,,,,,,,54,,,,,,,,,,,,,,394.407999999632,,response,,,100,,,,,,Space,keypress(Space),,,,,-- --- ---- --- ------ ----- ------- ---- of --- ------- --<br>------- ---------- ------ -- ----- -- ----- -- ---- ------<br>--- ----- --- --- ------ -------- ----- --- ------ ----- --<br>----- ----- ---------- --- --- ------ ------ ---- -- ------<br>------- --- ------ ----- --- ---- ------- -- ---- --- --<br>------- ------,127302.30000000075,127301.59999999963,126890.528,126894.5,126907.192,127307.25,,8,of
screen,html.Screen,0_2_1_1_9,2021-11-26T12:36:22.874Z,,,,,,,,,,,,,,,,54,,,,,,,,,,,,,,490.44999999925494,,response,,,100,,,,,,Space,keypress(Space),,,,,-- --- ---- --- ------ ----- ------- ---- -- its ------- --<br>------- ---------- ------ -- ----- -- ----- -- ---- ------<br>--- ----- --- --- ------ -------- ----- --- ------ ----- --<br>----- ----- ---------- --- --- ------ ------ ---- -- ------<br>------- --- ------ ----- --- ---- ------- -- ---- --- --<br>------- ------,127798.40000000037,127797.69999999925,127290.585,127302.40000000037,127307.25,127807.296,,9,its
screen,html.Screen,0_2_1_1_10,2021-11-26T12:36:23.778Z,,,,,,,,,,,,,,,,54,,,,,,,,,,,,,,894.4039999992528,,response,,,100,,,,,,Space,keypress(Space),,,,,-- --- ---- --- ------ ----- ------- ---- -- --- revenue --<br>------- ---------- ------ -- ----- -- ----- -- ---- ------<br>--- ----- --- --- ------ -------- ----- --- ------ ----- --<br>----- ----- ---------- --- --- ------ ------ ---- -- ------<br>------- --- ------ ----- --- ---- ------- -- ---- --- --<br>------- ------,128702.19999999925,128701.69999999925,127790.63,127798.59999999963,127807.296,128707.18,,10,revenue
screen,html.Screen,0_2_1_1_11,2021-11-26T12:36:24.474Z,,,,,,,,,,,,,,,,54,,,,,,,,,,,,,,690.4199999996345,,response,,,100,,,,,,Space,keypress(Space),,,,,-- --- ---- --- ------ ----- ------- ---- -- --- ------- by<br>------- ---------- ------ -- ----- -- ----- -- ---- ------<br>--- ----- --- --- ------ -------- ----- --- ------ ----- --<br>----- ----- ---------- --- --- ------ ------ ---- -- ------<br>------- --- ------ ----- --- ---- ------- -- ---- --- --<br>------- ------,129398.19999999925,129397.59999999963,128690.515,128702.40000000037,128707.18,129407.149,,11,by
screen,html.Screen,0_2_1_1_12,2021-11-26T12:36:25.098Z,,,,,,,,,,,,,,,,54,,,,,,,,,,,,,,614.4509999996226,,response,,,100,,,,,,Space,keypress(Space),,,,,-- --- ---- --- ------ ----- ------- ---- -- --- ------- --<br>issuing ---------- ------ -- ----- -- ----- -- ---- ------<br>--- ----- --- --- ------ -------- ----- --- ------ ----- --<br>----- ----- ---------- --- --- ------ ------ ---- -- ------<br>------- --- ------ ----- --- ---- ------- -- ---- --- --<br>------- ------,130022.19999999925,130021.59999999963,129390.484,129398.40000000037,129407.149,130023.812,,12,issuing
screen,html.Screen,0_2_1_1_13,2021-11-26T12:36:25.530Z,,,,,,,,,,,,,,,,54,,,,,,,,,,,,,,429.68799999999464,,response,,,100,,,,,,Space,keypress(Space),,,,,-- --- ---- --- ------ ----- ------- ---- -- --- ------- --<br>------- government ------ -- ----- -- ----- -- ---- ------<br>--- ----- --- --- ------ -------- ----- --- ------ ----- --<br>----- ----- ---------- --- --- ------ ------ ---- -- ------<br>------- --- ------ ----- --- ---- ------- -- ---- --- --<br>------- ------,130454.09999999963,130453.5,130007.147,130022.40000000037,130023.812,130457.123,,13,government
screen,html.Screen,0_2_1_1_14,2021-11-26T12:36:25.954Z,,,,,,,,,,,,,,,,54,,,,,,,,,,,,,,420.37699999999313,,response,,,100,,,,,,Space,keypress(Space),,,,,-- --- ---- --- ------ ----- ------- ---- -- --- ------- --<br>------- ---------- bonds. -- ----- -- ----- -- ---- ------<br>--- ----- --- --- ------ -------- ----- --- ------ ----- --<br>----- ----- ---------- --- --- ------ ------ ---- -- ------<br>------- --- ------ ----- --- ---- ------- -- ---- --- --<br>------- ------,130878.09999999963,130877.5,130440.458,130454.19999999925,130457.123,130890.364,,14,bonds.
screen,html.Screen,0_2_1_1_15,2021-11-26T12:36:26.858Z,,,,,,,,,,,,,,,,54,,,,,,,,,,,,,,891.1359999999986,,response,,,100,,,,,,Space,keypress(Space),,,,,-- --- ---- --- ------ ----- ------- ---- -- --- ------- --<br>------- ---------- ------ In ----- -- ----- -- ---- ------<br>--- ----- --- --- ------ -------- ----- --- ------ ----- --<br>----- ----- ---------- --- --- ------ ------ ---- -- ------<br>------- --- ------ ----- --- ---- ------- -- ---- --- --<br>------- ------,131782.30000000075,131781.5,130873.7,130878.19999999925,130890.364,131790.44,,15,In
screen,html.Screen,0_2_1_1_16,2021-11-26T12:36:27.906Z,,,,,,,,,,,,,,,,54,,,,,,,,,,,,,,1039.0599999999977,,response,,,100,,,,,,Space,keypress(Space),,,,,"-- --- ---- --- ------ ----- ------- ---- -- --- ------- --<br>------- ---------- ------ -- 1727, -- ----- -- ---- ------<br>--- ----- --- --- ------ -------- ----- --- ------ ----- --<br>----- ----- ---------- --- --- ------ ------ ---- -- ------<br>------- --- ------ ----- --- ---- ------- -- ---- --- --<br>------- ------",132830.09999999963,132829.5,131773.774,131782.40000000037,131790.44,132840.319,,16,"1727,"
screen,html.Screen,0_2_1_1_17,2021-11-26T12:36:28.738Z,,,,,,,,,,,,,,,,54,,,,,,,,,,,,,,821.3809999992664,,response,,,100,,,,,,Space,keypress(Space),,,,,-- --- ---- --- ------ ----- ------- ---- -- --- ------- --<br>------- ---------- ------ -- ----- in ----- -- ---- ------<br>--- ----- --- --- ------ -------- ----- --- ------ ----- --<br>----- ----- ---------- --- --- ------ ------ ---- -- ------<br>------- --- ------ ----- --- ---- ------- -- ---- --- --<br>------- ------,133662.19999999925,133661.69999999925,132823.654,132830.30000000075,132840.319,133673.605,,17,in
screen,html.Screen,0_2_1_1_18,2021-11-26T12:36:29.169Z,,,,,,,,,,,,,,,,54,,,,,,,,,,,,,,419.6950000007346,,response,,,100,,,,,,Space,keypress(Space),,,,,-- --- ---- --- ------ ----- ------- ---- -- --- ------- --<br>------- ---------- ------ -- ----- -- order -- ---- ------<br>--- ----- --- --- ------ -------- ----- --- ------ ----- --<br>----- ----- ---------- --- --- ------ ------ ---- -- ------<br>------- --- ------ ----- --- ---- ------- -- ---- --- --<br>------- ------,134093.90000000037,134093.30000000075,133656.94,133662.5,133673.605,134106.938,,18,order
screen,html.Screen,0_2_1_1_19,2021-11-26T12:36:29.705Z,,,,,,,,,,,,,,,,54,,,,,,,,,,,,,,522.3620000007504,,response,,,100,,,,,,Space,keypress(Space),,,,,-- --- ---- --- ------ ----- ------- ---- -- --- ------- --<br>------- ---------- ------ -- ----- -- ----- to ---- ------<br>--- ----- --- --- ------ -------- ----- --- ------ ----- --<br>----- ----- ---------- --- --- ------ ------ ---- -- ------<br>------- --- ------ ----- --- ---- ------- -- ---- --- --<br>------- ------,134630,134629.30000000075,134090.273,134094.09999999963,134106.938,134640.214,,19,to
screen,html.Screen,0_2_1_1_20,2021-11-26T12:36:30.273Z,,,,,,,,,,,,,,,,54,,,,,,,,,,,,,,557.0860000007378,,response,,,100,,,,,,Space,keypress(Space),,,,,-- --- ---- --- ------ ----- ------- ---- -- --- ------- --<br>------- ---------- ------ -- ----- -- ----- -- save ------<br>--- ----- --- --- ------ -------- ----- --- ------ ----- --<br>----- ----- ---------- --- --- ------ ------ ---- -- ------<br>------- --- ------ ----- --- ---- ------- -- ---- --- --<br>------- ------,135198,135197.30000000075,134623.549,134630.09999999963,134640.214,135206.938,,20,save
screen,html.Screen,0_2_1_1_21,2021-11-26T12:36:30.929Z,,,,,,,,,,,,,,,,54,,,,,,,,,,,,,,646.3620000007504,,response,,,100,,,,,,Space,keypress(Space),,,,,"-- --- ---- --- ------ ----- ------- ---- -- --- ------- --<br>------- ---------- ------ -- ----- -- ----- -- ---- money,<br>--- ----- --- --- ------ -------- ----- --- ------ ----- --<br>----- ----- ---------- --- --- ------ ------ ---- -- ------<br>------- --- ------ ----- --- ---- ------- -- ---- --- --<br>------- ------",135853.90000000037,135853.30000000075,135190.272,135198.09999999963,135206.938,135856.857,,21,"money,"
screen,html.Screen,0_2_1_1_22,2021-11-26T12:36:31.473Z,,,,,,,,,,,,,,,,54,,,,,,,,,,,,,,540.3429999992659,,response,,,100,,,,,,Space,keypress(Space),,,,,-- --- ---- --- ------ ----- ------- ---- -- --- ------- --<br>------- ---------- ------ -- ----- -- ----- -- ---- ------<br>the ----- --- --- ------ -------- ----- --- ------ ----- --<br>----- ----- ---------- --- --- ------ ------ ---- -- ------<br>------- --- ------ ----- --- ---- ------- -- ---- --- --<br>------- ------,136397.80000000075,136397.19999999925,135840.192,135854.09999999963,135856.857,136406.816,,22,the
screen,html.Screen,0_2_1_1_23,2021-11-26T12:36:31.866Z,,,,,,,,,,,,,,,,54,,,,,,,,,,,,,,382.98400000075344,,response,,,100,,,,,,Space,keypress(Space),,,,,-- --- ---- --- ------ ----- ------- ---- -- --- ------- --<br>------- ---------- ------ -- ----- -- ----- -- ---- ------<br>--- state --- --- ------ -------- ----- --- ------ ----- --<br>----- ----- ---------- --- --- ------ ------ ---- -- ------<br>------- --- ------ ----- --- ---- ------- -- ---- --- --<br>------- ------,136790.40000000037,136789.80000000075,136390.151,136398,136406.816,136806.806,,23,state
screen,html.Screen,0_2_1_1_24,2021-11-26T12:36:32.633Z,,,,,,,,,,,,,,,,54,,,,,,,,,,,,,,750.3939999992435,,response,,,100,,,,,,Space,keypress(Space),,,,,-- --- ---- --- ------ ----- ------- ---- -- --- ------- --<br>------- ---------- ------ -- ----- -- ----- -- ---- ------<br>--- ----- cut --- ------ -------- ----- --- ------ ----- --<br>----- ----- ---------- --- --- ------ ------ ---- -- ------<br>------- --- ------ ----- --- ---- ------- -- ---- --- --<br>------- ------,137557.80000000075,137557.19999999925,136790.141,136790.59999999963,136806.806,137573.417,,24,cut
screen,html.Screen,0_2_1_1_25,2021-11-26T12:36:33.017Z,,,,,,,,,,,,,,,,54,,,,,,,,,,,,,,367.7829999992682,,response,,,100,,,,,,Space,keypress(Space),,,,,-- --- ---- --- ------ ----- ------- ---- -- --- ------- --<br>------- ---------- ------ -- ----- -- ----- -- ---- ------<br>--- ----- --- the ------ -------- ----- --- ------ ----- --<br>----- ----- ---------- --- --- ------ ------ ---- -- ------<br>------- --- ------ ----- --- ---- ------- -- ---- --- --<br>------- ------,137941.69999999925,137941.19999999925,137556.752,137558.09999999963,137573.417,137956.763,,25,the
screen,html.Screen,0_2_1_1_26,2021-11-26T12:36:33.417Z,,,,,,,,,,,,,,,,54,,,,,,,,,,,,,,384.43699999924866,,response,,,100,,,,,,Space,keypress(Space),,,,,-- --- ---- --- ------ ----- ------- ---- -- --- ------- --<br>------- ---------- ------ -- ----- -- ----- -- ---- ------<br>--- ----- --- --- bonds' -------- ----- --- ------ ----- --<br>----- ----- ---------- --- --- ------ ------ ---- -- ------<br>------- --- ------ ----- --- ---- ------- -- ---- --- --<br>------- ------,138341.69999999925,138341.19999999925,137940.098,137941.90000000037,137956.763,138356.749,,26,bonds'
screen,html.Screen,0_2_1_1_27,2021-11-26T12:36:34.089Z,,,,,,,,,,,,,,,,54,,,,,,,,,,,,,,656.4509999992442,,response,,,100,,,,,,Space,keypress(Space),,,,,-- --- ---- --- ------ ----- ------- ---- -- --- ------- --<br>------- ---------- ------ -- ----- -- ----- -- ---- ------<br>--- ----- --- --- ------ interest ----- --- ------ ----- --<br>----- ----- ---------- --- --- ------ ------ ---- -- ------<br>------- --- ------ ----- --- ---- ------- -- ---- --- --<br>------- ------,139013.90000000037,139013.19999999925,138340.084,138341.80000000075,138356.749,139023.348,,27,interest
screen,html.Screen,0_2_1_1_28,2021-11-26T12:36:34.761Z,,,,,,,,,,,,,,,,54,,,,,,,,,,,,,,661.8519999992568,,response,,,100,,,,,,Space,keypress(Space),,,,,-- --- ---- --- ------ ----- ------- ---- -- --- ------- --<br>------- ---------- ------ -- ----- -- ----- -- ---- ------<br>--- ----- --- --- ------ -------- rate. --- ------ ----- --<br>----- ----- ---------- --- --- ------ ------ ---- -- ------<br>------- --- ------ ----- --- ---- ------- -- ---- --- --<br>------- ------,139685.80000000075,139685.19999999925,139006.683,139014,139023.348,139689.903,,28,rate.
screen,html.Screen,0_2_1_1_29,2021-11-26T12:36:35.177Z,,,,,,,,,,,,,,,,54,,,,,,,,,,,,,,411.09700000000885,,response,,,100,,,,,,Space,keypress(Space),,,,,-- --- ---- --- ------ ----- ------- ---- -- --- ------- --<br>------- ---------- ------ -- ----- -- ----- -- ---- ------<br>--- ----- --- --- ------ -------- ----- The ------ ----- --<br>----- ----- ---------- --- --- ------ ------ ---- -- ------<br>------- --- ------ ----- --- ---- ------- -- ---- --- --<br>------- ------,140101.59999999963,140101,139673.239,139685.90000000037,139689.903,140106.697,,29,The
screen,html.Screen,0_2_1_1_30,2021-11-26T12:36:35.721Z,,,,,,,,,,,,,,,,54,,,,,,,,,,,,,,538.3030000000144,,response,,,100,,,,,,Space,keypress(Space),,,,,-- --- ---- --- ------ ----- ------- ---- -- --- ------- --<br>------- ---------- ------ -- ----- -- ----- -- ---- ------<br>--- ----- --- --- ------ -------- ----- --- market ----- --<br>----- ----- ---------- --- --- ------ ------ ---- -- ------<br>------- --- ------ ----- --- ---- ------- -- ---- --- --<br>------- ------,140645.59999999963,140645,140090.031,140101.69999999925,140106.697,140656.617,,30,market
screen,html.Screen,0_2_1_1_31,2021-11-26T12:36:36.329Z,,,,,,,,,,,,,,,,54,,,,,,,,,,,,,,596.3830000000016,,response,,,100,,,,,,Space,keypress(Space),,,,,-- --- ---- --- ------ ----- ------- ---- -- --- ------- --<br>------- ---------- ------ -- ----- -- ----- -- ---- ------<br>--- ----- --- --- ------ -------- ----- --- ------ value --<br>----- ----- ---------- --- --- ------ ------ ---- -- ------<br>------- --- ------ ----- --- ---- ------- -- ---- --- --<br>------- ------,141253.69999999925,141253,140639.952,140645.80000000075,140656.617,141256.404,,31,value
screen,html.Screen,0_2_1_1_32,2021-11-26T12:36:36.793Z,,,,,,,,,,,,,,,,54,,,,,,,,,,,,,,460.59599999999045,,response,,,100,,,,,,Space,keypress(Space),,,,,-- --- ---- --- ------ ----- ------- ---- -- --- ------- --<br>------- ---------- ------ -- ----- -- ----- -- ---- ------<br>--- ----- --- --- ------ -------- ----- --- ------ ----- of<br>----- ----- ---------- --- --- ------ ------ ---- -- ------<br>------- --- ------ ----- --- ---- ------- -- ---- --- --<br>------- ------,141717.59999999963,141717,141239.741,141253.90000000037,141256.404,141723.266,,32,of
screen,html.Screen,0_2_1_1_33,2021-11-26T12:36:37.441Z,,,,,,,,,,,,,,,,54,,,,,,,,,,,,,,641.6340000003693,,response,,,100,,,,,,Space,keypress(Space),,,,,-- --- ---- --- ------ ----- ------- ---- -- --- ------- --<br>------- ---------- ------ -- ----- -- ----- -- ---- ------<br>--- ----- --- --- ------ -------- ----- --- ------ ----- --<br>these ----- ---------- --- --- ------ ------ ---- -- ------<br>------- --- ------ ----- --- ---- ------- -- ---- --- --<br>------- ------,142365.59999999963,142364.90000000037,141706.6,141717.80000000075,141723.266,142373.255,,33,these
screen,html.Screen,0_2_1_1_34,2021-11-26T12:36:38.121Z,,,,,,,,,,,,,,,,54,,,,,,,,,,,,,,671.6450000003679,,response,,,100,,,,,,Space,keypress(Space),,,,,-- --- ---- --- ------ ----- ------- ---- -- --- ------- --<br>------- ---------- ------ -- ----- -- ----- -- ---- ------<br>--- ----- --- --- ------ -------- ----- --- ------ ----- --<br>----- bonds ---------- --- --- ------ ------ ---- -- ------<br>------- --- ------ ----- --- ---- ------- -- ---- --- --<br>------- ------,143045.59999999963,143044.90000000037,142356.589,142365.80000000075,142373.255,143056.385,,34,bonds
screen,html.Screen,0_2_1_1_35,2021-11-26T12:36:39.033Z,,,,,,,,,,,,,,,,54,,,,,,,,,,,,,,900.7149999996182,,response,,,100,,,,,,Space,keypress(Space),,,,,"-- --- ---- --- ------ ----- ------- ---- -- --- ------- --<br>------- ---------- ------ -- ----- -- ----- -- ---- ------<br>--- ----- --- --- ------ -------- ----- --- ------ ----- --<br>----- ----- plummeted, --- --- ------ ------ ---- -- ------<br>------- --- ------ ----- --- ---- ------- -- ---- --- --<br>------- ------",143957.69999999925,143957.09999999963,143039.721,143045.90000000037,143056.385,143973.065,,35,"plummeted,"
screen,html.Screen,0_2_1_1_36,2021-11-26T12:36:39.513Z,,,,,,,,,,,,,,,,54,,,,,,,,,,,,,,463.73500000074273,,response,,,100,,,,,,Space,keypress(Space),,,,,-- --- ---- --- ------ ----- ------- ---- -- --- ------- --<br>------- ---------- ------ -- ----- -- ----- -- ---- ------<br>--- ----- --- --- ------ -------- ----- --- ------ ----- --<br>----- ----- ---------- and --- ------ ------ ---- -- ------<br>------- --- ------ ----- --- ---- ------- -- ---- --- --<br>------- ------,144437.30000000075,144436.80000000075,143956.4,143957.90000000037,143973.065,144439.814,,36,and
screen,html.Screen,0_2_1_1_37,2021-11-26T12:36:39.881Z,,,,,,,,,,,,,,,,54,,,,,,,,,,,,,,364.986000000732,,response,,,100,,,,,,Space,keypress(Space),,,,,-- --- ---- --- ------ ----- ------- ---- -- --- ------- --<br>------- ---------- ------ -- ----- -- ----- -- ---- ------<br>--- ----- --- --- ------ -------- ----- --- ------ ----- --<br>----- ----- ---------- --- the ------ ------ ---- -- ------<br>------- --- ------ ----- --- ---- ------- -- ---- --- --<br>------- ------,144805.40000000037,144804.80000000075,144423.148,144437.59999999963,144439.814,144806.379,,37,the
screen,html.Screen,0_2_1_1_38,2021-11-26T12:36:40.681Z,,,,,,,,,,,,,,,,54,,,,,,,,,,,,,,798.4210000007588,,response,,,100,,,,,,Space,keypress(Space),,,,,-- --- ---- --- ------ ----- ------- ---- -- --- ------- --<br>------- ---------- ------ -- ----- -- ----- -- ---- ------<br>--- ----- --- --- ------ -------- ----- --- ------ ----- --<br>----- ----- ---------- --- --- market ------ ---- -- ------<br>------- --- ------ ----- --- ---- ------- -- ---- --- --<br>------- ------,145605.5,145604.80000000075,144789.714,144805.59999999963,144806.379,145606.406,,38,market
screen,html.Screen,0_2_1_1_39,2021-11-26T12:36:41.177Z,,,,,,,,,,,,,,,,54,,,,,,,,,,,,,,494.2939999992668,,response,,,100,,,,,,Space,keypress(Space),,,,,-- --- ---- --- ------ ----- ------- ---- -- --- ------- --<br>------- ---------- ------ -- ----- -- ----- -- ---- ------<br>--- ----- --- --- ------ -------- ----- --- ------ ----- --<br>----- ----- ---------- --- --- ------ became ---- -- ------<br>------- --- ------ ----- --- ---- ------- -- ---- --- --<br>------- ------,146101.40000000037,146100.69999999925,145589.74,145605.59999999963,145606.406,146106.373,,39,became
screen,html.Screen,0_2_1_1_40,2021-11-26T12:36:41.761Z,,,,,,,,,,,,,,,,54,,,,,,,,,,,,,,578.4270000007527,,response,,,100,,,,,,Space,keypress(Space),,,,,-- --- ---- --- ------ ----- ------- ---- -- --- ------- --<br>------- ---------- ------ -- ----- -- ----- -- ---- ------<br>--- ----- --- --- ------ -------- ----- --- ------ ----- --<br>----- ----- ---------- --- --- ------ ------ wary -- ------<br>------- --- ------ ----- --- ---- ------- -- ---- --- --<br>------- ------,146685.30000000075,146684.80000000075,146089.707,146101.5,146106.373,146689.66,,40,wary
screen,html.Screen,0_2_1_1_41,2021-11-26T12:36:42.161Z,,,,,,,,,,,,,,,,54,,,,,,,,,,,,,,395.03999999925145,,response,,,100,,,,,,Space,keypress(Space),,,,,-- --- ---- --- ------ ----- ------- ---- -- --- ------- --<br>------- ---------- ------ -- ----- -- ----- -- ---- ------<br>--- ----- --- --- ------ -------- ----- --- ------ ----- --<br>----- ----- ---------- --- --- ------ ------ ---- of ------<br>------- --- ------ ----- --- ---- ------- -- ---- --- --<br>------- ------,147085.30000000075,147084.69999999925,146672.995,146685.5,146689.66,147089.633,,41,of
screen,html.Screen,0_2_1_1_42,2021-11-26T12:36:42.569Z,,,,,,,,,,,,,,,,54,,,,,,,,,,,,,,403.0669999992533,,response,,,100,,,,,,Space,keypress(Space),,,,,-- --- ---- --- ------ ----- ------- ---- -- --- ------- --<br>------- ---------- ------ -- ----- -- ----- -- ---- ------<br>--- ----- --- --- ------ -------- ----- --- ------ ----- --<br>----- ----- ---------- --- --- ------ ------ ---- -- French<br>------- --- ------ ----- --- ---- ------- -- ---- --- --<br>------- ------,147493.30000000075,147492.69999999925,147072.968,147085.40000000037,147089.633,147506.297,,42,French
screen,html.Screen,0_2_1_1_43,2021-11-26T12:36:43.017Z,,,,,,,,,,,,,,,,54,,,,,,,,,,,,,,434.40299999926356,,response,,,100,,,,,,Space,keypress(Space),,,,,-- --- ---- --- ------ ----- ------- ---- -- --- ------- --<br>------- ---------- ------ -- ----- -- ----- -- ---- ------<br>--- ----- --- --- ------ -------- ----- --- ------ ----- --<br>----- ----- ---------- --- --- ------ ------ ---- -- ------<br>credit. --- ------ ----- --- ---- ------- -- ---- --- --<br>------- ------,147941.19999999925,147940.69999999925,147489.632,147493.40000000037,147506.297,147956.276,,43,credit.
screen,html.Screen,0_2_1_1_44,2021-11-26T12:36:43.505Z,,,,,,,,,,,,,,,,54,,,,,,,,,,,,,,472.3239999996149,,response,,,100,,,,,,Space,keypress(Space),,,,,-- --- ---- --- ------ ----- ------- ---- -- --- ------- --<br>------- ---------- ------ -- ----- -- ----- -- ---- ------<br>--- ----- --- --- ------ -------- ----- --- ------ ----- --<br>----- ----- ---------- --- --- ------ ------ ---- -- ------<br>------- The ------ ----- --- ---- ------- -- ---- --- --<br>------- ------,148429.19999999925,148428.59999999963,147939.611,147941.40000000037,147956.276,148439.555,,44,The
screen,html.Screen,0_2_1_1_45,2021-11-26T12:36:44.073Z,,,,,,,,,,,,,,,,54,,,,,,,,,,,,,,557.1449999992619,,response,,,100,,,,,,Space,keypress(Space),,,,,-- --- ---- --- ------ ----- ------- ---- -- --- ------- --<br>------- ---------- ------ -- ----- -- ----- -- ---- ------<br>--- ----- --- --- ------ -------- ----- --- ------ ----- --<br>----- ----- ---------- --- --- ------ ------ ---- -- ------<br>------- --- French ----- --- ---- ------- -- ---- --- --<br>------- ------,148997.19999999925,148996.69999999925,148422.89,148429.30000000075,148439.555,149006.211,,45,French
screen,html.Screen,0_2_1_1_46,2021-11-26T12:36:44.489Z,,,,,,,,,,,,,,,,54,,,,,,,,,,,,,,406.28899999998976,,response,,,100,,,,,,Space,keypress(Space),,,,,-- --- ---- --- ------ ----- ------- ---- -- --- ------- --<br>------- ---------- ------ -- ----- -- ----- -- ---- ------<br>--- ----- --- --- ------ -------- ----- --- ------ ----- --<br>----- ----- ---------- --- --- ------ ------ ---- -- ------<br>------- --- ------ state --- ---- ------- -- ---- --- --<br>------- ------,149413.09999999963,149412.5,148989.546,148997.40000000037,149006.211,149422.853,,46,state
screen,html.Screen,0_2_1_1_47,2021-11-26T12:36:44.937Z,,,,,,,,,,,,,,,,54,,,,,,,,,,,,,,437.7469999996247,,response,,,100,,,,,,Space,keypress(Space),,,,,-- --- ---- --- ------ ----- ------- ---- -- --- ------- --<br>------- ---------- ------ -- ----- -- ----- -- ---- ------<br>--- ----- --- --- ------ -------- ----- --- ------ ----- --<br>----- ----- ---------- --- --- ------ ------ ---- -- ------<br>------- --- ------ ----- was ---- ------- -- ---- --- --<br>------- ------,149861.19999999925,149860.59999999963,149406.188,149413.30000000075,149422.853,149872.829,,47,was
screen,html.Screen,0_2_1_1_48,2021-11-26T12:36:45.329Z,,,,,,,,,,,,,,,,54,,,,,,,,,,,,,,379.6710000000021,,response,,,100,,,,,,Space,keypress(Space),,,,,-- --- ---- --- ------ ----- ------- ---- -- --- ------- --<br>------- ---------- ------ -- ----- -- ----- -- ---- ------<br>--- ----- --- --- ------ -------- ----- --- ------ ----- --<br>----- ----- ---------- --- --- ------ ------ ---- -- ------<br>------- --- ------ ----- --- left ------- -- ---- --- --<br>------- ------,150253.19999999925,150252.5,149856.164,149861.30000000075,149872.829,150256.038,,48,left
screen,html.Screen,0_2_1_1_49,2021-11-26T12:36:45.713Z,,,,,,,,,,,,,,,,54,,,,,,,,,,,,,,380.46199999999953,,response,,,100,,,,,,Space,keypress(Space),,,,,-- --- ---- --- ------ ----- ------- ---- -- --- ------- --<br>------- ---------- ------ -- ----- -- ----- -- ---- ------<br>--- ----- --- --- ------ -------- ----- --- ------ ----- --<br>----- ----- ---------- --- --- ------ ------ ---- -- ------<br>------- --- ------ ----- --- ---- without -- ---- --- --<br>------- ------,150637,150636.5,150239.374,150253.30000000075,150256.038,150639.484,,49,without
screen,html.Screen,0_2_1_1_50,2021-11-26T12:36:46.097Z,,,,,,,,,,,,,,,,54,,,,,,,,,,,,,,381.01600000000326,,response,,,100,,,,,,Space,keypress(Space),,,,,-- --- ---- --- ------ ----- ------- ---- -- --- ------- --<br>------- ---------- ------ -- ----- -- ----- -- ---- ------<br>--- ----- --- --- ------ -------- ----- --- ------ ----- --<br>----- ----- ---------- --- --- ------ ------ ---- -- ------<br>------- --- ------ ----- --- ---- ------- an ---- --- --<br>------- ------,151021.09999999963,151020.5,150622.818,150637.19999999925,150639.484,151022.802,,50,an
screen,html.Screen,0_2_1_1_51,2021-11-26T12:36:46.561Z,,,,,,,,,,,,,,,,54,,,,,,,,,,,,,,461.69800000000396,,response,,,100,,,,,,Space,keypress(Space),,,,,-- --- ---- --- ------ ----- ------- ---- -- --- ------- --<br>------- ---------- ------ -- ----- -- ----- -- ---- ------<br>--- ----- --- --- ------ -------- ----- --- ------ ----- --<br>----- ----- ---------- --- --- ------ ------ ---- -- ------<br>------- --- ------ ----- --- ---- ------- -- easy --- --<br>------- ------,151485.09999999963,151484.5,151006.136,151021.30000000075,151022.802,151489.466,,51,easy
screen,html.Screen,0_2_1_1_52,2021-11-26T12:36:46.985Z,,,,,,,,,,,,,,,,54,,,,,,,,,,,,,,419.0340000000142,,response,,,100,,,,,,Space,keypress(Space),,,,,-- --- ---- --- ------ ----- ------- ---- -- --- ------- --<br>------- ---------- ------ -- ----- -- ----- -- ---- ------<br>--- ----- --- --- ------ -------- ----- --- ------ ----- --<br>----- ----- ---------- --- --- ------ ------ ---- -- ------<br>------- --- ------ ----- --- ---- ------- -- ---- way --<br>------- ------,151909.09999999963,151908.5,151472.8,151485.19999999925,151489.466,151922.647,,52,way
screen,html.Screen,0_2_1_1_53,2021-11-26T12:36:47.368Z,,,,,,,,,,,,,,,,54,,,,,,,,,,,,,,369.7530000003753,,response,,,100,,,,,,Space,keypress(Space),,,,,-- --- ---- --- ------ ----- ------- ---- -- --- ------- --<br>------- ---------- ------ -- ----- -- ----- -- ---- ------<br>--- ----- --- --- ------ -------- ----- --- ------ ----- --<br>----- ----- ---------- --- --- ------ ------ ---- -- ------<br>------- --- ------ ----- --- ---- ------- -- ---- --- of<br>------- ------,152293,152292.40000000037,151905.983,151909.19999999925,151922.647,152306.11,,53,of
screen,html.Screen,0_2_1_1_54,2021-11-26T12:36:47.857Z,,,,,,,,,,,,,,,,54,,,,,,,,,,,,,,474.39000000001397,,response,,,100,,,,,,Space,keypress(Space),,,,,-- --- ---- --- ------ ----- ------- ---- -- --- ------- --<br>------- ---------- ------ -- ----- -- ----- -- ---- ------<br>--- ----- --- --- ------ -------- ----- --- ------ ----- --<br>----- ----- ---------- --- --- ------ ------ ---- -- ------<br>------- --- ------ ----- --- ---- ------- -- ---- --- --<br>raising ------,152781,152780.5,152289.444,152293.09999999963,152306.11,152789.271,,54,raising
screen,html.Screen,0_2_1_1_55,2021-11-26T12:36:48.801Z,,,,,,,,,,,,,,,,54,,,,,,,,,,,,,,935.1290000003646,,response,,,100,,,,,,Space,keypress(Space),,,,,-- --- ---- --- ------ ----- ------- ---- -- --- ------- --<br>------- ---------- ------ -- ----- -- ----- -- ---- ------<br>--- ----- --- --- ------ -------- ----- --- ------ ----- --<br>----- ----- ---------- --- --- ------ ------ ---- -- ------<br>------- --- ------ ----- --- ---- ------- -- ---- --- --<br>------- money.,153725.09999999963,153724.40000000037,152772.607,152781.19999999925,152789.271,153739.369,,55,money.
Item 100,flow.Loop,0_2_1_1,2021-11-26T12:36:48.801Z,,,,,,,,,,,,,,,,,,,,,,,,,,,,,,31166.93000000037,,completion,,,,A,,,,,,,,,,silence,,153725.5,153724.40000000037,122540.805,122542.40000000037,122557.47,153739.369,,,
Question 1,html.Screen,0_2_1_2,2021-11-26T12:36:53.078Z,,,,,,,,,,,,,,,,,,,,,,,,,,,true,TRUE,,4262.431000000739,,response,,,100,A,,,,,TRUE,click #choice-1,,,,silence,,158002.69999999925,158001.80000000075,153722.703,153725.59999999963,153739.369,158005.737,,,
Question 2,html.Screen,0_2_1_3,2021-11-26T12:36:56.273Z,,,,,,,,,,,,,,,,,,,,,,,,,,,true,FALSE,,3190.9629999992612,,response,,,100,A,,,,,FALSE,click #choice-2,,,,silence,,161197.5,161196.69999999925,157989.072,158002.90000000037,158005.737,161205.834,,,
Item 100,flow.Sequence,0_2_1,2021-11-26T12:36:56.273Z,,,,,,,,,,,,,,,,,,,,,,,,,,,,,,48638.737999999255,,completion,,,,,,,,,,,,,,,,161197.69999999925,161196.69999999925,112541.297,112555.30000000075,112557.962,161205.834,,,
End of Practice,html.Page,0_2_2,2021-11-26T12:37:02.852Z,,,,,,,,,,,,,,,,,,,,,,,,,,,,,,6569.865999999252,,form submission,,,,,,,,,,,,,,,,167776.30000000075,167775.69999999925,161189.149,161197.80000000075,161205.834,167787.536,,,
Practice,flow.Sequence,0_2,2021-11-26T12:37:02.852Z,,,,,,,,,,,,,,,,,,,,,,,,,,,,,,111381.61199999925,,completion,,,,,,,,,,,,,,,,167776.59999999963,167775.69999999925,56377.423,56386,56394.088,167787.536,,,
Trap_instruction,html.Page,0_3_0,2021-11-26T12:37:08.946Z,,,,,,,,,,,,,,,,,,,,,,,,,,,,,,6082.964000000007,,form submission,,,,,,,,,,,,,,,,173870.80000000075,173870.5,167770.873,167776.80000000075,167787.536,173888.126,,,
trap_trial,html.Screen,0_3_1,2021-11-26T12:37:12.417Z,,,,,,,,,,,,,,,,,,,,,,,,,,,true,1,,3452.473999999638,,response,,,,,,,,,1,click #choice-1,,,,,,177341.5,177340.59999999963,173854.796,173871,173888.126,177354.62,,,
end of trap trial,html.Page,0_3_2,2021-11-26T12:37:16.116Z,,,,,,,,,,,,,,,,,,,,,,,,,,,,,,3682.479999999632,,form submission,,,,,,,,,,,,,,,,181037.5,181037.09999999963,177337.955,177341.69999999925,177354.62,181037.901,,,
Trap 1,flow.Sequence,0_3,2021-11-26T12:37:16.116Z,,,,,,,,,,,,,,,,,,,,,,,,,,,,,,13249.563999999635,,completion,,,,,,,,,,,,,,,,181037.69999999925,181037.09999999963,167770.873,167776.69999999925,167787.536,181037.901,,,
Standby,html.Page,0_4_0,2021-11-26T12:37:24.100Z,,,,,,,,,,,,,,,,,,,,,,,,,,,,,,7999.250999999989,,timeout,,,,,,,,,,,,,,,,189021.5,189020.487,181021.236,181037.90000000037,181037.901,189037.152,,,
Holding screen,html.Screen,0_4_1_0_0,2021-11-26T12:37:31.100Z,,,,,,,,,,,,,,,,,,,,,,,,,,,,,,7000.005999999994,,timeout,,,,,,,,,,,,,,,,196021.40000000037,196020.493,189020.487,189021.69999999925,189037.152,196037.158,,,
screen,html.Screen,0_4_1_0_1_0,2021-11-26T12:37:32.682Z,,,,,,,,,,,,,,,,15,,,,,,,,,,,,,,1565.4419999996317,,response,,,7,A,,,,,Space,keypress(Space),,,,silence,Greg --------- ---------- - --- ------- -- --- ------------<br>----- -- -------- ------- ---- ------ - -------- ---- -----<br>--- ------- ---- -- --- -------- --- - ----- ------ ---- --<br>-------- --- -------- -------- --- -------- ---- -- ----- -<br>-------- ---- --- ---------- --------- -- ------- ------ -<br>--------- ----- -----,197603.30000000075,197602.59999999963,196020.493,196021.69999999925,196037.158,197603.718,,0,Greg
screen,html.Screen,0_4_1_0_1_1,2021-11-26T12:37:33.249Z,,,,,,,,,,,,,,,,15,,,,,,,,,,,,,,566.4819999992615,,response,,,7,A,,,,,Space,keypress(Space),,,,silence,"---- Anderson, ---------- - --- ------- -- --- ------------<br>----- -- -------- ------- ---- ------ - -------- ---- -----<br>--- ------- ---- -- --- -------- --- - ----- ------ ---- --<br>-------- --- -------- -------- --- -------- ---- -- ----- -<br>-------- ---- --- ---------- --------- -- ------- ------ -<br>--------- ----- -----",198170.80000000075,198170.19999999925,197587.053,197603.40000000037,197603.718,198187.111,,1,"Anderson,"
screen,html.Screen,0_4_1_0_1_2,2021-11-26T12:37:33.809Z,,,,,,,,,,,,,,,,15,,,,,,,,,,,,,,543.0889999992505,,response,,,7,A,,,,,Space,keypress(Space),,,,silence,---- --------- considered - --- ------- -- --- ------------<br>----- -- -------- ------- ---- ------ - -------- ---- -----<br>--- ------- ---- -- --- -------- --- - ----- ------ ---- --<br>-------- --- -------- -------- --- -------- ---- -- ----- -<br>-------- ---- --- ---------- --------- -- ------- ------ -<br>--------- ----- -----,198730.90000000037,198730.19999999925,198170.446,198171,198187.111,198737.05,,2,considered
screen,html.Screen,0_4_1_0_1_3,2021-11-26T12:37:34.209Z,,,,,,,,,,,,,,,,15,,,,,,,,,,,,,,393.0499999996391,,response,,,7,A,,,,,Space,keypress(Space),,,,silence,---- --------- ---------- a --- ------- -- --- ------------<br>----- -- -------- ------- ---- ------ - -------- ---- -----<br>--- ------- ---- -- --- -------- --- - ----- ------ ---- --<br>-------- --- -------- -------- --- -------- ---- -- ----- -<br>-------- ---- --- ---------- --------- -- ------- ------ -<br>--------- ----- -----,199130.90000000037,199130.09999999963,198720.385,198731,198737.05,199137.139,,3,a
screen,html.Screen,0_4_1_0_1_4,2021-11-26T12:37:34.849Z,,,,,,,,,,,,,,,,15,,,,,,,,,,,,,,632.9609999996319,,response,,,7,A,,,,,Space,keypress(Space),,,,silence,---- --------- ---------- - key ------- -- --- ------------<br>----- -- -------- ------- ---- ------ - -------- ---- -----<br>--- ------- ---- -- --- -------- --- - ----- ------ ---- --<br>-------- --- -------- -------- --- -------- ---- -- ----- -<br>-------- ---- --- ---------- --------- -- ------- ------ -<br>--------- ----- -----,199770.80000000075,199770.09999999963,199120.473,199131.09999999963,199137.139,199786.939,,4,key
screen,html.Screen,0_4_1_0_1_5,2021-11-26T12:37:35.473Z,,,,,,,,,,,,,,,,15,,,,,,,,,,,,,,607.1609999996144,,response,,,7,A,,,,,Space,keypress(Space),,,,silence,---- --------- ---------- - --- witness -- --- ------------<br>----- -- -------- ------- ---- ------ - -------- ---- -----<br>--- ------- ---- -- --- -------- --- - ----- ------ ---- --<br>-------- --- -------- -------- --- -------- ---- -- ----- -<br>-------- ---- --- ---------- --------- -- ------- ------ -<br>--------- ----- -----,200394.59999999963,200394.09999999963,199770.275,199771,199786.939,200403.788,,5,witness
screen,html.Screen,0_4_1_0_1_6,2021-11-26T12:37:35.913Z,,,,,,,,,,,,,,,,15,,,,,,,,,,,,,,430.311999999627,,response,,,7,A,,,,,Space,keypress(Space),,,,silence,---- --------- ---------- - --- ------- by --- ------------<br>----- -- -------- ------- ---- ------ - -------- ---- -----<br>--- ------- ---- -- --- -------- --- - ----- ------ ---- --<br>-------- --- -------- -------- --- -------- ---- -- ----- -<br>-------- ---- --- ---------- --------- -- ------- ------ -<br>--------- ----- -----,200834.59999999963,200834.09999999963,200387.121,200394.80000000075,200403.788,200836.989,,6,by
screen,html.Screen,0_4_1_0_1_7,2021-11-26T12:37:36.289Z,,,,,,,,,,,,,,,,15,,,,,,,,,,,,,,373.1109999996261,,response,,,7,A,,,,,Space,keypress(Space),,,,silence,---- --------- ---------- - --- ------- -- the ------------<br>----- -- -------- ------- ---- ------ - -------- ---- -----<br>--- ------- ---- -- --- -------- --- - ----- ------ ---- --<br>-------- --- -------- -------- --- -------- ---- -- ----- -<br>-------- ---- --- ---------- --------- -- ------- ------ -<br>--------- ----- -----,201210.69999999925,201210.09999999963,200820.324,200834.80000000075,200836.989,201220.245,,7,the
screen,html.Screen,0_4_1_0_1_8,2021-11-26T12:37:37.609Z,,,,,,,,,,,,,,,,15,,,,,,,,,,,,,,1309.7550000000047,,response,,,7,A,,,,,Space,keypress(Space),,,,silence,"---- --------- ---------- - --- ------- -- --- prosecution,<br>----- -- -------- ------- ---- ------ - -------- ---- -----<br>--- ------- ---- -- --- -------- --- - ----- ------ ---- --<br>-------- --- -------- -------- --- -------- ---- -- ----- -<br>-------- ---- --- ---------- --------- -- ------- ------ -<br>--------- ----- -----",202530.69999999925,202530,201203.581,201210.80000000075,201220.245,202536.948,,8,"prosecution,"
screen,html.Screen,0_4_1_0_1_9,2021-11-26T12:37:38.305Z,,,,,,,,,,,,,,,,15,,,,,,,,,,,,,,688.9520000003686,,response,,,7,A,,,,,Space,keypress(Space),,,,silence,---- --------- ---------- - --- ------- -- --- ------------<br>vowed -- -------- ------- ---- ------ - -------- ---- -----<br>--- ------- ---- -- --- -------- --- - ----- ------ ---- --<br>-------- --- -------- -------- --- -------- ---- -- ----- -<br>-------- ---- --- ---------- --------- -- ------- ------ -<br>--------- ----- -----,203226.5,203225.90000000037,202520.282,202530.90000000037,202536.948,203236.874,,9,vowed
screen,html.Screen,0_4_1_0_1_10,2021-11-26T12:37:38.665Z,,,,,,,,,,,,,,,,15,,,,,,,,,,,,,,349.0260000003618,,response,,,7,A,,,,,Space,keypress(Space),,,,silence,---- --------- ---------- - --- ------- -- --- ------------<br>----- he -------- ------- ---- ------ - -------- ---- -----<br>--- ------- ---- -- --- -------- --- - ----- ------ ---- --<br>-------- --- -------- -------- --- -------- ---- -- ----- -<br>-------- ---- --- ---------- --------- -- ------- ------ -<br>--------- ----- -----,203586.5,203585.90000000037,203220.209,203226.69999999925,203236.874,203603.431,,10,he
screen,html.Screen,0_4_1_0_1_11,2021-11-26T12:37:39.105Z,,,,,,,,,,,,,,,,15,,,,,,,,,,,,,,422.4690000003611,,response,,,7,A,,,,,Space,keypress(Space),,,,silence,---- --------- ---------- - --- ------- -- --- ------------<br>----- -- wouldn't ------- ---- ------ - -------- ---- -----<br>--- ------- ---- -- --- -------- --- - ----- ------ ---- --<br>-------- --- -------- -------- --- -------- ---- -- ----- -<br>-------- ---- --- ---------- --------- -- ------- ------ -<br>--------- ----- -----,204026.59999999963,204025.90000000037,203586.767,203586.69999999925,203603.431,204036.885,,11,wouldn't
screen,html.Screen,0_4_1_0_1_12,2021-11-26T12:37:39.657Z,,,,,,,,,,,,,,,,15,,,,,,,,,,,,,,541.0150000003632,,response,,,7,A,,,,,Space,keypress(Space),,,,silence,---- --------- ---------- - --- ------- -- --- ------------<br>----- -- -------- testify ---- ------ - -------- ---- -----<br>--- ------- ---- -- --- -------- --- - ----- ------ ---- --<br>-------- --- -------- -------- --- -------- ---- -- ----- -<br>-------- ---- --- ---------- --------- -- ------- ------ -<br>--------- ----- -----,204578.5,204577.90000000037,204020.219,204026.80000000075,204036.885,204586.801,,12,testify
screen,html.Screen,0_4_1_0_1_13,2021-11-26T12:37:40.385Z,,,,,,,,,,,,,,,,15,,,,,,,,,,,,,,719.0990000003658,,response,,,7,A,,,,,Space,keypress(Space),,,,silence,---- --------- ---------- - --- ------- -- --- ------------<br>----- -- -------- ------- when ------ - -------- ---- -----<br>--- ------- ---- -- --- -------- --- - ----- ------ ---- --<br>-------- --- -------- -------- --- -------- ---- -- ----- -<br>-------- ---- --- ---------- --------- -- ------- ------ -<br>--------- ----- -----,205306.5,205305.90000000037,204570.136,204578.80000000075,204586.801,205320.002,,13,when
screen,html.Screen,0_4_1_0_1_14,2021-11-26T12:37:41.033Z,,,,,,,,,,,,,,,,15,,,,,,,,,,,,,,633.8980000003648,,response,,,7,A,,,,,Space,keypress(Space),,,,silence,---- --------- ---------- - --- ------- -- --- ------------<br>----- -- -------- ------- ---- served - -------- ---- -----<br>--- ------- ---- -- --- -------- --- - ----- ------ ---- --<br>-------- --- -------- -------- --- -------- ---- -- ----- -<br>-------- ---- --- ---------- --------- -- ------- ------ -<br>--------- ----- -----,205954.5,205953.90000000037,205303.338,205306.69999999925,205320.002,205970.036,,14,served
screen,html.Screen,0_4_1_0_1_15,2021-11-26T12:37:41.433Z,,,,,,,,,,,,,,,,15,,,,,,,,,,,,,,383.7640000007523,,response,,,7,A,,,,,Space,keypress(Space),,,,silence,---- --------- ---------- - --- ------- -- --- ------------<br>----- -- -------- ------- ---- ------ a -------- ---- -----<br>--- ------- ---- -- --- -------- --- - ----- ------ ---- --<br>-------- --- -------- -------- --- -------- ---- -- ----- -<br>-------- ---- --- ---------- --------- -- ------- ------ -<br>--------- ----- -----,206354.30000000075,206353.80000000075,205953.371,205954.69999999925,205970.036,206370.021,,15,a
screen,html.Screen,0_4_1_0_1_16,2021-11-26T12:37:43.377Z,,,,,,,,,,,,,,,,15,,,,,,,,,,,,,,1927.978999999992,,response,,,7,A,,,,,Space,keypress(Space),,,,silence,---- --------- ---------- - --- ------- -- --- ------------<br>----- -- -------- ------- ---- ------ - subpoena ---- -----<br>--- ------- ---- -- --- -------- --- - ----- ------ ---- --<br>-------- --- -------- -------- --- -------- ---- -- ----- -<br>-------- ---- --- ---------- --------- -- ------- ------ -<br>--------- ----- -----,208298.59999999963,208298,206353.356,206354.5,206370.021,208303.182,,16,subpoena
screen,html.Screen,0_4_1_0_1_17,2021-11-26T12:37:43.953Z,,,,,,,,,,,,,,,,15,,,,,,,,,,,,,,570.5179999992542,,response,,,7,A,,,,,Space,keypress(Space),,,,silence,---- --------- ---------- - --- ------- -- --- ------------<br>----- -- -------- ------- ---- ------ - -------- last -----<br>--- ------- ---- -- --- -------- --- - ----- ------ ---- --<br>-------- --- -------- -------- --- -------- ---- -- ----- -<br>-------- ---- --- ---------- --------- -- ------- ------ -<br>--------- ----- -----,208874.30000000075,208873.69999999925,208286.517,208298.80000000075,208303.182,208886.531,,17,last
screen,html.Screen,0_4_1_0_1_18,2021-11-26T12:37:44.625Z,,,,,,,,,,,,,,,,15,,,,,,,,,,,,,,659.1689999992668,,response,,,7,A,,,,,Space,keypress(Space),,,,silence,---- --------- ---------- - --- ------- -- --- ------------<br>----- -- -------- ------- ---- ------ - -------- ---- week.<br>--- ------- ---- -- --- -------- --- - ----- ------ ---- --<br>-------- --- -------- -------- --- -------- ---- -- ----- -<br>-------- ---- --- ---------- --------- -- ------- ------ -<br>--------- ----- -----,209546.30000000075,209545.69999999925,208869.866,208874.5,208886.531,209553.205,,18,week.
screen,html.Screen,0_4_1_0_1_19,2021-11-26T12:37:45.137Z,,,,,,,,,,,,,,,,15,,,,,,,,,,,,,,504.2950000000128,,response,,,7,A,,,,,Space,keypress(Space),,,,silence,---- --------- ---------- - --- ------- -- --- ------------<br>----- -- -------- ------- ---- ------ - -------- ---- -----<br>His ------- ---- -- --- -------- --- - ----- ------ ---- --<br>-------- --- -------- -------- --- -------- ---- -- ----- -<br>-------- ---- --- ---------- --------- -- ------- ------ -<br>--------- ----- -----,210058.09999999963,210057.5,209536.54,209546.40000000037,209553.205,210069.919,,19,His
screen,html.Screen,0_4_1_0_1_20,2021-11-26T12:37:45.721Z,,,,,,,,,,,,,,,,15,,,,,,,,,,,,,,571.6809999996331,,response,,,7,A,,,,,Space,keypress(Space),,,,silence,---- --------- ---------- - --- ------- -- --- ------------<br>----- -- -------- ------- ---- ------ - -------- ---- -----<br>--- lawyers ---- -- --- -------- --- - ----- ------ ---- --<br>-------- --- -------- -------- --- -------- ---- -- ----- -<br>-------- ---- --- ---------- --------- -- ------- ------ -<br>--------- ----- -----,210642.09999999963,210641.59999999963,210053.253,210058.30000000075,210069.919,210653.16,,20,lawyers
screen,html.Screen,0_4_1_0_1_21,2021-11-26T12:37:46.201Z,,,,,,,,,,,,,,,,15,,,,,,,,,,,,,,468.439999999624,,response,,,7,A,,,,,Space,keypress(Space),,,,silence,---- --------- ---------- - --- ------- -- --- ------------<br>----- -- -------- ------- ---- ------ - -------- ---- -----<br>--- ------- said -- --- -------- --- - ----- ------ ---- --<br>-------- --- -------- -------- --- -------- ---- -- ----- -<br>-------- ---- --- ---------- --------- -- ------- ------ -<br>--------- ----- -----,211122.19999999925,211121.59999999963,210636.495,210642.40000000037,210653.16,211136.399,,21,said
screen,html.Screen,0_4_1_0_1_22,2021-11-26T12:37:46.569Z,,,,,,,,,,,,,,,,15,,,,,,,,,,,,,,353.1009999999951,,response,,,7,A,,,,,Space,keypress(Space),,,,silence,---- --------- ---------- - --- ------- -- --- ------------<br>----- -- -------- ------- ---- ------ - -------- ---- -----<br>--- ------- ---- he --- -------- --- - ----- ------ ---- --<br>-------- --- -------- -------- --- -------- ---- -- ----- -<br>-------- ---- --- ---------- --------- -- ------- ------ -<br>--------- ----- -----,211490.09999999963,211489.5,211119.735,211122.30000000075,211136.399,211503.181,,22,he
screen,html.Screen,0_4_1_0_1_23,2021-11-26T12:37:46.969Z,,,,,,,,,,,,,,,,15,,,,,,,,,,,,,,386.3189999999886,,response,,,7,A,,,,,Space,keypress(Space),,,,silence,---- --------- ---------- - --- ------- -- --- ------------<br>----- -- -------- ------- ---- ------ - -------- ---- -----<br>--- ------- ---- -- was -------- --- - ----- ------ ---- --<br>-------- --- -------- -------- --- -------- ---- -- ----- -<br>-------- ---- --- ---------- --------- -- ------- ------ -<br>--------- ----- -----,211890.19999999925,211889.5,211486.515,211490.30000000075,211503.181,211903.123,,23,was
screen,html.Screen,0_4_1_0_1_24,2021-11-26T12:37:47.713Z,,,,,,,,,,,,,,,,15,,,,,,,,,,,,,,730.3770000000077,,response,,,7,A,,,,,Space,keypress(Space),,,,silence,---- --------- ---------- - --- ------- -- --- ------------<br>----- -- -------- ------- ---- ------ - -------- ---- -----<br>--- ------- ---- -- --- prepared --- - ----- ------ ---- --<br>-------- --- -------- -------- --- -------- ---- -- ----- -<br>-------- ---- --- ---------- --------- -- ------- ------ -<br>--------- ----- -----,212634.09999999963,212633.5,211886.458,211890.30000000075,211903.123,212636.391,,24,prepared
screen,html.Screen,0_4_1_0_1_25,2021-11-26T12:37:48.216Z,,,,,,,,,,,,,,,,15,,,,,,,,,,,,,,501.10899999999674,,response,,,7,A,,,,,Space,keypress(Space),,,,silence,---- --------- ---------- - --- ------- -- --- ------------<br>----- -- -------- ------- ---- ------ - -------- ---- -----<br>--- ------- ---- -- --- -------- for - ----- ------ ---- --<br>-------- --- -------- -------- --- -------- ---- -- ----- -<br>-------- ---- --- ---------- --------- -- ------- ------ -<br>--------- ----- -----,213138,213137.5,212619.726,212634.30000000075,212636.391,213153.056,,25,for
screen,html.Screen,0_4_1_0_1_26,2021-11-26T12:37:48.592Z,,,,,,,,,,,,,,,,15,,,,,,,,,,,,,,360.4439999999886,,response,,,7,A,,,,,Space,keypress(Space),,,,silence,---- --------- ---------- - --- ------- -- --- ------------<br>----- -- -------- ------- ---- ------ - -------- ---- -----<br>--- ------- ---- -- --- -------- --- a ----- ------ ---- --<br>-------- --- -------- -------- --- -------- ---- -- ----- -<br>-------- ---- --- ---------- --------- -- ------- ------ -<br>--------- ----- -----,213514,213513.5,213136.391,213138.09999999963,213153.056,213519.703,,26,a
screen,html.Screen,0_4_1_0_1_27,2021-11-26T12:37:48.968Z,,,,,,,,,,,,,,,,15,,,,,,,,,,,,,,369.6970000003639,,response,,,7,A,,,,,Space,keypress(Space),,,,silence,---- --------- ---------- - --- ------- -- --- ------------<br>----- -- -------- ------- ---- ------ - -------- ---- -----<br>--- ------- ---- -- --- -------- --- - third ------ ---- --<br>-------- --- -------- -------- --- -------- ---- -- ----- -<br>-------- ---- --- ---------- --------- -- ------- ------ -<br>--------- ----- -----,213890,213889.40000000037,213503.038,213514.19999999925,213519.703,213903.013,,27,third
screen,html.Screen,0_4_1_0_1_28,2021-11-26T12:37:49.936Z,,,,,,,,,,,,,,,,15,,,,,,,,,,,,,,954.3870000003662,,response,,,7,A,,,,,Space,keypress(Space),,,,silence,---- --------- ---------- - --- ------- -- --- ------------<br>----- -- -------- ------- ---- ------ - -------- ---- -----<br>--- ------- ---- -- --- -------- --- - ----- prison ---- --<br>-------- --- -------- -------- --- -------- ---- -- ----- -<br>-------- ---- --- ---------- --------- -- ------- ------ -<br>--------- ----- -----,214858.09999999963,214857.40000000037,213886.348,213890.19999999925,213903.013,214869.503,,28,prison
screen,html.Screen,0_4_1_0_1_29,2021-11-26T12:37:50.304Z,,,,,,,,,,,,,,,,15,,,,,,,,,,,,,,355.7970000007481,,response,,,7,A,,,,,Space,keypress(Space),,,,silence,---- --------- ---------- - --- ------- -- --- ------------<br>----- -- -------- ------- ---- ------ - -------- ---- -----<br>--- ------- ---- -- --- -------- --- - ----- ------ stay --<br>-------- --- -------- -------- --- -------- ---- -- ----- -<br>-------- ---- --- ---------- --------- -- ------- ------ -<br>--------- ----- -----,215225.80000000075,215225.30000000075,214852.839,214858.19999999925,214869.503,215236.363,,29,stay
screen,html.Screen,0_4_1_0_1_30,2021-11-26T12:37:50.784Z,,,,,,,,,,,,,,,,15,,,,,,,,,,,,,,469.0370000003604,,response,,,7,A,,,,,Space,keypress(Space),,,,silence,---- --------- ---------- - --- ------- -- --- ------------<br>----- -- -------- ------- ---- ------ - -------- ---- -----<br>--- ------- ---- -- --- -------- --- - ----- ------ ---- to<br>-------- --- -------- -------- --- -------- ---- -- ----- -<br>-------- ---- --- ---------- --------- -- ------- ------ -<br>--------- ----- -----,215706,215705.40000000037,215219.697,215226.09999999963,215236.363,215719.608,,30,to
screen,html.Screen,0_4_1_0_1_31,2021-11-26T12:37:51.280Z,,,,,,,,,,,,,,,,15,,,,,,,,,,,,,,481.6920000007376,,response,,,7,A,,,,,Space,keypress(Space),,,,silence,---- --------- ---------- - --- ------- -- --- ------------<br>----- -- -------- ------- ---- ------ - -------- ---- -----<br>--- ------- ---- -- --- -------- --- - ----- ------ ---- --<br>maintain --- -------- -------- --- -------- ---- -- ----- -<br>-------- ---- --- ---------- --------- -- ------- ------ -<br>--------- ----- -----,216201.90000000037,216201.30000000075,215702.943,215706.09999999963,215719.608,216202.891,,31,maintain
screen,html.Screen,0_4_1_0_1_32,2021-11-26T12:37:51.648Z,,,,,,,,,,,,,,,,15,,,,,,,,,,,,,,366.3089999992517,,response,,,7,A,,,,,Space,keypress(Space),,,,silence,---- --------- ---------- - --- ------- -- --- ------------<br>----- -- -------- ------- ---- ------ - -------- ---- -----<br>--- ------- ---- -- --- -------- --- - ----- ------ ---- --<br>-------- his -------- -------- --- -------- ---- -- ----- -<br>-------- ---- --- ---------- --------- -- ------- ------ -<br>--------- ----- -----,216569.90000000037,216569.19999999925,216186.226,216202.09999999963,216202.891,216586.128,,32,his
screen,html.Screen,0_4_1_0_1_33,2021-11-26T12:37:52.504Z,,,,,,,,,,,,,,,,15,,,,,,,,,,,,,,839.1720000007481,,response,,,7,A,,,,,Space,keypress(Space),,,,silence,---- --------- ---------- - --- ------- -- --- ------------<br>----- -- -------- ------- ---- ------ - -------- ---- -----<br>--- ------- ---- -- --- -------- --- - ----- ------ ---- --<br>-------- --- silence. -------- --- -------- ---- -- ----- -<br>-------- ---- --- ---------- --------- -- ------- ------ -<br>--------- ----- -----,217425.90000000037,217425.30000000075,216569.464,216570.09999999963,216586.128,217436.218,,33,silence.
screen,html.Screen,0_4_1_0_1_34,2021-11-26T12:37:53.256Z,,,,,,,,,,,,,,,,15,,,,,,,,,,,,,,740.9819999992615,,response,,,7,A,,,,,Space,keypress(Space),,,,silence,---- --------- ---------- - --- ------- -- --- ------------<br>----- -- -------- ------- ---- ------ - -------- ---- -----<br>--- ------- ---- -- --- -------- --- - ----- ------ ---- --<br>-------- --- -------- Anderson --- -------- ---- -- ----- -<br>-------- ---- --- ---------- --------- -- ------- ------ -<br>--------- ----- -----,218177.90000000037,218177.19999999925,217419.552,217426,217436.218,218186.198,,34,Anderson
screen,html.Screen,0_4_1_0_1_35,2021-11-26T12:37:53.704Z,,,,,,,,,,,,,,,,15,,,,,,,,,,,,,,439.30199999999604,,response,,,7,A,,,,,Space,keypress(Space),,,,silence,---- --------- ---------- - --- ------- -- --- ------------<br>----- -- -------- ------- ---- ------ - -------- ---- -----<br>--- ------- ---- -- --- -------- --- - ----- ------ ---- --<br>-------- --- -------- -------- was -------- ---- -- ----- -<br>-------- ---- --- ---------- --------- -- ------- ------ -<br>--------- ----- -----,218626.09999999963,218625.5,218169.532,218178.09999999963,218186.198,218636.11,,35,was
screen,html.Screen,0_4_1_0_1_36,2021-11-26T12:37:54.152Z,,,,,,,,,,,,,,,,15,,,,,,,,,,,,,,437.0899999992689,,response,,,7,A,,,,,Space,keypress(Space),,,,silence,---- --------- ---------- - --- ------- -- --- ------------<br>----- -- -------- ------- ---- ------ - -------- ---- -----<br>--- ------- ---- -- --- -------- --- - ----- ------ ---- --<br>-------- --- -------- -------- --- released ---- -- ----- -<br>-------- ---- --- ---------- --------- -- ------- ------ -<br>--------- ----- -----,219073.80000000075,219073.19999999925,218619.445,218626.19999999925,218636.11,219086.094,,36,released
screen,html.Screen,0_4_1_0_1_37,2021-11-26T12:37:55.312Z,,,,,,,,,,,,,,,,15,,,,,,,,,,,,,,1147.0059999996156,,response,,,7,A,,,,,Space,keypress(Space),,,,silence,---- --------- ---------- - --- ------- -- --- ------------<br>----- -- -------- ------- ---- ------ - -------- ---- -----<br>--- ------- ---- -- --- -------- --- - ----- ------ ---- --<br>-------- --- -------- -------- --- -------- July -- ----- -<br>-------- ---- --- ---------- --------- -- ------- ------ -<br>--------- ----- -----,220233.69999999925,220233.09999999963,219069.429,219073.90000000037,219086.094,220236.001,,37,July
screen,html.Screen,0_4_1_0_1_38,2021-11-26T12:37:55.808Z,,,,,,,,,,,,,,,,15,,,,,,,,,,,,,,493.0989999996382,,response,,,7,A,,,,,Space,keypress(Space),,,,silence,---- --------- ---------- - --- ------- -- --- ------------<br>----- -- -------- ------- ---- ------ - -------- ---- -----<br>--- ------- ---- -- --- -------- --- - ----- ------ ---- --<br>-------- --- -------- -------- --- -------- ---- 20 ----- -<br>-------- ---- --- ---------- --------- -- ------- ------ -<br>--------- ----- -----,220729.69999999925,220729.09999999963,220219.336,220233.90000000037,220236.001,220735.998,,38,20
screen,html.Screen,0_4_1_0_1_39,2021-11-26T12:37:56.968Z,,,,,,,,,,,,,,,,15,,,,,,,,,,,,,,1153.1019999996352,,response,,,7,A,,,,,Space,keypress(Space),,,,silence,---- --------- ---------- - --- ------- -- --- ------------<br>----- -- -------- ------- ---- ------ - -------- ---- -----<br>--- ------- ---- -- --- -------- --- - ----- ------ ---- --<br>-------- --- -------- -------- --- -------- ---- -- after -<br>-------- ---- --- ---------- --------- -- ------- ------ -<br>--------- ----- -----,221889.69999999925,221889.09999999963,220719.333,220729.90000000037,220735.998,221902.578,,39,after
screen,html.Screen,0_4_1_0_1_40,2021-11-26T12:37:57.528Z,,,,,,,,,,,,,,,,15,,,,,,,,,,,,,,546.4219999999914,,response,,,7,A,,,,,Space,keypress(Space),,,,silence,---- --------- ---------- - --- ------- -- --- ------------<br>----- -- -------- ------- ---- ------ - -------- ---- -----<br>--- ------- ---- -- --- -------- --- - ----- ------ ---- --<br>-------- --- -------- -------- --- -------- ---- -- ----- a<br>-------- ---- --- ---------- --------- -- ------- ------ -<br>--------- ----- -----,222449.59999999963,222449,221885.913,221889.80000000075,221902.578,222452.534,,40,a
screen,html.Screen,0_4_1_0_1_41,2021-11-26T12:37:58.097Z,,,,,,,,,,,,,,,,15,,,,,,,,,,,,,,564.4659999999858,,response,,,7,A,,,,,Space,keypress(Space),,,,silence,---- --------- ---------- - --- ------- -- --- ------------<br>----- -- -------- ------- ---- ------ - -------- ---- -----<br>--- ------- ---- -- --- -------- --- - ----- ------ ---- --<br>-------- --- -------- -------- --- -------- ---- -- ----- -<br>two-week ---- --- ---------- --------- -- ------- ------ -<br>--------- ----- -----,223018.19999999925,223017,222435.869,222449.80000000075,222452.534,223019.228,,41,two-week
screen,html.Screen,0_4_1_0_1_42,2021-11-26T12:37:58.584Z,,,,,,,,,,,,,,,,15,,,,,,,,,,,,,,485.67200000036974,,response,,,7,A,,,,,Space,keypress(Space),,,,silence,---- --------- ---------- - --- ------- -- --- ------------<br>----- -- -------- ------- ---- ------ - -------- ---- -----<br>--- ------- ---- -- --- -------- --- - ----- ------ ---- --<br>-------- --- -------- -------- --- -------- ---- -- ----- -<br>-------- stay --- ---------- --------- -- ------- ------ -<br>--------- ----- -----,223505.5,223504.90000000037,223002.563,223018.5,223019.228,223519.197,,42,stay
screen,html.Screen,0_4_1_0_1_43,2021-11-26T12:37:59.200Z,,,,,,,,,,,,,,,,15,,,,,,,,,,,,,,601.8030000000144,,response,,,7,A,,,,,Space,keypress(Space),,,,silence,---- --------- ---------- - --- ------- -- --- ------------<br>----- -- -------- ------- ---- ------ - -------- ---- -----<br>--- ------- ---- -- --- -------- --- - ----- ------ ---- --<br>-------- --- -------- -------- --- -------- ---- -- ----- -<br>-------- ---- for ---------- --------- -- ------- ------ -<br>--------- ----- -----,224121.59999999963,224121,223502.532,223505.69999999925,223519.197,224135.808,,43,for
screen,html.Screen,0_4_1_0_1_44,2021-11-26T12:37:59.840Z,,,,,,,,,,,,,,,,15,,,,,,,,,,,,,,625.19200000001,,response,,,7,A,,,,,Space,keypress(Space),,,,silence,---- --------- ---------- - --- ------- -- --- ------------<br>----- -- -------- ------- ---- ------ - -------- ---- -----<br>--- ------- ---- -- --- -------- --- - ----- ------ ---- --<br>-------- --- -------- -------- --- -------- ---- -- ----- -<br>-------- ---- --- previously --------- -- ------- ------ -<br>--------- ----- -----,224761.5,224761,224119.143,224121.69999999925,224135.808,224769.094,,44,previously
screen,html.Screen,0_4_1_0_1_45,2021-11-26T12:38:00.768Z,,,,,,,,,,,,,,,,15,,,,,,,,,,,,,,919.8060000003607,,response,,,7,A,,,,,Space,keypress(Space),,,,silence,---- --------- ---------- - --- ------- -- --- ------------<br>----- -- -------- ------- ---- ------ - -------- ---- -----<br>--- ------- ---- -- --- -------- --- - ----- ------ ---- --<br>-------- --- -------- -------- --- -------- ---- -- ----- -<br>-------- ---- --- ---------- declining -- ------- ------ -<br>--------- ----- -----,225689.59999999963,225688.90000000037,224752.429,224761.69999999925,224769.094,225702.495,,45,declining
screen,html.Screen,0_4_1_0_1_46,2021-11-26T12:38:01.224Z,,,,,,,,,,,,,,,,15,,,,,,,,,,,,,,442.4050000003772,,response,,,7,A,,,,,Space,keypress(Space),,,,silence,---- --------- ---------- - --- ------- -- --- ------------<br>----- -- -------- ------- ---- ------ - -------- ---- -----<br>--- ------- ---- -- --- -------- --- - ----- ------ ---- --<br>-------- --- -------- -------- --- -------- ---- -- ----- -<br>-------- ---- --- ---------- --------- to ------- ------ -<br>--------- ----- -----,226145.40000000037,226144.90000000037,225685.829,225689.80000000075,225702.495,226152.309,,46,to
screen,html.Screen,0_4_1_0_1_47,2021-11-26T12:38:01.720Z,,,,,,,,,,,,,,,,15,,,,,,,,,,,,,,488.4910000007367,,response,,,7,A,,,,,Space,keypress(Space),,,,silence,---- --------- ---------- - --- ------- -- --- ------------<br>----- -- -------- ------- ---- ------ - -------- ---- -----<br>--- ------- ---- -- --- -------- --- - ----- ------ ---- --<br>-------- --- -------- -------- --- -------- ---- -- ----- -<br>-------- ---- --- ---------- --------- -- testify ------ -<br>--------- ----- -----,226641.40000000037,226640.80000000075,226135.645,226145.59999999963,226152.309,226652.424,,47,testify
screen,html.Screen,0_4_1_0_1_48,2021-11-26T12:38:02.512Z,,,,,,,,,,,,,,,,15,,,,,,,,,,,,,,780.376000000746,,response,,,7,A,,,,,Space,keypress(Space),,,,silence,---- --------- ---------- - --- ------- -- --- ------------<br>----- -- -------- ------- ---- ------ - -------- ---- -----<br>--- ------- ---- -- --- -------- --- - ----- ------ ---- --<br>-------- --- -------- -------- --- -------- ---- -- ----- -<br>-------- ---- --- ---------- --------- -- ------- before -<br>--------- ----- -----,227433.40000000037,227432.80000000075,226635.758,226641.59999999963,226652.424,227435.659,,48,before
screen,html.Screen,0_4_1_0_1_49,2021-11-26T12:38:03.272Z,,,,,,,,,,,,,,,,15,,,,,,,,,,,,,,757.0409999992407,,response,,,7,A,,,,,Space,keypress(Space),,,,silence,---- --------- ---------- - --- ------- -- --- ------------<br>----- -- -------- ------- ---- ------ - -------- ---- -----<br>--- ------- ---- -- --- -------- --- - ----- ------ ---- --<br>-------- --- -------- -------- --- -------- ---- -- ----- -<br>-------- ---- --- ---------- --------- -- ------- ------ a<br>--------- ----- -----,228193.30000000075,228192.69999999925,227418.994,227433.5,227435.659,228202.283,,49,a
screen,html.Screen,0_4_1_0_1_50,2021-11-26T12:38:03.776Z,,,,,,,,,,,,,,,,15,,,,,,,,,,,,,,494.6170000003767,,response,,,7,A,,,,,Space,keypress(Space),,,,silence,---- --------- ---------- - --- ------- -- --- ------------<br>----- -- -------- ------- ---- ------ - -------- ---- -----<br>--- ------- ---- -- --- -------- --- - ----- ------ ---- --<br>-------- --- -------- -------- --- -------- ---- -- ----- -<br>-------- ---- --- ---------- --------- -- ------- ------ -<br>different ----- -----,228697.59999999963,228696.90000000037,228185.618,228193.40000000037,228202.283,228702.294,,50,different
screen,html.Screen,0_4_1_0_1_51,2021-11-26T12:38:04.472Z,,,,,,,,,,,,,,,,15,,,,,,,,,,,,,,690.4059999992605,,response,,,7,A,,,,,Space,keypress(Space),,,,silence,---- --------- ---------- - --- ------- -- --- ------------<br>----- -- -------- ------- ---- ------ - -------- ---- -----<br>--- ------- ---- -- --- -------- --- - ----- ------ ---- --<br>-------- --- -------- -------- --- -------- ---- -- ----- -<br>-------- ---- --- ---------- --------- -- ------- ------ -<br>--------- grand -----,229393.40000000037,229392.69999999925,228685.629,228697.69999999925,228702.294,229402.232,,51,grand
screen,html.Screen,0_4_1_0_1_52,2021-11-26T12:38:05.160Z,,,,,,,,,,,,,,,,15,,,,,,,,,,,,,,678.4679999992659,,response,,,7,A,,,,,Space,keypress(Space),,,,silence,---- --------- ---------- - --- ------- -- --- ------------<br>----- -- -------- ------- ---- ------ - -------- ---- -----<br>--- ------- ---- -- --- -------- --- - ----- ------ ---- --<br>-------- --- -------- -------- --- -------- ---- -- ----- -<br>-------- ---- --- ---------- --------- -- ------- ------ -<br>--------- ----- jury.,230081.30000000075,230080.69999999925,229385.567,229393.5,229402.232,230085.53,,52,jury.
Item 7,flow.Loop,0_4_1_0_1,2021-11-26T12:38:05.160Z,,,,,,,,,,,,,,,,,,,,,,,,,,,,,,34043.54199999926,,completion,,,,,,,,,,,,,,,,230081.59999999963,230080.69999999925,196020.493,196021.69999999925,196037.158,230085.53,,,
