sender,sender_type,sender_id,timestamp,meta,,Blues,Classical,Country,Dance,Electronic,Folk,Gospel,Hip-Hop,Jazz,Latin,Musical/Film,New-age,Pop,Provo_ID,R&B,Rap,Reggae,Religious,Rock,Soul,Swing,Traditional,age,artist_name,correct,correctResponse,distraction,duration,education,ended_on,familiarity,gender,item,list,music_frequency,offensiveness,pleasantness,preference,response,response_action,snippet_file,song_name,song_rating,sound,text,time_commit,time_end,time_render,time_run,time_show,time_switch,url,word,word_ID
Instructions,html.Page,0_0,2021-11-04T12:44:49.778Z,"{""labjs_version"":""20.2.3"",""labjs_build"":{""flavor"":""production"",""commit"":""7ea907d66ca8aeef8054924ca5d82ffbe11e34e5""},""location"":""https://run.pavlovia.org/mvasilev/lab_music_d/"",""userAgent"":""Mozilla/5.0 (Windows NT 6.1; Win64; x64) AppleWebKit/537.36 (KHTML, like Gecko) Chrome/95.0.4638.69 Safari/537.36"",""platform"":""Win32"",""language"":""en-US"",""locale"":""en-US"",""timeZone"":""Europe/London"",""timezoneOffset"":0,""screen_width"":1920,""screen_height"":1080,""scroll_width"":1920,""scroll_height"":959,""window_innerWidth"":1920,""window_innerHeight"":1007,""devicePixelRatio"":1}",,,,,,,,,,,,,,,,,,,,,,,,,,,,,27944.078000000743,,form submission,,,,,,,,,,,,,,,,40712.59999999963,40711.300000000745,12750.552,12756.5,12767.222,40708.756,{},,
Headphones,html.Page,0_1,2021-11-04T12:44:52.627Z,,,,,,,,,,,,,,,,,,,,,,,,,,,,,,2852.8439999996262,,form submission,,,,,,,,,,,,,,,,43562,43561.59999999963,40692.033,40713.300000000745,40708.756,43575.536,,,
Holding screen,html.Screen,0_2_0_0,2021-11-04T12:45:02.631Z,,,,,,,,,,,,,,,,,,,,,,,,,,,,,,10002.144999999997,,timeout,,,,,,,,,,,,,,,,53566.300000000745,53561.011,43558.864,43562.59999999963,43575.536,53577.681,,,
screen,html.Screen,0_2_0_1_0,2021-11-04T12:45:05.403Z,,,,,,,,,,,,,,,,53,,,,,,,,,,,,,,2758.4189999996306,,response,,,99,,,,,,Space,keypress(Space),,,,,When -- ----- -- ------ - ------- --- ----------<br>------------- ------ ------ ---- ---- ------- ----- -- ----<br>-------- ------- -- ---------- --- - --- ----- ----- ----<br>---- --- --- ----- --- ---- ---- ------- ----- ---- -------<br>--- --- -- ----- -- --- ---- -- --- ---- -- ------ ------<br>--- ----- -- ----,56337.5,56336.09999999963,53561.011,53566.800000000745,53577.681,56345.267,,0,When
screen,html.Screen,0_2_0_1_1,2021-11-04T12:45:07.394Z,,,,,,,,,,,,,,,,53,,,,,,,,,,,,,,1982.2330000000002,,response,,,99,,,,,,Space,keypress(Space),,,,,---- it ----- -- ------ - ------- --- ----------<br>------------- ------ ------ ---- ---- ------- ----- -- ----<br>-------- ------- -- ---------- --- - --- ----- ----- ----<br>---- --- --- ----- --- ---- ---- ------- ----- ---- -------<br>--- --- -- ----- -- --- ---- -- --- ---- -- ------ ------<br>--- ----- -- ----,58328.40000000037,58327.5,56328.596,56337.90000000037,56345.267,58345.513,,1,it
screen,html.Screen,0_2_0_1_2,2021-11-04T12:45:08.858Z,,,,,,,,,,,,,,,,53,,,,,,,,,,,,,,1445.8870000003735,,response,,,99,,,,,,Space,keypress(Space),,,,,---- -- comes -- ------ - ------- --- ----------<br>------------- ------ ------ ---- ---- ------- ----- -- ----<br>-------- ------- -- ---------- --- - --- ----- ----- ----<br>---- --- --- ----- --- ---- ---- ------- ----- ---- -------<br>--- --- -- ----- -- --- ---- -- --- ---- -- ------ ------<br>--- ----- -- ----,59792.300000000745,59791.40000000037,58328.843,58328.59999999963,58345.513,59795.961,,2,comes
screen,html.Screen,0_2_0_1_3,2021-11-04T12:45:10.238Z,,,,,,,,,,,,,,,,53,,,,,,,,,,,,,,1371.339000000742,,response,,,99,,,,,,Space,keypress(Space),,,,,---- -- ----- to ------ - ------- --- ----------<br>------------- ------ ------ ---- ---- ------- ----- -- ----<br>-------- ------- -- ---------- --- - --- ----- ----- ----<br>---- --- --- ----- --- ---- ---- ------- ----- ---- -------<br>--- --- -- ----- -- --- ---- -- --- ---- -- ------ ------<br>--- ----- -- ----,61168.300000000745,61167.300000000745,59779.291,59792.699999999255,59795.961,61179.545,,3,to
screen,html.Screen,0_2_0_1_4,2021-11-04T12:45:11.494Z,,,,,,,,,,,,,,,,53,,,,,,,,,,,,,,1243.7550000007468,,response,,,99,,,,,,Space,keypress(Space),,,,,---- -- ----- -- having - ------- --- ----------<br>------------- ------ ------ ---- ---- ------- ----- -- ----<br>-------- ------- -- ---------- --- - --- ----- ----- ----<br>---- --- --- ----- --- ---- ---- ------- ----- ---- -------<br>--- --- -- ----- -- --- ---- -- --- ---- -- ------ ------<br>--- ----- -- ----,62424.40000000037,62423.300000000745,61162.875,61168.90000000037,61179.545,62430.032,,4,having
screen,html.Screen,0_2_0_1_5,2021-11-04T12:45:12.734Z,,,,,,,,,,,,,,,,53,,,,,,,,,,,,,,1233.1679999992557,,response,,,99,,,,,,Space,keypress(Space),,,,,---- -- ----- -- ------ a ------- --- ----------<br>------------- ------ ------ ---- ---- ------- ----- -- ----<br>-------- ------- -- ---------- --- - --- ----- ----- ----<br>---- --- --- ----- --- ---- ---- ------- ----- ---- -------<br>--- --- -- ----- -- --- ---- -- --- ---- -- ------ ------<br>--- ----- -- ----,63664.199999999255,63663.199999999255,62413.361,62424.800000000745,62430.032,63680.33,,5,a
screen,html.Screen,0_2_0_1_6,2021-11-04T12:45:13.838Z,,,,,,,,,,,,,,,,53,,,,,,,,,,,,,,1086.7699999996257,,response,,,99,,,,,,Space,keypress(Space),,,,,---- -- ----- -- ------ - lasting --- ----------<br>------------- ------ ------ ---- ---- ------- ----- -- ----<br>-------- ------- -- ---------- --- - --- ----- ----- ----<br>---- --- --- ----- --- ---- ---- ------- ----- ---- -------<br>--- --- -- ----- -- --- ---- -- --- ---- -- ------ ------<br>--- ----- -- ----,64768.199999999255,64767.09999999963,63663.659,63664.699999999255,63680.33,64780.32,,6,lasting
screen,html.Screen,0_2_0_1_7,2021-11-04T12:45:14.837Z,,,,,,,,,,,,,,,,53,,,,,,,,,,,,,,986.6800000000003,,response,,,99,,,,,,Space,keypress(Space),,,,,---- -- ----- -- ------ - ------- and ----------<br>------------- ------ ------ ---- ---- ------- ----- -- ----<br>-------- ------- -- ---------- --- - --- ----- ----- ----<br>---- --- --- ----- --- ---- ---- ------- ----- ---- -------<br>--- --- -- ----- -- --- ---- -- --- ---- -- ------ ------<br>--- ----- -- ----,65768,65767,64763.651,64768.59999999963,64780.32,65780.909,,7,and
screen,html.Screen,0_2_0_1_8,2021-11-04T12:45:16.998Z,,,,,,,,,,,,,,,,53,,,,,,,,,,,,,,2146.3910000007454,,response,,,99,,,,,,Space,keypress(Space),,,,,---- -- ----- -- ------ - ------- --- fulfilling<br>------------- ------ ------ ---- ---- ------- ----- -- ----<br>-------- ------- -- ---------- --- - --- ----- ----- ----<br>---- --- --- ----- --- ---- ---- ------- ----- ---- -------<br>--- --- -- ----- -- --- ---- -- --- ---- -- ------ ------<br>--- ----- -- ----,67928.40000000037,67927.30000000075,65764.238,65768.30000000075,65780.909,67931.251,,8,fulfilling
screen,html.Screen,0_2_0_1_9,2021-11-04T12:45:18.325Z,,,,,,,,,,,,,,,,53,,,,,,,,,,,,,,1323.448999999251,,response,,,99,,,,,,Space,keypress(Space),,,,,"---- -- ----- -- ------ - ------- --- ----------<br>relationship, ------ ------ ---- ---- ------- ----- -- ----<br>-------- ------- -- ---------- --- - --- ----- ----- ----<br>---- --- --- ----- --- ---- ---- ------- ----- ---- -------<br>--- --- -- ----- -- --- ---- -- --- ---- -- ------ ------<br>--- ----- -- ----",69255.80000000075,69254.69999999925,67914.581,67928.69999999925,67931.251,69265.112,,9,"relationship,"
screen,html.Screen,0_2_0_1_10,2021-11-04T12:45:19.165Z,,,,,,,,,,,,,,,,53,,,,,,,,,,,,,,829.6880000007513,,response,,,99,,,,,,Space,keypress(Space),,,,,---- -- ----- -- ------ - ------- --- ----------<br>------------- common ------ ---- ---- ------- ----- -- ----<br>-------- ------- -- ---------- --- - --- ----- ----- ----<br>---- --- --- ----- --- ---- ---- ------- ----- ---- -------<br>--- --- -- ----- -- --- ---- -- --- ---- -- ------ ------<br>--- ----- -- ----,70095.69999999925,70094.80000000075,69248.441,69256,69265.112,70098.565,,10,common
screen,html.Screen,0_2_0_1_11,2021-11-04T12:45:19.949Z,,,,,,,,,,,,,,,,53,,,,,,,,,,,,,,780.1349999992526,,response,,,99,,,,,,Space,keypress(Space),,,,,---- -- ----- -- ------ - ------- --- ----------<br>------------- ------ wisdom ---- ---- ------- ----- -- ----<br>-------- ------- -- ---------- --- - --- ----- ----- ----<br>---- --- --- ----- --- ---- ---- ------- ----- ---- -------<br>--- --- -- ----- -- --- ---- -- --- ---- -- ------ ------<br>--- ----- -- ----,70879.69999999925,70878.69999999925,70081.895,70095.90000000037,70098.565,70882.093,,11,wisdom
screen,html.Screen,0_2_0_1_12,2021-11-04T12:45:20.709Z,,,,,,,,,,,,,,,,53,,,,,,,,,,,,,,756.6069999992615,,response,,,99,,,,,,Space,keypress(Space),,,,,---- -- ----- -- ------ - ------- --- ----------<br>------------- ------ ------ says ---- ------- ----- -- ----<br>-------- ------- -- ---------- --- - --- ----- ----- ----<br>---- --- --- ----- --- ---- ---- ------- ----- ---- -------<br>--- --- -- ----- -- --- ---- -- --- ---- -- ------ ------<br>--- ----- -- ----,71639.59999999963,71638.69999999925,70865.423,70880,70882.093,71648.951,,12,says
screen,html.Screen,0_2_0_1_13,2021-11-04T12:45:21.853Z,,,,,,,,,,,,,,,,53,,,,,,,,,,,,,,1133.548999999999,,response,,,99,,,,,,Space,keypress(Space),,,,,---- -- ----- -- ------ - ------- --- ----------<br>------------- ------ ------ ---- that ------- ----- -- ----<br>-------- ------- -- ---------- --- - --- ----- ----- ----<br>---- --- --- ----- --- ---- ---- ------- ----- ---- -------<br>--- --- -- ----- -- --- ---- -- --- ---- -- ------ ------<br>--- ----- -- ----,72783.40000000037,72782.5,71632.281,71639.80000000075,71648.951,72799.224,,13,that
screen,html.Screen,0_2_0_1_14,2021-11-04T12:45:22.461Z,,,,,,,,,,,,,,,,53,,,,,,,,,,,,,,591.3759999996255,,response,,,99,,,,,,Space,keypress(Space),,,,,---- -- ----- -- ------ - ------- --- ----------<br>------------- ------ ------ ---- ---- feeling ----- -- ----<br>-------- ------- -- ---------- --- - --- ----- ----- ----<br>---- --- --- ----- --- ---- ---- ------- ----- ---- -------<br>--- --- -- ----- -- --- ---- -- --- ---- -- ------ ------<br>--- ----- -- ----,73391.40000000037,73390.59999999963,72782.554,72783.69999999925,72799.224,73399.369,,14,feeling
screen,html.Screen,0_2_0_1_15,2021-11-04T12:45:22.957Z,,,,,,,,,,,,,,,,53,,,,,,,,,,,,,,487.13099999999395,,response,,,99,,,,,,Space,keypress(Space),,,,,---- -- ----- -- ------ - ------- --- ----------<br>------------- ------ ------ ---- ---- ------- close -- ----<br>-------- ------- -- ---------- --- - --- ----- ----- ----<br>---- --- --- ----- --- ---- ---- ------- ----- ---- -------<br>--- --- -- ----- -- --- ---- -- --- ---- -- ------ ------<br>--- ----- -- ----,73887.40000000037,73886.5,73382.699,73391.80000000075,73399.369,73899.503,,15,close
screen,html.Screen,0_2_0_1_16,2021-11-04T12:45:23.381Z,,,,,,,,,,,,,,,,53,,,,,,,,,,,,,,410.89700000037556,,response,,,99,,,,,,Space,keypress(Space),,,,,---- -- ----- -- ------ - ------- --- ----------<br>------------- ------ ------ ---- ---- ------- ----- to ----<br>-------- ------- -- ---------- --- - --- ----- ----- ----<br>---- --- --- ----- --- ---- ---- ------- ----- ---- -------<br>--- --- -- ----- -- --- ---- -- --- ---- -- ------ ------<br>--- ----- -- ----,74311.30000000075,74310.40000000037,73882.833,73887.69999999925,73899.503,74316.304,,16,to
screen,html.Screen,0_2_0_1_17,2021-11-04T12:45:24.069Z,,,,,,,,,,,,,,,,53,,,,,,,,,,,,,,682.0960000003688,,response,,,99,,,,,,Space,keypress(Space),,,,,---- -- ----- -- ------ - ------- --- ----------<br>------------- ------ ------ ---- ---- ------- ----- -- your<br>-------- ------- -- ---------- --- - --- ----- ----- ----<br>---- --- --- ----- --- ---- ---- ------- ----- ---- -------<br>--- --- -- ----- -- --- ---- -- --- ---- -- ------ ------<br>--- ----- -- ----,74999.19999999925,74998.40000000037,74299.634,74311.59999999963,74316.304,75016.38,,17,your
screen,html.Screen,0_2_0_1_18,2021-11-04T12:45:24.821Z,,,,,,,,,,,,,,,,53,,,,,,,,,,,,,,734.0200000003679,,response,,,99,,,,,,Space,keypress(Space),,,,,---- -- ----- -- ------ - ------- --- ----------<br>------------- ------ ------ ---- ---- ------- ----- -- ----<br>romantic ------- -- ---------- --- - --- ----- ----- ----<br>---- --- --- ----- --- ---- ---- ------- ----- ---- -------<br>--- --- -- ----- -- --- ---- -- --- ---- -- ------ ------<br>--- ----- -- ----,75751.30000000075,75750.40000000037,74999.711,74999.5,75016.38,75766.732,,18,romantic
screen,html.Screen,0_2_0_1_19,2021-11-04T12:45:25.437Z,,,,,,,,,,,,,,,,53,,,,,,,,,,,,,,599.5680000007414,,response,,,99,,,,,,Space,keypress(Space),,,,,---- -- ----- -- ------ - ------- --- ----------<br>------------- ------ ------ ---- ---- ------- ----- -- ----<br>-------- partner -- ---------- --- - --- ----- ----- ----<br>---- --- --- ----- --- ---- ---- ------- ----- ---- -------<br>--- --- -- ----- -- --- ---- -- --- ---- -- ------ ------<br>--- ----- -- ----,76367.19999999925,76366.30000000075,75750.061,75751.5,75766.732,76383.45,,19,partner
screen,html.Screen,0_2_0_1_20,2021-11-04T12:45:25.909Z,,,,,,,,,,,,,,,,53,,,,,,,,,,,,,,454.95000000037544,,response,,,99,,,,,,Space,keypress(Space),,,,,---- -- ----- -- ------ - ------- --- ----------<br>------------- ------ ------ ---- ---- ------- ----- -- ----<br>-------- ------- is ---------- --- - --- ----- ----- ----<br>---- --- --- ----- --- ---- ---- ------- ----- ---- -------<br>--- --- -- ----- -- --- ---- -- --- ---- -- ------ ------<br>--- ----- -- ----,76839.09999999963,76838.40000000037,76366.78,76367.5,76383.45,76850.305,,20,is
screen,html.Screen,0_2_0_1_21,2021-11-04T12:45:27.517Z,,,,,,,,,,,,,,,,53,,,,,,,,,,,,,,1596.2949999996345,,response,,,99,,,,,,Space,keypress(Space),,,,,---- -- ----- -- ------ - ------- --- ----------<br>------------- ------ ------ ---- ---- ------- ----- -- ----<br>-------- ------- -- paramount. --- - --- ----- ----- ----<br>---- --- --- ----- --- ---- ---- ------- ----- ---- -------<br>--- --- -- ----- -- --- ---- -- --- ---- -- ------ ------<br>--- ----- -- ----,78447.40000000037,78446.59999999963,76833.634,76839.40000000037,76850.305,78450.455,,21,paramount.
screen,html.Screen,0_2_0_1_22,2021-11-04T12:45:28.164Z,,,,,,,,,,,,,,,,53,,,,,,,,,,,,,,643.7449999992532,,response,,,99,,,,,,Space,keypress(Space),,,,,---- -- ----- -- ------ - ------- --- ----------<br>------------- ------ ------ ---- ---- ------- ----- -- ----<br>-------- ------- -- ---------- But - --- ----- ----- ----<br>---- --- --- ----- --- ---- ---- ------- ----- ---- -------<br>--- --- -- ----- -- --- ---- -- --- ---- -- ------ ------<br>--- ----- -- ----,79095,79094.19999999925,78433.786,78447.90000000037,78450.455,79100.97,,22,But
screen,html.Screen,0_2_0_1_23,2021-11-04T12:45:28.628Z,,,,,,,,,,,,,,,,53,,,,,,,,,,,,,,457.1299999996263,,response,,,99,,,,,,Space,keypress(Space),,,,,---- -- ----- -- ------ - ------- --- ----------<br>------------- ------ ------ ---- ---- ------- ----- -- ----<br>-------- ------- -- ---------- --- a --- ----- ----- ----<br>---- --- --- ----- --- ---- ---- ------- ----- ---- -------<br>--- --- -- ----- -- --- ---- -- --- ---- -- ------ ------<br>--- ----- -- ----,79558.90000000037,79558.09999999963,79084.298,79095.19999999925,79100.97,79567.61,,23,a
screen,html.Screen,0_2_0_1_24,2021-11-04T12:45:29.044Z,,,,,,,,,,,,,,,,53,,,,,,,,,,,,,,406.4899999996269,,response,,,99,,,,,,Space,keypress(Space),,,,,---- -- ----- -- ------ - ------- --- ----------<br>------------- ------ ------ ---- ---- ------- ----- -- ----<br>-------- ------- -- ---------- --- - new ----- ----- ----<br>---- --- --- ----- --- ---- ---- ------- ----- ---- -------<br>--- --- -- ----- -- --- ---- -- --- ---- -- ------ ------<br>--- ----- -- ----,79974.90000000037,79974.09999999963,79550.94,79559.09999999963,79567.61,79984.278,,24,new
screen,html.Screen,0_2_0_1_25,2021-11-04T12:45:29.452Z,,,,,,,,,,,,,,,,53,,,,,,,,,,,,,,397.82199999962177,,response,,,99,,,,,,Space,keypress(Space),,,,,---- -- ----- -- ------ - ------- --- ----------<br>------------- ------ ------ ---- ---- ------- ----- -- ----<br>-------- ------- -- ---------- --- - --- study ----- ----<br>---- --- --- ----- --- ---- ---- ------- ----- ---- -------<br>--- --- -- ----- -- --- ---- -- --- ---- -- ------ ------<br>--- ----- -- ----,80382.90000000037,80382.09999999963,79967.609,79975.19999999925,79984.278,80384.53,,25,study
screen,html.Screen,0_2_0_1_26,2021-11-04T12:45:29.829Z,,,,,,,,,,,,,,,,53,,,,,,,,,,,,,,373.56999999962864,,response,,,99,,,,,,Space,keypress(Space),,,,,---- -- ----- -- ------ - ------- --- ----------<br>------------- ------ ------ ---- ---- ------- ----- -- ----<br>-------- ------- -- ---------- --- - --- ----- finds ----<br>---- --- --- ----- --- ---- ---- ------- ----- ---- -------<br>--- --- -- ----- -- --- ---- -- --- ---- -- ------ ------<br>--- ----- -- ----,80759.09999999963,80758.09999999963,80367.859,80383.19999999925,80384.53,80767.946,,26,finds
screen,html.Screen,0_2_0_1_27,2021-11-04T12:45:30.340Z,,,,,,,,,,,,,,,,53,,,,,,,,,,,,,,502.0540000000037,,response,,,99,,,,,,Space,keypress(Space),,,,,---- -- ----- -- ------ - ------- --- ----------<br>------------- ------ ------ ---- ---- ------- ----- -- ----<br>-------- ------- -- ---------- --- - --- ----- ----- that<br>---- --- --- ----- --- ---- ---- ------- ----- ---- -------<br>--- --- -- ----- -- --- ---- -- --- ---- -- ------ ------<br>--- ----- -- ----,81270.80000000075,81270,80751.275,80759.30000000075,80767.946,81284.693,,27,that
screen,html.Screen,0_2_0_1_28,2021-11-04T12:45:30.924Z,,,,,,,,,,,,,,,,53,,,,,,,,,,,,,,569.3070000000007,,response,,,99,,,,,,Space,keypress(Space),,,,,---- -- ----- -- ------ - ------- --- ----------<br>------------- ------ ------ ---- ---- ------- ----- -- ----<br>-------- ------- -- ---------- --- - --- ----- ----- ----<br>it's --- --- ----- --- ---- ---- ------- ----- ---- -------<br>--- --- -- ----- -- --- ---- -- --- ---- -- ------ ------<br>--- ----- -- ----,81854.80000000075,81854,81268.023,81271,81284.693,81868.145,,28,it's
screen,html.Screen,0_2_0_1_29,2021-11-04T12:45:31.364Z,,,,,,,,,,,,,,,,53,,,,,,,,,,,,,,425.75500000036845,,response,,,99,,,,,,Space,keypress(Space),,,,,---- -- ----- -- ------ - ------- --- ----------<br>------------- ------ ------ ---- ---- ------- ----- -- ----<br>-------- ------- -- ---------- --- - --- ----- ----- ----<br>---- not --- ----- --- ---- ---- ------- ----- ---- -------<br>--- --- -- ----- -- --- ---- -- --- ---- -- ------ ------<br>--- ----- -- ----,82294.80000000075,82293.90000000037,81851.475,81855.09999999963,81868.145,82301.615,,29,not
screen,html.Screen,0_2_0_1_30,2021-11-04T12:45:32.052Z,,,,,,,,,,,,,,,,53,,,,,,,,,,,,,,680.2850000003673,,response,,,99,,,,,,Space,keypress(Space),,,,,---- -- ----- -- ------ - ------- --- ----------<br>------------- ------ ------ ---- ---- ------- ----- -- ----<br>-------- ------- -- ---------- --- - --- ----- ----- ----<br>---- --- how ----- --- ---- ---- ------- ----- ---- -------<br>--- --- -- ----- -- --- ---- -- --- ---- -- ------ ------<br>--- ----- -- ----,82982.69999999925,82981.90000000037,82284.945,82295.09999999963,82301.615,82985.167,,30,how
screen,html.Screen,0_2_0_1_31,2021-11-04T12:45:33.012Z,,,,,,,,,,,,,,,,53,,,,,,,,,,,,,,956.7330000003712,,response,,,99,,,,,,Space,keypress(Space),,,,,---- -- ----- -- ------ - ------- --- ----------<br>------------- ------ ------ ---- ---- ------- ----- -- ----<br>-------- ------- -- ---------- --- - --- ----- ----- ----<br>---- --- --- close --- ---- ---- ------- ----- ---- -------<br>--- --- -- ----- -- --- ---- -- --- ---- -- ------ ------<br>--- ----- -- ----,83942.69999999925,83941.90000000037,82968.496,82982.90000000037,82985.167,83952.011,,31,close
screen,html.Screen,0_2_0_1_32,2021-11-04T12:45:33.468Z,,,,,,,,,,,,,,,,53,,,,,,,,,,,,,,445.8890000003739,,response,,,99,,,,,,Space,keypress(Space),,,,,---- -- ----- -- ------ - ------- --- ----------<br>------------- ------ ------ ---- ---- ------- ----- -- ----<br>-------- ------- -- ---------- --- - --- ----- ----- ----<br>---- --- --- ----- you ---- ---- ------- ----- ---- -------<br>--- --- -- ----- -- --- ---- -- --- ---- -- ------ ------<br>--- ----- -- ----,84398.59999999963,84397.90000000037,83935.341,83942.90000000037,83952.011,84402.121,,32,you
screen,html.Screen,0_2_0_1_33,2021-11-04T12:45:34.564Z,,,,,,,,,,,,,,,,53,,,,,,,,,,,,,,1091.5789999992558,,response,,,99,,,,,,Space,keypress(Space),,,,,---- -- ----- -- ------ - ------- --- ----------<br>------------- ------ ------ ---- ---- ------- ----- -- ----<br>-------- ------- -- ---------- --- - --- ----- ----- ----<br>---- --- --- ----- --- feel ---- ------- ----- ---- -------<br>--- --- -- ----- -- --- ---- -- --- ---- -- ------ ------<br>--- ----- -- ----,85494.5,85493.69999999925,84385.451,84398.90000000037,84402.121,85502.381,,33,feel
screen,html.Screen,0_2_0_1_34,2021-11-04T12:45:34.956Z,,,,,,,,,,,,,,,,53,,,,,,,,,,,,,,383.318999999261,,response,,,99,,,,,,Space,keypress(Space),,,,,---- -- ----- -- ------ - ------- --- ----------<br>------------- ------ ------ ---- ---- ------- ----- -- ----<br>-------- ------- -- ---------- --- - --- ----- ----- ----<br>---- --- --- ----- --- ---- that ------- ----- ---- -------<br>--- --- -- ----- -- --- ---- -- --- ---- -- ------ ------<br>--- ----- -- ----,85886.5,85885.69999999925,85485.711,85494.80000000075,85502.381,85902.516,,34,that
screen,html.Screen,0_2_0_1_35,2021-11-04T12:45:35.380Z,,,,,,,,,,,,,,,,53,,,,,,,,,,,,,,407.0839999996242,,response,,,99,,,,,,Space,keypress(Space),,,,,---- -- ----- -- ------ - ------- --- ----------<br>------------- ------ ------ ---- ---- ------- ----- -- ----<br>-------- ------- -- ---------- --- - --- ----- ----- ----<br>---- --- --- ----- --- ---- ---- matters ----- ---- -------<br>--- --- -- ----- -- --- ---- -- --- ---- -- ------ ------<br>--- ----- -- ----,86310.69999999925,86309.59999999963,85885.846,85886.80000000075,85902.516,86319.291,,35,matters
screen,html.Screen,0_2_0_1_36,2021-11-04T12:45:36.068Z,,,,,,,,,,,,,,,,53,,,,,,,,,,,,,,678.30899999963,,response,,,99,,,,,,Space,keypress(Space),,,,,"---- -- ----- -- ------ - ------- --- ----------<br>------------- ------ ------ ---- ---- ------- ----- -- ----<br>-------- ------- -- ---------- --- - --- ----- ----- ----<br>---- --- --- ----- --- ---- ---- ------- most, ---- -------<br>--- --- -- ----- -- --- ---- -- --- ---- -- ------ ------<br>--- ----- -- ----",86998.59999999963,86997.59999999963,86302.621,86310.90000000037,86319.291,87002.588,,36,"most,"
screen,html.Screen,0_2_0_1_37,2021-11-04T12:45:36.460Z,,,,,,,,,,,,,,,,53,,,,,,,,,,,,,,387.0119999996241,,response,,,99,,,,,,Space,keypress(Space),,,,,---- -- ----- -- ------ - ------- --- ----------<br>------------- ------ ------ ---- ---- ------- ----- -- ----<br>-------- ------- -- ---------- --- - --- ----- ----- ----<br>---- --- --- ----- --- ---- ---- ------- ----- it's -------<br>--- --- -- ----- -- --- ---- -- --- ---- -- ------ ------<br>--- ----- -- ----,87390.5,87389.59999999963,86985.92,86998.90000000037,87002.588,87403.022,,37,it's
screen,html.Screen,0_2_0_1_38,2021-11-04T12:45:36.972Z,,,,,,,,,,,,,,,,53,,,,,,,,,,,,,,498.67799999925774,,response,,,99,,,,,,Space,keypress(Space),,,,,---- -- ----- -- ------ - ------- --- ----------<br>------------- ------ ------ ---- ---- ------- ----- -- ----<br>-------- ------- -- ---------- --- - --- ----- ----- ----<br>---- --- --- ----- --- ---- ---- ------- ----- ---- whether<br>--- --- -- ----- -- --- ---- -- --- ---- -- ------ ------<br>--- ----- -- ----,87902.40000000037,87901.69999999925,87386.35,87390.69999999925,87403.022,87919.671,,38,whether
screen,html.Screen,0_2_0_1_39,2021-11-04T12:45:37.756Z,,,,,,,,,,,,,,,,53,,,,,,,,,,,,,,766.2290000003704,,response,,,99,,,,,,Space,keypress(Space),,,,,---- -- ----- -- ------ - ------- --- ----------<br>------------- ------ ------ ---- ---- ------- ----- -- ----<br>-------- ------- -- ---------- --- - --- ----- ----- ----<br>---- --- --- ----- --- ---- ---- ------- ----- ---- -------<br>you --- -- ----- -- --- ---- -- --- ---- -- ------ ------<br>--- ----- -- ----,88686.69999999925,88685.90000000037,87903.001,87902.59999999963,87919.671,88703.194,,39,you
screen,html.Screen,0_2_0_1_40,2021-11-04T12:45:38.396Z,,,,,,,,,,,,,,,,53,,,,,,,,,,,,,,622.3059999999969,,response,,,99,,,,,,Space,keypress(Space),,,,,---- -- ----- -- ------ - ------- --- ----------<br>------------- ------ ------ ---- ---- ------- ----- -- ----<br>-------- ------- -- ---------- --- - --- ----- ----- ----<br>---- --- --- ----- --- ---- ---- ------- ----- ---- -------<br>--- are -- ----- -- --- ---- -- --- ---- -- ------ ------<br>--- ----- -- ----,89326.30000000075,89325.5,88686.524,88686.80000000075,88703.194,89336.751,,40,are
screen,html.Screen,0_2_0_1_41,2021-11-04T12:45:38.884Z,,,,,,,,,,,,,,,,53,,,,,,,,,,,,,,476.74899999999616,,response,,,99,,,,,,Space,keypress(Space),,,,,---- -- ----- -- ------ - ------- --- ----------<br>------------- ------ ------ ---- ---- ------- ----- -- ----<br>-------- ------- -- ---------- --- - --- ----- ----- ----<br>---- --- --- ----- --- ---- ---- ------- ----- ---- -------<br>--- --- as ----- -- --- ---- -- --- ---- -- ------ ------<br>--- ----- -- ----,89814.30000000075,89813.5,89320.08,89326.59999999963,89336.751,89820.14,,41,as
screen,html.Screen,0_2_0_1_42,2021-11-04T12:45:39.516Z,,,,,,,,,,,,,,,,53,,,,,,,,,,,,,,625.2600000003731,,response,,,99,,,,,,Space,keypress(Space),,,,,---- -- ----- -- ------ - ------- --- ----------<br>------------- ------ ------ ---- ---- ------- ----- -- ----<br>-------- ------- -- ---------- --- - --- ----- ----- ----<br>---- --- --- ----- --- ---- ---- ------- ----- ---- -------<br>--- --- -- close -- --- ---- -- --- ---- -- ------ ------<br>--- ----- -- ----,90446.30000000075,90445.40000000037,89803.47,89814.59999999963,89820.14,90453.69,,42,close
screen,html.Screen,0_2_0_1_43,2021-11-04T12:45:39.956Z,,,,,,,,,,,,,,,,53,,,,,,,,,,,,,,431.7100000003702,,response,,,99,,,,,,Space,keypress(Space),,,,,---- -- ----- -- ------ - ------- --- ----------<br>------------- ------ ------ ---- ---- ------- ----- -- ----<br>-------- ------- -- ---------- --- - --- ----- ----- ----<br>---- --- --- ----- --- ---- ---- ------- ----- ---- -------<br>--- --- -- ----- as --- ---- -- --- ---- -- ------ ------<br>--- ----- -- ----,90886.19999999925,90885.40000000037,90437.019,90446.40000000037,90453.69,90903.743,,43,as
screen,html.Screen,0_2_0_1_44,2021-11-04T12:45:40.388Z,,,,,,,,,,,,,,,,53,,,,,,,,,,,,,,413.55700000074285,,response,,,99,,,,,,Space,keypress(Space),,,,,---- -- ----- -- ------ - ------- --- ----------<br>------------- ------ ------ ---- ---- ------- ----- -- ----<br>-------- ------- -- ---------- --- - --- ----- ----- ----<br>---- --- --- ----- --- ---- ---- ------- ----- ---- -------<br>--- --- -- ----- -- you ---- -- --- ---- -- ------ ------<br>--- ----- -- ----,91318.09999999963,91317.30000000075,90887.073,90886.5,90903.743,91320.521,,44,you
screen,html.Screen,0_2_0_1_45,2021-11-04T12:45:41.012Z,,,,,,,,,,,,,,,,53,,,,,,,,,,,,,,620.7790000007517,,response,,,99,,,,,,Space,keypress(Space),,,,,---- -- ----- -- ------ - ------- --- ----------<br>------------- ------ ------ ---- ---- ------- ----- -- ----<br>-------- ------- -- ---------- --- - --- ----- ----- ----<br>---- --- --- ----- --- ---- ---- ------- ----- ---- -------<br>--- --- -- ----- -- --- want -- --- ---- -- ------ ------<br>--- ----- -- ----,91942.09999999963,91941.30000000075,91303.851,91318.40000000037,91320.521,91954.061,,45,want
screen,html.Screen,0_2_0_1_46,2021-11-04T12:45:41.428Z,,,,,,,,,,,,,,,,53,,,,,,,,,,,,,,403.23900000074354,,response,,,99,,,,,,Space,keypress(Space),,,,,---- -- ----- -- ------ - ------- --- ----------<br>------------- ------ ------ ---- ---- ------- ----- -- ----<br>-------- ------- -- ---------- --- - --- ----- ----- ----<br>---- --- --- ----- --- ---- ---- ------- ----- ---- -------<br>--- --- -- ----- -- --- ---- to --- ---- -- ------ ------<br>--- ----- -- ----,92358,92357.30000000075,91937.39,91942.30000000075,91954.061,92370.779,,46,to
screen,html.Screen,0_2_0_1_47,2021-11-04T12:45:42.323Z,,,,,,,,,,,,,,,,53,,,,,,,,,,,,,,882.42099999926,,response,,,99,,,,,,Space,keypress(Space),,,,,"---- -- ----- -- ------ - ------- --- ----------<br>------------- ------ ------ ---- ---- ------- ----- -- ----<br>-------- ------- -- ---------- --- - --- ----- ----- ----<br>---- --- --- ----- --- ---- ---- ------- ----- ---- -------<br>--- --- -- ----- -- --- ---- -- be, ---- -- ------ ------<br>--- ----- -- ----",93254,93253.19999999925,92354.109,92358.40000000037,92370.779,93270.867,,47,"be,"
screen,html.Screen,0_2_0_1_48,2021-11-04T12:45:43.091Z,,,,,,,,,,,,,,,,53,,,,,,,,,,,,,,750.3329999992566,,response,,,99,,,,,,Space,keypress(Space),,,,,---- -- ----- -- ------ - ------- --- ----------<br>------------- ------ ------ ---- ---- ------- ----- -- ----<br>-------- ------- -- ---------- --- - --- ----- ----- ----<br>---- --- --- ----- --- ---- ---- ------- ----- ---- -------<br>--- --- -- ----- -- --- ---- -- --- even -- ------ ------<br>--- ----- -- ----,94021.90000000037,94021.19999999925,93254.198,93254.19999999925,93270.867,94038.03,,48,even
screen,html.Screen,0_2_0_1_49,2021-11-04T12:45:43.564Z,,,,,,,,,,,,,,,,53,,,,,,,,,,,,,,455.8700000003737,,response,,,99,,,,,,Space,keypress(Space),,,,,---- -- ----- -- ------ - ------- --- ----------<br>------------- ------ ------ ---- ---- ------- ----- -- ----<br>-------- ------- -- ---------- --- - --- ----- ----- ----<br>---- --- --- ----- --- ---- ---- ------- ----- ---- -------<br>--- --- -- ----- -- --- ---- -- --- ---- if ------ ------<br>--- ----- -- ----,94494.69999999925,94493.90000000037,94021.358,94022.19999999925,94038.03,94504.542,,49,if
screen,html.Screen,0_2_0_1_50,2021-11-04T12:45:43.971Z,,,,,,,,,,,,,,,,53,,,,,,,,,,,,,,396.65799999925366,,response,,,99,,,,,,Space,keypress(Space),,,,,---- -- ----- -- ------ - ------- --- ----------<br>------------- ------ ------ ---- ---- ------- ----- -- ----<br>-------- ------- -- ---------- --- - --- ----- ----- ----<br>---- --- --- ----- --- ---- ---- ------- ----- ---- -------<br>--- --- -- ----- -- --- ---- -- --- ---- -- that's ------<br>--- ----- -- ----,94901.90000000037,94901.19999999925,94487.873,94494.90000000037,94504.542,94904.808,,50,that's
screen,html.Screen,0_2_0_1_51,2021-11-04T12:45:44.347Z,,,,,,,,,,,,,,,,53,,,,,,,,,,,,,,372.29199999962293,,response,,,99,,,,,,Space,keypress(Space),,,,,---- -- ----- -- ------ - ------- --- ----------<br>------------- ------ ------ ---- ---- ------- ----- -- ----<br>-------- ------- -- ---------- --- - --- ----- ----- ----<br>---- --- --- ----- --- ---- ---- ------- ----- ---- -------<br>--- --- -- ----- -- --- ---- -- --- ---- -- ------ really<br>--- ----- -- ----,95277.90000000037,95277.09999999963,94888.137,94902.19999999925,94904.808,95288.226,,51,really
screen,html.Screen,0_2_0_1_52,2021-11-04T12:45:44.939Z,,,,,,,,,,,,,,,,53,,,,,,,,,,,,,,580.8739999996324,,response,,,99,,,,,,Space,keypress(Space),,,,,---- -- ----- -- ------ - ------- --- ----------<br>------------- ------ ------ ---- ---- ------- ----- -- ----<br>-------- ------- -- ---------- --- - --- ----- ----- ----<br>---- --- --- ----- --- ---- ---- ------- ----- ---- -------<br>--- --- -- ----- -- --- ---- -- --- ---- -- ------ ------<br>not ----- -- ----,95869.90000000037,95869.09999999963,95271.555,95278.09999999963,95288.226,95871.664,,52,not
screen,html.Screen,0_2_0_1_53,2021-11-04T12:45:45.307Z,,,,,,,,,,,,,,,,53,,,,,,,,,,,,,,365.43599999962316,,response,,,99,,,,,,Space,keypress(Space),,,,,---- -- ----- -- ------ - ------- --- ----------<br>------------- ------ ------ ---- ---- ------- ----- -- ----<br>-------- ------- -- ---------- --- - --- ----- ----- ----<br>---- --- --- ----- --- ---- ---- ------- ----- ---- -------<br>--- --- -- ----- -- --- ---- -- --- ---- -- ------ ------<br>--- close -- ----,96237.80000000075,96237.09999999963,95854.994,95870.19999999925,95871.664,96255.071,,53,close
screen,html.Screen,0_2_0_1_54,2021-11-04T12:45:45.699Z,,,,,,,,,,,,,,,,53,,,,,,,,,,,,,,373.9290000000037,,response,,,99,,,,,,Space,keypress(Space),,,,,---- -- ----- -- ------ - ------- --- ----------<br>------------- ------ ------ ---- ---- ------- ----- -- ----<br>-------- ------- -- ---------- --- - --- ----- ----- ----<br>---- --- --- ----- --- ---- ---- ------- ----- ---- -------<br>--- --- -- ----- -- --- ---- -- --- ---- -- ------ ------<br>--- ----- at ----,96629.80000000075,96629,96238.401,96238.09999999963,96255.071,96638.56,,54,at
screen,html.Screen,0_2_0_1_55,2021-11-04T12:45:46.251Z,,,,,,,,,,,,,,,,53,,,,,,,,,,,,,,542.4400000000023,,response,,,99,,,,,,Space,keypress(Space),,,,,---- -- ----- -- ------ - ------- --- ----------<br>------------- ------ ------ ---- ---- ------- ----- -- ----<br>-------- ------- -- ---------- --- - --- ----- ----- ----<br>---- --- --- ----- --- ---- ---- ------- ----- ---- -------<br>--- --- -- ----- -- --- ---- -- --- ---- -- ------ ------<br>--- ----- -- all.,97181.80000000075,97181,96621.889,96630.09999999963,96638.56,97188.631,,55,all.
Item 99,flow.Loop,0_2_0_1,2021-11-04T12:45:46.256Z,,,,,,,,,,,,,,,,,,,,,,,,,,,,,,43603.319,,completion,,,,D,,,,,,,,,,silence,,97186.09999999963,97181,53561.011,53566.59999999963,53577.681,97188.631,,,
Question 1,html.Screen,0_2_0_2,2021-11-04T12:45:57.331Z,,,,,,,,,,,,,,,,,,,,,,,,,,,true,FALSE,,11071.468999999634,,response,,,99,D,,,,,FALSE,click #choice-2,,,,silence,,108261.5,108260.09999999963,97171.961,97186.40000000037,97188.631,108274.733,,,
Question 2,html.Screen,0_2_0_3,2021-11-04T12:46:01.595Z,,,,,,,,,,,,,,,,,,,,,,,,,,,true,TRUE,,4249.067000000752,,response,,,99,D,,,,,TRUE,click #choice-1,,,,silence,,112525.09999999963,112523.80000000075,108258.063,108261.80000000075,108274.733,112525.851,,,
Item 99,flow.Sequence,0_2_0,2021-11-04T12:46:01.595Z,,,,,,,,,,,,,,,,,,,,,,,,,,,,,,68948.26400000075,,completion,,,,,,,,,,,,,,,,112525.5,112523.80000000075,43558.864,43562.40000000037,43575.536,112525.851,,,
Holding screen,html.Screen,0_2_1_0,2021-11-04T12:46:11.587Z,,,,,,,,,,,,,,,,,,,,,,,,,,,,,,10002.315000000002,,timeout,,,,,,,,,,,,,,,,122513.30000000075,122511.496,112509.18,112525.80000000075,112525.851,122528.166,,,
screen,html.Screen,0_2_1_1_0,2021-11-04T12:46:13.006Z,,,,,,,,,,,,,,,,54,,,,,,,,,,,,,,1403.43399999963,,response,,,100,,,,,,Space,keypress(Space),,,,,At --- ---- --- ------ ----- ------- ---- -- --- ------- --<br>------- ---------- ------ -- ----- -- ----- -- ---- ------<br>--- ----- --- --- ------ -------- ----- --- ------ ----- --<br>----- ----- ---------- --- --- ------ ------ ---- -- ------<br>------- --- ------ ----- --- ---- ------- -- ---- --- --<br>------- ------,123932.40000000037,123931.59999999963,122511.496,122513.59999999963,122528.166,123945.406,,0,At
screen,html.Screen,0_2_1_1_1,2021-11-04T12:46:13.566Z,,,,,,,,,,,,,,,,54,,,,,,,,,,,,,,545.8940000007424,,response,,,100,,,,,,Space,keypress(Space),,,,,-- the ---- --- ------ ----- ------- ---- -- --- ------- --<br>------- ---------- ------ -- ----- -- ----- -- ---- ------<br>--- ----- --- --- ------ -------- ----- --- ------ ----- --<br>----- ----- ---------- --- --- ------ ------ ---- -- ------<br>------- --- ------ ----- --- ---- ------- -- ---- --- --<br>------- ------,124492.09999999963,124491.30000000075,123928.735,123932.80000000075,123945.406,124495.412,,1,the
screen,html.Screen,0_2_1_1_2,2021-11-04T12:46:14.118Z,,,,,,,,,,,,,,,,54,,,,,,,,,,,,,,547.7879999992583,,response,,,100,,,,,,Space,keypress(Space),,,,,-- --- time --- ------ ----- ------- ---- -- --- ------- --<br>------- ---------- ------ -- ----- -- ----- -- ---- ------<br>--- ----- --- --- ------ -------- ----- --- ------ ----- --<br>----- ----- ---------- --- --- ------ ------ ---- -- ------<br>------- --- ------ ----- --- ---- ------- -- ---- --- --<br>------- ------,125044,125043.19999999925,124478.742,124492.40000000037,124495.412,125045.59,,2,time
screen,html.Screen,0_2_1_1_3,2021-11-04T12:46:14.614Z,,,,,,,,,,,,,,,,54,,,,,,,,,,,,,,493.60999999925843,,response,,,100,,,,,,Space,keypress(Space),,,,,-- --- ---- the ------ ----- ------- ---- -- --- ------- --<br>------- ---------- ------ -- ----- -- ----- -- ---- ------<br>--- ----- --- --- ------ -------- ----- --- ------ ----- --<br>----- ----- ---------- --- --- ------ ------ ---- -- ------<br>------- --- ------ ----- --- ---- ------- -- ---- --- --<br>------- ------,125540.09999999963,125539.19999999925,125028.92,125044.30000000075,125045.59,125545.697,,3,the
screen,html.Screen,0_2_1_1_4,2021-11-04T12:46:15.045Z,,,,,,,,,,,,,,,,54,,,,,,,,,,,,,,425.5029999992548,,response,,,100,,,,,,Space,keypress(Space),,,,,-- --- ---- --- French ----- ------- ---- -- --- ------- --<br>------- ---------- ------ -- ----- -- ----- -- ---- ------<br>--- ----- --- --- ------ -------- ----- --- ------ ----- --<br>----- ----- ---------- --- --- ------ ------ ---- -- ------<br>------- --- ------ ----- --- ---- ------- -- ---- --- --<br>------- ------,125972,125971.19999999925,125529.027,125540.30000000075,125545.697,125979.194,,4,French
screen,html.Screen,0_2_1_1_5,2021-11-04T12:46:15.413Z,,,,,,,,,,,,,,,,54,,,,,,,,,,,,,,359.9059999996243,,response,,,100,,,,,,Space,keypress(Space),,,,,-- --- ---- --- ------ crown ------- ---- -- --- ------- --<br>------- ---------- ------ -- ----- -- ----- -- ---- ------<br>--- ----- --- --- ------ -------- ----- --- ------ ----- --<br>----- ----- ---------- --- --- ------ ------ ---- -- ------<br>------- --- ------ ----- --- ---- ------- -- ---- --- --<br>------- ------,126340,126339.09999999963,125962.523,125972.30000000075,125979.194,126345.921,,5,crown
screen,html.Screen,0_2_1_1_6,2021-11-04T12:46:15.877Z,,,,,,,,,,,,,,,,54,,,,,,,,,,,,,,457.1789999996254,,response,,,100,,,,,,Space,keypress(Space),,,,,-- --- ---- --- ------ ----- secured ---- -- --- ------- --<br>------- ---------- ------ -- ----- -- ----- -- ---- ------<br>--- ----- --- --- ------ -------- ----- --- ------ ----- --<br>----- ----- ---------- --- --- ------ ------ ---- -- ------<br>------- --- ------ ----- --- ---- ------- -- ---- --- --<br>------- ------,126803.90000000037,126803.09999999963,126329.251,126340.19999999925,126345.921,126812.673,,6,secured
screen,html.Screen,0_2_1_1_7,2021-11-04T12:46:16.261Z,,,,,,,,,,,,,,,,54,,,,,,,,,,,,,,374.42699999963224,,response,,,100,,,,,,Space,keypress(Space),,,,,-- --- ---- --- ------ ----- ------- much -- --- ------- --<br>------- ---------- ------ -- ----- -- ----- -- ---- ------<br>--- ----- --- --- ------ -------- ----- --- ------ ----- --<br>----- ----- ---------- --- --- ------ ------ ---- -- ------<br>------- --- ------ ----- --- ---- ------- -- ---- --- --<br>------- ------,127187.90000000037,127187.09999999963,126796.003,126804.09999999963,126812.673,127196.166,,7,much
screen,html.Screen,0_2_1_1_8,2021-11-04T12:46:16.741Z,,,,,,,,,,,,,,,,54,,,,,,,,,,,,,,470.93399999963003,,response,,,100,,,,,,Space,keypress(Space),,,,,-- --- ---- --- ------ ----- ------- ---- of --- ------- --<br>------- ---------- ------ -- ----- -- ----- -- ---- ------<br>--- ----- --- --- ------ -------- ----- --- ------ ----- --<br>----- ----- ---------- --- --- ------ ------ ---- -- ------<br>------- --- ------ ----- --- ---- ------- -- ---- --- --<br>------- ------,127667.80000000075,127667.09999999963,127179.495,127188.19999999925,127196.166,127679.558,,8,of
screen,html.Screen,0_2_1_1_9,2021-11-04T12:46:17.037Z,,,,,,,,,,,,,,,,54,,,,,,,,,,,,,,283.44199999999546,,response,,,100,,,,,,Space,keypress(Space),,,,,-- --- ---- --- ------ ----- ------- ---- -- its ------- --<br>------- ---------- ------ -- ----- -- ----- -- ---- ------<br>--- ----- --- --- ------ -------- ----- --- ------ ----- --<br>----- ----- ---------- --- --- ------ ------ ---- -- ------<br>------- --- ------ ----- --- ---- ------- -- ---- --- --<br>------- ------,127963.80000000075,127963,127662.888,127668.09999999963,127679.558,127979.531,,9,its
screen,html.Screen,0_2_1_1_10,2021-11-04T12:46:17.453Z,,,,,,,,,,,,,,,,54,,,,,,,,,,,,,,399.4689999999973,,response,,,100,,,,,,Space,keypress(Space),,,,,-- --- ---- --- ------ ----- ------- ---- -- --- revenue --<br>------- ---------- ------ -- ----- -- ----- -- ---- ------<br>--- ----- --- --- ------ -------- ----- --- ------ ----- --<br>----- ----- ---------- --- --- ------ ------ ---- -- ------<br>------- --- ------ ----- --- ---- ------- -- ---- --- --<br>------- ------,128379.80000000075,128379,127962.863,127964,127979.531,128396.497,,10,revenue
screen,html.Screen,0_2_1_1_11,2021-11-04T12:46:18.021Z,,,,,,,,,,,,,,,,54,,,,,,,,,,,,,,550.4030000003695,,response,,,100,,,,,,Space,keypress(Space),,,,,-- --- ---- --- ------ ----- ------- ---- -- --- ------- by<br>------- ---------- ------ -- ----- -- ----- -- ---- ------<br>--- ----- --- --- ------ -------- ----- --- ------ ----- --<br>----- ----- ---------- --- --- ------ ------ ---- -- ------<br>------- --- ------ ----- --- ---- ------- -- ---- --- --<br>------- ------,128947.69999999925,128946.90000000037,128379.825,128380.09999999963,128396.497,128963.269,,11,by
screen,html.Screen,0_2_1_1_12,2021-11-04T12:46:18.525Z,,,,,,,,,,,,,,,,54,,,,,,,,,,,,,,487.73099999999977,,response,,,100,,,,,,Space,keypress(Space),,,,,-- --- ---- --- ------ ----- ------- ---- -- --- ------- --<br>issuing ---------- ------ -- ----- -- ----- -- ---- ------<br>--- ----- --- --- ------ -------- ----- --- ------ ----- --<br>----- ----- ---------- --- --- ------ ------ ---- -- ------<br>------- --- ------ ----- --- ---- ------- -- ---- --- --<br>------- ------,129451.69999999925,129451,128946.598,128947.90000000037,128963.269,129463.353,,12,issuing
screen,html.Screen,0_2_1_1_13,2021-11-04T12:46:18.965Z,,,,,,,,,,,,,,,,54,,,,,,,,,,,,,,427.54700000036974,,response,,,100,,,,,,Space,keypress(Space),,,,,-- --- ---- --- ------ ----- ------- ---- -- --- ------- --<br>------- government ------ -- ----- -- ----- -- ---- ------<br>--- ----- --- --- ------ -------- ----- --- ------ ----- --<br>----- ----- ---------- --- --- ------ ------ ---- -- ------<br>------- --- ------ ----- --- ---- ------- -- ---- --- --<br>------- ------,129891.69999999925,129890.90000000037,129446.683,129452,129463.353,129896.802,,13,government
screen,html.Screen,0_2_1_1_14,2021-11-04T12:46:19.469Z,,,,,,,,,,,,,,,,54,,,,,,,,,,,,,,498.0980000003765,,response,,,100,,,,,,Space,keypress(Space),,,,,-- --- ---- --- ------ ----- ------- ---- -- --- ------- --<br>------- ---------- bonds. -- ----- -- ----- -- ---- ------<br>--- ----- --- --- ------ -------- ----- --- ------ ----- --<br>----- ----- ---------- --- --- ------ ------ ---- -- ------<br>------- --- ------ ----- --- ---- ------- -- ---- --- --<br>------- ------,130395.59999999963,130394.90000000037,129880.132,129892,129896.802,130396.908,,14,bonds.
screen,html.Screen,0_2_1_1_15,2021-11-04T12:46:20.013Z,,,,,,,,,,,,,,,,54,,,,,,,,,,,,,,541.9920000003767,,response,,,100,,,,,,Space,keypress(Space),,,,,-- --- ---- --- ------ ----- ------- ---- -- --- ------- --<br>------- ---------- ------ In ----- -- ----- -- ---- ------<br>--- ----- --- --- ------ -------- ----- --- ------ ----- --<br>----- ----- ---------- --- --- ------ ------ ---- -- ------<br>------- --- ------ ----- --- ---- ------- -- ---- --- --<br>------- ------,130939.59999999963,130938.90000000037,130380.238,130395.90000000037,130396.908,130946.891,,15,In
screen,html.Screen,0_2_1_1_16,2021-11-04T12:46:20.821Z,,,,,,,,,,,,,,,,54,,,,,,,,,,,,,,799.9090000007418,,response,,,100,,,,,,Space,keypress(Space),,,,,"-- --- ---- --- ------ ----- ------- ---- -- --- ------- --<br>------- ---------- ------ -- 1727, -- ----- -- ---- ------<br>--- ----- --- --- ------ -------- ----- --- ------ ----- --<br>----- ----- ---------- --- --- ------ ------ ---- -- ------<br>------- --- ------ ----- --- ---- ------- -- ---- --- --<br>------- ------",131747.59999999963,131746.80000000075,130930.223,130939.90000000037,130946.891,131764.067,,16,"1727,"
screen,html.Screen,0_2_1_1_17,2021-11-04T12:46:23.061Z,,,,,,,,,,,,,,,,54,,,,,,,,,,,,,,2222.93299999999,,response,,,100,,,,,,Space,keypress(Space),,,,,-- --- ---- --- ------ ----- ------- ---- -- --- ------- --<br>------- ---------- ------ -- ----- in ----- -- ---- ------<br>--- ----- --- --- ------ -------- ----- --- ------ ----- --<br>----- ----- ---------- --- --- ------ ------ ---- -- ------<br>------- --- ------ ----- --- ---- ------- -- ---- --- --<br>------- ------,133987.90000000037,133987,131747.395,131747.80000000075,131764.067,133997.479,,17,in
screen,html.Screen,0_2_1_1_18,2021-11-04T12:46:23.469Z,,,,,,,,,,,,,,,,54,,,,,,,,,,,,,,397.1209999996354,,response,,,100,,,,,,Space,keypress(Space),,,,,-- --- ---- --- ------ ----- ------- ---- -- --- ------- --<br>------- ---------- ------ -- ----- -- order -- ---- ------<br>--- ----- --- --- ------ -------- ----- --- ------ ----- --<br>----- ----- ---------- --- --- ------ ------ ---- -- ------<br>------- --- ------ ----- --- ---- ------- -- ---- --- --<br>------- ------,134395.40000000037,134394.59999999963,133980.81,133988.19999999925,133997.479,134397.971,,18,order
screen,html.Screen,0_2_1_1_19,2021-11-04T12:46:23.885Z,,,,,,,,,,,,,,,,54,,,,,,,,,,,,,,412.628999999637,,response,,,100,,,,,,Space,keypress(Space),,,,,-- --- ---- --- ------ ----- ------- ---- -- --- ------- --<br>------- ---------- ------ -- ----- -- ----- to ---- ------<br>--- ----- --- --- ------ -------- ----- --- ------ ----- --<br>----- ----- ---------- --- --- ------ ------ ---- -- ------<br>------- --- ------ ----- --- ---- ------- -- ---- --- --<br>------- ------,134811.59999999963,134810.59999999963,134381.3,134395.59999999963,134397.971,134814.69,,19,to
screen,html.Screen,0_2_1_1_20,2021-11-04T12:46:24.557Z,,,,,,,,,,,,,,,,54,,,,,,,,,,,,,,667.9099999996251,,response,,,100,,,,,,Space,keypress(Space),,,,,-- --- ---- --- ------ ----- ------- ---- -- --- ------- --<br>------- ---------- ------ -- ----- -- ----- -- save ------<br>--- ----- --- --- ------ -------- ----- --- ------ ----- --<br>----- ----- ---------- --- --- ------ ------ ---- -- ------<br>------- --- ------ ----- --- ---- ------- -- ---- --- --<br>------- ------,135483.40000000037,135482.59999999963,134798.02,134811.80000000075,134814.69,135498.233,,20,save
screen,html.Screen,0_2_1_1_21,2021-11-04T12:46:24.941Z,,,,,,,,,,,,,,,,54,,,,,,,,,,,,,,368.36699999962,,response,,,100,,,,,,Space,keypress(Space),,,,,"-- --- ---- --- ------ ----- ------- ---- -- --- ------- --<br>------- ---------- ------ -- ----- -- ----- -- ---- money,<br>--- ----- --- --- ------ -------- ----- --- ------ ----- --<br>----- ----- ---------- --- --- ------ ------ ---- -- ------<br>------- --- ------ ----- --- ---- ------- -- ---- --- --<br>------- ------",135867.40000000037,135866.59999999963,135481.562,135483.59999999963,135498.233,135881.611,,21,"money,"
screen,html.Screen,0_2_1_1_22,2021-11-04T12:46:25.413Z,,,,,,,,,,,,,,,,54,,,,,,,,,,,,,,456.98899999962305,,response,,,100,,,,,,Space,keypress(Space),,,,,-- --- ---- --- ------ ----- ------- ---- -- --- ------- --<br>------- ---------- ------ -- ----- -- ----- -- ---- ------<br>the ----- --- --- ------ -------- ----- --- ------ ----- --<br>----- ----- ---------- --- --- ------ ------ ---- -- ------<br>------- --- ------ ----- --- ---- ------- -- ---- --- --<br>------- ------,136339.40000000037,136338.59999999963,135864.941,135867.69999999925,135881.611,136348.404,,22,the
screen,html.Screen,0_2_1_1_23,2021-11-04T12:46:25.805Z,,,,,,,,,,,,,,,,54,,,,,,,,,,,,,,382.1959999996179,,response,,,100,,,,,,Space,keypress(Space),,,,,-- --- ---- --- ------ ----- ------- ---- -- --- ------- --<br>------- ---------- ------ -- ----- -- ----- -- ---- ------<br>--- state --- --- ------ -------- ----- --- ------ ----- --<br>----- ----- ---------- --- --- ------ ------ ---- -- ------<br>------- --- ------ ----- --- ---- ------- -- ---- --- --<br>------- ------,136731.40000000037,136730.59999999963,136331.734,136339.59999999963,136348.404,136748.505,,23,state
screen,html.Screen,0_2_1_1_24,2021-11-04T12:46:26.213Z,,,,,,,,,,,,,,,,54,,,,,,,,,,,,,,389.99499999999534,,response,,,100,,,,,,Space,keypress(Space),,,,,-- --- ---- --- ------ ----- ------- ---- -- --- ------- --<br>------- ---------- ------ -- ----- -- ----- -- ---- ------<br>--- ----- cut --- ------ -------- ----- --- ------ ----- --<br>----- ----- ---------- --- --- ------ ------ ---- -- ------<br>------- --- ------ ----- --- ---- ------- -- ---- --- --<br>------- ------,137139.30000000075,137138.5,136731.835,136731.69999999925,136748.505,137148.605,,24,cut
screen,html.Screen,0_2_1_1_25,2021-11-04T12:46:26.669Z,,,,,,,,,,,,,,,,54,,,,,,,,,,,,,,445.8949999999895,,response,,,100,,,,,,Space,keypress(Space),,,,,-- --- ---- --- ------ ----- ------- ---- -- --- ------- --<br>------- ---------- ------ -- ----- -- ----- -- ---- ------<br>--- ----- --- the ------ -------- ----- --- ------ ----- --<br>----- ----- ---------- --- --- ------ ------ ---- -- ------<br>------- --- ------ ----- --- ---- ------- -- ---- --- --<br>------- ------,137595.30000000075,137594.5,137131.935,137139.5,137148.605,137598.754,,25,the
screen,html.Screen,0_2_1_1_26,2021-11-04T12:46:27.125Z,,,,,,,,,,,,,,,,54,,,,,,,,,,,,,,451.74600000001374,,response,,,100,,,,,,Space,keypress(Space),,,,,-- --- ---- --- ------ ----- ------- ---- -- --- ------- --<br>------- ---------- ------ -- ----- -- ----- -- ---- ------<br>--- ----- --- --- bonds' -------- ----- --- ------ ----- --<br>----- ----- ---------- --- --- ------ ------ ---- -- ------<br>------- --- ------ ----- --- ---- ------- -- ---- --- --<br>------- ------,138051.30000000075,138050.5,137582.083,137595.5,137598.754,138065.543,,26,bonds'
screen,html.Screen,0_2_1_1_27,2021-11-04T12:46:27.693Z,,,,,,,,,,,,,,,,54,,,,,,,,,,,,,,552.8570000003674,,response,,,100,,,,,,Space,keypress(Space),,,,,-- --- ---- --- ------ ----- ------- ---- -- --- ------- --<br>------- ---------- ------ -- ----- -- ----- -- ---- ------<br>--- ----- --- --- ------ interest ----- --- ------ ----- --<br>----- ----- ---------- --- --- ------ ------ ---- -- ------<br>------- --- ------ ----- --- ---- ------- -- ---- --- --<br>------- ------,138619.30000000075,138618.40000000037,138048.872,138051.59999999963,138065.543,138632.293,,27,interest
screen,html.Screen,0_2_1_1_28,2021-11-04T12:46:28.149Z,,,,,,,,,,,,,,,,54,,,,,,,,,,,,,,442.1070000003674,,response,,,100,,,,,,Space,keypress(Space),,,,,-- --- ---- --- ------ ----- ------- ---- -- --- ------- --<br>------- ---------- ------ -- ----- -- ----- -- ---- ------<br>--- ----- --- --- ------ -------- rate. --- ------ ----- --<br>----- ----- ---------- --- --- ------ ------ ---- -- ------<br>------- --- ------ ----- --- ---- ------- -- ---- --- --<br>------- ------,139075.19999999925,139074.40000000037,138615.623,138619.5,138632.293,139082.399,,28,rate.
screen,html.Screen,0_2_1_1_29,2021-11-04T12:46:28.597Z,,,,,,,,,,,,,,,,54,,,,,,,,,,,,,,439.90100000074017,,response,,,100,,,,,,Space,keypress(Space),,,,,-- --- ---- --- ------ ----- ------- ---- -- --- ------- --<br>------- ---------- ------ -- ----- -- ----- -- ---- ------<br>--- ----- --- --- ------ -------- ----- The ------ ----- --<br>----- ----- ---------- --- --- ------ ------ ---- -- ------<br>------- --- ------ ----- --- ---- ------- -- ---- --- --<br>------- ------,139523.09999999963,139522.30000000075,139065.729,139075.40000000037,139082.399,139532.528,,29,The
screen,html.Screen,0_2_1_1_30,2021-11-04T12:46:29.029Z,,,,,,,,,,,,,,,,54,,,,,,,,,,,,,,421.7720000007539,,response,,,100,,,,,,Space,keypress(Space),,,,,-- --- ---- --- ------ ----- ------- ---- -- --- ------- --<br>------- ---------- ------ -- ----- -- ----- -- ---- ------<br>--- ----- --- --- ------ -------- ----- --- market ----- --<br>----- ----- ---------- --- --- ------ ------ ---- -- ------<br>------- --- ------ ----- --- ---- ------- -- ---- --- --<br>------- ------,139955.19999999925,139954.30000000075,139515.858,139523.30000000075,139532.528,139965.952,,30,market
screen,html.Screen,0_2_1_1_31,2021-11-04T12:46:29.461Z,,,,,,,,,,,,,,,,54,,,,,,,,,,,,,,420.2479999992647,,response,,,100,,,,,,Space,keypress(Space),,,,,-- --- ---- --- ------ ----- ------- ---- -- --- ------- --<br>------- ---------- ------ -- ----- -- ----- -- ---- ------<br>--- ----- --- --- ------ -------- ----- --- ------ value --<br>----- ----- ---------- --- --- ------ ------ ---- -- ------<br>------- --- ------ ----- --- ---- ------- -- ---- --- --<br>------- ------,140387,140386.19999999925,139949.282,139955.5,139965.952,140399.451,,31,value
screen,html.Screen,0_2_1_1_32,2021-11-04T12:46:29.869Z,,,,,,,,,,,,,,,,54,,,,,,,,,,,,,,394.8490000007441,,response,,,100,,,,,,Space,keypress(Space),,,,,-- --- ---- --- ------ ----- ------- ---- -- --- ------- --<br>------- ---------- ------ -- ----- -- ----- -- ---- ------<br>--- ----- --- --- ------ -------- ----- --- ------ ----- of<br>----- ----- ---------- --- --- ------ ------ ---- -- ------<br>------- --- ------ ----- --- ---- ------- -- ---- --- --<br>------- ------,140795.09999999963,140794.30000000075,140382.78,140387.30000000075,140399.451,140799.506,,32,of
screen,html.Screen,0_2_1_1_33,2021-11-04T12:46:30.452Z,,,,,,,,,,,,,,,,54,,,,,,,,,,,,,,578.693999999261,,response,,,100,,,,,,Space,keypress(Space),,,,,-- --- ---- --- ------ ----- ------- ---- -- --- ------- --<br>------- ---------- ------ -- ----- -- ----- -- ---- ------<br>--- ----- --- --- ------ -------- ----- --- ------ ----- --<br>these ----- ---------- --- --- ------ ------ ---- -- ------<br>------- --- ------ ----- --- ---- ------- -- ---- --- --<br>------- ------,141378.90000000037,141378.19999999925,140782.836,140795.40000000037,140799.506,141383.03,,33,these
screen,html.Screen,0_2_1_1_34,2021-11-04T12:46:30.844Z,,,,,,,,,,,,,,,,54,,,,,,,,,,,,,,387.06999999962864,,response,,,100,,,,,,Space,keypress(Space),,,,,-- --- ---- --- ------ ----- ------- ---- -- --- ------- --<br>------- ---------- ------ -- ----- -- ----- -- ---- ------<br>--- ----- --- --- ------ -------- ----- --- ------ ----- --<br>----- bonds ---------- --- --- ------ ------ ---- -- ------<br>------- --- ------ ----- --- ---- ------- -- ---- --- --<br>------- ------,141770.90000000037,141770.09999999963,141366.359,141379.19999999925,141383.03,141783.077,,34,bonds
screen,html.Screen,0_2_1_1_35,2021-11-04T12:46:31.372Z,,,,,,,,,,,,,,,,54,,,,,,,,,,,,,,515.0229999996372,,response,,,100,,,,,,Space,keypress(Space),,,,,"-- --- ---- --- ------ ----- ------- ---- -- --- ------- --<br>------- ---------- ------ -- ----- -- ----- -- ---- ------<br>--- ----- --- --- ------ -------- ----- --- ------ ----- --<br>----- ----- plummeted, --- --- ------ ------ ---- -- ------<br>------- --- ------ ----- --- ---- ------- -- ---- --- --<br>------- ------",142298.90000000037,142298.09999999963,141766.407,141771.09999999963,141783.077,142316.446,,35,"plummeted,"
screen,html.Screen,0_2_1_1_36,2021-11-04T12:46:31.796Z,,,,,,,,,,,,,,,,54,,,,,,,,,,,,,,405.6539999996312,,response,,,100,,,,,,Space,keypress(Space),,,,,-- --- ---- --- ------ ----- ------- ---- -- --- ------- --<br>------- ---------- ------ -- ----- -- ----- -- ---- ------<br>--- ----- --- --- ------ -------- ----- --- ------ ----- --<br>----- ----- ---------- and --- ------ ------ ---- -- ------<br>------- --- ------ ----- --- ---- ------- -- ---- --- --<br>------- ------,142722.90000000037,142722.09999999963,142299.777,142299.09999999963,142316.446,142733.478,,36,and
screen,html.Screen,0_2_1_1_37,2021-11-04T12:46:32.188Z,,,,,,,,,,,,,,,,54,,,,,,,,,,,,,,380.6219999996247,,response,,,100,,,,,,Space,keypress(Space),,,,,-- --- ---- --- ------ ----- ------- ---- -- --- ------- --<br>------- ---------- ------ -- ----- -- ----- -- ---- ------<br>--- ----- --- --- ------ -------- ----- --- ------ ----- --<br>----- ----- ---------- --- the ------ ------ ---- -- ------<br>------- --- ------ ----- --- ---- ------- -- ---- --- --<br>------- ------,143115,143114.09999999963,142716.805,142723.19999999925,142733.478,143116.75,,37,the
screen,html.Screen,0_2_1_1_38,2021-11-04T12:46:32.764Z,,,,,,,,,,,,,,,,54,,,,,,,,,,,,,,573.25,,response,,,100,,,,,,Space,keypress(Space),,,,,-- --- ---- --- ------ ----- ------- ---- -- --- ------- --<br>------- ---------- ------ -- ----- -- ----- -- ---- ------<br>--- ----- --- --- ------ -------- ----- --- ------ ----- --<br>----- ----- ---------- --- --- market ------ ---- -- ------<br>------- --- ------ ----- --- ---- ------- -- ---- --- --<br>------- ------,143690.80000000075,143690,143100.08,143115.30000000075,143116.75,143700.231,,38,market
screen,html.Screen,0_2_1_1_39,2021-11-04T12:46:33.205Z,,,,,,,,,,,,,,,,54,,,,,,,,,,,,,,430.0690000007453,,response,,,100,,,,,,Space,keypress(Space),,,,,-- --- ---- --- ------ ----- ------- ---- -- --- ------- --<br>------- ---------- ------ -- ----- -- ----- -- ---- ------<br>--- ----- --- --- ------ -------- ----- --- ------ ----- --<br>----- ----- ---------- --- --- ------ became ---- -- ------<br>------- --- ------ ----- --- ---- ------- -- ---- --- --<br>------- ------,144131.09999999963,144130.30000000075,143683.561,143691.09999999963,143700.231,144133.659,,39,became
screen,html.Screen,0_2_1_1_40,2021-11-04T12:46:33.684Z,,,,,,,,,,,,,,,,54,,,,,,,,,,,,,,476.2410000003583,,response,,,100,,,,,,Space,keypress(Space),,,,,-- --- ---- --- ------ ----- ------- ---- -- --- ------- --<br>------- ---------- ------ -- ----- -- ----- -- ---- ------<br>--- ----- --- --- ------ -------- ----- --- ------ ----- --<br>----- ----- ---------- --- --- ------ ------ wary -- ------<br>------- --- ------ ----- --- ---- ------- -- ---- --- --<br>------- ------,144610.69999999925,144609.90000000037,144116.989,144131.30000000075,144133.659,144617.167,,40,wary
screen,html.Screen,0_2_1_1_41,2021-11-04T12:46:34.052Z,,,,,,,,,,,,,,,,54,,,,,,,,,,,,,,360.83300000001327,,response,,,100,,,,,,Space,keypress(Space),,,,,-- --- ---- --- ------ ----- ------- ---- -- --- ------- --<br>------- ---------- ------ -- ----- -- ----- -- ---- ------<br>--- ----- --- --- ------ -------- ----- --- ------ ----- --<br>----- ----- ---------- --- --- ------ ------ ---- of ------<br>------- --- ------ ----- --- ---- ------- -- ---- --- --<br>------- ------,144978.80000000075,144978,144600.496,144610.90000000037,144617.167,144983.876,,41,of
screen,html.Screen,0_2_1_1_42,2021-11-04T12:46:34.548Z,,,,,,,,,,,,,,,,54,,,,,,,,,,,,,,490.02400000038324,,response,,,100,,,,,,Space,keypress(Space),,,,,-- --- ---- --- ------ ----- ------- ---- -- --- ------- --<br>------- ---------- ------ -- ----- -- ----- -- ---- ------<br>--- ----- --- --- ------ -------- ----- --- ------ ----- --<br>----- ----- ---------- --- --- ------ ------ ---- -- French<br>------- --- ------ ----- --- ---- ------- -- ---- --- --<br>------- ------,145474.69999999925,145473.90000000037,144967.206,144979,144983.876,145484.007,,42,French
screen,html.Screen,0_2_1_1_43,2021-11-04T12:46:36.132Z,,,,,,,,,,,,,,,,54,,,,,,,,,,,,,,1573.7930000007327,,response,,,100,,,,,,Space,keypress(Space),,,,,-- --- ---- --- ------ ----- ------- ---- -- --- ------- --<br>------- ---------- ------ -- ----- -- ----- -- ---- ------<br>--- ----- --- --- ------ -------- ----- --- ------ ----- --<br>----- ----- ---------- --- --- ------ ------ ---- -- ------<br>credit. --- ------ ----- --- ---- ------- -- ---- --- --<br>------- ------,147058.59999999963,147057.80000000075,145467.337,145475,145484.007,147067.68,,43,credit.
screen,html.Screen,0_2_1_1_44,2021-11-04T12:46:36.604Z,,,,,,,,,,,,,,,,54,,,,,,,,,,,,,,462.12000000075204,,response,,,100,,,,,,Space,keypress(Space),,,,,-- --- ---- --- ------ ----- ------- ---- -- --- ------- --<br>------- ---------- ------ -- ----- -- ----- -- ---- ------<br>--- ----- --- --- ------ -------- ----- --- ------ ----- --<br>----- ----- ---------- --- --- ------ ------ ---- -- ------<br>------- The ------ ----- --- ---- ------- -- ---- --- --<br>------- ------,147530.69999999925,147529.80000000075,147051.01,147058.90000000037,147067.68,147534.499,,44,The
screen,html.Screen,0_2_1_1_45,2021-11-04T12:46:37.108Z,,,,,,,,,,,,,,,,54,,,,,,,,,,,,,,499.30100000073435,,response,,,100,,,,,,Space,keypress(Space),,,,,-- --- ---- --- ------ ----- ------- ---- -- --- ------- --<br>------- ---------- ------ -- ----- -- ----- -- ---- ------<br>--- ----- --- --- ------ -------- ----- --- ------ ----- --<br>----- ----- ---------- --- --- ------ ------ ---- -- ------<br>------- --- French ----- --- ---- ------- -- ---- --- --<br>------- ------,148034.69999999925,148033.80000000075,147517.829,147530.90000000037,147534.499,148051.242,,45,French
screen,html.Screen,0_2_1_1_46,2021-11-04T12:46:37.508Z,,,,,,,,,,,,,,,,54,,,,,,,,,,,,,,382.5580000007467,,response,,,100,,,,,,Space,keypress(Space),,,,,-- --- ---- --- ------ ----- ------- ---- -- --- ------- --<br>------- ---------- ------ -- ----- -- ----- -- ---- ------<br>--- ----- --- --- ------ -------- ----- --- ------ ----- --<br>----- ----- ---------- --- --- ------ ------ ---- -- ------<br>------- --- ------ state --- ---- ------- -- ---- --- --<br>------- ------,148434.59999999963,148433.80000000075,148034.572,148035,148051.242,148451.529,,46,state
screen,html.Screen,0_2_1_1_47,2021-11-04T12:46:37.916Z,,,,,,,,,,,,,,,,54,,,,,,,,,,,,,,390.1709999992454,,response,,,100,,,,,,Space,keypress(Space),,,,,-- --- ---- --- ------ ----- ------- ---- -- --- ------- --<br>------- ---------- ------ -- ----- -- ----- -- ---- ------<br>--- ----- --- --- ------ -------- ----- --- ------ ----- --<br>----- ----- ---------- --- --- ------ ------ ---- -- ------<br>------- --- ------ ----- was ---- ------- -- ---- --- --<br>------- ------,148842.59999999963,148841.69999999925,148434.856,148434.90000000037,148451.529,148851.552,,47,was
screen,html.Screen,0_2_1_1_48,2021-11-04T12:46:38.468Z,,,,,,,,,,,,,,,,54,,,,,,,,,,,,,,542.1479999992589,,response,,,100,,,,,,Space,keypress(Space),,,,,-- --- ---- --- ------ ----- ------- ---- -- --- ------- --<br>------- ---------- ------ -- ----- -- ----- -- ---- ------<br>--- ----- --- --- ------ -------- ----- --- ------ ----- --<br>----- ----- ---------- --- --- ------ ------ ---- -- ------<br>------- --- ------ ----- --- left ------- -- ---- --- --<br>------- ------,149394.5,149393.69999999925,148834.881,148842.90000000037,148851.552,149401.635,,48,left
screen,html.Screen,0_2_1_1_49,2021-11-04T12:46:38.884Z,,,,,,,,,,,,,,,,54,,,,,,,,,,,,,,408.06499999924563,,response,,,100,,,,,,Space,keypress(Space),,,,,-- --- ---- --- ------ ----- ------- ---- -- --- ------- --<br>------- ---------- ------ -- ----- -- ----- -- ---- ------<br>--- ----- --- --- ------ -------- ----- --- ------ ----- --<br>----- ----- ---------- --- --- ------ ------ ---- -- ------<br>------- --- ------ ----- --- ---- without -- ---- --- --<br>------- ------,149810.5,149809.69999999925,149384.965,149394.69999999925,149401.635,149818.409,,49,without
screen,html.Screen,0_2_1_1_50,2021-11-04T12:46:39.372Z,,,,,,,,,,,,,,,,54,,,,,,,,,,,,,,479.29099999924074,,response,,,100,,,,,,Space,keypress(Space),,,,,-- --- ---- --- ------ ----- ------- ---- -- --- ------- --<br>------- ---------- ------ -- ----- -- ----- -- ---- ------<br>--- ----- --- --- ------ -------- ----- --- ------ ----- --<br>----- ----- ---------- --- --- ------ ------ ---- -- ------<br>------- --- ------ ----- --- ---- ------- an ---- --- --<br>------- ------,150298.40000000037,150297.69999999925,149801.739,149810.69999999925,149818.409,150301.852,,50,an
screen,html.Screen,0_2_1_1_51,2021-11-04T12:46:39.772Z,,,,,,,,,,,,,,,,54,,,,,,,,,,,,,,395.74799999961397,,response,,,100,,,,,,Space,keypress(Space),,,,,-- --- ---- --- ------ ----- ------- ---- -- --- ------- --<br>------- ---------- ------ -- ----- -- ----- -- ---- ------<br>--- ----- --- --- ------ -------- ----- --- ------ ----- --<br>----- ----- ---------- --- --- ------ ------ ---- -- ------<br>------- --- ------ ----- --- ---- ------- -- easy --- --<br>------- ------,150698.5,150697.59999999963,150285.182,150298.69999999925,150301.852,150701.943,,51,easy
screen,html.Screen,0_2_1_1_52,2021-11-04T12:46:40.132Z,,,,,,,,,,,,,,,,54,,,,,,,,,,,,,,355.65699999962817,,response,,,100,,,,,,Space,keypress(Space),,,,,-- --- ---- --- ------ ----- ------- ---- -- --- ------- --<br>------- ---------- ------ -- ----- -- ----- -- ---- ------<br>--- ----- --- --- ------ -------- ----- --- ------ ----- --<br>----- ----- ---------- --- --- ------ ------ ---- -- ------<br>------- --- ------ ----- --- ---- ------- -- ---- way --<br>------- ------,151058.40000000037,151057.59999999963,150685.273,150698.69999999925,150701.943,151068.702,,52,way
screen,html.Screen,0_2_1_1_53,2021-11-04T12:46:40.508Z,,,,,,,,,,,,,,,,54,,,,,,,,,,,,,,364.89799999963725,,response,,,100,,,,,,Space,keypress(Space),,,,,-- --- ---- --- ------ ----- ------- ---- -- --- ------- --<br>------- ---------- ------ -- ----- -- ----- -- ---- ------<br>--- ----- --- --- ------ -------- ----- --- ------ ----- --<br>----- ----- ---------- --- --- ------ ------ ---- -- ------<br>------- --- ------ ----- --- ---- ------- -- ---- --- of<br>------- ------,151434.30000000075,151433.59999999963,151052.032,151058.59999999963,151068.702,151435.527,,53,of
screen,html.Screen,0_2_1_1_54,2021-11-04T12:46:40.908Z,,,,,,,,,,,,,,,,54,,,,,,,,,,,,,,398.0729999996256,,response,,,100,,,,,,Space,keypress(Space),,,,,-- --- ---- --- ------ ----- ------- ---- -- --- ------- --<br>------- ---------- ------ -- ----- -- ----- -- ---- ------<br>--- ----- --- --- ------ -------- ----- --- ------ ----- --<br>----- ----- ---------- --- --- ------ ------ ---- -- ------<br>------- --- ------ ----- --- ---- ------- -- ---- --- --<br>raising ------,151834.40000000037,151833.59999999963,151418.856,151434.59999999963,151435.527,151835.587,,54,raising
screen,html.Screen,0_2_1_1_55,2021-11-04T12:46:41.340Z,,,,,,,,,,,,,,,,54,,,,,,,,,,,,,,429.91300000000047,,response,,,100,,,,,,Space,keypress(Space),,,,,-- --- ---- --- ------ ----- ------- ---- -- --- ------- --<br>------- ---------- ------ -- ----- -- ----- -- ---- ------<br>--- ----- --- --- ------ -------- ----- --- ------ ----- --<br>----- ----- ---------- --- --- ------ ------ ---- -- ------<br>------- --- ------ ----- --- ---- ------- -- ---- --- --<br>------- money.,152266.30000000075,152265.5,151818.917,151834.59999999963,151835.587,152269.063,,55,money.
Item 100,flow.Loop,0_2_1_1,2021-11-04T12:46:41.340Z,,,,,,,,,,,,,,,,,,,,,,,,,,,,,,29737.334000000003,,completion,,,,D,,,,,,,,,,silence,,152266.80000000075,152265.5,122511.496,122513.5,122528.166,152269.063,,,
Question 1,html.Screen,0_2_1_2,2021-11-04T12:46:45.660Z,,,,,,,,,,,,,,,,,,,,,,,,,,,true,TRUE,,4315.937000000005,,response,,,100,D,,,,,TRUE,click #choice-1,,,,silence,,156586.30000000075,156585,152252.392,152267,152269.063,156586.759,,,
Question 2,html.Screen,0_2_1_3,2021-11-04T12:46:49.148Z,,,,,,,,,,,,,,,,,,,,,,,,,,,true,FALSE,,3486.041000000754,,response,,,100,D,,,,,FALSE,click #choice-2,,,,silence,,160074.09999999963,160072.80000000075,156570.089,156586.5,156586.759,160088.372,,,
Item 100,flow.Sequence,0_2_1,2021-11-04T12:46:49.148Z,,,,,,,,,,,,,,,,,,,,,,,,,,,,,,47546.94900000075,,completion,,,,,,,,,,,,,,,,160074.40000000037,160072.80000000075,112509.18,112525.69999999925,112525.851,160088.372,,,
End of Practice,html.Page,0_2_2,2021-11-04T12:46:52.716Z,,,,,,,,,,,,,,,,,,,,,,,,,,,,,,3553.928000000742,,form submission,,,,,,,,,,,,,,,,163642.90000000037,163642.30000000075,160071.693,160074.59999999963,160088.372,163655.167,,,
Practice,flow.Sequence,0_2,2021-11-04T12:46:52.717Z,,,,,,,,,,,,,,,,,,,,,,,,,,,,,,120066.76400000075,,completion,,,,,,,,,,,,,,,,163643.40000000037,163642.30000000075,43558.864,43562.40000000037,43575.536,163655.167,,,
Trap_instruction,html.Page,0_3_0,2021-11-04T12:46:56.532Z,,,,,,,,,,,,,,,,,,,,,,,,,,,,,,3802.532999999268,,form submission,,,,,,,,,,,,,,,,167458.30000000075,167457.69999999925,163638.497,163643.80000000075,163655.167,167489.329,,,
trap_trial,html.Screen,0_3_1,2021-11-04T12:47:00.619Z,,,,,,,,,,,,,,,,,,,,,,,,,,,true,1,,4054.7709999996296,,response,,,,,,,,,1,click #choice-1,,,,,,171545.40000000037,171544.09999999963,167455.989,167458.5,167489.329,171556.929,,,
end of trap trial,html.Page,0_3_2,2021-11-04T12:47:02.587Z,,,,,,,,,,,,,,,,,,,,,,,,,,,,,,1956.3710000007413,,form submission,,,,,,,,,,,,,,,,173513.69999999925,173513.30000000075,171540.259,171545.69999999925,171556.929,173522.279,,,
Trap 1,flow.Sequence,0_3,2021-11-04T12:47:02.588Z,,,,,,,,,,,,,,,,,,,,,,,,,,,,,,9858.133000000758,,completion,,,,,,,,,,,,,,,,173514.30000000075,173513.30000000075,163638.497,163643.69999999925,163655.167,173522.279,,,
Standby,html.Page,0_4_0,2021-11-04T12:47:10.584Z,,,,,,,,,,,,,,,,,,,,,,,,,,,,,,8004.1479999999865,,timeout,,,,,,,,,,,,,,,,181510.69999999925,181509.756,173505.626,173514.59999999963,173522.279,181526.427,,,
Holding screen,html.Screen,0_4_1_0_0,2021-11-04T12:47:17.590Z,,,,,,,,,,,,,,,,,,,,,,,,,,,,,,7001.508000000002,,timeout,,,,,,,,,,,,,,,,188512.69999999925,188511.265,181509.756,181511,181526.427,188527.935,,,
screen,html.Screen,0_4_1_0_1_0,2021-11-04T12:47:19.334Z,,,,,,,,,,,,,,,,11,,,,,,,,,,,,,,1727.6649999996298,,response,,,4,D,,,,,Space,keypress(Space),,,,silence,Known -- ---- --- -- --- -------- ------------ ---------- --<br>- ------- ------ --------- -- ------------ -- --- ---- -----<br>------ ---- ---- ------ ------ ------- --- ----- ---------<br>---- --- -------- -------- --- --- -- ------- --- --- -----<br>-- --- ------ ------- --- --- -------- ---- --------- --<br>---------- -- -------- ----------------,190256.59999999963,190255.59999999963,188511.265,188513,188527.935,190261.834,,0,Known
screen,html.Screen,0_4_1_0_1_1,2021-11-04T12:47:19.973Z,,,,,,,,,,,,,,,,11,,,,,,,,,,,,,,633.2659999996249,,response,,,4,D,,,,,Space,keypress(Space),,,,silence,----- as ---- --- -- --- -------- ------------ ---------- --<br>- ------- ------ --------- -- ------------ -- --- ---- -----<br>------ ---- ---- ------ ------ ------- --- ----- ---------<br>---- --- -------- -------- --- --- -- ------- --- --- -----<br>-- --- ------ ------- --- --- -------- ---- --------- --<br>---------- -- -------- ----------------,190895.90000000037,190895.09999999963,190245.163,190257,190261.834,190911.956,,1,as
screen,html.Screen,0_4_1_0_1_2,2021-11-04T12:47:20.813Z,,,,,,,,,,,,,,,,11,,,,,,,,,,,,,,823.0439999999944,,response,,,4,D,,,,,Space,keypress(Space),,,,silence,----- -- Rapa --- -- --- -------- ------------ ---------- --<br>- ------- ------ --------- -- ------------ -- --- ---- -----<br>------ ---- ---- ------ ------ ------- --- ----- ---------<br>---- --- -------- -------- --- --- -- ------- --- --- -----<br>-- --- ------ ------- --- --- -------- ---- --------- --<br>---------- -- -------- ----------------,191735.90000000037,191735,190895.286,190896.19999999925,190911.956,191745.497,,2,Rapa
screen,html.Screen,0_4_1_0_1_3,2021-11-04T12:47:21.461Z,,,,,,,,,,,,,,,,11,,,,,,,,,,,,,,637.4030000003695,,response,,,4,D,,,,,Space,keypress(Space),,,,silence,----- -- ---- Nui -- --- -------- ------------ ---------- --<br>- ------- ------ --------- -- ------------ -- --- ---- -----<br>------ ---- ---- ------ ------ ------- --- ----- ---------<br>---- --- -------- -------- --- --- -- ------- --- --- -----<br>-- --- ------ ------- --- --- -------- ---- --------- --<br>---------- -- -------- ----------------,192383.80000000075,192382.90000000037,191728.827,191736.19999999925,191745.497,192395.629,,3,Nui
screen,html.Screen,0_4_1_0_1_4,2021-11-04T12:47:22.045Z,,,,,,,,,,,,,,,,11,,,,,,,,,,,,,,571.2710000003863,,response,,,4,D,,,,,Space,keypress(Space),,,,silence,----- -- ---- --- to --- -------- ------------ ---------- --<br>- ------- ------ --------- -- ------------ -- --- ---- -----<br>------ ---- ---- ------ ------ ------- --- ----- ---------<br>---- --- -------- -------- --- --- -- ------- --- --- -----<br>-- --- ------ ------- --- --- -------- ---- --------- --<br>---------- -- -------- ----------------,192967.69999999925,192966.90000000037,192378.959,192384.09999999963,192395.629,192979.093,,4,to
screen,html.Screen,0_4_1_0_1_5,2021-11-04T12:47:22.461Z,,,,,,,,,,,,,,,,11,,,,,,,,,,,,,,403.80700000037905,,response,,,4,D,,,,,Space,keypress(Space),,,,silence,----- -- ---- --- -- the -------- ------------ ---------- --<br>- ------- ------ --------- -- ------------ -- --- ---- -----<br>------ ---- ---- ------ ------ ------- --- ----- ---------<br>---- --- -------- -------- --- --- -- ------- --- --- -----<br>-- --- ------ ------- --- --- -------- ---- --------- --<br>---------- -- -------- ----------------,193383.80000000075,193382.90000000037,192962.423,192968,192979.093,193395.985,,5,the
screen,html.Screen,0_4_1_0_1_6,2021-11-04T12:47:23.077Z,,,,,,,,,,,,,,,,11,,,,,,,,,,,,,,602.815000000759,,response,,,4,D,,,,,Space,keypress(Space),,,,silence,----- -- ---- --- -- --- island's ------------ ---------- --<br>- ------- ------ --------- -- ------------ -- --- ---- -----<br>------ ---- ---- ------ ------ ------- --- ----- ---------<br>---- --- -------- -------- --- --- -- ------- --- --- -----<br>-- --- ------ ------- --- --- -------- ---- --------- --<br>---------- -- -------- ----------------,193999.59999999963,193998.80000000075,193379.314,193384,193395.985,194012.649,,6,island's
screen,html.Screen,0_4_1_0_1_7,2021-11-04T12:47:24.189Z,,,,,,,,,,,,,,,,11,,,,,,,,,,,,,,1098.1510000007402,,response,,,4,D,,,,,Space,keypress(Space),,,,silence,"----- -- ---- --- -- --- -------- inhabitants, ---------- --<br>- ------- ------ --------- -- ------------ -- --- ---- -----<br>------ ---- ---- ------ ------ ------- --- ----- ---------<br>---- --- -------- -------- --- --- -- ------- --- --- -----<br>-- --- ------ ------- --- --- -------- ---- --------- --<br>---------- -- -------- ----------------",195111.69999999925,195110.80000000075,193995.98,193999.80000000075,194012.649,195113.195,,7,"inhabitants,"
screen,html.Screen,0_4_1_0_1_8,2021-11-04T12:47:25.245Z,,,,,,,,,,,,,,,,11,,,,,,,,,,,,,,1053.504999999248,,response,,,4,D,,,,,Space,keypress(Space),,,,silence,----- -- ---- --- -- --- -------- ------------ Rongorongo --<br>- ------- ------ --------- -- ------------ -- --- ---- -----<br>------ ---- ---- ------ ------ ------- --- ----- ---------<br>---- --- -------- -------- --- --- -- ------- --- --- -----<br>-- --- ------ ------- --- --- -------- ---- --------- --<br>---------- -- -------- ----------------,196167.5,196166.69999999925,195096.523,195112,195113.195,196179.905,,8,Rongorongo
screen,html.Screen,0_4_1_0_1_9,2021-11-04T12:47:25.653Z,,,,,,,,,,,,,,,,11,,,,,,,,,,,,,,394.7949999992561,,response,,,4,D,,,,,Space,keypress(Space),,,,silence,----- -- ---- --- -- --- -------- ------------ ---------- is<br>- ------- ------ --------- -- ------------ -- --- ---- -----<br>------ ---- ---- ------ ------ ------- --- ----- ---------<br>---- --- -------- -------- --- --- -- ------- --- --- -----<br>-- --- ------ ------- --- --- -------- ---- --------- --<br>---------- -- -------- ----------------,196575.5,196574.69999999925,196163.235,196167.80000000075,196179.905,196580.06,,9,is
screen,html.Screen,0_4_1_0_1_10,2021-11-04T12:47:26.093Z,,,,,,,,,,,,,,,,11,,,,,,,,,,,,,,434.63999999925727,,response,,,4,D,,,,,Space,keypress(Space),,,,silence,----- -- ---- --- -- --- -------- ------------ ---------- --<br>a ------- ------ --------- -- ------------ -- --- ---- -----<br>------ ---- ---- ------ ------ ------- --- ----- ---------<br>---- --- -------- -------- --- --- -- ------- --- --- -----<br>-- --- ------ ------- --- --- -------- ---- --------- --<br>---------- -- -------- ----------------,197015.40000000037,197014.69999999925,196563.39,196575.69999999925,196580.06,197030.168,,10,a
screen,html.Screen,0_4_1_0_1_11,2021-11-04T12:47:26.549Z,,,,,,,,,,,,,,,,11,,,,,,,,,,,,,,440.5319999992498,,response,,,4,D,,,,,Space,keypress(Space),,,,silence,----- -- ---- --- -- --- -------- ------------ ---------- --<br>- writing ------ --------- -- ------------ -- --- ---- -----<br>------ ---- ---- ------ ------ ------- --- ----- ---------<br>---- --- -------- -------- --- --- -- ------- --- --- -----<br>-- --- ------ ------- --- --- -------- ---- --------- --<br>---------- -- -------- ----------------,197471.40000000037,197470.69999999925,197013.498,197015.80000000075,197030.168,197480.32,,11,writing
screen,html.Screen,0_4_1_0_1_12,2021-11-04T12:47:27.237Z,,,,,,,,,,,,,,,,11,,,,,,,,,,,,,,678.379999999248,,response,,,4,D,,,,,Space,keypress(Space),,,,silence,----- -- ---- --- -- --- -------- ------------ ---------- --<br>- ------- system --------- -- ------------ -- --- ---- -----<br>------ ---- ---- ------ ------ ------- --- ----- ---------<br>---- --- -------- -------- --- --- -- ------- --- --- -----<br>-- --- ------ ------- --- --- -------- ---- --------- --<br>---------- -- -------- ----------------,198159.5,198158.69999999925,197463.649,197471.69999999925,197480.32,198163.58,,12,system
screen,html.Screen,0_4_1_0_1_13,2021-11-04T12:47:27.837Z,,,,,,,,,,,,,,,,11,,,,,,,,,,,,,,594.9200000000128,,response,,,4,D,,,,,Space,keypress(Space),,,,silence,----- -- ---- --- -- --- -------- ------------ ---------- --<br>- ------- ------ comprised -- ------------ -- --- ---- -----<br>------ ---- ---- ------ ------ ------- --- ----- ---------<br>---- --- -------- -------- --- --- -- ------- --- --- -----<br>-- --- ------ ------- --- --- -------- ---- --------- --<br>---------- -- -------- ----------------,198759.40000000037,198758.5,198146.912,198159.69999999925,198163.58,198764.054,,13,comprised
screen,html.Screen,0_4_1_0_1_14,2021-11-04T12:47:28.269Z,,,,,,,,,,,,,,,,11,,,,,,,,,,,,,,426.54599999962375,,response,,,4,D,,,,,Space,keypress(Space),,,,silence,----- -- ---- --- -- --- -------- ------------ ---------- --<br>- ------- ------ --------- of ------------ -- --- ---- -----<br>------ ---- ---- ------ ------ ------- --- ----- ---------<br>---- --- -------- -------- --- --- -- ------- --- --- -----<br>-- --- ------ ------- --- --- -------- ---- --------- --<br>---------- -- -------- ----------------,199191.30000000075,199190.59999999963,198747.382,198759.69999999925,198764.054,199197.376,,14,of
screen,html.Screen,0_4_1_0_1_15,2021-11-04T12:47:28.693Z,,,,,,,,,,,,,,,,11,,,,,,,,,,,,,,417.1240000000107,,response,,,4,D,,,,,Space,keypress(Space),,,,silence,----- -- ---- --- -- --- -------- ------------ ---------- --<br>- ------- ------ --------- -- pictographs. -- --- ---- -----<br>------ ---- ---- ------ ------ ------- --- ----- ---------<br>---- --- -------- -------- --- --- -- ------- --- --- -----<br>-- --- ------ ------- --- --- -------- ---- --------- --<br>---------- -- -------- ----------------,199615.30000000075,199614.5,199180.706,199191.59999999963,199197.376,199630.803,,15,pictographs.
screen,html.Screen,0_4_1_0_1_16,2021-11-04T12:47:29.317Z,,,,,,,,,,,,,,,,11,,,,,,,,,,,,,,607.6969999999856,,response,,,4,D,,,,,Space,keypress(Space),,,,silence,----- -- ---- --- -- --- -------- ------------ ---------- --<br>- ------- ------ --------- -- ------------ It --- ---- -----<br>------ ---- ---- ------ ------ ------- --- ----- ---------<br>---- --- -------- -------- --- --- -- ------- --- --- -----<br>-- --- ------ ------- --- --- -------- ---- --------- --<br>---------- -- -------- ----------------,200239.19999999925,200238.5,199614.133,199615.5,199630.803,200247.685,,16,It
screen,html.Screen,0_4_1_0_1_17,2021-11-04T12:47:29.797Z,,,,,,,,,,,,,,,,11,,,,,,,,,,,,,,471.1150000007474,,response,,,4,D,,,,,Space,keypress(Space),,,,silence,----- -- ---- --- -- --- -------- ------------ ---------- --<br>- ------- ------ --------- -- ------------ -- has ---- -----<br>------ ---- ---- ------ ------ ------- --- ----- ---------<br>---- --- -------- -------- --- --- -- ------- --- --- -----<br>-- --- ------ ------- --- --- -------- ---- --------- --<br>---------- -- -------- ----------------,200719.80000000075,200718.80000000075,200231.014,200239.40000000037,200247.685,200731.065,,17,has
screen,html.Screen,0_4_1_0_1_18,2021-11-04T12:47:30.221Z,,,,,,,,,,,,,,,,11,,,,,,,,,,,,,,411.4349999999977,,response,,,4,D,,,,,Space,keypress(Space),,,,silence,----- -- ---- --- -- --- -------- ------------ ---------- --<br>- ------- ------ --------- -- ------------ -- --- been -----<br>------ ---- ---- ------ ------ ------- --- ----- ---------<br>---- --- -------- -------- --- --- -- ------- --- --- -----<br>-- --- ------ ------- --- --- -------- ---- --------- --<br>---------- -- -------- ----------------,201143.19999999925,201142.5,200714.395,200720,200731.065,201147.781,,18,been
screen,html.Screen,0_4_1_0_1_19,2021-11-04T12:47:30.580Z,,,,,,,,,,,,,,,,11,,,,,,,,,,,,,,354.6190000003844,,response,,,4,D,,,,,Space,keypress(Space),,,,silence,----- -- ---- --- -- --- -------- ------------ ---------- --<br>- ------- ------ --------- -- ------------ -- --- ---- found<br>------ ---- ---- ------ ------ ------- --- ----- ---------<br>---- --- -------- -------- --- --- -- ------- --- --- -----<br>-- --- ------ ------- --- --- -------- ---- --------- --<br>---------- -- -------- ----------------,201503.19999999925,201502.40000000037,201131.112,201143.40000000037,201147.781,201514.679,,19,found
screen,html.Screen,0_4_1_0_1_20,2021-11-04T12:47:31.044Z,,,,,,,,,,,,,,,,11,,,,,,,,,,,,,,451.62100000074133,,response,,,4,D,,,,,Space,keypress(Space),,,,silence,----- -- ---- --- -- --- -------- ------------ ---------- --<br>- ------- ------ --------- -- ------------ -- --- ---- -----<br>carved ---- ---- ------ ------ ------- --- ----- ---------<br>---- --- -------- -------- --- --- -- ------- --- --- -----<br>-- --- ------ ------- --- --- -------- ---- --------- --<br>---------- -- -------- ----------------,201967.09999999963,201966.30000000075,201498.008,201503.40000000037,201514.679,201981.395,,20,carved
screen,html.Screen,0_4_1_0_1_21,2021-11-04T12:47:31.844Z,,,,,,,,,,,,,,,,11,,,,,,,,,,,,,,784.9050000007555,,response,,,4,D,,,,,Space,keypress(Space),,,,silence,----- -- ---- --- -- --- -------- ------------ ---------- --<br>- ------- ------ --------- -- ------------ -- --- ---- -----<br>------ into ---- ------ ------ ------- --- ----- ---------<br>---- --- -------- -------- --- --- -- ------- --- --- -----<br>-- --- ------ ------- --- --- -------- ---- --------- --<br>---------- -- -------- ----------------,202767.09999999963,202766.30000000075,201964.725,201967.40000000037,201981.395,202781.581,,21,into
screen,html.Screen,0_4_1_0_1_22,2021-11-04T12:47:32.348Z,,,,,,,,,,,,,,,,11,,,,,,,,,,,,,,488.71900000073947,,response,,,4,D,,,,,Space,keypress(Space),,,,silence,----- -- ---- --- -- --- -------- ------------ ---------- --<br>- ------- ------ --------- -- ------------ -- --- ---- -----<br>------ ---- many ------ ------ ------- --- ----- ---------<br>---- --- -------- -------- --- --- -- ------- --- --- -----<br>-- --- ------ ------- --- --- -------- ---- --------- --<br>---------- -- -------- ----------------,203271.09999999963,203270.30000000075,202764.911,202767.30000000075,202781.581,203281.697,,22,many
screen,html.Screen,0_4_1_0_1_23,2021-11-04T12:47:32.716Z,,,,,,,,,,,,,,,,11,,,,,,,,,,,,,,356.5029999992694,,response,,,4,D,,,,,Space,keypress(Space),,,,silence,----- -- ---- --- -- --- -------- ------------ ---------- --<br>- ------- ------ --------- -- ------------ -- --- ---- -----<br>------ ---- ---- oblong ------ ------- --- ----- ---------<br>---- --- -------- -------- --- --- -- ------- --- --- -----<br>-- --- ------ ------- --- --- -------- ---- --------- --<br>---------- -- -------- ----------------,203639.09999999963,203638.19999999925,203265.027,203271.40000000037,203281.697,203648.481,,23,oblong
screen,html.Screen,0_4_1_0_1_24,2021-11-04T12:47:33.204Z,,,,,,,,,,,,,,,,11,,,,,,,,,,,,,,477.7189999992552,,response,,,4,D,,,,,Space,keypress(Space),,,,silence,----- -- ---- --- -- --- -------- ------------ ---------- --<br>- ------- ------ --------- -- ------------ -- --- ---- -----<br>------ ---- ---- ------ wooden ------- --- ----- ---------<br>---- --- -------- -------- --- --- -- ------- --- --- -----<br>-- --- ------ ------- --- --- -------- ---- --------- --<br>---------- -- -------- ----------------,204127,204126.19999999925,203631.811,203639.30000000075,203648.481,204131.927,,24,wooden
screen,html.Screen,0_4_1_0_1_25,2021-11-04T12:47:33.956Z,,,,,,,,,,,,,,,,11,,,,,,,,,,,,,,746.2729999992589,,response,,,4,D,,,,,Space,keypress(Space),,,,silence,----- -- ---- --- -- --- -------- ------------ ---------- --<br>- ------- ------ --------- -- ------------ -- --- ---- -----<br>------ ---- ---- ------ ------ tablets --- ----- ---------<br>---- --- -------- -------- --- --- -- ------- --- --- -----<br>-- --- ------ ------- --- --- -------- ---- --------- --<br>---------- -- -------- ----------------,204879,204878.19999999925,204115.257,204127.19999999925,204131.927,204882.102,,25,tablets
screen,html.Screen,0_4_1_0_1_26,2021-11-04T12:47:34.492Z,,,,,,,,,,,,,,,,11,,,,,,,,,,,,,,531.997999999614,,response,,,4,D,,,,,Space,keypress(Space),,,,silence,----- -- ---- --- -- --- -------- ------------ ---------- --<br>- ------- ------ --------- -- ------------ -- --- ---- -----<br>------ ---- ---- ------ ------ ------- and ----- ---------<br>---- --- -------- -------- --- --- -- ------- --- --- -----<br>-- --- ------ ------- --- --- -------- ---- --------- --<br>---------- -- -------- ----------------,205414.90000000037,205414.09999999963,204865.432,204879.30000000075,204882.102,205432.252,,26,and
screen,html.Screen,0_4_1_0_1_27,2021-11-04T12:47:35.516Z,,,,,,,,,,,,,,,,11,,,,,,,,,,,,,,1005.8479999996198,,response,,,4,D,,,,,Space,keypress(Space),,,,silence,----- -- ---- --- -- --- -------- ------------ ---------- --<br>- ------- ------ --------- -- ------------ -- --- ---- -----<br>------ ---- ---- ------ ------ ------- --- other ---------<br>---- --- -------- -------- --- --- -- ------- --- --- -----<br>-- --- ------ ------- --- --- -------- ---- --------- --<br>---------- -- -------- ----------------,206438.90000000037,206438.09999999963,205415.582,205415.19999999925,205432.252,206449.153,,27,other
screen,html.Screen,0_4_1_0_1_28,2021-11-04T12:47:36.084Z,,,,,,,,,,,,,,,,11,,,,,,,,,,,,,,556.9469999996363,,response,,,4,D,,,,,Space,keypress(Space),,,,silence,----- -- ---- --- -- --- -------- ------------ ---------- --<br>- ------- ------ --------- -- ------------ -- --- ---- -----<br>------ ---- ---- ------ ------ ------- --- ----- artifacts<br>---- --- -------- -------- --- --- -- ------- --- --- -----<br>-- --- ------ ------- --- --- -------- ---- --------- --<br>---------- -- -------- ----------------,207006.90000000037,207006.09999999963,206432.483,206439.09999999963,206449.153,207015.869,,28,artifacts
screen,html.Screen,0_4_1_0_1_29,2021-11-04T12:47:36.748Z,,,,,,,,,,,,,,,,11,,,,,,,,,,,,,,654.130999999994,,response,,,4,D,,,,,Space,keypress(Space),,,,silence,----- -- ---- --- -- --- -------- ------------ ---------- --<br>- ------- ------ --------- -- ------------ -- --- ---- -----<br>------ ---- ---- ------ ------ ------- --- ----- ---------<br>from --- -------- -------- --- --- -- ------- --- --- -----<br>-- --- ------ ------- --- --- -------- ---- --------- --<br>---------- -- -------- ----------------,207670.80000000075,207670,206999.2,207007.09999999963,207015.869,207682.868,,29,from
screen,html.Screen,0_4_1_0_1_30,2021-11-04T12:47:37.164Z,,,,,,,,,,,,,,,,11,,,,,,,,,,,,,,403.13200000001234,,response,,,4,D,,,,,Space,keypress(Space),,,,silence,----- -- ---- --- -- --- -------- ------------ ---------- --<br>- ------- ------ --------- -- ------------ -- --- ---- -----<br>------ ---- ---- ------ ------ ------- --- ----- ---------<br>---- the -------- -------- --- --- -- ------- --- --- -----<br>-- --- ------ ------- --- --- -------- ---- --------- --<br>---------- -- -------- ----------------,208086.80000000075,208086,207666.197,207671,207682.868,208099.575,,30,the
screen,html.Screen,0_4_1_0_1_31,2021-11-04T12:47:37.628Z,,,,,,,,,,,,,,,,11,,,,,,,,,,,,,,450.42499999998836,,response,,,4,D,,,,,Space,keypress(Space),,,,silence,----- -- ---- --- -- --- -------- ------------ ---------- --<br>- ------- ------ --------- -- ------------ -- --- ---- -----<br>------ ---- ---- ------ ------ ------- --- ----- ---------<br>---- --- island's -------- --- --- -- ------- --- --- -----<br>-- --- ------ ------- --- --- -------- ---- --------- --<br>---------- -- -------- ----------------,208550.80000000075,208550,208082.905,208087,208099.575,208566.368,,31,island's
screen,html.Screen,0_4_1_0_1_32,2021-11-04T12:47:38.404Z,,,,,,,,,,,,,,,,11,,,,,,,,,,,,,,759.5320000003849,,response,,,4,D,,,,,Space,keypress(Space),,,,silence,----- -- ---- --- -- --- -------- ------------ ---------- --<br>- ------- ------ --------- -- ------------ -- --- ---- -----<br>------ ---- ---- ------ ------ ------- --- ----- ---------<br>---- --- -------- history. --- --- -- ------- --- --- -----<br>-- --- ------ ------- --- --- -------- ---- --------- --<br>---------- -- -------- ----------------,209326.69999999925,209325.90000000037,208549.698,208551,208566.368,209333.198,,32,history.
screen,html.Screen,0_4_1_0_1_33,2021-11-04T12:47:38.964Z,,,,,,,,,,,,,,,,11,,,,,,,,,,,,,,552.7020000003686,,response,,,4,D,,,,,Space,keypress(Space),,,,silence,----- -- ---- --- -- --- -------- ------------ ---------- --<br>- ------- ------ --------- -- ------------ -- --- ---- -----<br>------ ---- ---- ------ ------ ------- --- ----- ---------<br>---- --- -------- -------- The --- -- ------- --- --- -----<br>-- --- ------ ------- --- --- -------- ---- --------- --<br>---------- -- -------- ----------------,209886.69999999925,209885.90000000037,209316.528,209326.90000000037,209333.198,209899.988,,33,The
screen,html.Screen,0_4_1_0_1_34,2021-11-04T12:47:39.388Z,,,,,,,,,,,,,,,,11,,,,,,,,,,,,,,409.81200000073295,,response,,,4,D,,,,,Space,keypress(Space),,,,silence,----- -- ---- --- -- --- -------- ------------ ---------- --<br>- ------- ------ --------- -- ------------ -- --- ---- -----<br>------ ---- ---- ------ ------ ------- --- ----- ---------<br>---- --- -------- -------- --- art -- ------- --- --- -----<br>-- --- ------ ------- --- --- -------- ---- --------- --<br>---------- -- -------- ----------------,210310.59999999963,210309.80000000075,209883.318,209887,209899.988,210316.803,,34,art
screen,html.Screen,0_4_1_0_1_35,2021-11-04T12:47:39.884Z,,,,,,,,,,,,,,,,11,,,,,,,,,,,,,,489.29699999961304,,response,,,4,D,,,,,Space,keypress(Space),,,,silence,----- -- ---- --- -- --- -------- ------------ ---------- --<br>- ------- ------ --------- -- ------------ -- --- ---- -----<br>------ ---- ---- ------ ------ ------- --- ----- ---------<br>---- --- -------- -------- --- --- of ------- --- --- -----<br>-- --- ------ ------- --- --- -------- ---- --------- --<br>---------- -- -------- ----------------,210806.90000000037,210806.09999999963,210300.133,210310.80000000075,210316.803,210816.927,,35,of
screen,html.Screen,0_4_1_0_1_36,2021-11-04T12:47:40.284Z,,,,,,,,,,,,,,,,11,,,,,,,,,,,,,,388.873000000749,,response,,,4,D,,,,,Space,keypress(Space),,,,silence,----- -- ---- --- -- --- -------- ------------ ---------- --<br>- ------- ------ --------- -- ------------ -- --- ---- -----<br>------ ---- ---- ------ ------ ------- --- ----- ---------<br>---- --- -------- -------- --- --- -- writing --- --- -----<br>-- --- ------ ------- --- --- -------- ---- --------- --<br>---------- -- -------- ----------------,211206.59999999963,211205.80000000075,210800.257,210807.19999999925,210816.927,211217.018,,36,writing
screen,html.Screen,0_4_1_0_1_37,2021-11-04T12:47:40.876Z,,,,,,,,,,,,,,,,11,,,,,,,,,,,,,,580.7820000007341,,response,,,4,D,,,,,Space,keypress(Space),,,,silence,----- -- ---- --- -- --- -------- ------------ ---------- --<br>- ------- ------ --------- -- ------------ -- --- ---- -----<br>------ ---- ---- ------ ------ ------- --- ----- ---------<br>---- --- -------- -------- --- --- -- ------- was --- -----<br>-- --- ------ ------- --- --- -------- ---- --------- --<br>---------- -- -------- ----------------,211798.59999999963,211797.80000000075,211200.348,211206.80000000075,211217.018,211800.5,,37,was
screen,html.Screen,0_4_1_0_1_38,2021-11-04T12:47:41.292Z,,,,,,,,,,,,,,,,11,,,,,,,,,,,,,,413.19999999925494,,response,,,4,D,,,,,Space,keypress(Space),,,,silence,----- -- ---- --- -- --- -------- ------------ ---------- --<br>- ------- ------ --------- -- ------------ -- --- ---- -----<br>------ ---- ---- ------ ------ ------- --- ----- ---------<br>---- --- -------- -------- --- --- -- ------- --- not -----<br>-- --- ------ ------- --- --- -------- ---- --------- --<br>---------- -- -------- ----------------,212214.59999999963,212213.69999999925,211783.83,211798.80000000075,211800.5,212217.32,,38,not
screen,html.Screen,0_4_1_0_1_39,2021-11-04T12:47:41.948Z,,,,,,,,,,,,,,,,11,,,,,,,,,,,,,,652.2799999996205,,response,,,4,D,,,,,Space,keypress(Space),,,,silence,----- -- ---- --- -- --- -------- ------------ ---------- --<br>- ------- ------ --------- -- ------------ -- --- ---- -----<br>------ ---- ---- ------ ------ ------- --- ----- ---------<br>---- --- -------- -------- --- --- -- ------- --- --- known<br>-- --- ------ ------- --- --- -------- ---- --------- --<br>---------- -- -------- ----------------,212870.40000000037,212869.59999999963,212200.649,212214.80000000075,212217.32,212884.113,,39,known
screen,html.Screen,0_4_1_0_1_40,2021-11-04T12:47:42.444Z,,,,,,,,,,,,,,,,11,,,,,,,,,,,,,,481.48699999961536,,response,,,4,D,,,,,Space,keypress(Space),,,,silence,----- -- ---- --- -- --- -------- ------------ ---------- --<br>- ------- ------ --------- -- ------------ -- --- ---- -----<br>------ ---- ---- ------ ------ ------- --- ----- ---------<br>---- --- -------- -------- --- --- -- ------- --- --- -----<br>in --- ------ ------- --- --- -------- ---- --------- --<br>---------- -- -------- ----------------,213366.5,213365.59999999963,212867.443,212870.59999999963,212884.113,213367.536,,40,in
screen,html.Screen,0_4_1_0_1_41,2021-11-04T12:47:42.876Z,,,,,,,,,,,,,,,,11,,,,,,,,,,,,,,430.0639999996347,,response,,,4,D,,,,,Space,keypress(Space),,,,silence,----- -- ---- --- -- --- -------- ------------ ---------- --<br>- ------- ------ --------- -- ------------ -- --- ---- -----<br>------ ---- ---- ------ ------ ------- --- ----- ---------<br>---- --- -------- -------- --- --- -- ------- --- --- -----<br>-- any ------ ------- --- --- -------- ---- --------- --<br>---------- -- -------- ----------------,213798.40000000037,213797.59999999963,213350.866,213366.59999999963,213367.536,213801.045,,41,any
screen,html.Screen,0_4_1_0_1_42,2021-11-04T12:47:43.420Z,,,,,,,,,,,,,,,,11,,,,,,,,,,,,,,540.4549999999872,,response,,,4,D,,,,,Space,keypress(Space),,,,silence,----- -- ---- --- -- --- -------- ------------ ---------- --<br>- ------- ------ --------- -- ------------ -- --- ---- -----<br>------ ---- ---- ------ ------ ------- --- ----- ---------<br>---- --- -------- -------- --- --- -- ------- --- --- -----<br>-- --- nearby ------- --- --- -------- ---- --------- --<br>---------- -- -------- ----------------,214342.30000000075,214341.5,213784.374,213798.59999999963,213801.045,214351.049,,42,nearby
screen,html.Screen,0_4_1_0_1_43,2021-11-04T12:47:44.620Z,,,,,,,,,,,,,,,,11,,,,,,,,,,,,,,1190.451000000001,,response,,,4,D,,,,,Space,keypress(Space),,,,silence,----- -- ---- --- -- --- -------- ------------ ---------- --<br>- ------- ------ --------- -- ------------ -- --- ---- -----<br>------ ---- ---- ------ ------ ------- --- ----- ---------<br>---- --- -------- -------- --- --- -- ------- --- --- -----<br>-- --- ------ islands --- --- -------- ---- --------- --<br>---------- -- -------- ----------------,215542.30000000075,215541.5,214334.38,214342.5,214351.049,215551.498,,43,islands
screen,html.Screen,0_4_1_0_1_44,2021-11-04T12:47:45.196Z,,,,,,,,,,,,,,,,11,,,,,,,,,,,,,,565.9020000003802,,response,,,4,D,,,,,Space,keypress(Space),,,,silence,----- -- ---- --- -- --- -------- ------------ ---------- --<br>- ------- ------ --------- -- ------------ -- --- ---- -----<br>------ ---- ---- ------ ------ ------- --- ----- ---------<br>---- --- -------- -------- --- --- -- ------- --- --- -----<br>-- --- ------ ------- and --- -------- ---- --------- --<br>---------- -- -------- ----------------,216118.19999999925,216117.40000000037,215534.827,215542.5,215551.498,216134.97,,44,and
screen,html.Screen,0_4_1_0_1_45,2021-11-04T12:47:45.580Z,,,,,,,,,,,,,,,,11,,,,,,,,,,,,,,366.43000000037136,,response,,,4,D,,,,,Space,keypress(Space),,,,silence,----- -- ---- --- -- --- -------- ------------ ---------- --<br>- ------- ------ --------- -- ------------ -- --- ---- -----<br>------ ---- ---- ------ ------ ------- --- ----- ---------<br>---- --- -------- -------- --- --- -- ------- --- --- -----<br>-- --- ------ ------- --- the -------- ---- --------- --<br>---------- -- -------- ----------------,216502.19999999925,216501.40000000037,216118.299,216118.40000000037,216134.97,216518.335,,45,the
screen,html.Screen,0_4_1_0_1_46,2021-11-04T12:47:46.035Z,,,,,,,,,,,,,,,,11,,,,,,,,,,,,,,439.0650000003807,,response,,,4,D,,,,,Space,keypress(Space),,,,silence,----- -- ---- --- -- --- -------- ------------ ---------- --<br>- ------- ------ --------- -- ------------ -- --- ---- -----<br>------ ---- ---- ------ ------ ------- --- ----- ---------<br>---- --- -------- -------- --- --- -- ------- --- --- -----<br>-- --- ------ ------- --- --- script's ---- --------- --<br>---------- -- -------- ----------------,216958.19999999925,216957.40000000037,216501.665,216502.40000000037,216518.335,216968.459,,46,script's
screen,html.Screen,0_4_1_0_1_47,2021-11-04T12:47:46.451Z,,,,,,,,,,,,,,,,11,,,,,,,,,,,,,,404.94100000036997,,response,,,4,D,,,,,Space,keypress(Space),,,,silence,----- -- ---- --- -- --- -------- ------------ ---------- --<br>- ------- ------ --------- -- ------------ -- --- ---- -----<br>------ ---- ---- ------ ------ ------- --- ----- ---------<br>---- --- -------- -------- --- --- -- ------- --- --- -----<br>-- --- ------ ------- --- --- -------- mere --------- --<br>---------- -- -------- ----------------,217374.19999999925,217373.40000000037,216951.789,216958.40000000037,216968.459,217385.084,,47,mere
screen,html.Screen,0_4_1_0_1_48,2021-11-04T12:47:46.883Z,,,,,,,,,,,,,,,,11,,,,,,,,,,,,,,420.31600000036997,,response,,,4,D,,,,,Space,keypress(Space),,,,silence,----- -- ---- --- -- --- -------- ------------ ---------- --<br>- ------- ------ --------- -- ------------ -- --- ---- -----<br>------ ---- ---- ------ ------ ------- --- ----- ---------<br>---- --- -------- -------- --- --- -- ------- --- --- -----<br>-- --- ------ ------- --- --- -------- ---- existence --<br>---------- -- -------- ----------------,217806.19999999925,217805.40000000037,217368.416,217374.40000000037,217385.084,217818.767,,48,existence
screen,html.Screen,0_4_1_0_1_49,2021-11-04T12:47:47.379Z,,,,,,,,,,,,,,,,11,,,,,,,,,,,,,,482.63300000038,,response,,,4,D,,,,,Space,keypress(Space),,,,silence,----- -- ---- --- -- --- -------- ------------ ---------- --<br>- ------- ------ --------- -- ------------ -- --- ---- -----<br>------ ---- ---- ------ ------ ------- --- ----- ---------<br>---- --- -------- -------- --- --- -- ------- --- --- -----<br>-- --- ------ ------- --- --- -------- ---- --------- is<br>---------- -- -------- ----------------,218302.19999999925,218301.40000000037,217802.095,217806.40000000037,217818.767,218318.645,,49,is
screen,html.Screen,0_4_1_0_1_50,2021-11-04T12:47:47.851Z,,,,,,,,,,,,,,,,11,,,,,,,,,,,,,,454.65500000075554,,response,,,4,D,,,,,Space,keypress(Space),,,,silence,----- -- ---- --- -- --- -------- ------------ ---------- --<br>- ------- ------ --------- -- ------------ -- --- ---- -----<br>------ ---- ---- ------ ------ ------- --- ----- ---------<br>---- --- -------- -------- --- --- -- ------- --- --- -----<br>-- --- ------ ------- --- --- -------- ---- --------- --<br>sufficient -- -------- ----------------,218774.09999999963,218773.30000000075,218301.977,218302.30000000075,218318.645,218785.689,,50,sufficient
