sender,sender_type,sender_id,timestamp,meta,,Blues,Classical,Country,Dance,Electronic,Folk,Gospel,Hip-Hop,Jazz,Latin,Musical/Film,New-age,Pop,Provo_ID,R&B,Rap,Reggae,Religious,Rock,Soul,Swing,Traditional,age,artist_name,correct,correctResponse,distraction,duration,education,ended_on,familiarity,gender,item,list,music_frequency,offensiveness,pleasantness,preference,response,response_action,snippet_file,song_name,song_rating,sound,text,time_commit,time_end,time_render,time_run,time_show,time_switch,url,word,word_ID
Instructions,html.Page,0_0,2021-11-19T12:33:52.799Z,"{""labjs_version"":""20.2.3"",""labjs_build"":{""flavor"":""production"",""commit"":""7ea907d66ca8aeef8054924ca5d82ffbe11e34e5""},""location"":""https://run.pavlovia.org/mvasilev/lab_music_b/"",""userAgent"":""Mozilla/5.0 (Windows NT 6.1; Win64; x64) AppleWebKit/537.36 (KHTML, like Gecko) Chrome/96.0.4664.45 Safari/537.36"",""platform"":""Win32"",""language"":""en-US"",""locale"":""en-US"",""timeZone"":""Europe/London"",""timezoneOffset"":0,""screen_width"":1920,""screen_height"":1080,""scroll_width"":1920,""scroll_height"":959,""window_innerWidth"":1920,""window_innerHeight"":1007,""devicePixelRatio"":1}",,,,,,,,,,,,,,,,,,,,,,,,,,,,,31680.76799997616,,form submission,,,,,,,,,,,,,,,,39619.60000002384,39618.39999997616,7904.292,7913,7937.632,39628.789,{},,
Headphones,html.Page,0_1,2021-11-19T12:33:56.713Z,,,,,,,,,,,,,,,,,,,,,,,,,,,,,,3903.9109999284774,,form submission,,,,,,,,,,,,,,,,43533.299999952316,43532.699999928474,39612.119,39620.299999952316,39628.789,43546.444,,,
Holding screen,html.Screen,0_2_0_0,2021-11-19T12:34:06.718Z,,,,,,,,,,,,,,,,,,,,,,,,,,,,,,10002.250999999997,,timeout,,,,,,,,,,,,,,,,53538.299999952316,53532.026,43529.774,43533.799999952316,43546.444,53548.695,,,
screen,html.Screen,0_2_0_1_0,2021-11-19T12:34:07.936Z,,,,,,,,,,,,,,,,53,,,,,,,,,,,,,,1206.5049999284747,,response,,,99,,,,,,Space,keypress(Space),,,,,When -- ----- -- ------ - ------- --- ----------<br>------------- ------ ------ ---- ---- ------- ----- -- ----<br>-------- ------- -- ---------- --- - --- ----- ----- ----<br>---- --- --- ----- --- ---- ---- ------- ----- ---- -------<br>--- --- -- ----- -- --- ---- -- --- ---- -- ------ ------<br>--- ----- -- ----,54756.60000002384,54755.199999928474,53532.026,53538.60000002384,53548.695,54765.921,,0,When
screen,html.Screen,0_2_0_1_1,2021-11-19T12:34:09.119Z,,,,,,,,,,,,,,,,53,,,,,,,,,,,,,,1172.8789999523142,,response,,,99,,,,,,Space,keypress(Space),,,,,---- it ----- -- ------ - ------- --- ----------<br>------------- ------ ------ ---- ---- ------- ----- -- ----<br>-------- ------- -- ---------- --- - --- ----- ----- ----<br>---- --- --- ----- --- ---- ---- ------- ----- ---- -------<br>--- --- -- ----- -- --- ---- -- --- ---- -- ------ ------<br>--- ----- -- ----,55939.699999928474,55938.799999952316,54749.25,54757,54765.921,55949.419,,1,it
screen,html.Screen,0_2_0_1_2,2021-11-19T12:34:09.751Z,,,,,,,,,,,,,,,,53,,,,,,,,,,,,,,621.3809999523146,,response,,,99,,,,,,Space,keypress(Space),,,,,---- -- comes -- ------ - ------- --- ----------<br>------------- ------ ------ ---- ---- ------- ----- -- ----<br>-------- ------- -- ---------- --- - --- ----- ----- ----<br>---- --- --- ----- --- ---- ---- ------- ----- ---- -------<br>--- --- -- ----- -- --- ---- -- --- ---- -- ------ ------<br>--- ----- -- ----,56571.60000002384,56570.799999952316,55932.749,55940,55949.419,56582.947,,2,comes
screen,html.Screen,0_2_0_1_3,2021-11-19T12:34:10.175Z,,,,,,,,,,,,,,,,53,,,,,,,,,,,,,,411.7529999284743,,response,,,99,,,,,,Space,keypress(Space),,,,,---- -- ----- to ------ - ------- --- ----------<br>------------- ------ ------ ---- ---- ------- ----- -- ----<br>-------- ------- -- ---------- --- - --- ----- ----- ----<br>---- --- --- ----- --- ---- ---- ------- ----- ---- -------<br>--- --- -- ----- -- --- ---- -- --- ---- -- ------ ------<br>--- ----- -- ----,56995.699999928474,56994.699999928474,56566.277,56571.799999952316,56582.947,56999.734,,3,to
screen,html.Screen,0_2_0_1_4,2021-11-19T12:34:10.664Z,,,,,,,,,,,,,,,,53,,,,,,,,,,,,,,482.8660000238451,,response,,,99,,,,,,Space,keypress(Space),,,,,---- -- ----- -- having - ------- --- ----------<br>------------- ------ ------ ---- ---- ------- ----- -- ----<br>-------- ------- -- ---------- --- - --- ----- ----- ----<br>---- --- --- ----- --- ---- ---- ------- ----- ---- -------<br>--- --- -- ----- -- --- ---- -- --- ---- -- ------ ------<br>--- ----- -- ----,57483.799999952316,57482.60000002384,56983.064,56996.199999928474,56999.734,57499.858,,4,having
screen,html.Screen,0_2_0_1_5,2021-11-19T12:34:11.327Z,,,,,,,,,,,,,,,,53,,,,,,,,,,,,,,646.7420000238417,,response,,,99,,,,,,Space,keypress(Space),,,,,---- -- ----- -- ------ a ------- --- ----------<br>------------- ------ ------ ---- ---- ------- ----- -- ----<br>-------- ------- -- ---------- --- - --- ----- ----- ----<br>---- --- --- ----- --- ---- ---- ------- ----- ---- -------<br>--- --- -- ----- -- --- ---- -- --- ---- -- ------ ------<br>--- ----- -- ----,58147.5,58146.60000002384,57483.188,57484.10000002384,57499.858,58149.981,,5,a
screen,html.Screen,0_2_0_1_6,2021-11-19T12:34:12.071Z,,,,,,,,,,,,,,,,53,,,,,,,,,,,,,,740.6190000238421,,response,,,99,,,,,,Space,keypress(Space),,,,,---- -- ----- -- ------ - lasting --- ----------<br>------------- ------ ------ ---- ---- ------- ----- -- ----<br>-------- ------- -- ---------- --- - --- ----- ----- ----<br>---- --- --- ----- --- ---- ---- ------- ----- ---- -------<br>--- --- -- ----- -- --- ---- -- --- ---- -- ------ ------<br>--- ----- -- ----,58891.5,58890.60000002384,58133.311,58148,58149.981,58900.035,,6,lasting
screen,html.Screen,0_2_0_1_7,2021-11-19T12:34:12.903Z,,,,,,,,,,,,,,,,53,,,,,,,,,,,,,,822.5650000238384,,response,,,99,,,,,,Space,keypress(Space),,,,,---- -- ----- -- ------ - ------- and ----------<br>------------- ------ ------ ---- ---- ------- ----- -- ----<br>-------- ------- -- ---------- --- - --- ----- ----- ----<br>---- --- --- ----- --- ---- ---- ------- ----- ---- -------<br>--- --- -- ----- -- --- ---- -- --- ---- -- ------ ------<br>--- ----- -- ----,59723.699999928474,59722.60000002384,58883.366,58891.89999997616,58900.035,59733.69,,7,and
screen,html.Screen,0_2_0_1_8,2021-11-19T12:34:13.620Z,,,,,,,,,,,,,,,,53,,,,,,,,,,,,,,700.8099999999977,,response,,,99,,,,,,Space,keypress(Space),,,,,---- -- ----- -- ------ - ------- --- fulfilling<br>------------- ------ ------ ---- ---- ------- ----- -- ----<br>-------- ------- -- ---------- --- - --- ----- ----- ----<br>---- --- --- ----- --- ---- ---- ------- ----- ---- -------<br>--- --- -- ----- -- --- ---- -- --- ---- -- ------ ------<br>--- ----- -- ----,60435.5,60434.5,59717.02,59723.89999997616,59733.69,60450.627,,8,fulfilling
screen,html.Screen,0_2_0_1_9,2021-11-19T12:34:14.203Z,,,,,,,,,,,,,,,,53,,,,,,,,,,,,,,567.7729999761577,,response,,,99,,,,,,Space,keypress(Space),,,,,"---- -- ----- -- ------ - ------- --- ----------<br>relationship, ------ ------ ---- ---- ------- ----- -- ----<br>-------- ------- -- ---------- --- - --- ----- ----- ----<br>---- --- --- ----- --- ---- ---- ------- ----- ---- -------<br>--- --- -- ----- -- --- ---- -- --- ---- -- ------ ------<br>--- ----- -- ----",61019.299999952316,61018.39999997616,60433.956,60435.799999952316,60450.627,61034.06,,9,"relationship,"
screen,html.Screen,0_2_0_1_10,2021-11-19T12:34:14.875Z,,,,,,,,,,,,,,,,53,,,,,,,,,,,,,,656.3399999761605,,response,,,99,,,,,,Space,keypress(Space),,,,,---- -- ----- -- ------ - ------- --- ----------<br>------------- common ------ ---- ---- ------- ----- -- ----<br>-------- ------- -- ---------- --- - --- ----- ----- ----<br>---- --- --- ----- --- ---- ---- ------- ----- ---- -------<br>--- --- -- ----- -- --- ---- -- --- ---- -- ------ ------<br>--- ----- -- ----,61691.299999952316,61690.39999997616,61017.39,61019.699999928474,61034.06,61700.859,,10,common
screen,html.Screen,0_2_0_1_11,2021-11-19T12:34:15.371Z,,,,,,,,,,,,,,,,53,,,,,,,,,,,,,,485.5409999761614,,response,,,99,,,,,,Space,keypress(Space),,,,,---- -- ----- -- ------ - ------- --- ----------<br>------------- ------ wisdom ---- ---- ------- ----- -- ----<br>-------- ------- -- ---------- --- - --- ----- ----- ----<br>---- --- --- ----- --- ---- ---- ------- ----- ---- -------<br>--- --- -- ----- -- --- ---- -- --- ---- -- ------ ------<br>--- ----- -- ----,62187.299999952316,62186.39999997616,61684.189,61691.5,61700.859,62200.858,,11,wisdom
screen,html.Screen,0_2_0_1_12,2021-11-19T12:34:15.851Z,,,,,,,,,,,,,,,,53,,,,,,,,,,,,,,465.54199997615797,,response,,,99,,,,,,Space,keypress(Space),,,,,---- -- ----- -- ------ - ------- --- ----------<br>------------- ------ ------ says ---- ------- ----- -- ----<br>-------- ------- -- ---------- --- - --- ----- ----- ----<br>---- --- --- ----- --- ---- ---- ------- ----- ---- -------<br>--- --- -- ----- -- --- ---- -- --- ---- -- ------ ------<br>--- ----- -- ----,62667.10000002384,62666.39999997616,62184.189,62187.5,62200.858,62684.495,,12,says
screen,html.Screen,0_2_0_1_13,2021-11-19T12:34:16.355Z,,,,,,,,,,,,,,,,53,,,,,,,,,,,,,,485.80499995231366,,response,,,99,,,,,,Space,keypress(Space),,,,,---- -- ----- -- ------ - ------- --- ----------<br>------------- ------ ------ ---- that ------- ----- -- ----<br>-------- ------- -- ---------- --- - --- ----- ----- ----<br>---- --- --- ----- --- ---- ---- ------- ----- ---- -------<br>--- --- -- ----- -- --- ---- -- --- ---- -- ------ ------<br>--- ----- -- ----,63171.10000002384,63170.299999952316,62667.824,62667.39999997616,62684.495,63184.583,,13,that
screen,html.Screen,0_2_0_1_14,2021-11-19T12:34:16.899Z,,,,,,,,,,,,,,,,53,,,,,,,,,,,,,,529.7169999523176,,response,,,99,,,,,,Space,keypress(Space),,,,,---- -- ----- -- ------ - ------- --- ----------<br>------------- ------ ------ ---- ---- feeling ----- -- ----<br>-------- ------- -- ---------- --- - --- ----- ----- ----<br>---- --- --- ----- --- ---- ---- ------- ----- ---- -------<br>--- --- -- ----- -- --- ---- -- --- ---- -- ------ ------<br>--- ----- -- ----,63715.10000002384,63714.299999952316,63167.913,63171.299999952316,63184.583,63718.019,,14,feeling
screen,html.Screen,0_2_0_1_15,2021-11-19T12:34:17.379Z,,,,,,,,,,,,,,,,53,,,,,,,,,,,,,,476.28099995231605,,response,,,99,,,,,,Space,keypress(Space),,,,,---- -- ----- -- ------ - ------- --- ----------<br>------------- ------ ------ ---- ---- ------- close -- ----<br>-------- ------- -- ---------- --- - --- ----- ----- ----<br>---- --- --- ----- --- ---- ---- ------- ----- ---- -------<br>--- --- -- ----- -- --- ---- -- --- ---- -- ------ ------<br>--- ----- -- ----,64195,64194.299999952316,63701.349,63715.299999952316,63718.019,64201.395,,15,close
screen,html.Screen,0_2_0_1_16,2021-11-19T12:34:17.803Z,,,,,,,,,,,,,,,,53,,,,,,,,,,,,,,416.9049999523195,,response,,,99,,,,,,Space,keypress(Space),,,,,---- -- ----- -- ------ - ------- --- ----------<br>------------- ------ ------ ---- ---- ------- ----- to ----<br>-------- ------- -- ---------- --- - --- ----- ----- ----<br>---- --- --- ----- --- ---- ---- ------- ----- ---- -------<br>--- --- -- ----- -- --- ---- -- --- ---- -- ------ ------<br>--- ----- -- ----,64619,64618.299999952316,64184.726,64195.299999952316,64201.395,64634.957,,16,to
screen,html.Screen,0_2_0_1_17,2021-11-19T12:34:18.539Z,,,,,,,,,,,,,,,,53,,,,,,,,,,,,,,719.5429999999978,,response,,,99,,,,,,Space,keypress(Space),,,,,---- -- ----- -- ------ - ------- --- ----------<br>------------- ------ ------ ---- ---- ------- ----- -- your<br>-------- ------- -- ---------- --- - --- ----- ----- ----<br>---- --- --- ----- --- ---- ---- ------- ----- ---- -------<br>--- --- -- ----- -- --- ---- -- --- ---- -- ------ ------<br>--- ----- -- ----,65355.299999952316,65354.5,64618.286,64619.299999952316,64634.957,65368.416,,17,your
screen,html.Screen,0_2_0_1_18,2021-11-19T12:34:19.051Z,,,,,,,,,,,,,,,,53,,,,,,,,,,,,,,497.6840000238444,,response,,,99,,,,,,Space,keypress(Space),,,,,---- -- ----- -- ------ - ------- --- ----------<br>------------- ------ ------ ---- ---- ------- ----- -- ----<br>romantic ------- -- ---------- --- - --- ----- ----- ----<br>---- --- --- ----- --- ---- ---- ------- ----- ---- -------<br>--- --- -- ----- -- --- ---- -- --- ---- -- ------ ------<br>--- ----- -- ----,65866.89999997616,65866.10000002384,65351.746,65355.60000002384,65368.416,65868.563,,18,romantic
screen,html.Screen,0_2_0_1_19,2021-11-19T12:34:19.523Z,,,,,,,,,,,,,,,,53,,,,,,,,,,,,,,469.43700000000536,,response,,,99,,,,,,Space,keypress(Space),,,,,---- -- ----- -- ------ - ------- --- ----------<br>------------- ------ ------ ---- ---- ------- ----- -- ----<br>-------- partner -- ---------- --- - --- ----- ----- ----<br>---- --- --- ----- --- ---- ---- ------- ----- ---- -------<br>--- --- -- ----- -- --- ---- -- --- ---- -- ------ ------<br>--- ----- -- ----,66338.69999992847,66338,65851.893,65867.10000002384,65868.563,66352.025,,19,partner
screen,html.Screen,0_2_0_1_20,2021-11-19T12:34:19.939Z,,,,,,,,,,,,,,,,53,,,,,,,,,,,,,,402.0750000238477,,response,,,99,,,,,,Space,keypress(Space),,,,,---- -- ----- -- ------ - ------- --- ----------<br>------------- ------ ------ ---- ---- ------- ----- -- ----<br>-------- ------- is ---------- --- - --- ----- ----- ----<br>---- --- --- ----- --- ---- ---- ------- ----- ---- -------<br>--- --- -- ----- -- --- ---- -- --- ---- -- ------ ------<br>--- ----- -- ----,66754.79999995232,66754.10000002384,66335.355,66339,66352.025,66768.752,,20,is
screen,html.Screen,0_2_0_1_21,2021-11-19T12:34:20.691Z,,,,,,,,,,,,,,,,53,,,,,,,,,,,,,,737.2480000000069,,response,,,99,,,,,,Space,keypress(Space),,,,,---- -- ----- -- ------ - ------- --- ----------<br>------------- ------ ------ ---- ---- ------- ----- -- ----<br>-------- ------- -- paramount. --- - --- ----- ----- ----<br>---- --- --- ----- --- ---- ---- ------- ----- ---- -------<br>--- --- -- ----- -- --- ---- -- --- ---- -- ------ ------<br>--- ----- -- ----,67506.79999995232,67506,66752.082,66755,66768.752,67518.939,,21,paramount.
screen,html.Screen,0_2_0_1_22,2021-11-19T12:34:21.131Z,,,,,,,,,,,,,,,,53,,,,,,,,,,,,,,427.0610000000015,,response,,,99,,,,,,Space,keypress(Space),,,,,---- -- ----- -- ------ - ------- --- ----------<br>------------- ------ ------ ---- ---- ------- ----- -- ----<br>-------- ------- -- ---------- But - --- ----- ----- ----<br>---- --- --- ----- --- ---- ---- ------- ----- ---- -------<br>--- --- -- ----- -- --- ---- -- --- ---- -- ------ ------<br>--- ----- -- ----,67946.69999992847,67946,67502.269,67507.29999995232,67518.939,67952.373,,22,But
screen,html.Screen,0_2_0_1_23,2021-11-19T12:34:21.579Z,,,,,,,,,,,,,,,,53,,,,,,,,,,,,,,441.5269999761513,,response,,,99,,,,,,Space,keypress(Space),,,,,---- -- ----- -- ------ - ------- --- ----------<br>------------- ------ ------ ---- ---- ------- ----- -- ----<br>-------- ------- -- ---------- --- a --- ----- ----- ----<br>---- --- --- ----- --- ---- ---- ------- ----- ---- -------<br>--- --- -- ----- -- --- ---- -- --- ---- -- ------ ------<br>--- ----- -- ----,68394.69999992847,68393.89999997616,67935.703,67946.89999997616,67952.373,68402.501,,23,a
screen,html.Screen,0_2_0_1_24,2021-11-19T12:34:22.027Z,,,,,,,,,,,,,,,,53,,,,,,,,,,,,,,439.3989999761543,,response,,,99,,,,,,Space,keypress(Space),,,,,---- -- ----- -- ------ - ------- --- ----------<br>------------- ------ ------ ---- ---- ------- ----- -- ----<br>-------- ------- -- ---------- --- - new ----- ----- ----<br>---- --- --- ----- --- ---- ---- ------- ----- ---- -------<br>--- --- -- ----- -- --- ---- -- --- ---- -- ------ ------<br>--- ----- -- ----,68842.60000002384,68841.89999997616,68385.831,68394.89999997616,68402.501,68852.623,,24,new
screen,html.Screen,0_2_0_1_25,2021-11-19T12:34:22.523Z,,,,,,,,,,,,,,,,53,,,,,,,,,,,,,,485.1769999523094,,response,,,99,,,,,,Space,keypress(Space),,,,,---- -- ----- -- ------ - ------- --- ----------<br>------------- ------ ------ ---- ---- ------- ----- -- ----<br>-------- ------- -- ---------- --- - --- study ----- ----<br>---- --- --- ----- --- ---- ---- ------- ----- ---- -------<br>--- --- -- ----- -- --- ---- -- --- ---- -- ------ ------<br>--- ----- -- ----,69338.60000002384,69337.79999995232,68835.953,68843,68852.623,69352.738,,25,study
screen,html.Screen,0_2_0_1_26,2021-11-19T12:34:22.963Z,,,,,,,,,,,,,,,,53,,,,,,,,,,,,,,425.06199995231873,,response,,,99,,,,,,Space,keypress(Space),,,,,---- -- ----- -- ------ - ------- --- ----------<br>------------- ------ ------ ---- ---- ------- ----- -- ----<br>-------- ------- -- ---------- --- - --- ----- finds ----<br>---- --- --- ----- --- ---- ---- ------- ----- ---- -------<br>--- --- -- ----- -- --- ---- -- --- ---- -- ------ ------<br>--- ----- -- ----,69778.60000002384,69777.79999995232,69336.068,69338.79999995232,69352.738,69786.179,,26,finds
screen,html.Screen,0_2_0_1_27,2021-11-19T12:34:23.371Z,,,,,,,,,,,,,,,,53,,,,,,,,,,,,,,399.62099995231256,,response,,,99,,,,,,Space,keypress(Space),,,,,---- -- ----- -- ------ - ------- --- ----------<br>------------- ------ ------ ---- ---- ------- ----- -- ----<br>-------- ------- -- ---------- --- - --- ----- ----- that<br>---- --- --- ----- --- ---- ---- ------- ----- ---- -------<br>--- --- -- ----- -- --- ---- -- --- ---- -- ------ ------<br>--- ----- -- ----,70186.60000002384,70185.79999995232,69769.509,69778.79999995232,69786.179,70202.931,,27,that
screen,html.Screen,0_2_0_1_28,2021-11-19T12:34:24.107Z,,,,,,,,,,,,,,,,53,,,,,,,,,,,,,,718.7689999284776,,response,,,99,,,,,,Space,keypress(Space),,,,,---- -- ----- -- ------ - ------- --- ----------<br>------------- ------ ------ ---- ---- ------- ----- -- ----<br>-------- ------- -- ---------- --- - --- ----- ----- ----<br>it's --- --- ----- --- ---- ---- ------- ----- ---- -------<br>--- --- -- ----- -- --- ---- -- --- ---- -- ------ ------<br>--- ----- -- ----,70922.5,70921.69999992847,70186.261,70186.69999992847,70202.931,70936.266,,28,it's
screen,html.Screen,0_2_0_1_29,2021-11-19T12:34:24.451Z,,,,,,,,,,,,,,,,53,,,,,,,,,,,,,,329.3340000238386,,response,,,99,,,,,,Space,keypress(Space),,,,,---- -- ----- -- ------ - ------- --- ----------<br>------------- ------ ------ ---- ---- ------- ----- -- ----<br>-------- ------- -- ---------- --- - --- ----- ----- ----<br>---- not --- ----- --- ---- ---- ------- ----- ---- -------<br>--- --- -- ----- -- --- ---- -- --- ---- -- ------ ------<br>--- ----- -- ----,71266.60000002384,71265.60000002384,70919.598,70922.69999992847,70936.266,71269.957,,29,not
screen,html.Screen,0_2_0_1_30,2021-11-19T12:34:24.850Z,,,,,,,,,,,,,,,,53,,,,,,,,,,,,,,395.643000023847,,response,,,99,,,,,,Space,keypress(Space),,,,,---- -- ----- -- ------ - ------- --- ----------<br>------------- ------ ------ ---- ---- ------- ----- -- ----<br>-------- ------- -- ---------- --- - --- ----- ----- ----<br>---- --- how ----- --- ---- ---- ------- ----- ---- -------<br>--- --- -- ----- -- --- ---- -- --- ---- -- ------ ------<br>--- ----- -- ----,71666.39999997616,71665.60000002384,71253.285,71266.69999992847,71269.957,71669.872,,30,how
screen,html.Screen,0_2_0_1_31,2021-11-19T12:34:25.386Z,,,,,,,,,,,,,,,,53,,,,,,,,,,,,,,531.7280000238388,,response,,,99,,,,,,Space,keypress(Space),,,,,---- -- ----- -- ------ - ------- --- ----------<br>------------- ------ ------ ---- ---- ------- ----- -- ----<br>-------- ------- -- ---------- --- - --- ----- ----- ----<br>---- --- --- close --- ---- ---- ------- ----- ---- -------<br>--- --- -- ----- -- --- ---- -- --- ---- -- ------ ------<br>--- ----- -- ----,72202.39999997616,72201.60000002384,71653.203,71666.60000002384,71669.872,72203.433,,31,close
screen,html.Screen,0_2_0_1_32,2021-11-19T12:34:25.762Z,,,,,,,,,,,,,,,,53,,,,,,,,,,,,,,374.06699999999546,,response,,,99,,,,,,Space,keypress(Space),,,,,---- -- ----- -- ------ - ------- --- ----------<br>------------- ------ ------ ---- ---- ------- ----- -- ----<br>-------- ------- -- ---------- --- - --- ----- ----- ----<br>---- --- --- ----- you ---- ---- ------- ----- ---- -------<br>--- --- -- ----- -- --- ---- -- --- ---- -- ------ ------<br>--- ----- -- ----,72578.39999997616,72577.5,72186.762,72202.60000002384,72203.433,72586.907,,32,you
screen,html.Screen,0_2_0_1_33,2021-11-19T12:34:26.122Z,,,,,,,,,,,,,,,,53,,,,,,,,,,,,,,350.5929999999935,,response,,,99,,,,,,Space,keypress(Space),,,,,---- -- ----- -- ------ - ------- --- ----------<br>------------- ------ ------ ---- ---- ------- ----- -- ----<br>-------- ------- -- ---------- --- - --- ----- ----- ----<br>---- --- --- ----- --- feel ---- ------- ----- ---- -------<br>--- --- -- ----- -- --- ---- -- --- ---- -- ------ ------<br>--- ----- -- ----,72938.29999995232,72937.5,72570.236,72578.60000002384,72586.907,72953.539,,33,feel
screen,html.Screen,0_2_0_1_34,2021-11-19T12:34:26.474Z,,,,,,,,,,,,,,,,53,,,,,,,,,,,,,,335.9609999999957,,response,,,99,,,,,,Space,keypress(Space),,,,,---- -- ----- -- ------ - ------- --- ----------<br>------------- ------ ------ ---- ---- ------- ----- -- ----<br>-------- ------- -- ---------- --- - --- ----- ----- ----<br>---- --- --- ----- --- ---- that ------- ----- ---- -------<br>--- --- -- ----- -- --- ---- -- --- ---- -- ------ ------<br>--- ----- -- ----,73290.39999997616,73289.5,72936.87,72938.5,72953.539,73303.739,,34,that
screen,html.Screen,0_2_0_1_35,2021-11-19T12:34:26.962Z,,,,,,,,,,,,,,,,53,,,,,,,,,,,,,,473.86100002384046,,response,,,99,,,,,,Space,keypress(Space),,,,,---- -- ----- -- ------ - ------- --- ----------<br>------------- ------ ------ ---- ---- ------- ----- -- ----<br>-------- ------- -- ---------- --- - --- ----- ----- ----<br>---- --- --- ----- --- ---- ---- matters ----- ---- -------<br>--- --- -- ----- -- --- ---- -- --- ---- -- ------ ------<br>--- ----- -- ----,73778.39999997616,73777.60000002384,73287.068,73290.60000002384,73303.739,73787.127,,35,matters
screen,html.Screen,0_2_0_1_36,2021-11-19T12:34:27.378Z,,,,,,,,,,,,,,,,53,,,,,,,,,,,,,,406.37300000000687,,response,,,99,,,,,,Space,keypress(Space),,,,,"---- -- ----- -- ------ - ------- --- ----------<br>------------- ------ ------ ---- ---- ------- ----- -- ----<br>-------- ------- -- ---------- --- - --- ----- ----- ----<br>---- --- --- ----- --- ---- ---- ------- most, ---- -------<br>--- --- -- ----- -- --- ---- -- --- ---- -- ------ ------<br>--- ----- -- ----",74194.5,74193.5,73770.457,73778.60000002384,73787.127,74203.92,,36,"most,"
screen,html.Screen,0_2_0_1_37,2021-11-19T12:34:27.802Z,,,,,,,,,,,,,,,,53,,,,,,,,,,,,,,413.58000000000175,,response,,,99,,,,,,Space,keypress(Space),,,,,---- -- ----- -- ------ - ------- --- ----------<br>------------- ------ ------ ---- ---- ------- ----- -- ----<br>-------- ------- -- ---------- --- - --- ----- ----- ----<br>---- --- --- ----- --- ---- ---- ------- ----- it's -------<br>--- --- -- ----- -- --- ---- -- --- ---- -- ------ ------<br>--- ----- -- ----,74618.39999997616,74617.5,74187.25,74194.69999992847,74203.92,74620.677,,37,it's
screen,html.Screen,0_2_0_1_38,2021-11-19T12:34:28.362Z,,,,,,,,,,,,,,,,53,,,,,,,,,,,,,,556.7229999761621,,response,,,99,,,,,,Space,keypress(Space),,,,,---- -- ----- -- ------ - ------- --- ----------<br>------------- ------ ------ ---- ---- ------- ----- -- ----<br>-------- ------- -- ---------- --- - --- ----- ----- ----<br>---- --- --- ----- --- ---- ---- ------- ----- ---- whether<br>--- --- -- ----- -- --- ---- -- --- ---- -- ------ ------<br>--- ----- -- ----,75178.19999992847,75177.39999997616,74604.007,74618.60000002384,74620.677,75187.495,,38,whether
screen,html.Screen,0_2_0_1_39,2021-11-19T12:34:28.739Z,,,,,,,,,,,,,,,,53,,,,,,,,,,,,,,366.30499995232094,,response,,,99,,,,,,Space,keypress(Space),,,,,---- -- ----- -- ------ - ------- --- ----------<br>------------- ------ ------ ---- ---- ------- ----- -- ----<br>-------- ------- -- ---------- --- - --- ----- ----- ----<br>---- --- --- ----- --- ---- ---- ------- ----- ---- -------<br>you --- -- ----- -- --- ---- -- --- ---- -- ------ ------<br>--- ----- -- ----,75554.5,75553.79999995232,75170.825,75178.39999997616,75187.495,75570.937,,39,you
screen,html.Screen,0_2_0_1_40,2021-11-19T12:34:29.090Z,,,,,,,,,,,,,,,,53,,,,,,,,,,,,,,334.4629999761528,,response,,,99,,,,,,Space,keypress(Space),,,,,---- -- ----- -- ------ - ------- --- ----------<br>------------- ------ ------ ---- ---- ------- ----- -- ----<br>-------- ------- -- ---------- --- - --- ----- ----- ----<br>---- --- --- ----- --- ---- ---- ------- ----- ---- -------<br>--- are -- ----- -- --- ---- -- --- ---- -- ------ ------<br>--- ----- -- ----,75906.19999992847,75905.39999997616,75554.267,75554.79999995232,75570.937,75920.912,,40,are
screen,html.Screen,0_2_0_1_41,2021-11-19T12:34:29.450Z,,,,,,,,,,,,,,,,53,,,,,,,,,,,,,,344.38799995231966,,response,,,99,,,,,,Space,keypress(Space),,,,,---- -- ----- -- ------ - ------- --- ----------<br>------------- ------ ------ ---- ---- ------- ----- -- ----<br>-------- ------- -- ---------- --- - --- ----- ----- ----<br>---- --- --- ----- --- ---- ---- ------- ----- ---- -------<br>--- --- as ----- -- --- ---- -- --- ---- -- ------ ------<br>--- ----- -- ----,76266.19999992847,76265.29999995232,75904.243,75906.39999997616,75920.912,76271.169,,41,as
screen,html.Screen,0_2_0_1_42,2021-11-19T12:34:29.794Z,,,,,,,,,,,,,,,,53,,,,,,,,,,,,,,338.23099997616373,,response,,,99,,,,,,Space,keypress(Space),,,,,---- -- ----- -- ------ - ------- --- ----------<br>------------- ------ ------ ---- ---- ------- ----- -- ----<br>-------- ------- -- ---------- --- - --- ----- ----- ----<br>---- --- --- ----- --- ---- ---- ------- ----- ---- -------<br>--- --- -- close -- --- ---- -- --- ---- -- ------ ------<br>--- ----- -- ----,76610.10000002384,76609.39999997616,76254.497,76266.39999997616,76271.169,76621.155,,42,close
screen,html.Screen,0_2_0_1_43,2021-11-19T12:34:30.162Z,,,,,,,,,,,,,,,,53,,,,,,,,,,,,,,356.0449999284756,,response,,,99,,,,,,Space,keypress(Space),,,,,---- -- ----- -- ------ - ------- --- ----------<br>------------- ------ ------ ---- ---- ------- ----- -- ----<br>-------- ------- -- ---------- --- - --- ----- ----- ----<br>---- --- --- ----- --- ---- ---- ------- ----- ---- -------<br>--- --- -- ----- as --- ---- -- --- ---- -- ------ ------<br>--- ----- -- ----,76978,76977.19999992847,76604.485,76610.39999997616,76621.155,76987.92,,43,as
screen,html.Screen,0_2_0_1_44,2021-11-19T12:34:30.498Z,,,,,,,,,,,,,,,,53,,,,,,,,,,,,,,325.37999995231803,,response,,,99,,,,,,Space,keypress(Space),,,,,---- -- ----- -- ------ - ------- --- ----------<br>------------- ------ ------ ---- ---- ------- ----- -- ----<br>-------- ------- -- ---------- --- - --- ----- ----- ----<br>---- --- --- ----- --- ---- ---- ------- ----- ---- -------<br>--- --- -- ----- -- you ---- -- --- ---- -- ------ ------<br>--- ----- -- ----,77314,77313.29999995232,76971.25,76978.19999992847,76987.92,77321.38,,44,you
screen,html.Screen,0_2_0_1_45,2021-11-19T12:34:30.938Z,,,,,,,,,,,,,,,,53,,,,,,,,,,,,,,431.81999992846977,,response,,,99,,,,,,Space,keypress(Space),,,,,---- -- ----- -- ------ - ------- --- ----------<br>------------- ------ ------ ---- ---- ------- ----- -- ----<br>-------- ------- -- ---------- --- - --- ----- ----- ----<br>---- --- --- ----- --- ---- ---- ------- ----- ---- -------<br>--- --- -- ----- -- --- want -- --- ---- -- ------ ------<br>--- ----- -- ----,77754,77753.19999992847,77304.709,77314.29999995232,77321.38,77771.454,,45,want
screen,html.Screen,0_2_0_1_46,2021-11-19T12:34:31.298Z,,,,,,,,,,,,,,,,53,,,,,,,,,,,,,,341.8459999523184,,response,,,99,,,,,,Space,keypress(Space),,,,,---- -- ----- -- ------ - ------- --- ----------<br>------------- ------ ------ ---- ---- ------- ----- -- ----<br>-------- ------- -- ---------- --- - --- ----- ----- ----<br>---- --- --- ----- --- ---- ---- ------- ----- ---- -------<br>--- --- -- ----- -- --- ---- to --- ---- -- ------ ------<br>--- ----- -- ----,78114,78113.29999995232,77754.784,77754.29999995232,77771.454,78121.528,,46,to
screen,html.Screen,0_2_0_1_47,2021-11-19T12:34:31.634Z,,,,,,,,,,,,,,,,53,,,,,,,,,,,,,,327.6719999284687,,response,,,99,,,,,,Space,keypress(Space),,,,,"---- -- ----- -- ------ - ------- --- ----------<br>------------- ------ ------ ---- ---- ------- ----- -- ----<br>-------- ------- -- ---------- --- - --- ----- ----- ----<br>---- --- --- ----- --- ---- ---- ------- ----- ---- -------<br>--- --- -- ----- -- --- ---- -- be, ---- -- ------ ------<br>--- ----- -- ----",78450,78449.19999992847,78104.858,78114.29999995232,78121.528,78454.925,,47,"be,"
screen,html.Screen,0_2_0_1_48,2021-11-19T12:34:32.506Z,,,,,,,,,,,,,,,,53,,,,,,,,,,,,,,866.175000023839,,response,,,99,,,,,,Space,keypress(Space),,,,,---- -- ----- -- ------ - ------- --- ----------<br>------------- ------ ------ ---- ---- ------- ----- -- ----<br>-------- ------- -- ---------- --- - --- ----- ----- ----<br>---- --- --- ----- --- ---- ---- ------- ----- ---- -------<br>--- --- -- ----- -- --- ---- -- --- even -- ------ ------<br>--- ----- -- ----,79322,79321.10000002384,78438.255,78450.29999995232,78454.925,79338.542,,48,even
screen,html.Screen,0_2_0_1_49,2021-11-19T12:34:33.098Z,,,,,,,,,,,,,,,,53,,,,,,,,,,,,,,574.5580000238406,,response,,,99,,,,,,Space,keypress(Space),,,,,---- -- ----- -- ------ - ------- --- ----------<br>------------- ------ ------ ---- ---- ------- ----- -- ----<br>-------- ------- -- ---------- --- - --- ----- ----- ----<br>---- --- --- ----- --- ---- ---- ------- ----- ---- -------<br>--- --- -- ----- -- --- ---- -- --- ---- if ------ ------<br>--- ----- -- ----,79913.79999995232,79913.10000002384,79321.871,79322.19999992847,79338.542,79921.924,,49,if
screen,html.Screen,0_2_0_1_50,2021-11-19T12:34:33.514Z,,,,,,,,,,,,,,,,53,,,,,,,,,,,,,,407.1760000238428,,response,,,99,,,,,,Space,keypress(Space),,,,,---- -- ----- -- ------ - ------- --- ----------<br>------------- ------ ------ ---- ---- ------- ----- -- ----<br>-------- ------- -- ---------- --- - --- ----- ----- ----<br>---- --- --- ----- --- ---- ---- ------- ----- ---- -------<br>--- --- -- ----- -- --- ---- -- --- ---- -- that's ------<br>--- ----- -- ----,80329.89999997616,80329.10000002384,79905.254,79914.10000002384,79921.924,80338.726,,50,that's
screen,html.Screen,0_2_0_1_51,2021-11-19T12:34:33.890Z,,,,,,,,,,,,,,,,53,,,,,,,,,,,,,,366.37400002384675,,response,,,99,,,,,,Space,keypress(Space),,,,,---- -- ----- -- ------ - ------- --- ----------<br>------------- ------ ------ ---- ---- ------- ----- -- ----<br>-------- ------- -- ---------- --- - --- ----- ----- ----<br>---- --- --- ----- --- ---- ---- ------- ----- ---- -------<br>--- --- -- ----- -- --- ---- -- --- ---- -- ------ really<br>--- ----- -- ----,80705.79999995232,80705.10000002384,80322.056,80330.10000002384,80338.726,80722.169,,51,really
screen,html.Screen,0_2_0_1_52,2021-11-19T12:34:34.362Z,,,,,,,,,,,,,,,,53,,,,,,,,,,,,,,454.93100002384745,,response,,,99,,,,,,Space,keypress(Space),,,,,---- -- ----- -- ------ - ------- --- ----------<br>------------- ------ ------ ---- ---- ------- ----- -- ----<br>-------- ------- -- ---------- --- - --- ----- ----- ----<br>---- --- --- ----- --- ---- ---- ------- ----- ---- -------<br>--- --- -- ----- -- --- ---- -- --- ---- -- ------ ------<br>not ----- -- ----,81177.79999995232,81177.10000002384,80705.499,80706.10000002384,80722.169,81188.953,,52,not
screen,html.Screen,0_2_0_1_53,2021-11-19T12:34:34.746Z,,,,,,,,,,,,,,,,53,,,,,,,,,,,,,,372.04700000000594,,response,,,99,,,,,,Space,keypress(Space),,,,,---- -- ----- -- ------ - ------- --- ----------<br>------------- ------ ------ ---- ---- ------- ----- -- ----<br>-------- ------- -- ---------- --- - --- ----- ----- ----<br>---- --- --- ----- --- ---- ---- ------- ----- ---- -------<br>--- --- -- ----- -- --- ---- -- --- ---- -- ------ ------<br>--- close -- ----,81561.79999995232,81561,81172.283,81178,81188.953,81572.378,,53,close
screen,html.Screen,0_2_0_1_54,2021-11-19T12:34:35.114Z,,,,,,,,,,,,,,,,53,,,,,,,,,,,,,,356.622000000003,,response,,,99,,,,,,Space,keypress(Space),,,,,---- -- ----- -- ------ - ------- --- ----------<br>------------- ------ ------ ---- ---- ------- ----- -- ----<br>-------- ------- -- ---------- --- - --- ----- ----- ----<br>---- --- --- ----- --- ---- ---- ------- ----- ---- -------<br>--- --- -- ----- -- --- ---- -- --- ---- -- ------ ------<br>--- ----- at ----,81929.69999992847,81929,81555.708,81562,81572.378,81939.134,,54,at
screen,html.Screen,0_2_0_1_55,2021-11-19T12:34:35.498Z,,,,,,,,,,,,,,,,53,,,,,,,,,,,,,,373.86599999999453,,response,,,99,,,,,,Space,keypress(Space),,,,,---- -- ----- -- ------ - ------- --- ----------<br>------------- ------ ------ ---- ---- ------- ----- -- ----<br>-------- ------- -- ---------- --- - --- ----- ----- ----<br>---- --- --- ----- --- ---- ---- ------- ----- ---- -------<br>--- --- -- ----- -- --- ---- -- --- ---- -- ------ ------<br>--- ----- -- all.,82313.89999997616,82313,81922.464,81930,81939.134,82322.472,,55,all.
Item 99,flow.Loop,0_2_0_1,2021-11-19T12:34:35.502Z,,,,,,,,,,,,,,,,,,,,,,,,,,,,,,28764.305,,completion,,,,B,,,,,,,,,,silence,,82318.39999997616,82313,53532.026,53538.5,53548.695,82322.472,,,
Question 1,html.Screen,0_2_0_2,2021-11-19T12:34:43.890Z,,,,,,,,,,,,,,,,,,,,,,,,,,,true,FALSE,,8381.72799992848,,response,,,99,B,,,,,FALSE,click #choice-2,,,,silence,,90705.69999992847,90704.19999992847,82305.803,82318.60000002384,82322.472,90707.926,,,
Question 2,html.Screen,0_2_0_3,2021-11-19T12:34:49.777Z,,,,,,,,,,,,,,,,,,,,,,,,,,,true,TRUE,,5883.973999976151,,response,,,99,B,,,,,TRUE,click #choice-1,,,,silence,,96593,96591.89999997616,90691.256,90706,90707.926,96609.155,,,
Item 99,flow.Sequence,0_2_0,2021-11-19T12:34:49.778Z,,,,,,,,,,,,,,,,,,,,,,,,,,,,,,53045.455999976155,,completion,,,,,,,,,,,,,,,,96593.5,96591.89999997616,43529.774,43533.699999928474,43546.444,96609.155,,,
Holding screen,html.Screen,0_2_1_0,2021-11-19T12:34:59.780Z,,,,,,,,,,,,,,,,,,,,,,,,,,,,,,10002.524000000005,,timeout,,,,,,,,,,,,,,,,106596.5,106595.009,96592.489,96593.89999997616,96609.155,106611.679,,,
screen,html.Screen,0_2_1_1_0,2021-11-19T12:35:01.136Z,,,,,,,,,,,,,,,,54,,,,,,,,,,,,,,1339.9210000238381,,response,,,100,,,,,,Space,keypress(Space),,,,,At --- ---- --- ------ ----- ------- ---- -- --- ------- --<br>------- ---------- ------ -- ----- -- ----- -- ---- ------<br>--- ----- --- --- ------ -------- ----- --- ------ ----- --<br>----- ----- ---------- --- --- ------ ------ ---- -- ------<br>------- --- ------ ----- --- ---- ------- -- ---- --- --<br>------- ------,107952.5,107951.60000002384,106595.009,106596.89999997616,106611.679,107962.204,,0,At
screen,html.Screen,0_2_1_1_1,2021-11-19T12:35:01.504Z,,,,,,,,,,,,,,,,54,,,,,,,,,,,,,,356.9959999284765,,response,,,100,,,,,,Space,keypress(Space),,,,,-- the ---- --- ------ ----- ------- ---- -- --- ------- --<br>------- ---------- ------ -- ----- -- ----- -- ---- ------<br>--- ----- --- --- ------ -------- ----- --- ------ ----- --<br>----- ----- ---------- --- --- ------ ------ ---- -- ------<br>------- --- ------ ----- --- ---- ------- -- ---- --- --<br>------- ------,108319.89999997616,108319.19999992847,107945.533,107952.79999995232,107962.204,108328.871,,1,the
screen,html.Screen,0_2_1_1_2,2021-11-19T12:35:01.864Z,,,,,,,,,,,,,,,,54,,,,,,,,,,,,,,350.32899992847524,,response,,,100,,,,,,Space,keypress(Space),,,,,-- --- time --- ------ ----- ------- ---- -- --- ------- --<br>------- ---------- ------ -- ----- -- ----- -- ---- ------<br>--- ----- --- --- ------ -------- ----- --- ------ ----- --<br>----- ----- ---------- --- --- ------ ------ ---- -- ------<br>------- --- ------ ----- --- ---- ------- -- ---- --- --<br>------- ------,108680,108679.19999992847,108312.201,108320.10000002384,108328.871,108695.615,,2,time
screen,html.Screen,0_2_1_1_3,2021-11-19T12:35:02.184Z,,,,,,,,,,,,,,,,54,,,,,,,,,,,,,,303.4850000238366,,response,,,100,,,,,,Space,keypress(Space),,,,,-- --- ---- the ------ ----- ------- ---- -- --- ------- --<br>------- ---------- ------ -- ----- -- ----- -- ---- ------<br>--- ----- --- --- ------ -------- ----- --- ------ ----- --<br>----- ----- ---------- --- --- ------ ------ ---- -- ------<br>------- --- ------ ----- --- ---- ------- -- ---- --- --<br>------- ------,108999.79999995232,108999.10000002384,108678.945,108680.19999992847,108695.615,109012.422,,3,the
screen,html.Screen,0_2_1_1_4,2021-11-19T12:35:02.536Z,,,,,,,,,,,,,,,,54,,,,,,,,,,,,,,338.6780000238359,,response,,,100,,,,,,Space,keypress(Space),,,,,-- --- ---- --- French ----- ------- ---- -- --- ------- --<br>------- ---------- ------ -- ----- -- ----- -- ---- ------<br>--- ----- --- --- ------ -------- ----- --- ------ ----- --<br>----- ----- ---------- --- --- ------ ------ ---- -- ------<br>------- --- ------ ----- --- ---- ------- -- ---- --- --<br>------- ------,109351.79999995232,109351.10000002384,108995.751,109000.10000002384,109012.422,109362.444,,4,French
screen,html.Screen,0_2_1_1_5,2021-11-19T12:35:03.400Z,,,,,,,,,,,,,,,,54,,,,,,,,,,,,,,852.5559999999969,,response,,,100,,,,,,Space,keypress(Space),,,,,-- --- ---- --- ------ crown ------- ---- -- --- ------- --<br>------- ---------- ------ -- ----- -- ----- -- ---- ------<br>--- ----- --- --- ------ -------- ----- --- ------ ----- --<br>----- ----- ---------- --- --- ------ ------ ---- -- ------<br>------- --- ------ ----- --- ---- ------- -- ---- --- --<br>------- ------,110215.79999995232,110215,109345.774,109352.10000002384,109362.444,110229.383,,5,crown
screen,html.Screen,0_2_1_1_6,2021-11-19T12:35:04.472Z,,,,,,,,,,,,,,,,54,,,,,,,,,,,,,,1057.5169999761565,,response,,,100,,,,,,Space,keypress(Space),,,,,-- --- ---- --- ------ ----- secured ---- -- --- ------- --<br>------- ---------- ------ -- ----- -- ----- -- ---- ------<br>--- ----- --- --- ------ -------- ----- --- ------ ----- --<br>----- ----- ---------- --- --- ------ ------ ---- -- ------<br>------- --- ------ ----- --- ---- ------- -- ---- --- --<br>------- ------,111287.69999992847,111286.89999997616,110212.712,110216.10000002384,110229.383,111296.214,,6,secured
screen,html.Screen,0_2_1_1_7,2021-11-19T12:35:04.912Z,,,,,,,,,,,,,,,,54,,,,,,,,,,,,,,430.6859999761509,,response,,,100,,,,,,Space,keypress(Space),,,,,-- --- ---- --- ------ ----- ------- much -- --- ------- --<br>------- ---------- ------ -- ----- -- ----- -- ---- ------<br>--- ----- --- --- ------ -------- ----- --- ------ ----- --<br>----- ----- ---------- --- --- ------ ------ ---- -- ------<br>------- --- ------ ----- --- ---- ------- -- ---- --- --<br>------- ------,111727.60000002384,111726.89999997616,111279.544,111287.89999997616,111296.214,111729.565,,7,much
screen,html.Screen,0_2_1_1_8,2021-11-19T12:35:05.432Z,,,,,,,,,,,,,,,,54,,,,,,,,,,,,,,517.234999952314,,response,,,100,,,,,,Space,keypress(Space),,,,,-- --- ---- --- ------ ----- ------- ---- of --- ------- --<br>------- ---------- ------ -- ----- -- ----- -- ---- ------<br>--- ----- --- --- ------ -------- ----- --- ------ ----- --<br>----- ----- ---------- --- --- ------ ------ ---- -- ------<br>------- --- ------ ----- --- ---- ------- -- ---- --- --<br>------- ------,112247.69999992847,112246.79999995232,111712.896,111727.79999995232,111729.565,112263.2,,8,of
screen,html.Screen,0_2_1_1_9,2021-11-19T12:35:05.976Z,,,,,,,,,,,,,,,,54,,,,,,,,,,,,,,527.699999976161,,response,,,100,,,,,,Space,keypress(Space),,,,,-- --- ---- --- ------ ----- ------- ---- -- its ------- --<br>------- ---------- ------ -- ----- -- ----- -- ---- ------<br>--- ----- --- --- ------ -------- ----- --- ------ ----- --<br>----- ----- ---------- --- --- ------ ------ ---- -- ------<br>------- --- ------ ----- --- ---- ------- -- ---- --- --<br>------- ------,112791.60000002384,112790.89999997616,112246.529,112247.89999997616,112263.2,112796.617,,9,its
screen,html.Screen,0_2_1_1_10,2021-11-19T12:35:06.648Z,,,,,,,,,,,,,,,,54,,,,,,,,,,,,,,666.1829999523179,,response,,,100,,,,,,Space,keypress(Space),,,,,-- --- ---- --- ------ ----- ------- ---- -- --- revenue --<br>------- ---------- ------ -- ----- -- ----- -- ---- ------<br>--- ----- --- --- ------ -------- ----- --- ------ ----- --<br>----- ----- ---------- --- --- ------ ------ ---- -- ------<br>------- --- ------ ----- --- ---- ------- -- ---- --- --<br>------- ------,113463.60000002384,113462.79999995232,112779.947,112791.79999995232,112796.617,113480.094,,10,revenue
screen,html.Screen,0_2_1_1_11,2021-11-19T12:35:07.136Z,,,,,,,,,,,,,,,,54,,,,,,,,,,,,,,470.70599995231896,,response,,,100,,,,,,Space,keypress(Space),,,,,-- --- ---- --- ------ ----- ------- ---- -- --- ------- by<br>------- ---------- ------ -- ----- -- ----- -- ---- ------<br>--- ----- --- --- ------ -------- ----- --- ------ ----- --<br>----- ----- ---------- --- --- ------ ------ ---- -- ------<br>------- --- ------ ----- --- ---- ------- -- ---- --- --<br>------- ------,113951.60000002384,113950.79999995232,113463.424,113463.79999995232,113480.094,113963.586,,11,by
screen,html.Screen,0_2_1_1_12,2021-11-19T12:35:07.727Z,,,,,,,,,,,,,,,,54,,,,,,,,,,,,,,579.1139999284787,,response,,,100,,,,,,Space,keypress(Space),,,,,-- --- ---- --- ------ ----- ------- ---- -- --- ------- --<br>issuing ---------- ------ -- ----- -- ----- -- ---- ------<br>--- ----- --- --- ------ -------- ----- --- ------ ----- --<br>----- ----- ---------- --- --- ------ ------ ---- -- ------<br>------- --- ------ ----- --- ---- ------- -- ---- --- --<br>------- ------,114543.5,114542.69999992847,113946.916,113951.89999997616,113963.586,114546.919,,12,issuing
screen,html.Screen,0_2_1_1_13,2021-11-19T12:35:08.311Z,,,,,,,,,,,,,,,,54,,,,,,,,,,,,,,579.6810000238474,,response,,,100,,,,,,Space,keypress(Space),,,,,-- --- ---- --- ------ ----- ------- ---- -- --- ------- --<br>------- government ------ -- ----- -- ----- -- ---- ------<br>--- ----- --- --- ------ -------- ----- --- ------ ----- --<br>----- ----- ---------- --- --- ------ ------ ---- -- ------<br>------- --- ------ ----- --- ---- ------- -- ---- --- --<br>------- ------,115127.39999997616,115126.60000002384,114530.25,114543.79999995232,114546.919,115130.628,,13,government
screen,html.Screen,0_2_1_1_14,2021-11-19T12:35:08.359Z,,,,,,,,,,,,,,,,54,,,,,,,,,,,,,,44.07199992847745,,response,,,100,,,,,,Space,keypress(Space),,,,,-- --- ---- --- ------ ----- ------- ---- -- --- ------- --<br>------- ---------- bonds. -- ----- -- ----- -- ---- ------<br>--- ----- --- --- ------ -------- ----- --- ------ ----- --<br>----- ----- ---------- --- --- ------ ------ ---- -- ------<br>------- --- ------ ----- --- ---- ------- -- ---- --- --<br>------- ------,115175.5,115174.69999992847,115113.956,115127.69999992847,115130.628,115197.21,,14,bonds.
screen,html.Screen,0_2_1_1_15,2021-11-19T12:35:10.383Z,,,,,,,,,,,,,,,,54,,,,,,,,,,,,,,2001.3900000238355,,response,,,100,,,,,,Space,keypress(Space),,,,,-- --- ---- --- ------ ----- ------- ---- -- --- ------- --<br>------- ---------- ------ In ----- -- ----- -- ---- ------<br>--- ----- --- --- ------ -------- ----- --- ------ ----- --<br>----- ----- ---------- --- --- ------ ------ ---- -- ------<br>------- --- ------ ----- --- ---- ------- -- ---- --- --<br>------- ------,117199.29999995232,117198.60000002384,115180.54,115175.69999992847,115197.21,117214.298,,15,In
screen,html.Screen,0_2_1_1_16,2021-11-19T12:35:11.135Z,,,,,,,,,,,,,,,,54,,,,,,,,,,,,,,736.2020000000048,,response,,,100,,,,,,Space,keypress(Space),,,,,"-- --- ---- --- ------ ----- ------- ---- -- --- ------- --<br>------- ---------- ------ -- 1727, -- ----- -- ---- ------<br>--- ----- --- --- ------ -------- ----- --- ------ ----- --<br>----- ----- ---------- --- --- ------ ------ ---- -- ------<br>------- --- ------ ----- --- ---- ------- -- ---- --- --<br>------- ------",117951.19999992847,117950.5,117197.628,117199.60000002384,117214.298,117964.451,,16,"1727,"
screen,html.Screen,0_2_1_1_17,2021-11-19T12:35:11.832Z,,,,,,,,,,,,,,,,54,,,,,,,,,,,,,,682.3489999523154,,response,,,100,,,,,,Space,keypress(Space),,,,,-- --- ---- --- ------ ----- ------- ---- -- --- ------- --<br>------- ---------- ------ -- ----- in ----- -- ---- ------<br>--- ----- --- --- ------ -------- ----- --- ------ ----- --<br>----- ----- ---------- --- --- ------ ------ ---- -- ------<br>------- --- ------ ----- --- ---- ------- -- ---- --- --<br>------- ------,118647.5,118646.79999995232,117947.781,117951.5,117964.451,118664.624,,17,in
screen,html.Screen,0_2_1_1_18,2021-11-19T12:35:12.591Z,,,,,,,,,,,,,,,,54,,,,,,,,,,,,,,741.775999976162,,response,,,100,,,,,,Space,keypress(Space),,,,,-- --- ---- --- ------ ----- ------- ---- -- --- ------- --<br>------- ---------- ------ -- ----- -- order -- ---- ------<br>--- ----- --- --- ------ -------- ----- --- ------ ----- --<br>----- ----- ---------- --- --- ------ ------ ---- -- ------<br>------- --- ------ ----- --- ---- ------- -- ---- --- --<br>------- ------,119407.19999992847,119406.39999997616,118647.954,118647.89999997616,118664.624,119415.033,,18,order
screen,html.Screen,0_2_1_1_19,2021-11-19T12:35:13.271Z,,,,,,,,,,,,,,,,54,,,,,,,,,,,,,,671.2669999523205,,response,,,100,,,,,,Space,keypress(Space),,,,,-- --- ---- --- ------ ----- ------- ---- -- --- ------- --<br>------- ---------- ------ -- ----- -- ----- to ---- ------<br>--- ----- --- --- ------ -------- ----- --- ------ ----- --<br>----- ----- ---------- --- --- ------ ------ ---- -- ------<br>------- --- ------ ----- --- ---- ------- -- ---- --- --<br>------- ------,120087.10000002384,120086.29999995232,119398.361,119407.39999997616,119415.033,120098.392,,19,to
screen,html.Screen,0_2_1_1_20,2021-11-19T12:35:13.691Z,,,,,,,,,,,,,,,,54,,,,,,,,,,,,,,403.9079999523092,,response,,,100,,,,,,Space,keypress(Space),,,,,-- --- ---- --- ------ ----- ------- ---- -- --- ------- --<br>------- ---------- ------ -- ----- -- ----- -- save ------<br>--- ----- --- --- ------ -------- ----- --- ------ ----- --<br>----- ----- ---------- --- --- ------ ------ ---- -- ------<br>------- --- ------ ----- --- ---- ------- -- ---- --- --<br>------- ------,120503,120502.29999995232,120081.722,120087.29999995232,120098.392,120515.173,,20,save
screen,html.Screen,0_2_1_1_21,2021-11-19T12:35:14.107Z,,,,,,,,,,,,,,,,54,,,,,,,,,,,,,,403.12699995232106,,response,,,100,,,,,,Space,keypress(Space),,,,,"-- --- ---- --- ------ ----- ------- ---- -- --- ------- --<br>------- ---------- ------ -- ----- -- ----- -- ---- money,<br>--- ----- --- --- ------ -------- ----- --- ------ ----- --<br>----- ----- ---------- --- --- ------ ------ ---- -- ------<br>------- --- ------ ----- --- ---- ------- -- ---- --- --<br>------- ------",120919.19999992847,120918.29999995232,120498.503,120503.29999995232,120515.173,120931.923,,21,"money,"
screen,html.Screen,0_2_1_1_22,2021-11-19T12:35:14.595Z,,,,,,,,,,,,,,,,54,,,,,,,,,,,,,,474.2769999284792,,response,,,100,,,,,,Space,keypress(Space),,,,,-- --- ---- --- ------ ----- ------- ---- -- --- ------- --<br>------- ---------- ------ -- ----- -- ----- -- ---- ------<br>the ----- --- --- ------ -------- ----- --- ------ ----- --<br>----- ----- ---------- --- --- ------ ------ ---- -- ------<br>------- --- ------ ----- --- ---- ------- -- ---- --- --<br>------- ------,121407.10000002384,121406.19999992847,120915.253,120919.39999997616,120931.923,121415.39,,22,the
screen,html.Screen,0_2_1_1_23,2021-11-19T12:35:15.083Z,,,,,,,,,,,,,,,,54,,,,,,,,,,,,,,478.809999928475,,response,,,100,,,,,,Space,keypress(Space),,,,,-- --- ---- --- ------ ----- ------- ---- -- --- ------- --<br>------- ---------- ------ -- ----- -- ----- -- ---- ------<br>--- state --- --- ------ -------- ----- --- ------ ----- --<br>----- ----- ---------- --- --- ------ ------ ---- -- ------<br>------- --- ------ ----- --- ---- ------- -- ---- --- --<br>------- ------,121895,121894.19999992847,121398.72,121407.39999997616,121415.39,121898.742,,23,state
screen,html.Screen,0_2_1_1_24,2021-11-19T12:35:15.747Z,,,,,,,,,,,,,,,,54,,,,,,,,,,,,,,659.3580000238435,,response,,,100,,,,,,Space,keypress(Space),,,,,-- --- ---- --- ------ ----- ------- ---- -- --- ------- --<br>------- ---------- ------ -- ----- -- ----- -- ---- ------<br>--- ----- cut --- ------ -------- ----- --- ------ ----- --<br>----- ----- ---------- --- --- ------ ------ ---- -- ------<br>------- --- ------ ----- --- ---- ------- -- ---- --- --<br>------- ------,122559,122558.10000002384,121882.073,121895.29999995232,121898.742,122565.717,,24,cut
screen,html.Screen,0_2_1_1_25,2021-11-19T12:35:16.187Z,,,,,,,,,,,,,,,,54,,,,,,,,,,,,,,432.38300002383767,,response,,,100,,,,,,Space,keypress(Space),,,,,-- --- ---- --- ------ ----- ------- ---- -- --- ------- --<br>------- ---------- ------ -- ----- -- ----- -- ---- ------<br>--- ----- --- the ------ -------- ----- --- ------ ----- --<br>----- ----- ---------- --- --- ------ ------ ---- -- ------<br>------- --- ------ ----- --- ---- ------- -- ---- --- --<br>------- ------,122998.89999997616,122998.10000002384,122549.046,122559.29999995232,122565.717,123015.774,,25,the
screen,html.Screen,0_2_1_1_26,2021-11-19T12:35:16.763Z,,,,,,,,,,,,,,,,54,,,,,,,,,,,,,,558.326000023837,,response,,,100,,,,,,Space,keypress(Space),,,,,-- --- ---- --- ------ ----- ------- ---- -- --- ------- --<br>------- ---------- ------ -- ----- -- ----- -- ---- ------<br>--- ----- --- --- bonds' -------- ----- --- ------ ----- --<br>----- ----- ---------- --- --- ------ ------ ---- -- ------<br>------- --- ------ ----- --- ---- ------- -- ---- --- --<br>------- ------,123574.79999995232,123574.10000002384,122999.104,122999.29999995232,123015.774,123582.577,,26,bonds'
screen,html.Screen,0_2_1_1_27,2021-11-19T12:35:17.267Z,,,,,,,,,,,,,,,,54,,,,,,,,,,,,,,495.4229999999952,,response,,,100,,,,,,Space,keypress(Space),,,,,-- --- ---- --- ------ ----- ------- ---- -- --- ------- --<br>------- ---------- ------ -- ----- -- ----- -- ---- ------<br>--- ----- --- --- ------ interest ----- --- ------ ----- --<br>----- ----- ---------- --- --- ------ ------ ---- -- ------<br>------- --- ------ ----- --- ---- ------- -- ---- --- --<br>------- ------,124078.69999992847,124078,123565.907,123575.10000002384,123582.577,124082.685,,27,interest
screen,html.Screen,0_2_1_1_28,2021-11-19T12:35:17.851Z,,,,,,,,,,,,,,,,54,,,,,,,,,,,,,,579.3150000000023,,response,,,100,,,,,,Space,keypress(Space),,,,,-- --- ---- --- ------ ----- ------- ---- -- --- ------- --<br>------- ---------- ------ -- ----- -- ----- -- ---- ------<br>--- ----- --- --- ------ -------- rate. --- ------ ----- --<br>----- ----- ---------- --- --- ------ ------ ---- -- ------<br>------- --- ------ ----- --- ---- ------- -- ---- --- --<br>------- ------,124662.79999995232,124662,124066.015,124079,124082.685,124666.153,,28,rate.
screen,html.Screen,0_2_1_1_29,2021-11-19T12:35:18.563Z,,,,,,,,,,,,,,,,54,,,,,,,,,,,,,,707.8469999999943,,response,,,100,,,,,,Space,keypress(Space),,,,,-- --- ---- --- ------ ----- ------- ---- -- --- ------- --<br>------- ---------- ------ -- ----- -- ----- -- ---- ------<br>--- ----- --- --- ------ -------- ----- The ------ ----- --<br>----- ----- ---------- --- --- ------ ------ ---- -- ------<br>------- --- ------ ----- --- ---- ------- -- ---- --- --<br>------- ------,125374.69999992847,125374,124649.483,124663,124666.153,125382.996,,29,The
screen,html.Screen,0_2_1_1_30,2021-11-19T12:35:19.131Z,,,,,,,,,,,,,,,,54,,,,,,,,,,,,,,559.0040000000008,,response,,,100,,,,,,Space,keypress(Space),,,,,-- --- ---- --- ------ ----- ------- ---- -- --- ------- --<br>------- ---------- ------ -- ----- -- ----- -- ---- ------<br>--- ----- --- --- ------ -------- ----- --- market ----- --<br>----- ----- ---------- --- --- ------ ------ ---- -- ------<br>------- --- ------ ----- --- ---- ------- -- ---- --- --<br>------- ------,125942.69999992847,125942,125366.326,125375,125382.996,125949.702,,30,market
screen,html.Screen,0_2_1_1_31,2021-11-19T12:35:19.587Z,,,,,,,,,,,,,,,,54,,,,,,,,,,,,,,448.19799997615337,,response,,,100,,,,,,Space,keypress(Space),,,,,-- --- ---- --- ------ ----- ------- ---- -- --- ------- --<br>------- ---------- ------ -- ----- -- ----- -- ---- ------<br>--- ----- --- --- ------ -------- ----- --- ------ value --<br>----- ----- ---------- --- --- ------ ------ ---- -- ------<br>------- --- ------ ----- --- ---- ------- -- ---- --- --<br>------- ------,126398.69999992847,126397.89999997616,125933.033,125942.89999997616,125949.702,126399.983,,31,value
screen,html.Screen,0_2_1_1_32,2021-11-19T12:35:20.019Z,,,,,,,,,,,,,,,,54,,,,,,,,,,,,,,429.91699997616524,,response,,,100,,,,,,Space,keypress(Space),,,,,-- --- ---- --- ------ ----- ------- ---- -- --- ------- --<br>------- ---------- ------ -- ----- -- ----- -- ---- ------<br>--- ----- --- --- ------ -------- ----- --- ------ ----- of<br>----- ----- ---------- --- --- ------ ------ ---- -- ------<br>------- --- ------ ----- --- ---- ------- -- ---- --- --<br>------- ------,126830.60000002384,126829.89999997616,126383.312,126398.89999997616,126399.983,126833.382,,32,of
screen,html.Screen,0_2_1_1_33,2021-11-19T12:35:20.547Z,,,,,,,,,,,,,,,,54,,,,,,,,,,,,,,524.4179999523185,,response,,,100,,,,,,Space,keypress(Space),,,,,-- --- ---- --- ------ ----- ------- ---- -- --- ------- --<br>------- ---------- ------ -- ----- -- ----- -- ---- ------<br>--- ----- --- --- ------ -------- ----- --- ------ ----- --<br>these ----- ---------- --- --- ------ ------ ---- -- ------<br>------- --- ------ ----- --- ---- ------- -- ---- --- --<br>------- ------,127358.69999992847,127357.79999995232,126816.712,126830.79999995232,126833.382,127366.817,,33,these
screen,html.Screen,0_2_1_1_34,2021-11-19T12:35:20.970Z,,,,,,,,,,,,,,,,54,,,,,,,,,,,,,,414.9829999523208,,response,,,100,,,,,,Space,keypress(Space),,,,,-- --- ---- --- ------ ----- ------- ---- -- --- ------- --<br>------- ---------- ------ -- ----- -- ----- -- ---- ------<br>--- ----- --- --- ------ -------- ----- --- ------ ----- --<br>----- bonds ---------- --- --- ------ ------ ---- -- ------<br>------- --- ------ ----- --- ---- ------- -- ---- --- --<br>------- ------,127782.5,127781.79999995232,127350.147,127358.89999997616,127366.817,127800.252,,34,bonds
screen,html.Screen,0_2_1_1_35,2021-11-19T12:35:21.466Z,,,,,,,,,,,,,,,,54,,,,,,,,,,,,,,477.54799995232315,,response,,,100,,,,,,Space,keypress(Space),,,,,"-- --- ---- --- ------ ----- ------- ---- -- --- ------- --<br>------- ---------- ------ -- ----- -- ----- -- ---- ------<br>--- ----- --- --- ------ -------- ----- --- ------ ----- --<br>----- ----- plummeted, --- --- ------ ------ ---- -- ------<br>------- --- ------ ----- --- ---- ------- -- ---- --- --<br>------- ------",128278.5,128277.79999995232,127783.582,127782.79999995232,127800.252,128283.73,,35,"plummeted,"
screen,html.Screen,0_2_1_1_36,2021-11-19T12:35:21.907Z,,,,,,,,,,,,,,,,54,,,,,,,,,,,,,,434.37000002384593,,response,,,100,,,,,,Space,keypress(Space),,,,,-- --- ---- --- ------ ----- ------- ---- -- --- ------- --<br>------- ---------- ------ -- ----- -- ----- -- ---- ------<br>--- ----- --- --- ------ -------- ----- --- ------ ----- --<br>----- ----- ---------- and --- ------ ------ ---- -- ------<br>------- --- ------ ----- --- ---- ------- -- ---- --- --<br>------- ------,128718.89999997616,128718.10000002384,128267.06,128278.69999992847,128283.73,128733.799,,36,and
screen,html.Screen,0_2_1_1_37,2021-11-19T12:35:22.435Z,,,,,,,,,,,,,,,,54,,,,,,,,,,,,,,512.3010000238428,,response,,,100,,,,,,Space,keypress(Space),,,,,-- --- ---- --- ------ ----- ------- ---- -- --- ------- --<br>------- ---------- ------ -- ----- -- ----- -- ---- ------<br>--- ----- --- --- ------ -------- ----- --- ------ ----- --<br>----- ----- ---------- --- the ------ ------ ---- -- ------<br>------- --- ------ ----- --- ---- ------- -- ---- --- --<br>------- ------,129246.79999995232,129246.10000002384,128717.129,128719,128733.799,129250.621,,37,the
screen,html.Screen,0_2_1_1_38,2021-11-19T12:35:23.330Z,,,,,,,,,,,,,,,,54,,,,,,,,,,,,,,890.9790000238427,,response,,,100,,,,,,Space,keypress(Space),,,,,-- --- ---- --- ------ ----- ------- ---- -- --- ------- --<br>------- ---------- ------ -- ----- -- ----- -- ---- ------<br>--- ----- --- --- ------ -------- ----- --- ------ ----- --<br>----- ----- ---------- --- --- market ------ ---- -- ------<br>------- --- ------ ----- --- ---- ------- -- ---- --- --<br>------- ------,130142.39999997616,130141.60000002384,129233.951,129247.10000002384,129250.621,130150.7,,38,market
screen,html.Screen,0_2_1_1_39,2021-11-19T12:35:23.850Z,,,,,,,,,,,,,,,,54,,,,,,,,,,,,,,510.90000002384477,,response,,,100,,,,,,Space,keypress(Space),,,,,-- --- ---- --- ------ ----- ------- ---- -- --- ------- --<br>------- ---------- ------ -- ----- -- ----- -- ---- ------<br>--- ----- --- --- ------ -------- ----- --- ------ ----- --<br>----- ----- ---------- --- --- ------ became ---- -- ------<br>------- --- ------ ----- --- ---- ------- -- ---- --- --<br>------- ------,130662.39999997616,130661.60000002384,130134.031,130142.60000002384,130150.7,130667.706,,39,became
screen,html.Screen,0_2_1_1_40,2021-11-19T12:35:24.602Z,,,,,,,,,,,,,,,,54,,,,,,,,,,,,,,745.7939999999944,,response,,,100,,,,,,Space,keypress(Space),,,,,-- --- ---- --- ------ ----- ------- ---- -- --- ------- --<br>------- ---------- ------ -- ----- -- ----- -- ---- ------<br>--- ----- --- --- ------ -------- ----- --- ------ ----- --<br>----- ----- ---------- --- --- ------ ------ wary -- ------<br>------- --- ------ ----- --- ---- ------- -- ---- --- --<br>------- ------,131414.29999995232,131413.5,130651.035,130662.60000002384,130667.706,131417.807,,40,wary
screen,html.Screen,0_2_1_1_41,2021-11-19T12:35:25.002Z,,,,,,,,,,,,,,,,54,,,,,,,,,,,,,,395.59299997615744,,response,,,100,,,,,,Space,keypress(Space),,,,,-- --- ---- --- ------ ----- ------- ---- -- --- ------- --<br>------- ---------- ------ -- ----- -- ----- -- ---- ------<br>--- ----- --- --- ------ -------- ----- --- ------ ----- --<br>----- ----- ---------- --- --- ------ ------ ---- of ------<br>------- --- ------ ----- --- ---- ------- -- ---- --- --<br>------- ------,131814.29999995232,131813.39999997616,131401.137,131414.5,131417.807,131817.901,,41,of
screen,html.Screen,0_2_1_1_42,2021-11-19T12:35:25.522Z,,,,,,,,,,,,,,,,54,,,,,,,,,,,,,,515.4989999761456,,response,,,100,,,,,,Space,keypress(Space),,,,,-- --- ---- --- ------ ----- ------- ---- -- --- ------- --<br>------- ---------- ------ -- ----- -- ----- -- ---- ------<br>--- ----- --- --- ------ -------- ----- --- ------ ----- --<br>----- ----- ---------- --- --- ------ ------ ---- -- French<br>------- --- ------ ----- --- ---- ------- -- ---- --- --<br>------- ------,132334.29999995232,132333.39999997616,131801.231,131814.5,131817.901,132351.357,,42,French
screen,html.Screen,0_2_1_1_43,2021-11-19T12:35:26.370Z,,,,,,,,,,,,,,,,54,,,,,,,,,,,,,,830.1430000000109,,response,,,100,,,,,,Space,keypress(Space),,,,,-- --- ---- --- ------ ----- ------- ---- -- --- ------- --<br>------- ---------- ------ -- ----- -- ----- -- ---- ------<br>--- ----- --- --- ------ -------- ----- --- ------ ----- --<br>----- ----- ---------- --- --- ------ ------ ---- -- ------<br>credit. --- ------ ----- --- ---- ------- -- ---- --- --<br>------- ------,133182.19999992847,133181.5,132334.687,132334.39999997616,132351.357,133184.9,,43,credit.
screen,html.Screen,0_2_1_1_44,2021-11-19T12:35:27.482Z,,,,,,,,,,,,,,,,54,,,,,,,,,,,,,,1108.499999976164,,response,,,100,,,,,,Space,keypress(Space),,,,,-- --- ---- --- ------ ----- ------- ---- -- --- ------- --<br>------- ---------- ------ -- ----- -- ----- -- ---- ------<br>--- ----- --- --- ------ -------- ----- --- ------ ----- --<br>----- ----- ---------- --- --- ------ ------ ---- -- ------<br>------- The ------ ----- --- ---- ------- -- ---- --- --<br>------- ------,134294.19999992847,134293.39999997616,133168.23,133182.5,133184.9,134301.773,,44,The
screen,html.Screen,0_2_1_1_45,2021-11-19T12:35:27.898Z,,,,,,,,,,,,,,,,54,,,,,,,,,,,,,,407.5269999523298,,response,,,100,,,,,,Space,keypress(Space),,,,,-- --- ---- --- ------ ----- ------- ---- -- --- ------- --<br>------- ---------- ------ -- ----- -- ----- -- ---- ------<br>--- ----- --- --- ------ -------- ----- --- ------ ----- --<br>----- ----- ---------- --- --- ------ ------ ---- -- ------<br>------- --- French ----- --- ---- ------- -- ---- --- --<br>------- ------,134710.19999992847,134709.29999995232,134285.103,134294.39999997616,134301.773,134718.606,,45,French
screen,html.Screen,0_2_1_1_46,2021-11-19T12:35:28.338Z,,,,,,,,,,,,,,,,54,,,,,,,,,,,,,,430.7939999761584,,response,,,100,,,,,,Space,keypress(Space),,,,,-- --- ---- --- ------ ----- ------- ---- -- --- ------- --<br>------- ---------- ------ -- ----- -- ----- -- ---- ------<br>--- ----- --- --- ------ -------- ----- --- ------ ----- --<br>----- ----- ---------- --- --- ------ ------ ---- -- ------<br>------- --- ------ state --- ---- ------- -- ---- --- --<br>------- ------,135150.10000002384,135149.39999997616,134701.936,134710.39999997616,134718.606,135152.05,,46,state
screen,html.Screen,0_2_1_1_47,2021-11-19T12:35:28.746Z,,,,,,,,,,,,,,,,54,,,,,,,,,,,,,,405.14999992848607,,response,,,100,,,,,,Space,keypress(Space),,,,,-- --- ---- --- ------ ----- ------- ---- -- --- ------- --<br>------- ---------- ------ -- ----- -- ----- -- ---- ------<br>--- ----- --- --- ------ -------- ----- --- ------ ----- --<br>----- ----- ---------- --- --- ------ ------ ---- -- ------<br>------- --- ------ ----- was ---- ------- -- ---- --- --<br>------- ------,135558.10000002384,135557.19999992847,135135.38,135150.39999997616,135152.05,135568.685,,47,was
screen,html.Screen,0_2_1_1_48,2021-11-19T12:35:29.178Z,,,,,,,,,,,,,,,,54,,,,,,,,,,,,,,420.51499992847675,,response,,,100,,,,,,Space,keypress(Space),,,,,-- --- ---- --- ------ ----- ------- ---- -- --- ------- --<br>------- ---------- ------ -- ----- -- ----- -- ---- ------<br>--- ----- --- --- ------ -------- ----- --- ------ ----- --<br>----- ----- ---------- --- --- ------ ------ ---- -- ------<br>------- --- ------ ----- --- left ------- -- ---- --- --<br>------- ------,135990,135989.19999992847,135552.017,135558.29999995232,135568.685,136002.34,,48,left
screen,html.Screen,0_2_1_1_49,2021-11-19T12:35:29.602Z,,,,,,,,,,,,,,,,54,,,,,,,,,,,,,,410.8599999284779,,response,,,100,,,,,,Space,keypress(Space),,,,,-- --- ---- --- ------ ----- ------- ---- -- --- ------- --<br>------- ---------- ------ -- ----- -- ----- -- ---- ------<br>--- ----- --- --- ------ -------- ----- --- ------ ----- --<br>----- ----- ---------- --- --- ------ ------ ---- -- ------<br>------- --- ------ ----- --- ---- without -- ---- --- --<br>------- ------,136414.10000002384,136413.19999992847,135985.668,135990.29999995232,136002.34,136419.04,,49,without
screen,html.Screen,0_2_1_1_50,2021-11-19T12:35:30.010Z,,,,,,,,,,,,,,,,54,,,,,,,,,,,,,,402.1599999284663,,response,,,100,,,,,,Space,keypress(Space),,,,,-- --- ---- --- ------ ----- ------- ---- -- --- ------- --<br>------- ---------- ------ -- ----- -- ----- -- ---- ------<br>--- ----- --- --- ------ -------- ----- --- ------ ----- --<br>----- ----- ---------- --- --- ------ ------ ---- -- ------<br>------- --- ------ ----- --- ---- ------- an ---- --- --<br>------- ------,136822,136821.19999992847,136402.37,136414.39999997616,136419.04,136835.702,,50,an
screen,html.Screen,0_2_1_1_51,2021-11-19T12:35:30.410Z,,,,,,,,,,,,,,,,54,,,,,,,,,,,,,,385.39800002385164,,response,,,100,,,,,,Space,keypress(Space),,,,,-- --- ---- --- ------ ----- ------- ---- -- --- ------- --<br>------- ---------- ------ -- ----- -- ----- -- ---- ------<br>--- ----- --- --- ------ -------- ----- --- ------ ----- --<br>----- ----- ---------- --- --- ------ ------ ---- -- ------<br>------- --- ------ ----- --- ---- ------- -- easy --- --<br>------- ------,137222,137221.10000002384,136819.033,136822.10000002384,136835.702,137235.98,,51,easy
screen,html.Screen,0_2_1_1_52,2021-11-19T12:35:30.850Z,,,,,,,,,,,,,,,,54,,,,,,,,,,,,,,425.1200000238314,,response,,,100,,,,,,Space,keypress(Space),,,,,-- --- ---- --- ------ ----- ------- ---- -- --- ------- --<br>------- ---------- ------ -- ----- -- ----- -- ---- ------<br>--- ----- --- --- ------ -------- ----- --- ------ ----- --<br>----- ----- ---------- --- --- ------ ------ ---- -- ------<br>------- --- ------ ----- --- ---- ------- -- ---- way --<br>------- ------,137662,137661.10000002384,137219.308,137222.19999992847,137235.98,137669.309,,52,way
screen,html.Screen,0_2_1_1_53,2021-11-19T12:35:31.346Z,,,,,,,,,,,,,,,,54,,,,,,,,,,,,,,487.7910000238335,,response,,,100,,,,,,Space,keypress(Space),,,,,-- --- ---- --- ------ ----- ------- ---- -- --- ------- --<br>------- ---------- ------ -- ----- -- ----- -- ---- ------<br>--- ----- --- --- ------ -------- ----- --- ------ ----- --<br>----- ----- ---------- --- --- ------ ------ ---- -- ------<br>------- --- ------ ----- --- ---- ------- -- ---- --- of<br>------- ------,138157.89999997616,138157.10000002384,137652.639,137662.19999992847,137669.309,138169.454,,53,of
screen,html.Screen,0_2_1_1_54,2021-11-19T12:35:31.842Z,,,,,,,,,,,,,,,,54,,,,,,,,,,,,,,483.64600002384395,,response,,,100,,,,,,Space,keypress(Space),,,,,-- --- ---- --- ------ ----- ------- ---- -- --- ------- --<br>------- ---------- ------ -- ----- -- ----- -- ---- ------<br>--- ----- --- --- ------ -------- ----- --- ------ ----- --<br>----- ----- ---------- --- --- ------ ------ ---- -- ------<br>------- --- ------ ----- --- ---- ------- -- ---- --- --<br>raising ------,138653.79999995232,138653.10000002384,138152.784,138158.10000002384,138169.454,138669.567,,54,raising
screen,html.Screen,0_2_1_1_55,2021-11-19T12:35:32.442Z,,,,,,,,,,,,,,,,54,,,,,,,,,,,,,,583.8329999761481,,response,,,100,,,,,,Space,keypress(Space),,,,,-- --- ---- --- ------ ----- ------- ---- -- --- ------- --<br>------- ---------- ------ -- ----- -- ----- -- ---- ------<br>--- ----- --- --- ------ -------- ----- --- ------ ----- --<br>----- ----- ---------- --- --- ------ ------ ---- -- ------<br>------- --- ------ ----- --- ---- ------- -- ---- --- --<br>------- money.,139254.19999992847,139253.39999997616,138652.897,138654.19999992847,138669.567,139269.589,,55,money.
Item 100,flow.Loop,0_2_1_1,2021-11-19T12:35:32.443Z,,,,,,,,,,,,,,,,,,,,,,,,,,,,,,32641.720999976154,,completion,,,,B,,,,,,,,,,silence,,139254.60000002384,139253.39999997616,106595.009,106596.79999995232,106611.679,139269.589,,,
Question 1,html.Screen,0_2_1_2,2021-11-19T12:35:35.770Z,,,,,,,,,,,,,,,,,,,,,,,,,,,true,TRUE,,3311.0110000238346,,response,,,100,B,,,,,TRUE,click #choice-1,,,,silence,,142581.89999997616,142580.60000002384,139252.92,139254.69999992847,139269.589,142587.197,,,
Question 2,html.Screen,0_2_1_3,2021-11-19T12:35:38.865Z,,,,,,,,,,,,,,,,,,,,,,,,,,,true,FALSE,,3089.1029999523307,,response,,,100,B,,,,,FALSE,click #choice-2,,,,silence,,145677.5,145676.29999995232,142570.527,142582.10000002384,142587.197,145687.957,,,
Item 100,flow.Sequence,0_2_1,2021-11-19T12:35:38.866Z,,,,,,,,,,,,,,,,,,,,,,,,,,,,,,49067.14499995232,,completion,,,,,,,,,,,,,,,,145677.89999997616,145676.29999995232,96592.489,96593.69999992847,96609.155,145687.957,,,
End of Practice,html.Page,0_2_2,2021-11-19T12:35:43.986Z,,,,,,,,,,,,,,,,,,,,,,,,,,,,,,5109.842999952321,,form submission,,,,,,,,,,,,,,,,150798.39999997616,150797.79999995232,145671.287,145678.10000002384,145687.957,150805.756,,,
Practice,flow.Sequence,0_2,2021-11-19T12:35:43.987Z,,,,,,,,,,,,,,,,,,,,,,,,,,,,,,107251.35599995231,,completion,,,,,,,,,,,,,,,,150798.79999995232,150797.79999995232,43529.774,43533.60000002384,43546.444,150805.756,,,
Trap_instruction,html.Page,0_3_0,2021-11-19T12:35:48.866Z,,,,,,,,,,,,,,,,,,,,,,,,,,,,,,4871.4439999284805,,form submission,,,,,,,,,,,,,,,,155677.89999997616,155677.19999992847,150789.086,150799.19999992847,150805.756,155706.782,,,
trap_trial,html.Screen,0_3_1,2021-11-19T12:35:53.128Z,,,,,,,,,,,,,,,,,,,,,,,,,,,true,1,,4232.51799995231,,response,,,,,,,,,1,click #choice-1,,,,,,159940.60000002384,159939.29999995232,155673.442,155678.19999992847,155706.782,159941.191,,,
end of trap trial,html.Page,0_3_2,2021-11-19T12:35:56.169Z,,,,,,,,,,,,,,,,,,,,,,,,,,,,,,3039.6089999523247,,form submission,,,,,,,,,,,,,,,,162981.39999997616,162980.79999995232,159924.521,159940.89999997616,159941.191,162994.724,,,
Trap 1,flow.Sequence,0_3,2021-11-19T12:35:56.170Z,,,,,,,,,,,,,,,,,,,,,,,,,,,,,,12175.043999952322,,completion,,,,,,,,,,,,,,,,162981.89999997616,162980.79999995232,150789.086,150799.10000002384,150805.756,162994.724,,,
Standby,html.Page,0_4_0,2021-11-19T12:36:04.167Z,,,,,,,,,,,,,,,,,,,,,,,,,,,,,,7999.062000000005,,timeout,,,,,,,,,,,,,,,,170978.79999995232,170977.116,162978.015,162982.10000002384,162994.724,170993.786,,,
Holding screen,html.Screen,0_4_1_0_0,2021-11-19T12:36:11.168Z,,,,,,,,,,,,,,,,,,,,,,,,,,,,,,7001.956999999995,,timeout,,,,,,,,,,,,,,,,177980.39999997616,177979.073,170977.116,170979.29999995232,170993.786,177995.743,,,
screen,html.Screen,0_4_1_0_1_0,2021-11-19T12:36:12.160Z,,,,,,,,,,,,,,,,51,,,,,,,,,,,,,,974.9569999284868,,response,,,13,B,,,,,Space,keypress(Space),,,,lyrical,American -------- --- --- ---- --- --- ------ -- --------<br>---- --------- --- ------- ------------ ---------- ---------<br>--- ---------- ------- ---------- ------- -- -------- ----<br>---- --- ------ ----- ------ -- ---- --- ----- -- - -------<br>-------- -- --- --- -- ----- ----------- ----- -----------<br>---- --- ---------- --- ---- --- -- ----------,178971.60000002384,178970.69999992847,177979.073,177980.79999995232,177995.743,178979.146,,0,American
screen,html.Screen,0_4_1_0_1_1,2021-11-19T12:36:12.903Z,,,,,,,,,,,,,,,,51,,,,,,,,,,,,,,734.9540000238339,,response,,,13,B,,,,,Space,keypress(Space),,,,lyrical,-------- industry --- --- ---- --- --- ------ -- --------<br>---- --------- --- ------- ------------ ---------- ---------<br>--- ---------- ------- ---------- ------- -- -------- ----<br>---- --- ------ ----- ------ -- ---- --- ----- -- - -------<br>-------- -- --- --- -- ----- ----------- ----- -----------<br>---- --- ---------- --- ---- --- -- ----------,179715.10000002384,179714.10000002384,178962.477,178972,178979.146,179729.587,,1,industry
screen,html.Screen,0_4_1_0_1_2,2021-11-19T12:36:13.479Z,,,,,,,,,,,,,,,,51,,,,,,,,,,,,,,560.5130000238423,,response,,,13,B,,,,,Space,keypress(Space),,,,lyrical,-------- -------- may --- ---- --- --- ------ -- --------<br>---- --------- --- ------- ------------ ---------- ---------<br>--- ---------- ------- ---------- ------- -- -------- ----<br>---- --- ------ ----- ------ -- ---- --- ----- -- - -------<br>-------- -- --- --- -- ----- ----------- ----- -----------<br>---- --- ---------- --- ---- --- -- ----------,180291,180290.10000002384,179712.916,179715.39999997616,179729.587,180296.289,,2,may
screen,html.Screen,0_4_1_0_1_3,2021-11-19T12:36:13.891Z,,,,,,,,,,,,,,,,51,,,,,,,,,,,,,,409.8110000238521,,response,,,13,B,,,,,Space,keypress(Space),,,,lyrical,-------- -------- --- not ---- --- --- ------ -- --------<br>---- --------- --- ------- ------------ ---------- ---------<br>--- ---------- ------- ---------- ------- -- -------- ----<br>---- --- ------ ----- ------ -- ---- --- ----- -- - -------<br>-------- -- --- --- -- ----- ----------- ----- -----------<br>---- --- ---------- --- ---- --- -- ----------,180706.89999997616,180706.10000002384,180279.619,180291.29999995232,180296.289,180713.174,,3,not
screen,html.Screen,0_4_1_0_1_4,2021-11-19T12:36:14.283Z,,,,,,,,,,,,,,,,51,,,,,,,,,,,,,,384.9260000238428,,response,,,13,B,,,,,Space,keypress(Space),,,,lyrical,-------- -------- --- --- know --- --- ------ -- --------<br>---- --------- --- ------- ------------ ---------- ---------<br>--- ---------- ------- ---------- ------- -- -------- ----<br>---- --- ------ ----- ------ -- ---- --- ----- -- - -------<br>-------- -- --- --- -- ----- ----------- ----- -----------<br>---- --- ---------- --- ---- --- -- ----------,181098.89999997616,181098.10000002384,180696.503,180707.19999992847,180713.174,181113.215,,4,know
screen,html.Screen,0_4_1_0_1_5,2021-11-19T12:36:14.659Z,,,,,,,,,,,,,,,,51,,,,,,,,,,,,,,360.7850000000035,,response,,,13,B,,,,,Space,keypress(Space),,,,lyrical,"-------- -------- --- --- ---- it, --- ------ -- --------<br>---- --------- --- ------- ------------ ---------- ---------<br>--- ---------- ------- ---------- ------- -- -------- ----<br>---- --- ------ ----- ------ -- ---- --- ----- -- - -------<br>-------- -- --- --- -- ----- ----------- ----- -----------<br>---- --- ---------- --- ---- --- -- ----------",181474.79999995232,181474,181096.545,181099.19999992847,181113.215,181479.943,,5,"it,"
screen,html.Screen,0_4_1_0_1_6,2021-11-19T12:36:15.515Z,,,,,,,,,,,,,,,,51,,,,,,,,,,,,,,850.1570000238426,,response,,,13,B,,,,,Space,keypress(Space),,,,lyrical,-------- -------- --- --- ---- --- but ------ -- --------<br>---- --------- --- ------- ------------ ---------- ---------<br>--- ---------- ------- ---------- ------- -- -------- ----<br>---- --- ------ ----- ------ -- ---- --- ----- -- - -------<br>-------- -- --- --- -- ----- ----------- ----- -----------<br>---- --- ---------- --- ---- --- -- ----------,182330.79999995232,182330.10000002384,181463.273,181475.10000002384,181479.943,182346.916,,6,but
screen,html.Screen,0_4_1_0_1_7,2021-11-19T12:36:16.155Z,,,,,,,,,,,,,,,,51,,,,,,,,,,,,,,623.283999928477,,response,,,13,B,,,,,Space,keypress(Space),,,,lyrical,-------- -------- --- --- ---- --- --- debate -- --------<br>---- --------- --- ------- ------------ ---------- ---------<br>--- ---------- ------- ---------- ------- -- -------- ----<br>---- --- ------ ----- ------ -- ---- --- ----- -- - -------<br>-------- -- --- --- -- ----- ----------- ----- -----------<br>---- --- ---------- --- ---- --- -- ----------,182971,182970.19999992847,182330.245,182331.19999992847,182346.916,182980.105,,7,debate
screen,html.Screen,0_4_1_0_1_8,2021-11-19T12:36:16.619Z,,,,,,,,,,,,,,,,51,,,,,,,,,,,,,,453.79499997614766,,response,,,13,B,,,,,Space,keypress(Space),,,,lyrical,-------- -------- --- --- ---- --- --- ------ in --------<br>---- --------- --- ------- ------------ ---------- ---------<br>--- ---------- ------- ---------- ------- -- -------- ----<br>---- --- ------ ----- ------ -- ---- --- ----- -- - -------<br>-------- -- --- --- -- ----- ----------- ----- -----------<br>---- --- ---------- --- ---- --- -- ----------,183434.69999992847,183433.89999997616,182963.437,182971.29999995232,182980.105,183447.072,,8,in
screen,html.Screen,0_4_1_0_1_9,2021-11-19T12:36:17.091Z,,,,,,,,,,,,,,,,51,,,,,,,,,,,,,,458.8279999761726,,response,,,13,B,,,,,Space,keypress(Space),,,,lyrical,-------- -------- --- --- ---- --- --- ------ -- Congress<br>---- --------- --- ------- ------------ ---------- ---------<br>--- ---------- ------- ---------- ------- -- -------- ----<br>---- --- ------ ----- ------ -- ---- --- ----- -- - -------<br>-------- -- --- --- -- ----- ----------- ----- -----------<br>---- --- ---------- --- ---- --- -- ----------,183906.69999992847,183905.89999997616,183430.402,183434.89999997616,183447.072,183913.954,,9,Congress
screen,html.Screen,0_4_1_0_1_10,2021-11-19T12:36:17.803Z,,,,,,,,,,,,,,,,51,,,,,,,,,,,,,,703.9459999761602,,response,,,13,B,,,,,Space,keypress(Space),,,,lyrical,-------- -------- --- --- ---- --- --- ------ -- --------<br>over --------- --- ------- ------------ ---------- ---------<br>--- ---------- ------- ---------- ------- -- -------- ----<br>---- --- ------ ----- ------ -- ---- --- ----- -- - -------<br>-------- -- --- --- -- ----- ----------- ----- -----------<br>---- --- ---------- --- ---- --- -- ----------,184618.69999992847,184617.89999997616,183897.283,183906.89999997616,183913.954,184630.6,,10,over
screen,html.Screen,0_4_1_0_1_11,2021-11-19T12:36:18.259Z,,,,,,,,,,,,,,,,51,,,,,,,,,,,,,,443.0999999284686,,response,,,13,B,,,,,Space,keypress(Space),,,,lyrical,-------- -------- --- --- ---- --- --- ------ -- --------<br>---- reforming --- ------- ------------ ---------- ---------<br>--- ---------- ------- ---------- ------- -- -------- ----<br>---- --- ------ ----- ------ -- ---- --- ----- -- - -------<br>-------- -- --- --- -- ----- ----------- ----- -----------<br>---- --- ---------- --- ---- --- -- ----------,185074.5,185073.69999992847,184613.931,184618.79999995232,184630.6,185080.91,,11,reforming
screen,html.Screen,0_4_1_0_1_12,2021-11-19T12:36:18.795Z,,,,,,,,,,,,,,,,51,,,,,,,,,,,,,,528.8899999523128,,response,,,13,B,,,,,Space,keypress(Space),,,,lyrical,-------- -------- --- --- ---- --- --- ------ -- --------<br>---- --------- the ------- ------------ ---------- ---------<br>--- ---------- ------- ---------- ------- -- -------- ----<br>---- --- ------ ----- ------ -- ---- --- ----- -- - -------<br>-------- -- --- --- -- ----- ----------- ----- -----------<br>---- --- ---------- --- ---- --- -- ----------,185610.5,185609.79999995232,185064.239,185074.79999995232,185080.91,185614.316,,12,the
screen,html.Screen,0_4_1_0_1_13,2021-11-19T12:36:19.403Z,,,,,,,,,,,,,,,,51,,,,,,,,,,,,,,603.2840000238502,,response,,,13,B,,,,,Space,keypress(Space),,,,lyrical,-------- -------- --- --- ---- --- --- ------ -- --------<br>---- --------- --- federal ------------ ---------- ---------<br>--- ---------- ------- ---------- ------- -- -------- ----<br>---- --- ------ ----- ------ -- ---- --- ----- -- - -------<br>-------- -- --- --- -- ----- ----------- ----- -----------<br>---- --- ---------- --- ---- --- -- ----------,186218.39999997616,186217.60000002384,185597.646,185610.79999995232,185614.316,186230.949,,13,federal
screen,html.Screen,0_4_1_0_1_14,2021-11-19T12:36:19.811Z,,,,,,,,,,,,,,,,51,,,,,,,,,,,,,,394.85099995232304,,response,,,13,B,,,,,Space,keypress(Space),,,,lyrical,-------- -------- --- --- ---- --- --- ------ -- --------<br>---- --------- --- ------- government's ---------- ---------<br>--- ---------- ------- ---------- ------- -- -------- ----<br>---- --- ------ ----- ------ -- ---- --- ----- -- - -------<br>-------- -- --- --- -- ----- ----------- ----- -----------<br>---- --- ---------- --- ---- --- -- ----------,186626.5,186625.79999995232,186214.281,186218.60000002384,186230.949,186631.288,,14,government's
screen,html.Screen,0_4_1_0_1_15,2021-11-19T12:36:20.347Z,,,,,,,,,,,,,,,,51,,,,,,,,,,,,,,530.411999928474,,response,,,13,B,,,,,Space,keypress(Space),,,,lyrical,-------- -------- --- --- ---- --- --- ------ -- --------<br>---- --------- --- ------- ------------ regulatory ---------<br>--- ---------- ------- ---------- ------- -- -------- ----<br>---- --- ------ ----- ------ -- ---- --- ----- -- - -------<br>-------- -- --- --- -- ----- ----------- ----- -----------<br>---- --- ---------- --- ---- --- -- ----------,187162.60000002384,187161.69999992847,186614.617,186626.79999995232,186631.288,187164.698,,15,regulatory
screen,html.Screen,0_4_1_0_1_16,2021-11-19T12:36:20.867Z,,,,,,,,,,,,,,,,51,,,,,,,,,,,,,,517.0019999284705,,response,,,13,B,,,,,Space,keypress(Space),,,,lyrical,-------- -------- --- --- ---- --- --- ------ -- --------<br>---- --------- --- ------- ------------ ---------- apparatus<br>--- ---------- ------- ---------- ------- -- -------- ----<br>---- --- ------ ----- ------ -- ---- --- ----- -- - -------<br>-------- -- --- --- -- ----- ----------- ----- -----------<br>---- --- ---------- --- ---- --- -- ----------,187682.5,187681.69999992847,187148.028,187162.79999995232,187164.698,187698.138,,16,apparatus
screen,html.Screen,0_4_1_0_1_17,2021-11-19T12:36:21.595Z,,,,,,,,,,,,,,,,51,,,,,,,,,,,,,,711.4620000238356,,response,,,13,B,,,,,Space,keypress(Space),,,,lyrical,-------- -------- --- --- ---- --- --- ------ -- --------<br>---- --------- --- ------- ------------ ---------- ---------<br>may ---------- ------- ---------- ------- -- -------- ----<br>---- --- ------ ----- ------ -- ---- --- ----- -- - -------<br>-------- -- --- --- -- ----- ----------- ----- -----------<br>---- --- ---------- --- ---- --- -- ----------,188410.39999997616,188409.60000002384,187681.468,187682.69999992847,187698.138,188414.948,,17,may
screen,html.Screen,0_4_1_0_1_18,2021-11-19T12:36:22.083Z,,,,,,,,,,,,,,,,51,,,,,,,,,,,,,,482.55199999999604,,response,,,13,B,,,,,Space,keypress(Space),,,,lyrical,-------- -------- --- --- ---- --- --- ------ -- --------<br>---- --------- --- ------- ------------ ---------- ---------<br>--- profoundly ------- ---------- ------- -- -------- ----<br>---- --- ------ ----- ------ -- ---- --- ----- -- - -------<br>-------- -- --- --- -- ----- ----------- ----- -----------<br>---- --- ---------- --- ---- --- -- ----------,188898.39999997616,188897.5,188398.278,188410.5,188414.948,188915.12,,18,profoundly
screen,html.Screen,0_4_1_0_1_19,2021-11-19T12:36:22.659Z,,,,,,,,,,,,,,,,51,,,,,,,,,,,,,,558.5799999284791,,response,,,13,B,,,,,Space,keypress(Space),,,,lyrical,-------- -------- --- --- ---- --- --- ------ -- --------<br>---- --------- --- ------- ------------ ---------- ---------<br>--- ---------- improve ---------- ------- -- -------- ----<br>---- --- ------ ----- ------ -- ---- --- ----- -- - -------<br>-------- -- --- --- -- ----- ----------- ----- -----------<br>---- --- ---------- --- ---- --- -- ----------,189474.5,189473.69999992847,188898.45,188898.60000002384,188915.12,189481.917,,19,improve
screen,html.Screen,0_4_1_0_1_20,2021-11-19T12:36:23.331Z,,,,,,,,,,,,,,,,51,,,,,,,,,,,,,,663.4829999761714,,response,,,13,B,,,,,Space,keypress(Space),,,,lyrical,-------- -------- --- --- ---- --- --- ------ -- --------<br>---- --------- --- ------- ------------ ---------- ---------<br>--- ---------- ------- companies' ------- -- -------- ----<br>---- --- ------ ----- ------ -- ---- --- ----- -- - -------<br>-------- -- --- --- -- ----- ----------- ----- -----------<br>---- --- ---------- --- ---- --- -- ----------,190146.29999995232,190145.39999997616,189465.247,189474.69999992847,189481.917,190148.613,,20,companies'
screen,html.Screen,0_4_1_0_1_21,2021-11-19T12:36:24.498Z,,,,,,,,,,,,,,,,51,,,,,,,,,,,,,,1164.786999976146,,response,,,13,B,,,,,Space,keypress(Space),,,,lyrical,-------- -------- --- --- ---- --- --- ------ -- --------<br>---- --------- --- ------- ------------ ---------- ---------<br>--- ---------- ------- ---------- ability -- -------- ----<br>---- --- ------ ----- ------ -- ---- --- ----- -- - -------<br>-------- -- --- --- -- ----- ----------- ----- -----------<br>---- --- ---------- --- ---- --- -- ----------,191314.19999992847,191313.39999997616,190131.944,190146.5,190148.613,191315.762,,21,ability
screen,html.Screen,0_4_1_0_1_22,2021-11-19T12:36:25.242Z,,,,,,,,,,,,,,,,51,,,,,,,,,,,,,,741.5379999523284,,response,,,13,B,,,,,Space,keypress(Space),,,,lyrical,-------- -------- --- --- ---- --- --- ------ -- --------<br>---- --------- --- ------- ------------ ---------- ---------<br>--- ---------- ------- ---------- ------- to -------- ----<br>---- --- ------ ----- ------ -- ---- --- ----- -- - -------<br>-------- -- --- --- -- ----- ----------- ----- -----------<br>---- --- ---------- --- ---- --- -- ----------,192058.10000002384,192057.29999995232,191299.091,191314.39999997616,191315.762,192065.719,,22,to
screen,html.Screen,0_4_1_0_1_23,2021-11-19T12:36:26.058Z,,,,,,,,,,,,,,,,51,,,,,,,,,,,,,,807.4809999284626,,response,,,13,B,,,,,Space,keypress(Space),,,,lyrical,-------- -------- --- --- ---- --- --- ------ -- --------<br>---- --------- --- ------- ------------ ---------- ---------<br>--- ---------- ------- ---------- ------- -- survive. ----<br>---- --- ------ ----- ------ -- ---- --- ----- -- - -------<br>-------- -- --- --- -- ----- ----------- ----- -----------<br>---- --- ---------- --- ---- --- -- ----------,192874,192873.19999992847,192049.05,192058.29999995232,192065.719,192882.733,,23,survive.
screen,html.Screen,0_4_1_0_1_24,2021-11-19T12:36:26.962Z,,,,,,,,,,,,,,,,51,,,,,,,,,,,,,,894.466999928467,,response,,,13,B,,,,,Space,keypress(Space),,,,lyrical,-------- -------- --- --- ---- --- --- ------ -- --------<br>---- --------- --- ------- ------------ ---------- ---------<br>--- ---------- ------- ---------- ------- -- -------- This<br>---- --- ------ ----- ------ -- ---- --- ----- -- - -------<br>-------- -- --- --- -- ----- ----------- ----- -----------<br>---- --- ---------- --- ---- --- -- ----------,193778,193777.19999992847,192866.063,192874.29999995232,192882.733,193782.939,,24,This
screen,html.Screen,0_4_1_0_1_25,2021-11-19T12:36:27.410Z,,,,,,,,,,,,,,,,51,,,,,,,,,,,,,,442.1610000238288,,response,,,13,B,,,,,Space,keypress(Space),,,,lyrical,-------- -------- --- --- ---- --- --- ------ -- --------<br>---- --------- --- ------- ------------ ---------- ---------<br>--- ---------- ------- ---------- ------- -- -------- ----<br>week --- ------ ----- ------ -- ---- --- ----- -- - -------<br>-------- -- --- --- -- ----- ----------- ----- -----------<br>---- --- ---------- --- ---- --- -- ----------,194225.89999997616,194225.10000002384,193766.269,193778.19999992847,193782.939,194233.066,,25,week
screen,html.Screen,0_4_1_0_1_26,2021-11-19T12:36:27.858Z,,,,,,,,,,,,,,,,51,,,,,,,,,,,,,,440.03400002385024,,response,,,13,B,,,,,Space,keypress(Space),,,,lyrical,-------- -------- --- --- ---- --- --- ------ -- --------<br>---- --------- --- ------- ------------ ---------- ---------<br>--- ---------- ------- ---------- ------- -- -------- ----<br>---- the ------ ----- ------ -- ---- --- ----- -- - -------<br>-------- -- --- --- -- ----- ----------- ----- -----------<br>---- --- ---------- --- ---- --- -- ----------,194674,194673.10000002384,194216.396,194226.19999992847,194233.066,194683.185,,26,the
screen,html.Screen,0_4_1_0_1_27,2021-11-19T12:36:28.618Z,,,,,,,,,,,,,,,,51,,,,,,,,,,,,,,749.8150000000023,,response,,,13,B,,,,,Space,keypress(Space),,,,lyrical,-------- -------- --- --- ---- --- --- ------ -- --------<br>---- --------- --- ------- ------------ ---------- ---------<br>--- ---------- ------- ---------- ------- -- -------- ----<br>---- --- Senate ----- ------ -- ---- --- ----- -- - -------<br>-------- -- --- --- -- ----- ----------- ----- -----------<br>---- --- ---------- --- ---- --- -- ----------,195433.79999995232,195433,194666.515,194674.19999992847,194683.185,195450.009,,27,Senate
screen,html.Screen,0_4_1_0_1_28,2021-11-19T12:36:29.098Z,,,,,,,,,,,,,,,,51,,,,,,,,,,,,,,462.8909999761672,,response,,,13,B,,,,,Space,keypress(Space),,,,lyrical,-------- -------- --- --- ---- --- --- ------ -- --------<br>---- --------- --- ------- ------------ ---------- ---------<br>--- ---------- ------- ---------- ------- -- -------- ----<br>---- --- ------ seems ------ -- ---- --- ----- -- - -------<br>-------- -- --- --- -- ----- ----------- ----- -----------<br>---- --- ---------- --- ---- --- -- ----------,195913.69999992847,195912.89999997616,195433.339,195434,195450.009,195916.826,,28,seems
screen,html.Screen,0_4_1_0_1_29,2021-11-19T12:36:29.522Z,,,,,,,,,,,,,,,,51,,,,,,,,,,,,,,420.2740000238409,,response,,,13,B,,,,,Space,keypress(Space),,,,lyrical,-------- -------- --- --- ---- --- --- ------ -- --------<br>---- --------- --- ------- ------------ ---------- ---------<br>--- ---------- ------- ---------- ------- -- -------- ----<br>---- --- ------ ----- poised -- ---- --- ----- -- - -------<br>-------- -- --- --- -- ----- ----------- ----- -----------<br>---- --- ---------- --- ---- --- -- ----------,196337.79999995232,196337.10000002384,195900.156,195913.89999997616,195916.826,196350.239,,29,poised
screen,html.Screen,0_4_1_0_1_30,2021-11-19T12:36:30.018Z,,,,,,,,,,,,,,,,51,,,,,,,,,,,,,,482.66099997615675,,response,,,13,B,,,,,Space,keypress(Space),,,,lyrical,-------- -------- --- --- ---- --- --- ------ -- --------<br>---- --------- --- ------- ------------ ---------- ---------<br>--- ---------- ------- ---------- ------- -- -------- ----<br>---- --- ------ ----- ------ to ---- --- ----- -- - -------<br>-------- -- --- --- -- ----- ----------- ----- -----------<br>---- --- ---------- --- ---- --- -- ----------,196833.79999995232,196832.89999997616,196333.569,196338.10000002384,196350.239,196850.381,,30,to
screen,html.Screen,0_4_1_0_1_31,2021-11-19T12:36:30.426Z,,,,,,,,,,,,,,,,51,,,,,,,,,,,,,,390.61900000000605,,response,,,13,B,,,,,Space,keypress(Space),,,,lyrical,-------- -------- --- --- ---- --- --- ------ -- --------<br>---- --------- --- ------- ------------ ---------- ---------<br>--- ---------- ------- ---------- ------- -- -------- ----<br>---- --- ------ ----- ------ -- join --- ----- -- - -------<br>-------- -- --- --- -- ----- ----------- ----- -----------<br>---- --- ---------- --- ---- --- -- ----------,197241.79999995232,197241,196833.711,196834,196850.381,197250.473,,31,join
screen,html.Screen,0_4_1_0_1_32,2021-11-19T12:36:30.850Z,,,,,,,,,,,,,,,,51,,,,,,,,,,,,,,414.52700000000186,,response,,,13,B,,,,,Space,keypress(Space),,,,lyrical,-------- -------- --- --- ---- --- --- ------ -- --------<br>---- --------- --- ------- ------------ ---------- ---------<br>--- ---------- ------- ---------- ------- -- -------- ----<br>---- --- ------ ----- ------ -- ---- the ----- -- - -------<br>-------- -- --- --- -- ----- ----------- ----- -----------<br>---- --- ---------- --- ---- --- -- ----------,197665.69999992847,197665,197233.803,197242,197250.473,197667.229,,32,the
screen,html.Screen,0_4_1_0_1_33,2021-11-19T12:36:31.218Z,,,,,,,,,,,,,,,,51,,,,,,,,,,,,,,365.5709999523242,,response,,,13,B,,,,,Space,keypress(Space),,,,lyrical,-------- -------- --- --- ---- --- --- ------ -- --------<br>---- --------- --- ------- ------------ ---------- ---------<br>--- ---------- ------- ---------- ------- -- -------- ----<br>---- --- ------ ----- ------ -- ---- --- House -- - -------<br>-------- -- --- --- -- ----- ----------- ----- -----------<br>---- --- ---------- --- ---- --- -- ----------,198033.60000002384,198032.79999995232,197650.559,197665.89999997616,197667.229,198050.679,,33,House
screen,html.Screen,0_4_1_0_1_34,2021-11-19T12:36:31.586Z,,,,,,,,,,,,,,,,51,,,,,,,,,,,,,,350.3209999999963,,response,,,13,B,,,,,Space,keypress(Space),,,,lyrical,-------- -------- --- --- ---- --- --- ------ -- --------<br>---- --------- --- ------- ------------ ---------- ---------<br>--- ---------- ------- ---------- ------- -- -------- ----<br>---- --- ------ ----- ------ -- ---- --- ----- in - -------<br>-------- -- --- --- -- ----- ----------- ----- -----------<br>---- --- ---------- --- ---- --- -- ----------,198401.69999992847,198401,198034.009,198033.79999995232,198050.679,198417.419,,34,in
screen,html.Screen,0_4_1_0_1_35,2021-11-19T12:36:31.994Z,,,,,,,,,,,,,,,,51,,,,,,,,,,,,,,391.48099997616373,,response,,,13,B,,,,,Space,keypress(Space),,,,lyrical,-------- -------- --- --- ---- --- --- ------ -- --------<br>---- --------- --- ------- ------------ ---------- ---------<br>--- ---------- ------- ---------- ------- -- -------- ----<br>---- --- ------ ----- ------ -- ---- --- ----- -- a -------<br>-------- -- --- --- -- ----- ----------- ----- -----------<br>---- --- ---------- --- ---- --- -- ----------,198809.60000002384,198808.89999997616,198400.749,198402,198417.419,198817.463,,35,a
screen,html.Screen,0_4_1_0_1_36,2021-11-19T12:36:32.474Z,,,,,,,,,,,,,,,,51,,,,,,,,,,,,,,471.33699995232746,,response,,,13,B,,,,,Space,keypress(Space),,,,lyrical,-------- -------- --- --- ---- --- --- ------ -- --------<br>---- --------- --- ------- ------------ ---------- ---------<br>--- ---------- ------- ---------- ------- -- -------- ----<br>---- --- ------ ----- ------ -- ---- --- ----- -- - massive<br>-------- -- --- --- -- ----- ----------- ----- -----------<br>---- --- ---------- --- ---- --- -- ----------,199289.60000002384,199288.79999995232,198800.794,198809.79999995232,198817.463,199301.01,,36,massive
screen,html.Screen,0_4_1_0_1_37,2021-11-19T12:36:32.882Z,,,,,,,,,,,,,,,,51,,,,,,,,,,,,,,396.09000002383254,,response,,,13,B,,,,,Space,keypress(Space),,,,lyrical,-------- -------- --- --- ---- --- --- ------ -- --------<br>---- --------- --- ------- ------------ ---------- ---------<br>--- ---------- ------- ---------- ------- -- -------- ----<br>---- --- ------ ----- ------ -- ---- --- ----- -- - -------<br>overhaul -- --- --- -- ----- ----------- ----- -----------<br>---- --- ---------- --- ---- --- -- ----------,199697.89999997616,199697.10000002384,199284.339,199289.79999995232,199301.01,199700.985,,37,overhaul
screen,html.Screen,0_4_1_0_1_38,2021-11-19T12:36:33.410Z,,,,,,,,,,,,,,,,51,,,,,,,,,,,,,,523.8149999523303,,response,,,13,B,,,,,Space,keypress(Space),,,,lyrical,-------- -------- --- --- ---- --- --- ------ -- --------<br>---- --------- --- ------- ------------ ---------- ---------<br>--- ---------- ------- ---------- ------- -- -------- ----<br>---- --- ------ ----- ------ -- ---- --- ----- -- - -------<br>-------- of --- --- -- ----- ----------- ----- -----------<br>---- --- ---------- --- ---- --- -- ----------,200225.5,200224.79999995232,199684.316,199698.10000002384,199700.985,200234.59,,38,of
screen,html.Screen,0_4_1_0_1_39,2021-11-19T12:36:34.234Z,,,,,,,,,,,,,,,,51,,,,,,,,,,,,,,814.1099999284779,,response,,,13,B,,,,,Space,keypress(Space),,,,lyrical,-------- -------- --- --- ---- --- --- ------ -- --------<br>---- --------- --- ------- ------------ ---------- ---------<br>--- ---------- ------- ---------- ------- -- -------- ----<br>---- --- ------ ----- ------ -- ---- --- ----- -- - -------<br>-------- -- the --- -- ----- ----------- ----- -----------<br>---- --- ---------- --- ---- --- -- ----------,201049.5,201048.69999992847,200217.919,200225.69999992847,200234.59,201051.355,,39,the
screen,html.Screen,0_4_1_0_1_40,2021-11-19T12:36:34.730Z,,,,,,,,,,,,,,,,51,,,,,,,,,,,,,,493.34499992846395,,response,,,13,B,,,,,Space,keypress(Space),,,,lyrical,-------- -------- --- --- ---- --- --- ------ -- --------<br>---- --------- --- ------- ------------ ---------- ---------<br>--- ---------- ------- ---------- ------- -- -------- ----<br>---- --- ------ ----- ------ -- ---- --- ----- -- - -------<br>-------- -- --- way -- ----- ----------- ----- -----------<br>---- --- ---------- --- ---- --- -- ----------,201545.39999997616,201544.69999992847,201034.685,201049.69999992847,201051.355,201551.387,,40,way
screen,html.Screen,0_4_1_0_1_41,2021-11-19T12:36:35.114Z,,,,,,,,,,,,,,,,51,,,,,,,,,,,,,,377.21300002385397,,response,,,13,B,,,,,Space,keypress(Space),,,,lyrical,-------- -------- --- --- ---- --- --- ------ -- --------<br>---- --------- --- ------- ------------ ---------- ---------<br>--- ---------- ------- ---------- ------- -- -------- ----<br>---- --- ------ ----- ------ -- ---- --- ----- -- - -------<br>-------- -- --- --- in ----- ----------- ----- -----------<br>---- --- ---------- --- ---- --- -- ----------,201929.39999997616,201928.60000002384,201534.718,201545.69999992847,201551.387,201934.982,,41,in
screen,html.Screen,0_4_1_0_1_42,2021-11-19T12:36:35.514Z,,,,,,,,,,,,,,,,51,,,,,,,,,,,,,,393.6180000238528,,response,,,13,B,,,,,Space,keypress(Space),,,,lyrical,-------- -------- --- --- ---- --- --- ------ -- --------<br>---- --------- --- ------- ------------ ---------- ---------<br>--- ---------- ------- ---------- ------- -- -------- ----<br>---- --- ------ ----- ------ -- ---- --- ----- -- - -------<br>-------- -- --- --- -- which ----------- ----- -----------<br>---- --- ---------- --- ---- --- -- ----------,202329.5,202328.60000002384,201918.311,201929.69999992847,201934.982,202335.056,,42,which
screen,html.Screen,0_4_1_0_1_43,2021-11-19T12:36:36.442Z,,,,,,,,,,,,,,,,51,,,,,,,,,,,,,,921.4439999999886,,response,,,13,B,,,,,Space,keypress(Space),,,,lyrical,-------- -------- --- --- ---- --- --- ------ -- --------<br>---- --------- --- ------- ------------ ---------- ---------<br>--- ---------- ------- ---------- ------- -- -------- ----<br>---- --- ------ ----- ------ -- ---- --- ----- -- - -------<br>-------- -- --- --- -- ----- bureaucrats ----- -----------<br>---- --- ---------- --- ---- --- -- ----------,203257.39999997616,203256.5,202318.386,202329.79999995232,202335.056,203268.466,,43,bureaucrats
screen,html.Screen,0_4_1_0_1_44,2021-11-19T12:36:36.826Z,,,,,,,,,,,,,,,,51,,,,,,,,,,,,,,372.13400002385606,,response,,,13,B,,,,,Space,keypress(Space),,,,lyrical,-------- -------- --- --- ---- --- --- ------ -- --------<br>---- --------- --- ------- ------------ ---------- ---------<br>--- ---------- ------- ---------- ------- -- -------- ----<br>---- --- ------ ----- ------ -- ---- --- ----- -- - -------<br>-------- -- --- --- -- ----- ----------- enact -----------<br>---- --- ---------- --- ---- --- -- ----------,203641.29999995232,203640.60000002384,203251.797,203257.60000002384,203268.466,203652.116,,44,enact
screen,html.Screen,0_4_1_0_1_45,2021-11-19T12:36:37.730Z,,,,,,,,,,,,,,,,51,,,,,,,,,,,,,,892.2839999761491,,response,,,13,B,,,,,Space,keypress(Space),,,,lyrical,-------- -------- --- --- ---- --- --- ------ -- --------<br>---- --------- --- ------- ------------ ---------- ---------<br>--- ---------- ------- ---------- ------- -- -------- ----<br>---- --- ------ ----- ------ -- ---- --- ----- -- - -------<br>-------- -- --- --- -- ----- ----------- ----- regulations<br>---- --- ---------- --- ---- --- -- ----------,204545.29999995232,204544.39999997616,203635.445,203641.60000002384,203652.116,204552.232,,45,regulations
screen,html.Screen,0_4_1_0_1_46,2021-11-19T12:36:38.346Z,,,,,,,,,,,,,,,,51,,,,,,,,,,,,,,608.1679999761691,,response,,,13,B,,,,,Space,keypress(Space),,,,lyrical,-------- -------- --- --- ---- --- --- ------ -- --------<br>---- --------- --- ------- ------------ ---------- ---------<br>--- ---------- ------- ---------- ------- -- -------- ----<br>---- --- ------ ----- ------ -- ---- --- ----- -- - -------<br>-------- -- --- --- -- ----- ----------- ----- -----------<br>that --- ---------- --- ---- --- -- ----------,205161.19999992847,205160.39999997616,204535.562,204545.5,204552.232,205169.061,,46,that
screen,html.Screen,0_4_1_0_1_47,2021-11-19T12:36:38.793Z,,,,,,,,,,,,,,,,51,,,,,,,,,,,,,,439.3389999761712,,response,,,13,B,,,,,Space,keypress(Space),,,,lyrical,-------- -------- --- --- ---- --- --- ------ -- --------<br>---- --------- --- ------- ------------ ---------- ---------<br>--- ---------- ------- ---------- ------- -- -------- ----<br>---- --- ------ ----- ------ -- ---- --- ----- -- - -------<br>-------- -- --- --- -- ----- ----------- ----- -----------<br>---- are ---------- --- ---- --- -- ----------,205609.19999992847,205608.39999997616,205152.391,205161.39999997616,205169.061,205619.177,,47,are
screen,html.Screen,0_4_1_0_1_48,2021-11-19T12:36:39.265Z,,,,,,,,,,,,,,,,51,,,,,,,,,,,,,,461.12299995232024,,response,,,13,B,,,,,Space,keypress(Space),,,,lyrical,-------- -------- --- --- ---- --- --- ------ -- --------<br>---- --------- --- ------- ------------ ---------- ---------<br>--- ---------- ------- ---------- ------- -- -------- ----<br>---- --- ------ ----- ------ -- ---- --- ----- -- - -------<br>-------- -- --- --- -- ----- ----------- ----- -----------<br>---- --- strangling --- ---- --- -- ----------,206081.19999992847,206080.29999995232,205602.507,205609.5,205619.177,206085.842,,48,strangling
screen,html.Screen,0_4_1_0_1_49,2021-11-19T12:36:39.841Z,,,,,,,,,,,,,,,,51,,,,,,,,,,,,,,570.4579999523121,,response,,,13,B,,,,,Space,keypress(Space),,,,lyrical,-------- -------- --- --- ---- --- --- ------ -- --------<br>---- --------- --- ------- ------------ ---------- ---------<br>--- ---------- ------- ---------- ------- -- -------- ----<br>---- --- ------ ----- ------ -- ---- --- ----- -- - -------<br>-------- -- --- --- -- ----- ----------- ----- -----------<br>---- --- ---------- the ---- --- -- ----------,206657.10000002384,206656.29999995232,206069.173,206081.29999995232,206085.842,206669.475,,49,the
screen,html.Screen,0_4_1_0_1_50,2021-11-19T12:36:40.305Z,,,,,,,,,,,,,,,,51,,,,,,,,,,,,,,450.7249999284686,,response,,,13,B,,,,,Space,keypress(Space),,,,lyrical,-------- -------- --- --- ---- --- --- ------ -- --------<br>---- --------- --- ------- ------------ ---------- ---------<br>--- ---------- ------- ---------- ------- -- -------- ----<br>---- --- ------ ----- ------ -- ---- --- ----- -- - -------<br>-------- -- --- --- -- ----- ----------- ----- -----------<br>---- --- ---------- --- life --- -- ----------,207121,207120.19999992847,206652.804,206657.39999997616,206669.475,207136.256,,50,life
