sender,sender_type,sender_id,timestamp,meta,,Blues,Classical,Country,Dance,Electronic,Folk,Gospel,Hip-Hop,Jazz,Latin,Musical/Film,New-age,Pop,Provo_ID,R&B,Rap,Reggae,Religious,Rock,Soul,Swing,Traditional,age,artist_name,correct,correctResponse,distraction,duration,education,ended_on,familiarity,gender,item,list,music_frequency,offensiveness,pleasantness,preference,response,response_action,snippet_file,song_name,song_rating,sound,text,time_commit,time_end,time_render,time_run,time_show,time_switch,url,word,word_ID
Instructions,html.Page,0_0,2021-12-03T12:41:30.418Z,"{""labjs_version"":""20.2.3"",""labjs_build"":{""flavor"":""production"",""commit"":""7ea907d66ca8aeef8054924ca5d82ffbe11e34e5""},""location"":""https://run.pavlovia.org/mvasilev/lab_music_c/"",""userAgent"":""Mozilla/5.0 (Windows NT 6.1; Win64; x64) AppleWebKit/537.36 (KHTML, like Gecko) Chrome/96.0.4664.45 Safari/537.36"",""platform"":""Win32"",""language"":""en-US"",""locale"":""en-US"",""timeZone"":""Europe/London"",""timezoneOffset"":0,""screen_width"":1920,""screen_height"":1080,""scroll_width"":1920,""scroll_height"":959,""window_innerWidth"":1920,""window_innerHeight"":1007,""devicePixelRatio"":1}",,,,,,,,,,,,,,,,,,,,,,,,,,,,,22725.134,,form submission,,,,,,,,,,,,,,,,34355.59999999404,34354.5,11596.024,11612.5,11629.366,34360.383,{},,
Headphones,html.Page,0_1,2021-12-03T12:41:33.453Z,,,,,,,,,,,,,,,,,,,,,,,,,,,,,,3030.716999994038,,form submission,,,,,,,,,,,,,,,,37391.59999999404,37391.09999999404,34343.705,34356.39999999106,34360.383,37402.501,,,
Holding screen,html.Screen,0_2_0_0,2021-12-03T12:41:43.458Z,,,,,,,,,,,,,,,,,,,,,,,,,,,,,,10019.099000000002,,timeout,,,,,,,,,,,,,,,,47395.89999999106,47388.262,37385.831,37392.09999999404,37402.501,47421.6,,,
screen,html.Screen,0_2_0_1_0,2021-12-03T12:41:44.421Z,,,,,,,,,,,,,,,,53,,,,,,,,,,,,,,935.9000000000015,,response,,,99,,,,,,Space,keypress(Space),,,,,When -- ----- -- ------ - ------- --- ----------<br>------------- ------ ------ ---- ---- ------- ----- -- ----<br>-------- ------- -- ---------- --- - --- ----- ----- ----<br>---- --- --- ----- --- ---- ---- ------- ----- ---- -------<br>--- --- -- ----- -- --- ---- -- --- ---- -- ------ ------<br>--- ----- -- ----,48359,48357.5,47388.262,47396.29999999702,47421.6,48372.112,,0,When
screen,html.Screen,0_2_0_1_1,2021-12-03T12:41:44.916Z,,,,,,,,,,,,,,,,53,,,,,,,,,,,,,,481.2879999910583,,response,,,99,,,,,,Space,keypress(Space),,,,,---- it ----- -- ------ - ------- --- ----------<br>------------- ------ ------ ---- ---- ------- ----- -- ----<br>-------- ------- -- ---------- --- - --- ----- ----- ----<br>---- --- --- ----- --- ---- ---- ------- ----- ---- -------<br>--- --- -- ----- -- --- ---- -- --- ---- -- ------ ------<br>--- ----- -- ----,48854.29999999702,48853.39999999106,48355.441,48359.29999999702,48372.112,48855.652,,1,it
screen,html.Screen,0_2_0_1_2,2021-12-03T12:41:45.372Z,,,,,,,,,,,,,,,,53,,,,,,,,,,,,,,453.84799999999814,,response,,,99,,,,,,Space,keypress(Space),,,,,---- -- comes -- ------ - ------- --- ----------<br>------------- ------ ------ ---- ---- ------- ----- -- ----<br>-------- ------- -- ---------- --- - --- ----- ----- ----<br>---- --- --- ----- --- ---- ---- ------- ----- ---- -------<br>--- --- -- ----- -- --- ---- -- --- ---- -- ------ ------<br>--- ----- -- ----,49310.5,49309.5,48838.981,48854.59999999404,48855.652,49322.338,,2,comes
screen,html.Screen,0_2_0_1_3,2021-12-03T12:41:45.804Z,,,,,,,,,,,,,,,,53,,,,,,,,,,,,,,418.9619999970164,,response,,,99,,,,,,Space,keypress(Space),,,,,---- -- ----- to ------ - ------- --- ----------<br>------------- ------ ------ ---- ---- ------- ----- -- ----<br>-------- ------- -- ---------- --- - --- ----- ----- ----<br>---- --- --- ----- --- ---- ---- ------- ----- ---- -------<br>--- --- -- ----- -- --- ---- -- --- ---- -- ------ ------<br>--- ----- -- ----,49742.29999999702,49741.29999999702,49305.668,49310.89999999106,49322.338,49755.838,,3,to
screen,html.Screen,0_2_0_1_4,2021-12-03T12:41:46.252Z,,,,,,,,,,,,,,,,53,,,,,,,,,,,,,,433.4619999970164,,response,,,99,,,,,,Space,keypress(Space),,,,,---- -- ----- -- having - ------- --- ----------<br>------------- ------ ------ ---- ---- ------- ----- -- ----<br>-------- ------- -- ---------- --- - --- ----- ----- ----<br>---- --- --- ----- --- ---- ---- ------- ----- ---- -------<br>--- --- -- ----- -- --- ---- -- --- ---- -- ------ ------<br>--- ----- -- ----,50190.59999999404,50189.29999999702,49739.167,49742.89999999106,49755.838,50205.894,,4,having
screen,html.Screen,0_2_0_1_5,2021-12-03T12:41:46.644Z,,,,,,,,,,,,,,,,53,,,,,,,,,,,,,,375.40599999701953,,response,,,99,,,,,,Space,keypress(Space),,,,,---- -- ----- -- ------ a ------- --- ----------<br>------------- ------ ------ ---- ---- ------- ----- -- ----<br>-------- ------- -- ---------- --- - --- ----- ----- ----<br>---- --- --- ----- --- ---- ---- ------- ----- ---- -------<br>--- --- -- ----- -- --- ---- -- --- ---- -- ------ ------<br>--- ----- -- ----,50582.09999999404,50581.29999999702,50189.224,50190.89999999106,50205.894,50589.346,,5,a
screen,html.Screen,0_2_0_1_6,2021-12-03T12:41:47.060Z,,,,,,,,,,,,,,,,53,,,,,,,,,,,,,,407.85399998808134,,response,,,99,,,,,,Space,keypress(Space),,,,,---- -- ----- -- ------ - lasting --- ----------<br>------------- ------ ------ ---- ---- ------- ----- -- ----<br>-------- ------- -- ---------- --- - --- ----- ----- ----<br>---- --- --- ----- --- ---- ---- ------- ----- ---- -------<br>--- --- -- ----- -- --- ---- -- --- ---- -- ------ ------<br>--- ----- -- ----,50998.19999998808,50997.19999998808,50572.676,50582.79999999702,50589.346,51006.054,,6,lasting
screen,html.Screen,0_2_0_1_7,2021-12-03T12:41:47.460Z,,,,,,,,,,,,,,,,53,,,,,,,,,,,,,,391.2459999970233,,response,,,99,,,,,,Space,keypress(Space),,,,,---- -- ----- -- ------ - ------- and ----------<br>------------- ------ ------ ---- ---- ------- ----- -- ----<br>-------- ------- -- ---------- --- - --- ----- ----- ----<br>---- --- --- ----- --- ---- ---- ------- ----- ---- -------<br>--- --- -- ----- -- --- ---- -- --- ---- -- ------ ------<br>--- ----- -- ----,51398.19999998808,51397.29999999702,50989.385,50998.5,51006.054,51406.177,,7,and
screen,html.Screen,0_2_0_1_8,2021-12-03T12:41:47.956Z,,,,,,,,,,,,,,,,53,,,,,,,,,,,,,,487.02299998807575,,response,,,99,,,,,,Space,keypress(Space),,,,,---- -- ----- -- ------ - ------- --- fulfilling<br>------------- ------ ------ ---- ---- ------- ----- -- ----<br>-------- ------- -- ---------- --- - --- ----- ----- ----<br>---- --- --- ----- --- ---- ---- ------- ----- ---- -------<br>--- --- -- ----- -- --- ---- -- --- ---- -- ------ ------<br>--- ----- -- ----,51894.39999999106,51893.19999998808,51389.507,51398.5,51406.177,51906.445,,8,fulfilling
screen,html.Screen,0_2_0_1_9,2021-12-03T12:41:48.428Z,,,,,,,,,,,,,,,,53,,,,,,,,,,,,,,458.75499998807936,,response,,,99,,,,,,Space,keypress(Space),,,,,"---- -- ----- -- ------ - ------- --- ----------<br>relationship, ------ ------ ---- ---- ------- ----- -- ----<br>-------- ------- -- ---------- --- - --- ----- ----- ----<br>---- --- --- ----- --- ---- ---- ------- ----- ---- -------<br>--- --- -- ----- -- --- ---- -- --- ---- -- ------ ------<br>--- ----- -- ----",52366.09999999404,52365.19999998808,51889.773,51894.69999998808,51906.445,52373.144,,9,"relationship,"
screen,html.Screen,0_2_0_1_10,2021-12-03T12:41:48.924Z,,,,,,,,,,,,,,,,53,,,,,,,,,,,,,,488.05599998807884,,response,,,99,,,,,,Space,keypress(Space),,,,,---- -- ----- -- ------ - ------- --- ----------<br>------------- common ------ ---- ---- ------- ----- -- ----<br>-------- ------- -- ---------- --- - --- ----- ----- ----<br>---- --- --- ----- --- ---- ---- ------- ----- ---- -------<br>--- --- -- ----- -- --- ---- -- --- ---- -- ------ ------<br>--- ----- -- ----,52862.09999999404,52861.19999998808,52356.474,52366.5,52373.144,52873.242,,10,common
screen,html.Screen,0_2_0_1_11,2021-12-03T12:41:49.388Z,,,,,,,,,,,,,,,,53,,,,,,,,,,,,,,451.9579999880807,,response,,,99,,,,,,Space,keypress(Space),,,,,---- -- ----- -- ------ - ------- --- ----------<br>------------- ------ wisdom ---- ---- ------- ----- -- ----<br>-------- ------- -- ---------- --- - --- ----- ----- ----<br>---- --- --- ----- --- ---- ---- ------- ----- ---- -------<br>--- --- -- ----- -- --- ---- -- --- ---- -- ------ ------<br>--- ----- -- ----,53326.09999999404,53325.19999998808,52856.572,52862.39999999106,52873.242,53340.047,,11,wisdom
screen,html.Screen,0_2_0_1_12,2021-12-03T12:41:49.844Z,,,,,,,,,,,,,,,,53,,,,,,,,,,,,,,441.0529999940409,,response,,,99,,,,,,Space,keypress(Space),,,,,---- -- ----- -- ------ - ------- --- ----------<br>------------- ------ ------ says ---- ------- ----- -- ----<br>-------- ------- -- ---------- --- - --- ----- ----- ----<br>---- --- --- ----- --- ---- ---- ------- ----- ---- -------<br>--- --- -- ----- -- --- ---- -- --- ---- -- ------ ------<br>--- ----- -- ----,53782,53781.09999999404,53323.377,53326.39999999106,53340.047,53790.165,,12,says
screen,html.Screen,0_2_0_1_13,2021-12-03T12:41:50.284Z,,,,,,,,,,,,,,,,53,,,,,,,,,,,,,,431.1349999970189,,response,,,99,,,,,,Space,keypress(Space),,,,,---- -- ----- -- ------ - ------- --- ----------<br>------------- ------ ------ ---- that ------- ----- -- ----<br>-------- ------- -- ---------- --- - --- ----- ----- ----<br>---- --- --- ----- --- ---- ---- ------- ----- ---- -------<br>--- --- -- ----- -- --- ---- -- --- ---- -- ------ ------<br>--- ----- -- ----,54222.39999999106,54221.29999999702,53773.495,53782.29999999702,53790.165,54223.576,,13,that
screen,html.Screen,0_2_0_1_14,2021-12-03T12:41:50.876Z,,,,,,,,,,,,,,,,53,,,,,,,,,,,,,,589.5239999940386,,response,,,99,,,,,,Space,keypress(Space),,,,,---- -- ----- -- ------ - ------- --- ----------<br>------------- ------ ------ ---- ---- feeling ----- -- ----<br>-------- ------- -- ---------- --- - --- ----- ----- ----<br>---- --- --- ----- --- ---- ---- ------- ----- ---- -------<br>--- --- -- ----- -- --- ---- -- --- ---- -- ------ ------<br>--- ----- -- ----,54814,54813.09999999404,54206.906,54222.69999998808,54223.576,54823.824,,14,feeling
screen,html.Screen,0_2_0_1_15,2021-12-03T12:41:51.412Z,,,,,,,,,,,,,,,,53,,,,,,,,,,,,,,525.6759999999995,,response,,,99,,,,,,Space,keypress(Space),,,,,---- -- ----- -- ------ - ------- --- ----------<br>------------- ------ ------ ---- ---- ------- close -- ----<br>-------- ------- -- ---------- --- - --- ----- ----- ----<br>---- --- --- ----- --- ---- ---- ------- ----- ---- -------<br>--- --- -- ----- -- --- ---- -- --- ---- -- ------ ------<br>--- ----- -- ----,55350.29999999702,55349.5,54807.153,54814.19999998808,54823.824,55357.208,,15,close
screen,html.Screen,0_2_0_1_16,2021-12-03T12:41:51.860Z,,,,,,,,,,,,,,,,53,,,,,,,,,,,,,,439.7920000000013,,response,,,99,,,,,,Space,keypress(Space),,,,,---- -- ----- -- ------ - ------- --- ----------<br>------------- ------ ------ ---- ---- ------- ----- to ----<br>-------- ------- -- ---------- --- - --- ----- ----- ----<br>---- --- --- ----- --- ---- ---- ------- ----- ---- -------<br>--- --- -- ----- -- --- ---- -- --- ---- -- ------ ------<br>--- ----- -- ----,55797.89999999106,55797,55340.538,55350.59999999404,55357.208,55807.398,,16,to
screen,html.Screen,0_2_0_1_17,2021-12-03T12:41:52.356Z,,,,,,,,,,,,,,,,53,,,,,,,,,,,,,,485.7019999940385,,response,,,99,,,,,,Space,keypress(Space),,,,,---- -- ----- -- ------ - ------- --- ----------<br>------------- ------ ------ ---- ---- ------- ----- -- your<br>-------- ------- -- ---------- --- - --- ----- ----- ----<br>---- --- --- ----- --- ---- ---- ------- ----- ---- -------<br>--- --- -- ----- -- --- ---- -- --- ---- -- ------ ------<br>--- ----- -- ----,56293.79999999702,56293.09999999404,55790.727,55798.09999999404,55807.398,56307.472,,17,your
screen,html.Screen,0_2_0_1_18,2021-12-03T12:41:52.820Z,,,,,,,,,,,,,,,,53,,,,,,,,,,,,,,449.62799999403796,,response,,,99,,,,,,Space,keypress(Space),,,,,---- -- ----- -- ------ - ------- --- ----------<br>------------- ------ ------ ---- ---- ------- ----- -- ----<br>romantic ------- -- ---------- --- - --- ----- ----- ----<br>---- --- --- ----- --- ---- ---- ------- ----- ---- -------<br>--- --- -- ----- -- --- ---- -- --- ---- -- ------ ------<br>--- ----- -- ----,56757.79999999702,56757.09999999404,56290.802,56294.09999999404,56307.472,56774.255,,18,romantic
screen,html.Screen,0_2_0_1_19,2021-12-03T12:41:53.260Z,,,,,,,,,,,,,,,,53,,,,,,,,,,,,,,422.7450000000026,,response,,,99,,,,,,Space,keypress(Space),,,,,---- -- ----- -- ------ - ------- --- ----------<br>------------- ------ ------ ---- ---- ------- ----- -- ----<br>-------- partner -- ---------- --- - --- ----- ----- ----<br>---- --- --- ----- --- ---- ---- ------- ----- ---- -------<br>--- --- -- ----- -- --- ---- -- --- ---- -- ------ ------<br>--- ----- -- ----,57197.79999999702,57197,56757.585,56758.19999998808,56774.255,57207.714,,19,partner
screen,html.Screen,0_2_0_1_20,2021-12-03T12:41:53.652Z,,,,,,,,,,,,,,,,53,,,,,,,,,,,,,,381.28600000000006,,response,,,99,,,,,,Space,keypress(Space),,,,,---- -- ----- -- ------ - ------- --- ----------<br>------------- ------ ------ ---- ---- ------- ----- -- ----<br>-------- ------- is ---------- --- - --- ----- ----- ----<br>---- --- --- ----- --- ---- ---- ------- ----- ---- -------<br>--- --- -- ----- -- --- ---- -- --- ---- -- ------ ------<br>--- ----- -- ----,57589.79999999702,57589,57191.044,57198,57207.714,57591.137,,20,is
screen,html.Screen,0_2_0_1_21,2021-12-03T12:41:54.108Z,,,,,,,,,,,,,,,,53,,,,,,,,,,,,,,453.76299999105686,,response,,,99,,,,,,Space,keypress(Space),,,,,---- -- ----- -- ------ - ------- --- ----------<br>------------- ------ ------ ---- ---- ------- ----- -- ----<br>-------- ------- -- paramount. --- - --- ----- ----- ----<br>---- --- --- ----- --- ---- ---- ------- ----- ---- -------<br>--- --- -- ----- -- --- ---- -- --- ---- -- ------ ------<br>--- ----- -- ----,58045.69999998808,58044.89999999106,57574.467,57590.09999999404,57591.137,58057.972,,21,paramount.
screen,html.Screen,0_2_0_1_22,2021-12-03T12:41:54.540Z,,,,,,,,,,,,,,,,53,,,,,,,,,,,,,,418.92799999105773,,response,,,99,,,,,,Space,keypress(Space),,,,,---- -- ----- -- ------ - ------- --- ----------<br>------------- ------ ------ ---- ---- ------- ----- -- ----<br>-------- ------- -- ---------- But - --- ----- ----- ----<br>---- --- --- ----- --- ---- ---- ------- ----- ---- -------<br>--- --- -- ----- -- --- ---- -- --- ---- -- ------ ------<br>--- ----- -- ----,58477.79999999702,58476.89999999106,58041.301,58046.29999999702,58057.972,58491.284,,22,But
screen,html.Screen,0_2_0_1_23,2021-12-03T12:41:54.972Z,,,,,,,,,,,,,,,,53,,,,,,,,,,,,,,417.61599999105965,,response,,,99,,,,,,Space,keypress(Space),,,,,---- -- ----- -- ------ - ------- --- ----------<br>------------- ------ ------ ---- ---- ------- ----- -- ----<br>-------- ------- -- ---------- --- a --- ----- ----- ----<br>---- --- --- ----- --- ---- ---- ------- ----- ---- -------<br>--- --- -- ----- -- --- ---- -- --- ---- -- ------ ------<br>--- ----- -- ----,58909.69999998808,58908.89999999106,58474.615,58478,58491.284,58924.781,,23,a
screen,html.Screen,0_2_0_1_24,2021-12-03T12:41:55.420Z,,,,,,,,,,,,,,,,53,,,,,,,,,,,,,,432.0189999970171,,response,,,99,,,,,,Space,keypress(Space),,,,,---- -- ----- -- ------ - ------- --- ----------<br>------------- ------ ------ ---- ---- ------- ----- -- ----<br>-------- ------- -- ---------- --- - new ----- ----- ----<br>---- --- --- ----- --- ---- ---- ------- ----- ---- -------<br>--- --- -- ----- -- --- ---- -- --- ---- -- ------ ------<br>--- ----- -- ----,59357.79999999702,59356.79999999702,58908.111,58909.89999999106,58924.781,59375.02,,24,new
screen,html.Screen,0_2_0_1_25,2021-12-03T12:41:55.820Z,,,,,,,,,,,,,,,,53,,,,,,,,,,,,,,381.77999999702297,,response,,,99,,,,,,Space,keypress(Space),,,,,---- -- ----- -- ------ - ------- --- ----------<br>------------- ------ ------ ---- ---- ------- ----- -- ----<br>-------- ------- -- ---------- --- - --- study ----- ----<br>---- --- --- ----- --- ---- ---- ------- ----- ---- -------<br>--- --- -- ----- -- --- ---- -- --- ---- -- ------ ------<br>--- ----- -- ----,59757.69999998808,59756.79999999702,59358.348,59357.89999999106,59375.02,59775.099,,25,study
screen,html.Screen,0_2_0_1_26,2021-12-03T12:41:56.239Z,,,,,,,,,,,,,,,,53,,,,,,,,,,,,,,397.7009999970178,,response,,,99,,,,,,Space,keypress(Space),,,,,---- -- ----- -- ------ - ------- --- ----------<br>------------- ------ ------ ---- ---- ------- ----- -- ----<br>-------- ------- -- ---------- --- - --- ----- finds ----<br>---- --- --- ----- --- ---- ---- ------- ----- ---- -------<br>--- --- -- ----- -- --- ---- -- --- ---- -- ------ ------<br>--- ----- -- ----,60173.59999999404,60172.79999999702,59758.428,59757.89999999106,59775.099,60175.053,,26,finds
screen,html.Screen,0_2_0_1_27,2021-12-03T12:41:56.631Z,,,,,,,,,,,,,,,,53,,,,,,,,,,,,,,389.7469999970199,,response,,,99,,,,,,Space,keypress(Space),,,,,---- -- ----- -- ------ - ------- --- ----------<br>------------- ------ ------ ---- ---- ------- ----- -- ----<br>-------- ------- -- ---------- --- - --- ----- ----- that<br>---- --- --- ----- --- ---- ---- ------- ----- ---- -------<br>--- --- -- ----- -- --- ---- -- --- ---- -- ------ ------<br>--- ----- -- ----,60565.69999998808,60564.79999999702,60158.384,60173.89999999106,60175.053,60575.256,,27,that
screen,html.Screen,0_2_0_1_28,2021-12-03T12:41:57.263Z,,,,,,,,,,,,,,,,53,,,,,,,,,,,,,,621.5439999970185,,response,,,99,,,,,,Space,keypress(Space),,,,,---- -- ----- -- ------ - ------- --- ----------<br>------------- ------ ------ ---- ---- ------- ----- -- ----<br>-------- ------- -- ---------- --- - --- ----- ----- ----<br>it's --- --- ----- --- ---- ---- ------- ----- ---- -------<br>--- --- -- ----- -- --- ---- -- --- ---- -- ------ ------<br>--- ----- -- ----,61197.59999999404,61196.79999999702,60558.585,60565.89999999106,60575.256,61208.839,,28,it's
screen,html.Screen,0_2_0_1_29,2021-12-03T12:41:57.679Z,,,,,,,,,,,,,,,,53,,,,,,,,,,,,,,404.06099999105936,,response,,,99,,,,,,Space,keypress(Space),,,,,---- -- ----- -- ------ - ------- --- ----------<br>------------- ------ ------ ---- ---- ------- ----- -- ----<br>-------- ------- -- ---------- --- - --- ----- ----- ----<br>---- not --- ----- --- ---- ---- ------- ----- ---- -------<br>--- --- -- ----- -- --- ---- -- --- ---- -- ------ ------<br>--- ----- -- ----,61613.69999998808,61612.89999999106,61192.167,61197.89999999106,61208.839,61625.505,,29,not
screen,html.Screen,0_2_0_1_30,2021-12-03T12:41:58.127Z,,,,,,,,,,,,,,,,53,,,,,,,,,,,,,,435.1949999880817,,response,,,99,,,,,,Space,keypress(Space),,,,,---- -- ----- -- ------ - ------- --- ----------<br>------------- ------ ------ ---- ---- ------- ----- -- ----<br>-------- ------- -- ---------- --- - --- ----- ----- ----<br>---- --- how ----- --- ---- ---- ------- ----- ---- -------<br>--- --- -- ----- -- --- ---- -- --- ---- -- ------ ------<br>--- ----- -- ----,62061.59999999404,62060.69999998808,61608.835,61614,61625.505,62075.635,,30,how
screen,html.Screen,0_2_0_1_31,2021-12-03T12:41:58.623Z,,,,,,,,,,,,,,,,53,,,,,,,,,,,,,,481.06499998807703,,response,,,99,,,,,,Space,keypress(Space),,,,,---- -- ----- -- ------ - ------- --- ----------<br>------------- ------ ------ ---- ---- ------- ----- -- ----<br>-------- ------- -- ---------- --- - --- ----- ----- ----<br>---- --- --- close --- ---- ---- ------- ----- ---- -------<br>--- --- -- ----- -- --- ---- -- --- ---- -- ------ ------<br>--- ----- -- ----,62557.39999999106,62556.69999998808,62058.965,62061.79999999702,62075.635,62559.089,,31,close
screen,html.Screen,0_2_0_1_32,2021-12-03T12:41:59.039Z,,,,,,,,,,,,,,,,53,,,,,,,,,,,,,,413.61099998807913,,response,,,99,,,,,,Space,keypress(Space),,,,,---- -- ----- -- ------ - ------- --- ----------<br>------------- ------ ------ ---- ---- ------- ----- -- ----<br>-------- ------- -- ---------- --- - --- ----- ----- ----<br>---- --- --- ----- you ---- ---- ------- ----- ---- -------<br>--- --- -- ----- -- --- ---- -- --- ---- -- ------ ------<br>--- ----- -- ----,62973.5,62972.69999998808,62542.419,62557.79999999702,62559.089,62975.906,,32,you
screen,html.Screen,0_2_0_1_33,2021-12-03T12:41:59.527Z,,,,,,,,,,,,,,,,53,,,,,,,,,,,,,,484.69399999403686,,response,,,99,,,,,,Space,keypress(Space),,,,,---- -- ----- -- ------ - ------- --- ----------<br>------------- ------ ------ ---- ---- ------- ----- -- ----<br>-------- ------- -- ---------- --- - --- ----- ----- ----<br>---- --- --- ----- --- feel ---- ------- ----- ---- -------<br>--- --- -- ----- -- --- ---- -- --- ---- -- ------ ------<br>--- ----- -- ----,63461.5,63460.59999999404,62959.235,62973.69999998808,62975.906,63475.986,,33,feel
screen,html.Screen,0_2_0_1_34,2021-12-03T12:41:59.959Z,,,,,,,,,,,,,,,,53,,,,,,,,,,,,,,416.6139999940424,,response,,,99,,,,,,Space,keypress(Space),,,,,---- -- ----- -- ------ - ------- --- ----------<br>------------- ------ ------ ---- ---- ------- ----- -- ----<br>-------- ------- -- ---------- --- - --- ----- ----- ----<br>---- --- --- ----- --- ---- that ------- ----- ---- -------<br>--- --- -- ----- -- --- ---- -- --- ---- -- ------ ------<br>--- ----- -- ----,63893.39999999106,63892.59999999404,63459.316,63461.69999998808,63475.986,63909.442,,34,that
screen,html.Screen,0_2_0_1_35,2021-12-03T12:42:00.455Z,,,,,,,,,,,,,,,,53,,,,,,,,,,,,,,479.1579999940368,,response,,,99,,,,,,Space,keypress(Space),,,,,---- -- ----- -- ------ - ------- --- ----------<br>------------- ------ ------ ---- ---- ------- ----- -- ----<br>-------- ------- -- ---------- --- - --- ----- ----- ----<br>---- --- --- ----- --- ---- ---- matters ----- ---- -------<br>--- --- -- ----- -- --- ---- -- --- ---- -- ------ ------<br>--- ----- -- ----,64389.39999999106,64388.59999999404,63892.772,63893.69999998808,63909.442,64392.778,,35,matters
screen,html.Screen,0_2_0_1_36,2021-12-03T12:42:00.935Z,,,,,,,,,,,,,,,,53,,,,,,,,,,,,,,475.8219999940411,,response,,,99,,,,,,Space,keypress(Space),,,,,"---- -- ----- -- ------ - ------- --- ----------<br>------------- ------ ------ ---- ---- ------- ----- -- ----<br>-------- ------- -- ---------- --- - --- ----- ----- ----<br>---- --- --- ----- --- ---- ---- ------- most, ---- -------<br>--- --- -- ----- -- --- ---- -- --- ---- -- ------ ------<br>--- ----- -- ----",64869.39999999106,64868.59999999404,64376.109,64389.69999998808,64392.778,64876.449,,36,"most,"
screen,html.Screen,0_2_0_1_37,2021-12-03T12:42:01.391Z,,,,,,,,,,,,,,,,53,,,,,,,,,,,,,,448.150999994039,,response,,,99,,,,,,Space,keypress(Space),,,,,---- -- ----- -- ------ - ------- --- ----------<br>------------- ------ ------ ---- ---- ------- ----- -- ----<br>-------- ------- -- ---------- --- - --- ----- ----- ----<br>---- --- --- ----- --- ---- ---- ------- ----- it's -------<br>--- --- -- ----- -- --- ---- -- --- ---- -- ------ ------<br>--- ----- -- ----,65325.59999999404,65324.59999999404,64859.777,64869.89999999106,64876.449,65326.466,,37,it's
screen,html.Screen,0_2_0_1_38,2021-12-03T12:42:01.823Z,,,,,,,,,,,,,,,,53,,,,,,,,,,,,,,430.43399999105895,,response,,,99,,,,,,Space,keypress(Space),,,,,---- -- ----- -- ------ - ------- --- ----------<br>------------- ------ ------ ---- ---- ------- ----- -- ----<br>-------- ------- -- ---------- --- - --- ----- ----- ----<br>---- --- --- ----- --- ---- ---- ------- ----- ---- whether<br>--- --- -- ----- -- --- ---- -- --- ---- -- ------ ------<br>--- ----- -- ----,65757.69999998808,65756.89999999106,65309.796,65325.79999999702,65326.466,65759.884,,38,whether
screen,html.Screen,0_2_0_1_39,2021-12-03T12:42:02.287Z,,,,,,,,,,,,,,,,53,,,,,,,,,,,,,,460.61599999999453,,response,,,99,,,,,,Space,keypress(Space),,,,,---- -- ----- -- ------ - ------- --- ----------<br>------------- ------ ------ ---- ---- ------- ----- -- ----<br>-------- ------- -- ---------- --- - --- ----- ----- ----<br>---- --- --- ----- --- ---- ---- ------- ----- ---- -------<br>you --- -- ----- -- --- ---- -- --- ---- -- ------ ------<br>--- ----- -- ----,66221.29999999702,66220.5,65743.214,65757.89999999106,65759.884,66226.731,,39,you
screen,html.Screen,0_2_0_1_40,2021-12-03T12:42:02.719Z,,,,,,,,,,,,,,,,53,,,,,,,,,,,,,,425.66899999105954,,response,,,99,,,,,,Space,keypress(Space),,,,,---- -- ----- -- ------ - ------- --- ----------<br>------------- ------ ------ ---- ---- ------- ----- -- ----<br>-------- ------- -- ---------- --- - --- ----- ----- ----<br>---- --- --- ----- --- ---- ---- ------- ----- ---- -------<br>--- are -- ----- -- --- ---- -- --- ---- -- ------ ------<br>--- ----- -- ----,66653.19999998808,66652.39999999106,66210.06,66221.5,66226.731,66660.145,,40,are
screen,html.Screen,0_2_0_1_41,2021-12-03T12:42:03.199Z,,,,,,,,,,,,,,,,53,,,,,,,,,,,,,,472.3549999999959,,response,,,99,,,,,,Space,keypress(Space),,,,,---- -- ----- -- ------ - ------- --- ----------<br>------------- ------ ------ ---- ---- ------- ----- -- ----<br>-------- ------- -- ---------- --- - --- ----- ----- ----<br>---- --- --- ----- --- ---- ---- ------- ----- ---- -------<br>--- --- as ----- -- --- ---- -- --- ---- -- ------ ------<br>--- ----- -- ----,67133.29999999702,67132.5,66643.475,66653.39999999106,66660.145,67143.644,,41,as
screen,html.Screen,0_2_0_1_42,2021-12-03T12:42:03.623Z,,,,,,,,,,,,,,,,53,,,,,,,,,,,,,,412.75599999105907,,response,,,99,,,,,,Space,keypress(Space),,,,,---- -- ----- -- ------ - ------- --- ----------<br>------------- ------ ------ ---- ---- ------- ----- -- ----<br>-------- ------- -- ---------- --- - --- ----- ----- ----<br>---- --- --- ----- --- ---- ---- ------- ----- ---- -------<br>--- --- -- close -- --- ---- -- --- ---- -- ------ ------<br>--- ----- -- ----,67557.19999998808,67556.39999999106,67126.973,67133.5,67143.644,67560.37,,42,close
screen,html.Screen,0_2_0_1_43,2021-12-03T12:42:04.064Z,,,,,,,,,,,,,,,,53,,,,,,,,,,,,,,436.3299999880837,,response,,,99,,,,,,Space,keypress(Space),,,,,---- -- ----- -- ------ - ------- --- ----------<br>------------- ------ ------ ---- ---- ------- ----- -- ----<br>-------- ------- -- ---------- --- - --- ----- ----- ----<br>---- --- --- ----- --- ---- ---- ------- ----- ---- -------<br>--- --- -- ----- as --- ---- -- --- ---- -- ------ ------<br>--- ----- -- ----,67998.5,67996.69999998808,67543.7,67557.5,67560.37,68010.494,,43,as
screen,html.Screen,0_2_0_1_44,2021-12-03T12:42:04.462Z,,,,,,,,,,,,,,,,53,,,,,,,,,,,,,,385.90599999105325,,response,,,99,,,,,,Space,keypress(Space),,,,,---- -- ----- -- ------ - ------- --- ----------<br>------------- ------ ------ ---- ---- ------- ----- -- ----<br>-------- ------- -- ---------- --- - --- ----- ----- ----<br>---- --- --- ----- --- ---- ---- ------- ----- ---- -------<br>--- --- -- ----- -- you ---- -- --- ---- -- ------ ------<br>--- ----- -- ----,68397.19999998808,68396.39999999106,67993.824,67998.69999998808,68010.494,68410.487,,44,you
screen,html.Screen,0_2_0_1_45,2021-12-03T12:42:04.902Z,,,,,,,,,,,,,,,,53,,,,,,,,,,,,,,425.81299999702605,,response,,,99,,,,,,Space,keypress(Space),,,,,---- -- ----- -- ------ - ------- --- ----------<br>------------- ------ ------ ---- ---- ------- ----- -- ----<br>-------- ------- -- ---------- --- - --- ----- ----- ----<br>---- --- --- ----- --- ---- ---- ------- ----- ---- -------<br>--- --- -- ----- -- --- want -- --- ---- -- ------ ------<br>--- ----- -- ----,68837.09999999404,68836.29999999702,68393.818,68397.39999999106,68410.487,68844.137,,45,want
screen,html.Screen,0_2_0_1_46,2021-12-03T12:42:05.295Z,,,,,,,,,,,,,,,,53,,,,,,,,,,,,,,384.0629999880766,,response,,,99,,,,,,Space,keypress(Space),,,,,---- -- ----- -- ------ - ------- --- ----------<br>------------- ------ ------ ---- ---- ------- ----- -- ----<br>-------- ------- -- ---------- --- - --- ----- ----- ----<br>---- --- --- ----- --- ---- ---- ------- ----- ---- -------<br>--- --- -- ----- -- --- ---- to --- ---- -- ------ ------<br>--- ----- -- ----,69229.19999998808,69228.19999998808,68827.465,68837.39999999106,68844.137,69244.138,,46,to
screen,html.Screen,0_2_0_1_47,2021-12-03T12:42:05.710Z,,,,,,,,,,,,,,,,53,,,,,,,,,,,,,,400.1619999970135,,response,,,99,,,,,,Space,keypress(Space),,,,,"---- -- ----- -- ------ - ------- --- ----------<br>------------- ------ ------ ---- ---- ------- ----- -- ----<br>-------- ------- -- ---------- --- - --- ----- ----- ----<br>---- --- --- ----- --- ---- ---- ------- ----- ---- -------<br>--- --- -- ----- -- --- ---- -- be, ---- -- ------ ------<br>--- ----- -- ----",69645.09999999404,69644.29999999702,69227.468,69229.5,69244.138,69660.958,,47,"be,"
screen,html.Screen,0_2_0_1_48,2021-12-03T12:42:06.206Z,,,,,,,,,,,,,,,,53,,,,,,,,,,,,,,479.24199998808035,,response,,,99,,,,,,Space,keypress(Space),,,,,---- -- ----- -- ------ - ------- --- ----------<br>------------- ------ ------ ---- ---- ------- ----- -- ----<br>-------- ------- -- ---------- --- - --- ----- ----- ----<br>---- --- --- ----- --- ---- ---- ------- ----- ---- -------<br>--- --- -- ----- -- --- ---- -- --- even -- ------ ------<br>--- ----- -- ----,70141,70140.19999998808,69644.287,69645.29999999702,69660.958,70144.223,,48,even
screen,html.Screen,0_2_0_1_49,2021-12-03T12:42:06.614Z,,,,,,,,,,,,,,,,53,,,,,,,,,,,,,,403.97699998808093,,response,,,99,,,,,,Space,keypress(Space),,,,,---- -- ----- -- ------ - ------- --- ----------<br>------------- ------ ------ ---- ---- ------- ----- -- ----<br>-------- ------- -- ---------- --- - --- ----- ----- ----<br>---- --- --- ----- --- ---- ---- ------- ----- ---- -------<br>--- --- -- ----- -- --- ---- -- --- ---- if ------ ------<br>--- ----- -- ----,70549.09999999404,70548.19999998808,70127.555,70141.29999999702,70144.223,70561.253,,49,if
screen,html.Screen,0_2_0_1_50,2021-12-03T12:42:07.055Z,,,,,,,,,,,,,,,,53,,,,,,,,,,,,,,427.0469999970228,,response,,,99,,,,,,Space,keypress(Space),,,,,---- -- ----- -- ------ - ------- --- ----------<br>------------- ------ ------ ---- ---- ------- ----- -- ----<br>-------- ------- -- ---------- --- - --- ----- ----- ----<br>---- --- --- ----- --- ---- ---- ------- ----- ---- -------<br>--- --- -- ----- -- --- ---- -- --- ---- -- that's ------<br>--- ----- -- ----,70989.29999999702,70988.29999999702,70544.581,70549.29999999702,70561.253,70994.499,,50,that's
screen,html.Screen,0_2_0_1_51,2021-12-03T12:42:07.918Z,,,,,,,,,,,,,,,,53,,,,,,,,,,,,,,857.7009999880829,,response,,,99,,,,,,Space,keypress(Space),,,,,---- -- ----- -- ------ - ------- --- ----------<br>------------- ------ ------ ---- ---- ------- ----- -- ----<br>-------- ------- -- ---------- --- - --- ----- ----- ----<br>---- --- --- ----- --- ---- ---- ------- ----- ---- -------<br>--- --- -- ----- -- --- ---- -- --- ---- -- ------ really<br>--- ----- -- ----,71853.09999999404,71852.19999998808,70977.83,70989.5,70994.499,71861.333,,51,really
screen,html.Screen,0_2_0_1_52,2021-12-03T12:42:08.350Z,,,,,,,,,,,,,,,,53,,,,,,,,,,,,,,422.7669999940408,,response,,,99,,,,,,Space,keypress(Space),,,,,---- -- ----- -- ------ - ------- --- ----------<br>------------- ------ ------ ---- ---- ------- ----- -- ----<br>-------- ------- -- ---------- --- - --- ----- ----- ----<br>---- --- --- ----- --- ---- ---- ------- ----- ---- -------<br>--- --- -- ----- -- --- ---- -- --- ---- -- ------ ------<br>not ----- -- ----,72285,72284.09999999404,71844.664,71853.29999999702,71861.333,72295.035,,52,not
screen,html.Screen,0_2_0_1_53,2021-12-03T12:42:08.766Z,,,,,,,,,,,,,,,,53,,,,,,,,,,,,,,405.06499999403604,,response,,,99,,,,,,Space,keypress(Space),,,,,---- -- ----- -- ------ - ------- --- ----------<br>------------- ------ ------ ---- ---- ------- ----- -- ----<br>-------- ------- -- ---------- --- - --- ----- ----- ----<br>---- --- --- ----- --- ---- ---- ------- ----- ---- -------<br>--- --- -- ----- -- --- ---- -- --- ---- -- ------ ------<br>--- close -- ----,72700.89999999106,72700.09999999404,72278.363,72285.19999998808,72295.035,72711.704,,53,close
screen,html.Screen,0_2_0_1_54,2021-12-03T12:42:09.198Z,,,,,,,,,,,,,,,,53,,,,,,,,,,,,,,420.39599999404163,,response,,,99,,,,,,Space,keypress(Space),,,,,---- -- ----- -- ------ - ------- --- ----------<br>------------- ------ ------ ---- ---- ------- ----- -- ----<br>-------- ------- -- ---------- --- - --- ----- ----- ----<br>---- --- --- ----- --- ---- ---- ------- ----- ---- -------<br>--- --- -- ----- -- --- ---- -- --- ---- -- ------ ------<br>--- ----- at ----,73133,73132.09999999404,72695.034,72701.19999998808,72711.704,73145.152,,54,at
screen,html.Screen,0_2_0_1_55,2021-12-03T12:42:10.182Z,,,,,,,,,,,,,,,,53,,,,,,,,,,,,,,970.8479999999981,,response,,,99,,,,,,Space,keypress(Space),,,,,---- -- ----- -- ------ - ------- --- ----------<br>------------- ------ ------ ---- ---- ------- ----- -- ----<br>-------- ------- -- ---------- --- - --- ----- ----- ----<br>---- --- --- ----- --- ---- ---- ------- ----- ---- -------<br>--- --- -- ----- -- --- ---- -- --- ---- -- ------ ------<br>--- ----- -- all.,74116.89999999106,74116,73128.482,73133.19999998808,73145.152,74128.708,,55,all.
Item 99,flow.Loop,0_2_0_1,2021-12-03T12:42:10.187Z,,,,,,,,,,,,,,,,,,,,,,,,,,,,,,26694.4,,completion,,,,C,,,,,,,,,,silence,,74121.5,74116,47388.262,47396.19999998808,47421.6,74128.708,,,
Question 1,html.Screen,0_2_0_2,2021-12-03T12:42:16.470Z,,,,,,,,,,,,,,,,,,,,,,,,,,,true,FALSE,,6274.49199998808,,response,,,99,C,,,,,FALSE,click #choice-2,,,,silence,,80404.79999999702,80403.19999998808,74112.038,74121.79999999702,74128.708,80413.646,,,
Question 2,html.Screen,0_2_0_3,2021-12-03T12:42:21.661Z,,,,,,,,,,,,,,,,,,,,,,,,,,,true,TRUE,,5180.653999997026,,response,,,99,C,,,,,TRUE,click #choice-1,,,,silence,,85595.5,85594.29999999702,80396.976,80405.09999999404,80413.646,85598.315,,,
Item 99,flow.Sequence,0_2_0,2021-12-03T12:42:21.661Z,,,,,,,,,,,,,,,,,,,,,,,,,,,,,,48191.79899999702,,completion,,,,,,,,,,,,,,,,85596,85594.29999999702,37385.831,37392,37402.501,85598.315,,,
Holding screen,html.Screen,0_2_1_0,2021-12-03T12:42:31.651Z,,,,,,,,,,,,,,,,,,,,,,,,,,,,,,10002.592999999993,,timeout,,,,,,,,,,,,,,,,95585.5,95584.237,85581.645,85596.29999999702,85598.315,95600.908,,,
screen,html.Screen,0_2_1_1_0,2021-12-03T12:42:32.550Z,,,,,,,,,,,,,,,,54,,,,,,,,,,,,,,882.391999997024,,response,,,100,,,,,,Space,keypress(Space),,,,,At --- ---- --- ------ ----- ------- ---- -- --- ------- --<br>------- ---------- ------ -- ----- -- ----- -- ---- ------<br>--- ----- --- --- ------ -------- ----- --- ------ ----- --<br>----- ----- ---------- --- --- ------ ------ ---- -- ------<br>------- --- ------ ----- --- ---- ------- -- ---- --- --<br>------- ------,96484.19999998808,96483.29999999702,95584.237,95586,95600.908,96484.515,,0,At
screen,html.Screen,0_2_1_1_1,2021-12-03T12:42:33.021Z,,,,,,,,,,,,,,,,54,,,,,,,,,,,,,,470.28499999702035,,response,,,100,,,,,,Space,keypress(Space),,,,,-- the ---- --- ------ ----- ------- ---- -- --- ------- --<br>------- ---------- ------ -- ----- -- ----- -- ---- ------<br>--- ----- --- --- ------ -------- ----- --- ------ ----- --<br>----- ----- ---------- --- --- ------ ------ ---- -- ------<br>------- --- ------ ----- --- ---- ------- -- ---- --- --<br>------- ------,96955.59999999404,96954.79999999702,96467.844,96484.5,96484.515,96967.999,,1,the
screen,html.Screen,0_2_1_1_2,2021-12-03T12:42:33.389Z,,,,,,,,,,,,,,,,54,,,,,,,,,,,,,,354.8009999970236,,response,,,100,,,,,,Space,keypress(Space),,,,,-- --- time --- ------ ----- ------- ---- -- --- ------- --<br>------- ---------- ------ -- ----- -- ----- -- ---- ------<br>--- ----- --- --- ------ -------- ----- --- ------ ----- --<br>----- ----- ---------- --- --- ------ ------ ---- -- ------<br>------- --- ------ ----- --- ---- ------- -- ---- --- --<br>------- ------,97323.59999999404,97322.79999999702,96951.328,96955.89999999106,96967.999,97334.688,,2,time
screen,html.Screen,0_2_1_1_3,2021-12-03T12:42:33.797Z,,,,,,,,,,,,,,,,54,,,,,,,,,,,,,,396.1119999970251,,response,,,100,,,,,,Space,keypress(Space),,,,,-- --- ---- the ------ ----- ------- ---- -- --- ------- --<br>------- ---------- ------ -- ----- -- ----- -- ---- ------<br>--- ----- --- --- ------ -------- ----- --- ------ ----- --<br>----- ----- ---------- --- --- ------ ------ ---- -- ------<br>------- --- ------ ----- --- ---- ------- -- ---- --- --<br>------- ------,97731.59999999404,97730.79999999702,97318.018,97323.79999999702,97334.688,97734.848,,3,the
screen,html.Screen,0_2_1_1_4,2021-12-03T12:42:34.189Z,,,,,,,,,,,,,,,,54,,,,,,,,,,,,,,387.85199998808093,,response,,,100,,,,,,Space,keypress(Space),,,,,-- --- ---- --- French ----- ------- ---- -- --- ------- --<br>------- ---------- ------ -- ----- -- ----- -- ---- ------<br>--- ----- --- --- ------ -------- ----- --- ------ ----- --<br>----- ----- ---------- --- --- ------ ------ ---- -- ------<br>------- --- ------ ----- --- ---- ------- -- ---- --- --<br>------- ------,98123.5,98122.69999998808,97718.177,97731.79999999702,97734.848,98134.911,,4,French
screen,html.Screen,0_2_1_1_5,2021-12-03T12:42:34.541Z,,,,,,,,,,,,,,,,54,,,,,,,,,,,,,,339.7889999880863,,response,,,100,,,,,,Space,keypress(Space),,,,,-- --- ---- --- ------ crown ------- ---- -- --- ------- --<br>------- ---------- ------ -- ----- -- ----- -- ---- ------<br>--- ----- --- --- ------ -------- ----- --- ------ ----- --<br>----- ----- ---------- --- --- ------ ------ ---- -- ------<br>------- --- ------ ----- --- ---- ------- -- ---- --- --<br>------- ------,98475.59999999404,98474.69999998808,98118.241,98123.79999999702,98134.911,98485.013,,5,crown
screen,html.Screen,0_2_1_1_6,2021-12-03T12:42:35.044Z,,,,,,,,,,,,,,,,54,,,,,,,,,,,,,,493.386999991053,,response,,,100,,,,,,Space,keypress(Space),,,,,-- --- ---- --- ------ ----- secured ---- -- --- ------- --<br>------- ---------- ------ -- ----- -- ----- -- ---- ------<br>--- ----- --- --- ------ -------- ----- --- ------ ----- --<br>----- ----- ---------- --- --- ------ ------ ---- -- ------<br>------- --- ------ ----- --- ---- ------- -- ---- --- --<br>------- ------,98978.89999999106,98978.39999999106,98468.343,98475.79999999702,98485.013,98984.958,,6,secured
screen,html.Screen,0_2_1_1_7,2021-12-03T12:42:35.469Z,,,,,,,,,,,,,,,,54,,,,,,,,,,,,,,417.74199998808035,,response,,,100,,,,,,Space,keypress(Space),,,,,-- --- ---- --- ------ ----- ------- much -- --- ------- --<br>------- ---------- ------ -- ----- -- ----- -- ---- ------<br>--- ----- --- --- ------ -------- ----- --- ------ ----- --<br>----- ----- ---------- --- --- ------ ------ ---- -- ------<br>------- --- ------ ----- --- ---- ------- -- ---- --- --<br>------- ------,99403.5,99402.69999998808,98968.29,98979.09999999404,98984.958,99418.656,,7,much
screen,html.Screen,0_2_1_1_8,2021-12-03T12:42:35.869Z,,,,,,,,,,,,,,,,54,,,,,,,,,,,,,,383.94399999403686,,response,,,100,,,,,,Space,keypress(Space),,,,,-- --- ---- --- ------ ----- ------- ---- of --- ------- --<br>------- ---------- ------ -- ----- -- ----- -- ---- ------<br>--- ----- --- --- ------ -------- ----- --- ------ ----- --<br>----- ----- ---------- --- --- ------ ------ ---- -- ------<br>------- --- ------ ----- --- ---- ------- -- ---- --- --<br>------- ------,99803.39999999106,99802.59999999404,99401.984,99403.79999999702,99418.656,99818.681,,8,of
screen,html.Screen,0_2_1_1_9,2021-12-03T12:42:36.237Z,,,,,,,,,,,,,,,,54,,,,,,,,,,,,,,351.9189999940427,,response,,,100,,,,,,Space,keypress(Space),,,,,-- --- ---- --- ------ ----- ------- ---- -- its ------- --<br>------- ---------- ------ -- ----- -- ----- -- ---- ------<br>--- ----- --- --- ------ -------- ----- --- ------ ----- --<br>----- ----- ---------- --- --- ------ ------ ---- -- ------<br>------- --- ------ ----- --- ---- ------- -- ---- --- --<br>------- ------,100171.39999999106,100170.59999999404,99802.011,99803.59999999404,99818.681,100185.479,,9,its
screen,html.Screen,0_2_1_1_10,2021-12-03T12:42:36.629Z,,,,,,,,,,,,,,,,54,,,,,,,,,,,,,,377.1209999940329,,response,,,100,,,,,,Space,keypress(Space),,,,,-- --- ---- --- ------ ----- ------- ---- -- --- revenue --<br>------- ---------- ------ -- ----- -- ----- -- ---- ------<br>--- ----- --- --- ------ -------- ----- --- ------ ----- --<br>----- ----- ---------- --- --- ------ ------ ---- -- ------<br>------- --- ------ ----- --- ---- ------- -- ---- --- --<br>------- ------,100563.29999999702,100562.59999999404,100168.808,100171.59999999404,100185.479,100568.742,,10,revenue
screen,html.Screen,0_2_1_1_11,2021-12-03T12:42:37.077Z,,,,,,,,,,,,,,,,54,,,,,,,,,,,,,,441.75800000000163,,response,,,100,,,,,,Space,keypress(Space),,,,,-- --- ---- --- ------ ----- ------- ---- -- --- ------- by<br>------- ---------- ------ -- ----- -- ----- -- ---- ------<br>--- ----- --- --- ------ -------- ----- --- ------ ----- --<br>----- ----- ---------- --- --- ------ ------ ---- -- ------<br>------- --- ------ ----- --- ---- ------- -- ---- --- --<br>------- ------,101011.29999999702,101010.5,100552.074,100563.59999999404,100568.742,101019.09,,11,by
screen,html.Screen,0_2_1_1_12,2021-12-03T12:42:37.461Z,,,,,,,,,,,,,,,,54,,,,,,,,,,,,,,375.4100000000035,,response,,,100,,,,,,Space,keypress(Space),,,,,-- --- ---- --- ------ ----- ------- ---- -- --- ------- --<br>issuing ---------- ------ -- ----- -- ----- -- ---- ------<br>--- ----- --- --- ------ -------- ----- --- ------ ----- --<br>----- ----- ---------- --- --- ------ ------ ---- -- ------<br>------- --- ------ ----- --- ---- ------- -- ---- --- --<br>------- ------,101395.29999999702,101394.5,101002.418,101011.69999998808,101019.09,101402.399,,12,issuing
screen,html.Screen,0_2_1_1_13,2021-12-03T12:42:37.901Z,,,,,,,,,,,,,,,,54,,,,,,,,,,,,,,432.1009999999951,,response,,,100,,,,,,Space,keypress(Space),,,,,-- --- ---- --- ------ ----- ------- ---- -- --- ------- --<br>------- government ------ -- ----- -- ----- -- ---- ------<br>--- ----- --- --- ------ -------- ----- --- ------ ----- --<br>----- ----- ---------- --- --- ------ ------ ---- -- ------<br>------- --- ------ ----- --- ---- ------- -- ---- --- --<br>------- ------,101835.19999998808,101834.5,101385.729,101395.5,101402.399,101852.532,,13,government
screen,html.Screen,0_2_1_1_14,2021-12-03T12:42:38.301Z,,,,,,,,,,,,,,,,54,,,,,,,,,,,,,,381.9679999999935,,response,,,100,,,,,,Space,keypress(Space),,,,,-- --- ---- --- ------ ----- ------- ---- -- --- ------- --<br>------- ---------- bonds. -- ----- -- ----- -- ---- ------<br>--- ----- --- --- ------ -------- ----- --- ------ ----- --<br>----- ----- ---------- --- --- ------ ------ ---- -- ------<br>------- --- ------ ----- --- ---- ------- -- ---- --- --<br>------- ------,102235.29999999702,102234.5,101835.862,101835.5,101852.532,102252.7,,14,bonds.
screen,html.Screen,0_2_1_1_15,2021-12-03T12:42:38.709Z,,,,,,,,,,,,,,,,54,,,,,,,,,,,,,,389.8000000000029,,response,,,100,,,,,,Space,keypress(Space),,,,,-- --- ---- --- ------ ----- ------- ---- -- --- ------- --<br>------- ---------- ------ In ----- -- ----- -- ---- ------<br>--- ----- --- --- ------ -------- ----- --- ------ ----- --<br>----- ----- ---------- --- --- ------ ------ ---- -- ------<br>------- --- ------ ----- --- ---- ------- -- ---- --- --<br>------- ------,102643.29999999702,102642.5,102236.029,102235.5,102252.7,102652.729,,15,In
screen,html.Screen,0_2_1_1_16,2021-12-03T12:42:39.109Z,,,,,,,,,,,,,,,,54,,,,,,,,,,,,,,389.77099999999336,,response,,,100,,,,,,Space,keypress(Space),,,,,"-- --- ---- --- ------ ----- ------- ---- -- --- ------- --<br>------- ---------- ------ -- 1727, -- ----- -- ---- ------<br>--- ----- --- --- ------ -------- ----- --- ------ ----- --<br>----- ----- ---------- --- --- ------ ------ ---- -- ------<br>------- --- ------ ----- --- ---- ------- -- ---- --- --<br>------- ------",103043.29999999702,103042.5,102636.059,102643.5,102652.729,103052.884,,16,"1727,"
screen,html.Screen,0_2_1_1_17,2021-12-03T12:42:39.501Z,,,,,,,,,,,,,,,,54,,,,,,,,,,,,,,381.51599999105383,,response,,,100,,,,,,Space,keypress(Space),,,,,-- --- ---- --- ------ ----- ------- ---- -- --- ------- --<br>------- ---------- ------ -- ----- in ----- -- ---- ------<br>--- ----- --- --- ------ -------- ----- --- ------ ----- --<br>----- ----- ---------- --- --- ------ ------ ---- -- ------<br>------- --- ------ ----- --- ---- ------- -- ---- --- --<br>------- ------,103435.19999998808,103434.39999999106,103036.213,103043.5,103052.884,103436.257,,17,in
screen,html.Screen,0_2_1_1_18,2021-12-03T12:42:39.941Z,,,,,,,,,,,,,,,,54,,,,,,,,,,,,,,438.1429999910615,,response,,,100,,,,,,Space,keypress(Space),,,,,-- --- ---- --- ------ ----- ------- ---- -- --- ------- --<br>------- ---------- ------ -- ----- -- order -- ---- ------<br>--- ----- --- --- ------ -------- ----- --- ------ ----- --<br>----- ----- ---------- --- --- ------ ------ ---- -- ------<br>------- --- ------ ----- --- ---- ------- -- ---- --- --<br>------- ------,103875.19999998808,103874.39999999106,103419.587,103435.5,103436.257,103886.431,,18,order
screen,html.Screen,0_2_1_1_19,2021-12-03T12:42:40.325Z,,,,,,,,,,,,,,,,54,,,,,,,,,,,,,,371.96899999106245,,response,,,100,,,,,,Space,keypress(Space),,,,,-- --- ---- --- ------ ----- ------- ---- -- --- ------- --<br>------- ---------- ------ -- ----- -- ----- to ---- ------<br>--- ----- --- --- ------ -------- ----- --- ------ ----- --<br>----- ----- ---------- --- --- ------ ------ ---- -- ------<br>------- --- ------ ----- --- ---- ------- -- ---- --- --<br>------- ------,104259.19999998808,104258.39999999106,103869.76,103875.39999999106,103886.431,104269.822,,19,to
screen,html.Screen,0_2_1_1_20,2021-12-03T12:42:40.692Z,,,,,,,,,,,,,,,,54,,,,,,,,,,,,,,356.47799999701965,,response,,,100,,,,,,Space,keypress(Space),,,,,-- --- ---- --- ------ ----- ------- ---- -- --- ------- --<br>------- ---------- ------ -- ----- -- ----- -- save ------<br>--- ----- --- --- ------ -------- ----- --- ------ ----- --<br>----- ----- ---------- --- --- ------ ------ ---- -- ------<br>------- --- ------ ----- --- ---- ------- -- ---- --- --<br>------- ------,104627.09999999404,104626.29999999702,104253.152,104259.5,104269.822,104636.595,,20,save
screen,html.Screen,0_2_1_1_21,2021-12-03T12:42:41.100Z,,,,,,,,,,,,,,,,54,,,,,,,,,,,,,,397.7049999970186,,response,,,100,,,,,,Space,keypress(Space),,,,,"-- --- ---- --- ------ ----- ------- ---- -- --- ------- --<br>------- ---------- ------ -- ----- -- ----- -- ---- money,<br>--- ----- --- --- ------ -------- ----- --- ------ ----- --<br>----- ----- ---------- --- --- ------ ------ ---- -- ------<br>------- --- ------ ----- --- ---- ------- -- ---- --- --<br>------- ------",105035.19999998808,105034.29999999702,104619.925,104627.29999999702,104636.595,105036.696,,21,"money,"
screen,html.Screen,0_2_1_1_22,2021-12-03T12:42:41.484Z,,,,,,,,,,,,,,,,54,,,,,,,,,,,,,,381.70399999106303,,response,,,100,,,,,,Space,keypress(Space),,,,,-- --- ---- --- ------ ----- ------- ---- -- --- ------- --<br>------- ---------- ------ -- ----- -- ----- -- ---- ------<br>the ----- --- --- ------ -------- ----- --- ------ ----- --<br>----- ----- ---------- --- --- ------ ------ ---- -- ------<br>------- --- ------ ----- --- ---- ------- -- ---- --- --<br>------- ------,105419.09999999404,105418.39999999106,105020.026,105035.39999999106,105036.696,105420.116,,22,the
screen,html.Screen,0_2_1_1_23,2021-12-03T12:42:41.860Z,,,,,,,,,,,,,,,,54,,,,,,,,,,,,,,374.18399999702524,,response,,,100,,,,,,Space,keypress(Space),,,,,-- --- ---- --- ------ ----- ------- ---- -- --- ------- --<br>------- ---------- ------ -- ----- -- ----- -- ---- ------<br>--- state --- --- ------ -------- ----- --- ------ ----- --<br>----- ----- ---------- --- --- ------ ------ ---- -- ------<br>------- --- ------ ----- --- ---- ------- -- ---- --- --<br>------- ------,105795.09999999404,105794.29999999702,105403.446,105419.39999999106,105420.116,105803.533,,23,state
screen,html.Screen,0_2_1_1_24,2021-12-03T12:42:42.252Z,,,,,,,,,,,,,,,,54,,,,,,,,,,,,,,382.76699999702396,,response,,,100,,,,,,Space,keypress(Space),,,,,-- --- ---- --- ------ ----- ------- ---- -- --- ------- --<br>------- ---------- ------ -- ----- -- ----- -- ---- ------<br>--- ----- cut --- ------ -------- ----- --- ------ ----- --<br>----- ----- ---------- --- --- ------ ------ ---- -- ------<br>------- --- ------ ----- --- ---- ------- -- ---- --- --<br>------- ------,106187.19999998808,106186.29999999702,105786.863,105795.29999999702,105803.533,106203.636,,24,cut
screen,html.Screen,0_2_1_1_25,2021-12-03T12:42:42.613Z,,,,,,,,,,,,,,,,54,,,,,,,,,,,,,,343.16399999702116,,response,,,100,,,,,,Space,keypress(Space),,,,,-- --- ---- --- ------ ----- ------- ---- -- --- ------- --<br>------- ---------- ------ -- ----- -- ----- -- ---- ------<br>--- ----- --- the ------ -------- ----- --- ------ ----- --<br>----- ----- ---------- --- --- ------ ------ ---- -- ------<br>------- --- ------ ----- --- ---- ------- -- ---- --- --<br>------- ------,106547.5,106546.79999999702,106186.966,106187.39999999106,106203.636,106553.646,,25,the
screen,html.Screen,0_2_1_1_26,2021-12-03T12:42:43.036Z,,,,,,,,,,,,,,,,54,,,,,,,,,,,,,,416.5539999880857,,response,,,100,,,,,,Space,keypress(Space),,,,,-- --- ---- --- ------ ----- ------- ---- -- --- ------- --<br>------- ---------- ------ -- ----- -- ----- -- ---- ------<br>--- ----- --- --- bonds' -------- ----- --- ------ ----- --<br>----- ----- ---------- --- --- ------ ------ ---- -- ------<br>------- --- ------ ----- --- ---- ------- -- ---- --- --<br>------- ------,106971.09999999404,106970.19999998808,106536.977,106547.69999998808,106553.646,106987.288,,26,bonds'
screen,html.Screen,0_2_1_1_27,2021-12-03T12:42:43.452Z,,,,,,,,,,,,,,,,54,,,,,,,,,,,,,,398.9119999880786,,response,,,100,,,,,,Space,keypress(Space),,,,,-- --- ---- --- ------ ----- ------- ---- -- --- ------- --<br>------- ---------- ------ -- ----- -- ----- -- ---- ------<br>--- ----- --- --- ------ interest ----- --- ------ ----- --<br>----- ----- ---------- --- --- ------ ------ ---- -- ------<br>------- --- ------ ----- --- ---- ------- -- ---- --- --<br>------- ------,107387.09999999404,107386.19999998808,106970.616,106971.29999999702,106987.288,107403.955,,27,interest
screen,html.Screen,0_2_1_1_28,2021-12-03T12:42:43.836Z,,,,,,,,,,,,,,,,54,,,,,,,,,,,,,,366.344999997018,,response,,,100,,,,,,Space,keypress(Space),,,,,-- --- ---- --- ------ ----- ------- ---- -- --- ------- --<br>------- ---------- ------ -- ----- -- ----- -- ---- ------<br>--- ----- --- --- ------ -------- rate. --- ------ ----- --<br>----- ----- ---------- --- --- ------ ------ ---- -- ------<br>------- --- ------ ----- --- ---- ------- -- ---- --- --<br>------- ------,107771.09999999404,107770.29999999702,107387.285,107387.29999999702,107403.955,107787.329,,28,rate.
screen,html.Screen,0_2_1_1_29,2021-12-03T12:42:44.268Z,,,,,,,,,,,,,,,,54,,,,,,,,,,,,,,414.87099998808117,,response,,,100,,,,,,Space,keypress(Space),,,,,-- --- ---- --- ------ ----- ------- ---- -- --- ------- --<br>------- ---------- ------ -- ----- -- ----- -- ---- ------<br>--- ----- --- --- ------ -------- ----- The ------ ----- --<br>----- ----- ---------- --- --- ------ ------ ---- -- ------<br>------- --- ------ ----- --- ---- ------- -- ---- --- --<br>------- ------,108203,108202.19999998808,107770.66,107771.29999999702,107787.329,108204.248,,29,The
screen,html.Screen,0_2_1_1_30,2021-12-03T12:42:44.676Z,,,,,,,,,,,,,,,,54,,,,,,,,,,,,,,405.85199999403267,,response,,,100,,,,,,Space,keypress(Space),,,,,-- --- ---- --- ------ ----- ------- ---- -- --- ------- --<br>------- ---------- ------ -- ----- -- ----- -- ---- ------<br>--- ----- --- --- ------ -------- ----- --- market ----- --<br>----- ----- ---------- --- --- ------ ------ ---- -- ------<br>------- --- ------ ----- --- ---- ------- -- ---- --- --<br>------- ------,108611,108610.09999999404,108187.576,108203.19999998808,108204.248,108620.92,,30,market
screen,html.Screen,0_2_1_1_31,2021-12-03T12:42:45.060Z,,,,,,,,,,,,,,,,54,,,,,,,,,,,,,,373.2799999880808,,response,,,100,,,,,,Space,keypress(Space),,,,,-- --- ---- --- ------ ----- ------- ---- -- --- ------- --<br>------- ---------- ------ -- ----- -- ----- -- ---- ------<br>--- ----- --- --- ------ -------- ----- --- ------ value --<br>----- ----- ---------- --- --- ------ ------ ---- -- ------<br>------- --- ------ ----- --- ---- ------- -- ---- --- --<br>------- ------,108995,108994.19999998808,108604.25,108611.19999998808,108620.92,109004.409,,31,value
screen,html.Screen,0_2_1_1_32,2021-12-03T12:42:45.460Z,,,,,,,,,,,,,,,,54,,,,,,,,,,,,,,389.6909999940399,,response,,,100,,,,,,Space,keypress(Space),,,,,-- --- ---- --- ------ ----- ------- ---- -- --- ------- --<br>------- ---------- ------ -- ----- -- ----- -- ---- ------<br>--- ----- --- --- ------ -------- ----- --- ------ ----- of<br>----- ----- ---------- --- --- ------ ------ ---- -- ------<br>------- --- ------ ----- --- ---- ------- -- ---- --- --<br>------- ------,109394.89999999106,109394.09999999404,108987.738,108995.19999998808,109004.409,109404.485,,32,of
screen,html.Screen,0_2_1_1_33,2021-12-03T12:42:45.868Z,,,,,,,,,,,,,,,,54,,,,,,,,,,,,,,397.61499999403895,,response,,,100,,,,,,Space,keypress(Space),,,,,-- --- ---- --- ------ ----- ------- ---- -- --- ------- --<br>------- ---------- ------ -- ----- -- ----- -- ---- ------<br>--- ----- --- --- ------ -------- ----- --- ------ ----- --<br>these ----- ---------- --- --- ------ ------ ---- -- ------<br>------- --- ------ ----- --- ---- ------- -- ---- --- --<br>------- ------,109802.89999999106,109802.09999999404,109387.815,109395.09999999404,109404.485,109804.483,,33,these
screen,html.Screen,0_2_1_1_34,2021-12-03T12:42:46.260Z,,,,,,,,,,,,,,,,54,,,,,,,,,,,,,,389.61699999404664,,response,,,100,,,,,,Space,keypress(Space),,,,,-- --- ---- --- ------ ----- ------- ---- -- --- ------- --<br>------- ---------- ------ -- ----- -- ----- -- ---- ------<br>--- ----- --- --- ------ -------- ----- --- ------ ----- --<br>----- bonds ---------- --- --- ------ ------ ---- -- ------<br>------- --- ------ ----- --- ---- ------- -- ---- --- --<br>------- ------,110194.89999999106,110194.09999999404,109787.814,109803.09999999404,109804.483,110204.753,,34,bonds
screen,html.Screen,0_2_1_1_35,2021-12-03T12:42:46.700Z,,,,,,,,,,,,,,,,54,,,,,,,,,,,,,,429.247000000003,,response,,,100,,,,,,Space,keypress(Space),,,,,"-- --- ---- --- ------ ----- ------- ---- -- --- ------- --<br>------- ---------- ------ -- ----- -- ----- -- ---- ------<br>--- ----- --- --- ------ -------- ----- --- ------ ----- --<br>----- ----- plummeted, --- --- ------ ------ ---- -- ------<br>------- --- ------ ----- --- ---- ------- -- ---- --- --<br>------- ------",110634.89999999106,110634,110188.081,110195.09999999404,110204.753,110638.027,,35,"plummeted,"
screen,html.Screen,0_2_1_1_36,2021-12-03T12:42:47.108Z,,,,,,,,,,,,,,,,54,,,,,,,,,,,,,,404.0729999940377,,response,,,100,,,,,,Space,keypress(Space),,,,,-- --- ---- --- ------ ----- ------- ---- -- --- ------- --<br>------- ---------- ------ -- ----- -- ----- -- ---- ------<br>--- ----- --- --- ------ -------- ----- --- ------ ----- --<br>----- ----- ---------- and --- ------ ------ ---- -- ------<br>------- --- ------ ----- --- ---- ------- -- ---- --- --<br>------- ------,111042.79999999702,111042.09999999404,110621.358,110635.19999998808,110638.027,111054.996,,36,and
screen,html.Screen,0_2_1_1_37,2021-12-03T12:42:47.524Z,,,,,,,,,,,,,,,,54,,,,,,,,,,,,,,403.0040000000008,,response,,,100,,,,,,Space,keypress(Space),,,,,-- --- ---- --- ------ ----- ------- ---- -- --- ------- --<br>------- ---------- ------ -- ----- -- ----- -- ---- ------<br>--- ----- --- --- ------ -------- ----- --- ------ ----- --<br>----- ----- ---------- --- the ------ ------ ---- -- ------<br>------- --- ------ ----- --- ---- ------- -- ---- --- --<br>------- ------,111458.69999998808,111458,111038.324,111043,111054.996,111471.676,,37,the
screen,html.Screen,0_2_1_1_38,2021-12-03T12:42:47.980Z,,,,,,,,,,,,,,,,54,,,,,,,,,,,,,,442.32399999999325,,response,,,100,,,,,,Space,keypress(Space),,,,,-- --- ---- --- ------ ----- ------- ---- -- --- ------- --<br>------- ---------- ------ -- ----- -- ----- -- ---- ------<br>--- ----- --- --- ------ -------- ----- --- ------ ----- --<br>----- ----- ---------- --- --- market ------ ---- -- ------<br>------- --- ------ ----- --- ---- ------- -- ---- --- --<br>------- ------,111914.79999999702,111914,111455.006,111459,111471.676,111921.829,,38,market
screen,html.Screen,0_2_1_1_39,2021-12-03T12:42:48.380Z,,,,,,,,,,,,,,,,54,,,,,,,,,,,,,,392.1710000000021,,response,,,100,,,,,,Space,keypress(Space),,,,,-- --- ---- --- ------ ----- ------- ---- -- --- ------- --<br>------- ---------- ------ -- ----- -- ----- -- ---- ------<br>--- ----- --- --- ------ -------- ----- --- ------ ----- --<br>----- ----- ---------- --- --- ------ became ---- -- ------<br>------- --- ------ ----- --- ---- ------- -- ---- --- --<br>------- ------,112314.79999999702,112314,111905.158,111914.89999999106,111921.829,112321.901,,39,became
screen,html.Screen,0_2_1_1_40,2021-12-03T12:42:48.765Z,,,,,,,,,,,,,,,,54,,,,,,,,,,,,,,376.099000000002,,response,,,100,,,,,,Space,keypress(Space),,,,,-- --- ---- --- ------ ----- ------- ---- -- --- ------- --<br>------- ---------- ------ -- ----- -- ----- -- ---- ------<br>--- ----- --- --- ------ -------- ----- --- ------ ----- --<br>----- ----- ---------- --- --- ------ ------ wary -- ------<br>------- --- ------ ----- --- ---- ------- -- ---- --- --<br>------- ------,112700,112698,112305.231,112315.09999999404,112321.901,112705.309,,40,wary
screen,html.Screen,0_2_1_1_41,2021-12-03T12:42:49.244Z,,,,,,,,,,,,,,,,54,,,,,,,,,,,,,,472.5909999910655,,response,,,100,,,,,,Space,keypress(Space),,,,,-- --- ---- --- ------ ----- ------- ---- -- --- ------- --<br>------- ---------- ------ -- ----- -- ----- -- ---- ------<br>--- ----- --- --- ------ -------- ----- --- ------ ----- --<br>----- ----- ---------- --- --- ------ ------ ---- of ------<br>------- --- ------ ----- --- ---- ------- -- ---- --- --<br>------- ------,113178.69999998808,113177.89999999106,112688.639,112700.29999999702,112705.309,113188.781,,41,of
screen,html.Screen,0_2_1_1_42,2021-12-03T12:42:49.828Z,,,,,,,,,,,,,,,,54,,,,,,,,,,,,,,573.0189999970171,,response,,,100,,,,,,Space,keypress(Space),,,,,-- --- ---- --- ------ ----- ------- ---- -- --- ------- --<br>------- ---------- ------ -- ----- -- ----- -- ---- ------<br>--- ----- --- --- ------ -------- ----- --- ------ ----- --<br>----- ----- ---------- --- --- ------ ------ ---- -- French<br>------- --- ------ ----- --- ---- ------- -- ---- --- --<br>------- ------,113762.59999999404,113761.79999999702,113172.111,113178.89999999106,113188.781,113772.307,,42,French
screen,html.Screen,0_2_1_1_43,2021-12-03T12:42:50.260Z,,,,,,,,,,,,,,,,54,,,,,,,,,,,,,,421.5929999910586,,response,,,100,,,,,,Space,keypress(Space),,,,,-- --- ---- --- ------ ----- ------- ---- -- --- ------- --<br>------- ---------- ------ -- ----- -- ----- -- ---- ------<br>--- ----- --- --- ------ -------- ----- --- ------ ----- --<br>----- ----- ---------- --- --- ------ ------ ---- -- ------<br>credit. --- ------ ----- --- ---- ------- -- ---- --- --<br>------- ------,114194.69999998808,114193.89999999106,113755.636,113762.89999999106,113772.307,114205.702,,43,credit.
screen,html.Screen,0_2_1_1_44,2021-12-03T12:42:50.748Z,,,,,,,,,,,,,,,,54,,,,,,,,,,,,,,476.097999997015,,response,,,100,,,,,,Space,keypress(Space),,,,,-- --- ---- --- ------ ----- ------- ---- -- --- ------- --<br>------- ---------- ------ -- ----- -- ----- -- ---- ------<br>--- ----- --- --- ------ -------- ----- --- ------ ----- --<br>----- ----- ---------- --- --- ------ ------ ---- -- ------<br>------- The ------ ----- --- ---- ------- -- ---- --- --<br>------- ------,114682.5,114681.79999999702,114189.032,114194.89999999106,114205.702,114689.085,,44,The
screen,html.Screen,0_2_1_1_45,2021-12-03T12:42:51.156Z,,,,,,,,,,,,,,,,54,,,,,,,,,,,,,,400.71499999701336,,response,,,100,,,,,,Space,keypress(Space),,,,,-- --- ---- --- ------ ----- ------- ---- -- --- ------- --<br>------- ---------- ------ -- ----- -- ----- -- ---- ------<br>--- ----- --- --- ------ -------- ----- --- ------ ----- --<br>----- ----- ---------- --- --- ------ ------ ---- -- ------<br>------- --- French ----- --- ---- ------- -- ---- --- --<br>------- ------,115090.59999999404,115089.79999999702,114672.416,114682.69999998808,114689.085,115106.027,,45,French
screen,html.Screen,0_2_1_1_46,2021-12-03T12:42:51.588Z,,,,,,,,,,,,,,,,54,,,,,,,,,,,,,,415.6729999880772,,response,,,100,,,,,,Space,keypress(Space),,,,,-- --- ---- --- ------ ----- ------- ---- -- --- ------- --<br>------- ---------- ------ -- ----- -- ----- -- ---- ------<br>--- ----- --- --- ------ -------- ----- --- ------ ----- --<br>----- ----- ---------- --- --- ------ ------ ---- -- ------<br>------- --- ------ state --- ---- ------- -- ---- --- --<br>------- ------,115522.5,115521.69999998808,115089.355,115090.79999999702,115106.027,115539.392,,46,state
screen,html.Screen,0_2_1_1_47,2021-12-03T12:42:51.996Z,,,,,,,,,,,,,,,,54,,,,,,,,,,,,,,390.30799998807197,,response,,,100,,,,,,Space,keypress(Space),,,,,-- --- ---- --- ------ ----- ------- ---- -- --- ------- --<br>------- ---------- ------ -- ----- -- ----- -- ---- ------<br>--- ----- --- --- ------ -------- ----- --- ------ ----- --<br>----- ----- ---------- --- --- ------ ------ ---- -- ------<br>------- --- ------ ----- was ---- ------- -- ---- --- --<br>------- ------,115930.59999999404,115929.69999998808,115522.722,115522.69999998808,115539.392,115939.495,,47,was
screen,html.Screen,0_2_1_1_48,2021-12-03T12:42:52.444Z,,,,,,,,,,,,,,,,54,,,,,,,,,,,,,,438.3049999970244,,response,,,100,,,,,,Space,keypress(Space),,,,,-- --- ---- --- ------ ----- ------- ---- -- --- ------- --<br>------- ---------- ------ -- ----- -- ----- -- ---- ------<br>--- ----- --- --- ------ -------- ----- --- ------ ----- --<br>----- ----- ---------- --- --- ------ ------ ---- -- ------<br>------- --- ------ ----- --- left ------- -- ---- --- --<br>------- ------,116378.5,116377.79999999702,115922.825,115930.69999998808,115939.495,116389.583,,48,left
screen,html.Screen,0_2_1_1_49,2021-12-03T12:42:52.884Z,,,,,,,,,,,,,,,,54,,,,,,,,,,,,,,428.5169999940408,,response,,,100,,,,,,Space,keypress(Space),,,,,-- --- ---- --- ------ ----- ------- ---- -- --- ------- --<br>------- ---------- ------ -- ----- -- ----- -- ---- ------<br>--- ----- --- --- ------ -------- ----- --- ------ ----- --<br>----- ----- ---------- --- --- ------ ------ ---- -- ------<br>------- --- ------ ----- --- ---- without -- ---- --- --<br>------- ------,116819,116818.09999999404,116372.913,116378.79999999702,116389.583,116823.091,,49,without
screen,html.Screen,0_2_1_1_50,2021-12-03T12:42:53.308Z,,,,,,,,,,,,,,,,54,,,,,,,,,,,,,,418.5089999940392,,response,,,100,,,,,,Space,keypress(Space),,,,,-- --- ---- --- ------ ----- ------- ---- -- --- ------- --<br>------- ---------- ------ -- ----- -- ----- -- ---- ------<br>--- ----- --- --- ------ -------- ----- --- ------ ----- --<br>----- ----- ---------- --- --- ------ ------ ---- -- ------<br>------- --- ------ ----- --- ---- ------- an ---- --- --<br>------- ------,117242.29999999702,117241.59999999404,116806.42,116819.09999999404,116823.091,117256.49,,50,an
screen,html.Screen,0_2_1_1_51,2021-12-03T12:42:53.732Z,,,,,,,,,,,,,,,,54,,,,,,,,,,,,,,409.1099999940343,,response,,,100,,,,,,Space,keypress(Space),,,,,-- --- ---- --- ------ ----- ------- ---- -- --- ------- --<br>------- ---------- ------ -- ----- -- ----- -- ---- ------<br>--- ----- --- --- ------ -------- ----- --- ------ ----- --<br>----- ----- ---------- --- --- ------ ------ ---- -- ------<br>------- --- ------ ----- --- ---- ------- -- easy --- --<br>------- ------,117666.39999999106,117665.59999999404,117239.82,117242.69999998808,117256.49,117673.271,,51,easy
screen,html.Screen,0_2_1_1_52,2021-12-03T12:42:54.124Z,,,,,,,,,,,,,,,,54,,,,,,,,,,,,,,384.32899999404617,,response,,,100,,,,,,Space,keypress(Space),,,,,-- --- ---- --- ------ ----- ------- ---- -- --- ------- --<br>------- ---------- ------ -- ----- -- ----- -- ---- ------<br>--- ----- --- --- ------ -------- ----- --- ------ ----- --<br>----- ----- ---------- --- --- ------ ------ ---- -- ------<br>------- --- ------ ----- --- ---- ------- -- ---- way --<br>------- ------,118058.39999999106,118057.59999999404,117656.601,117666.69999998808,117673.271,118073.375,,52,way
screen,html.Screen,0_2_1_1_53,2021-12-03T12:42:54.587Z,,,,,,,,,,,,,,,,54,,,,,,,,,,,,,,447.72499999403954,,response,,,100,,,,,,Space,keypress(Space),,,,,-- --- ---- --- ------ ----- ------- ---- -- --- ------- --<br>------- ---------- ------ -- ----- -- ----- -- ---- ------<br>--- ----- --- --- ------ -------- ----- --- ------ ----- --<br>----- ----- ---------- --- --- ------ ------ ---- -- ------<br>------- --- ------ ----- --- ---- ------- -- ---- --- of<br>------- ------,118521.39999999106,118521.09999999404,118056.705,118058.59999999404,118073.375,118523.53,,53,of
screen,html.Screen,0_2_1_1_54,2021-12-03T12:42:55.035Z,,,,,,,,,,,,,,,,54,,,,,,,,,,,,,,445.66999998808024,,response,,,100,,,,,,Space,keypress(Space),,,,,-- --- ---- --- ------ ----- ------- ---- -- --- ------- --<br>------- ---------- ------ -- ----- -- ----- -- ---- ------<br>--- ----- --- --- ------ -------- ----- --- ------ ----- --<br>----- ----- ---------- --- --- ------ ------ ---- -- ------<br>------- --- ------ ----- --- ---- ------- -- ---- --- --<br>raising ------,118969.69999998808,118969.19999998808,118506.859,118521.5,118523.53,118973.554,,54,raising
screen,html.Screen,0_2_1_1_55,2021-12-03T12:42:56.495Z,,,,,,,,,,,,,,,,54,,,,,,,,,,,,,,1451.9459999999963,,response,,,100,,,,,,Space,keypress(Space),,,,,-- --- ---- --- ------ ----- ------- ---- -- --- ------- --<br>------- ---------- ------ -- ----- -- ----- -- ---- ------<br>--- ----- --- --- ------ -------- ----- --- ------ ----- --<br>----- ----- ---------- --- --- ------ ------ ---- -- ------<br>------- --- ------ ----- --- ---- ------- -- ---- --- --<br>------- money.,120426.29999999702,120425.5,118956.884,118969.69999998808,118973.554,120440.276,,55,money.
Item 100,flow.Loop,0_2_1_1,2021-12-03T12:42:56.495Z,,,,,,,,,,,,,,,,,,,,,,,,,,,,,,24824.592000000004,,completion,,,,C,,,,,,,,,,silence,,120426.79999999702,120425.5,95584.237,95585.69999998808,95600.908,120440.276,,,
Question 1,html.Screen,0_2_1_2,2021-12-03T12:42:58.720Z,,,,,,,,,,,,,,,,,,,,,,,,,,,true,TRUE,,2210.3239999940415,,response,,,100,C,,,,,TRUE,click #choice-1,,,,silence,,122651.79999999702,122650.59999999404,120423.608,120426.89999999106,120440.276,122657.965,,,
Question 2,html.Screen,0_2_1_3,2021-12-03T12:43:02.264Z,,,,,,,,,,,,,,,,,,,,,,,,,,,true,FALSE,,3536.134999994043,,response,,,100,C,,,,,FALSE,click #choice-2,,,,silence,,126195.29999999702,126194.09999999404,122641.294,122652.09999999404,122657.965,126208.741,,,
Item 100,flow.Sequence,0_2_1,2021-12-03T12:43:02.264Z,,,,,,,,,,,,,,,,,,,,,,,,,,,,,,40595.78499999404,,completion,,,,,,,,,,,,,,,,126195.89999999106,126194.09999999404,85581.645,85596.29999999702,85598.315,126208.741,,,
End of Practice,html.Page,0_2_2,2021-12-03T12:43:05.546Z,,,,,,,,,,,,,,,,,,,,,,,,,,,,,,3268.158999991065,,form submission,,,,,,,,,,,,,,,,129477.5,129476.89999999106,126192.071,126196.09999999404,126208.741,129480.734,,,
Practice,flow.Sequence,0_2,2021-12-03T12:43:05.546Z,,,,,,,,,,,,,,,,,,,,,,,,,,,,,,92074.39899999107,,completion,,,,,,,,,,,,,,,,129478,129476.89999999106,37385.831,37392,37402.501,129480.734,,,
Trap_instruction,html.Page,0_3_0,2021-12-03T12:43:13.447Z,,,,,,,,,,,,,,,,,,,,,,,,,,,,,,7897.065999997023,,form submission,,,,,,,,,,,,,,,,137378.29999999702,137377.79999999702,129464.541,129478.39999999106,129480.734,137401.325,,,
trap_trial,html.Screen,0_3_1,2021-12-03T12:43:16.589Z,,,,,,,,,,,,,,,,,,,,,,,,,,,true,1,,3118.1749999999884,,response,,,,,,,,,1,click #choice-1,,,,,,140520.89999999106,140519.5,137368.871,137378.69999998808,137401.325,140534.363,,,
end of trap trial,html.Page,0_3_2,2021-12-03T12:43:19.745Z,,,,,,,,,,,,,,,,,,,,,,,,,,,,,,3141.536999991047,,form submission,,,,,,,,,,,,,,,,143676.59999999404,143675.89999999106,140518.112,140521.19999998808,140534.363,143680.678,,,
Trap 1,flow.Sequence,0_3,2021-12-03T12:43:19.745Z,,,,,,,,,,,,,,,,,,,,,,,,,,,,,,14195.165999991063,,completion,,,,,,,,,,,,,,,,143676.89999999106,143675.89999999106,129464.541,129478.29999999702,129480.734,143680.678,,,
Standby,html.Page,0_4_0,2021-12-03T12:43:27.734Z,,,,,,,,,,,,,,,,,,,,,,,,,,,,,,8000.170999999973,,timeout,,,,,,,,,,,,,,,,151666.19999998808,151664.621,143664.444,143677.19999998808,143680.678,151680.849,,,
Holding screen,html.Screen,0_4_1_0_0,2021-12-03T12:43:34.739Z,,,,,,,,,,,,,,,,,,,,,,,,,,,,,,7004.054000000004,,timeout,,,,,,,,,,,,,,,,158670.69999998808,158668.77,151664.621,151666.59999999404,151680.849,158684.903,,,
screen,html.Screen,0_4_1_0_1_0,2021-12-03T12:43:35.877Z,,,,,,,,,,,,,,,,2,,,,,,,,,,,,,,1122.9969999910682,,response,,,1,C,,,,,Space,keypress(Space),,,,instrumental,Two ---- ------ --- ------- ---------- ------- ----------<br>--- --------- --- ----------- ------- ----- ------- ---<br>--------- ---- -- --- ---- -- --------- -- ---- -------<br>-- --------- ------ --- ----- ------ ---- --- --------- --<br>------ - ---- -- --- ----------- ------- ---- ----- -----<br>--- -------- - ------ ---- -- ----- ---- --- --- -----------<br>-- -------,159808.89999999106,159807.89999999106,158668.77,158671.19999998808,158684.903,159814.13,,0,Two
screen,html.Screen,0_4_1_0_1_1,2021-12-03T12:43:36.308Z,,,,,,,,,,,,,,,,2,,,,,,,,,,,,,,425.1699999970151,,response,,,1,C,,,,,Space,keypress(Space),,,,instrumental,--- days ------ --- ------- ---------- ------- ----------<br>--- --------- --- ----------- ------- ----- ------- ---<br>--------- ---- -- --- ---- -- --------- -- ---- -------<br>-- --------- ------ --- ----- ------ ---- --- --------- --<br>------ - ---- -- --- ----------- ------- ---- ----- -----<br>--- -------- - ------ ---- -- ----- ---- --- --- -----------<br>-- -------,160240.09999999404,160239.29999999702,159797.998,159809.19999998808,159814.13,160250.969,,1,days
screen,html.Screen,0_4_1_0_1_2,2021-12-03T12:43:36.724Z,,,,,,,,,,,,,,,,2,,,,,,,,,,,,,,404.3309999970079,,response,,,1,C,,,,,Space,keypress(Space),,,,instrumental,"--- ---- later, --- ------- ---------- ------- ----------<br>--- --------- --- ----------- ------- ----- ------- ---<br>--------- ---- -- --- ---- -- --------- -- ---- -------<br>-- --------- ------ --- ----- ------ ---- --- --------- --<br>------ - ---- -- --- ----------- ------- ---- ----- -----<br>--- -------- - ------ ---- -- ----- ---- --- --- -----------<br>-- -------",160656.19999998808,160655.29999999702,160234.829,160240.29999999702,160250.969,160671.891,,2,"later,"
screen,html.Screen,0_4_1_0_1_3,2021-12-03T12:43:37.124Z,,,,,,,,,,,,,,,,2,,,,,,,,,,,,,,383.3089999880758,,response,,,1,C,,,,,Space,keypress(Space),,,,instrumental,--- ---- ------ the ------- ---------- ------- ----------<br>--- --------- --- ----------- ------- ----- ------- ---<br>--------- ---- -- --- ---- -- --------- -- ---- -------<br>-- --------- ------ --- ----- ------ ---- --- --------- --<br>------ - ---- -- --- ----------- ------- ---- ----- -----<br>--- -------- - ------ ---- -- ----- ---- --- --- -----------<br>-- -------,161056.09999999404,161055.19999998808,160655.703,160656.39999999106,160671.891,161068.51,,3,the
screen,html.Screen,0_4_1_0_1_4,2021-12-03T12:43:37.596Z,,,,,,,,,,,,,,,,2,,,,,,,,,,,,,,458.78999999701045,,response,,,1,C,,,,,Space,keypress(Space),,,,instrumental,--- ---- ------ --- British ---------- ------- ----------<br>--- --------- --- ----------- ------- ----- ------- ---<br>--------- ---- -- --- ---- -- --------- -- ---- -------<br>-- --------- ------ --- ----- ------ ---- --- --------- --<br>------ - ---- -- --- ----------- ------- ---- ----- -----<br>--- -------- - ------ ---- -- ----- ---- --- --- -----------<br>-- -------,161528,161527.29999999702,161052.481,161056.29999999702,161068.51,161532.74,,4,British
screen,html.Screen,0_4_1_0_1_5,2021-12-03T12:43:38.044Z,,,,,,,,,,,,,,,,2,,,,,,,,,,,,,,442.4599999880884,,response,,,1,C,,,,,Space,keypress(Space),,,,instrumental,--- ---- ------ --- ------- astronomer ------- ----------<br>--- --------- --- ----------- ------- ----- ------- ---<br>--------- ---- -- --- ---- -- --------- -- ---- -------<br>-- --------- ------ --- ----- ------ ---- --- --------- --<br>------ - ---- -- --- ----------- ------- ---- ----- -----<br>--- -------- - ------ ---- -- ----- ---- --- --- -----------<br>-- -------,161976.09999999404,161975.19999998808,161516.711,161528.29999999702,161532.74,161980.638,,5,astronomer
screen,html.Screen,0_4_1_0_1_6,2021-12-03T12:43:38.500Z,,,,,,,,,,,,,,,,2,,,,,,,,,,,,,,450.46199999403325,,response,,,1,C,,,,,Space,keypress(Space),,,,instrumental,--- ---- ------ --- ------- ---------- Richard ----------<br>--- --------- --- ----------- ------- ----- ------- ---<br>--------- ---- -- --- ---- -- --------- -- ---- -------<br>-- --------- ------ --- ----- ------ ---- --- --------- --<br>------ - ---- -- --- ----------- ------- ---- ----- -----<br>--- -------- - ------ ---- -- ----- ---- --- --- -----------<br>-- -------,162432,162431.09999999404,161964.635,161976.39999999106,161980.638,162438.136,,6,Richard
screen,html.Screen,0_4_1_0_1_7,2021-12-03T12:43:39.076Z,,,,,,,,,,,,,,,,2,,,,,,,,,,,,,,569.0639999880805,,response,,,1,C,,,,,Space,keypress(Space),,,,instrumental,--- ---- ------ --- ------- ---------- ------- Carrington<br>--- --------- --- ----------- ------- ----- ------- ---<br>--------- ---- -- --- ---- -- --------- -- ---- -------<br>-- --------- ------ --- ----- ------ ---- --- --------- --<br>------ - ---- -- --- ----------- ------- ---- ----- -----<br>--- -------- - ------ ---- -- ----- ---- --- --- -----------<br>-- -------,163008,163007.19999998808,162422.021,162432.19999998808,162438.136,163014.215,,7,Carrington
screen,html.Screen,0_4_1_0_1_8,2021-12-03T12:43:39.516Z,,,,,,,,,,,,,,,,2,,,,,,,,,,,,,,432.884999994043,,response,,,1,C,,,,,Space,keypress(Space),,,,instrumental,--- ---- ------ --- ------- ---------- ------- ----------<br>was --------- --- ----------- ------- ----- ------- ---<br>--------- ---- -- --- ---- -- --------- -- ---- -------<br>-- --------- ------ --- ----- ------ ---- --- --------- --<br>------ - ---- -- --- ----------- ------- ---- ----- -----<br>--- -------- - ------ ---- -- ----- ---- --- --- -----------<br>-- -------,163448,163447.09999999404,162998.14,163008.19999998808,163014.215,163464.805,,8,was
screen,html.Screen,0_4_1_0_1_9,2021-12-03T12:43:39.972Z,,,,,,,,,,,,,,,,2,,,,,,,,,,,,,,438.2949999940465,,response,,,1,C,,,,,Space,keypress(Space),,,,instrumental,--- ---- ------ --- ------- ---------- ------- ----------<br>--- observing --- ----------- ------- ----- ------- ---<br>--------- ---- -- --- ---- -- --------- -- ---- -------<br>-- --------- ------ --- ----- ------ ---- --- --------- --<br>------ - ---- -- --- ----------- ------- ---- ----- -----<br>--- -------- - ------ ---- -- ----- ---- --- --- -----------<br>-- -------,163904,163903.09999999404,163448.73,163448.29999999702,163464.805,163909.453,,9,observing
screen,html.Screen,0_4_1_0_1_10,2021-12-03T12:43:40.372Z,,,,,,,,,,,,,,,,2,,,,,,,,,,,,,,393.6469999940309,,response,,,1,C,,,,,Space,keypress(Space),,,,instrumental,--- ---- ------ --- ------- ---------- ------- ----------<br>--- --------- the ----------- ------- ----- ------- ---<br>--------- ---- -- --- ---- -- --------- -- ---- -------<br>-- --------- ------ --- ----- ------ ---- --- --------- --<br>------ - ---- -- --- ----------- ------- ---- ----- -----<br>--- -------- - ------ ---- -- ----- ---- --- --- -----------<br>-- -------,164303.89999999106,164303.09999999404,163893.259,163904.19999998808,163909.453,164320.455,,10,the
screen,html.Screen,0_4_1_0_1_11,2021-12-03T12:43:40.852Z,,,,,,,,,,,,,,,,2,,,,,,,,,,,,,,462.5450000000128,,response,,,1,C,,,,,Space,keypress(Space),,,,instrumental,--- ---- ------ --- ------- ---------- ------- ----------<br>--- --------- --- interesting ------- ----- ------- ---<br>--------- ---- -- --- ---- -- --------- -- ---- -------<br>-- --------- ------ --- ----- ------ ---- --- --------- --<br>------ - ---- -- --- ----------- ------- ---- ----- -----<br>--- -------- - ------ ---- -- ----- ---- --- --- -----------<br>-- -------,164783.89999999106,164783,164304.38,164304.19999998808,164320.455,164800.931,,11,interesting
screen,html.Screen,0_4_1_0_1_12,2021-12-03T12:43:41.308Z,,,,,,,,,,,,,,,,2,,,,,,,,,,,,,,438.0689999999886,,response,,,1,C,,,,,Space,keypress(Space),,,,instrumental,--- ---- ------ --- ------- ---------- ------- ----------<br>--- --------- --- ----------- sunspot ----- ------- ---<br>--------- ---- -- --- ---- -- --------- -- ---- -------<br>-- --------- ------ --- ----- ------ ---- --- --------- --<br>------ - ---- -- --- ----------- ------- ---- ----- -----<br>--- -------- - ------ ---- -- ----- ---- --- --- -----------<br>-- -------,165239.89999999106,165239,164784.856,164784.09999999404,164800.931,165247.536,,12,sunspot
screen,html.Screen,0_4_1_0_1_13,2021-12-03T12:43:41.788Z,,,,,,,,,,,,,,,,2,,,,,,,,,,,,,,471.3639999910665,,response,,,1,C,,,,,Space,keypress(Space),,,,instrumental,--- ---- ------ --- ------- ---------- ------- ----------<br>--- --------- --- ----------- ------- group ------- ---<br>--------- ---- -- --- ---- -- --------- -- ---- -------<br>-- --------- ------ --- ----- ------ ---- --- --------- --<br>------ - ---- -- --- ----------- ------- ---- ----- -----<br>--- -------- - ------ ---- -- ----- ---- --- --- -----------<br>-- -------,165719.79999999702,165718.89999999106,165231.532,165240.19999998808,165247.536,165735.699,,13,group
screen,html.Screen,0_4_1_0_1_14,2021-12-03T12:43:42.252Z,,,,,,,,,,,,,,,,2,,,,,,,,,,,,,,447.30100000000675,,response,,,1,C,,,,,Space,keypress(Space),,,,instrumental,--- ---- ------ --- ------- ---------- ------- ----------<br>--- --------- --- ----------- ------- ----- through ---<br>--------- ---- -- --- ---- -- --------- -- ---- -------<br>-- --------- ------ --- ----- ------ ---- --- --------- --<br>------ - ---- -- --- ----------- ------- ---- ----- -----<br>--- -------- - ------ ---- -- ----- ---- --- --- -----------<br>-- -------,166183.89999999106,166183,165719.586,165720,165735.699,166185.12,,14,through
screen,html.Screen,0_4_1_0_1_15,2021-12-03T12:43:42.700Z,,,,,,,,,,,,,,,,2,,,,,,,,,,,,,,445.88000000000466,,response,,,1,C,,,,,Space,keypress(Space),,,,instrumental,--- ---- ------ --- ------- ---------- ------- ----------<br>--- --------- --- ----------- ------- ----- ------- his<br>--------- ---- -- --- ---- -- --------- -- ---- -------<br>-- --------- ------ --- ----- ------ ---- --- --------- --<br>------ - ---- -- --- ----------- ------- ---- ----- -----<br>--- -------- - ------ ---- -- ----- ---- --- --- -----------<br>-- -------,166631.89999999106,166631,166169.045,166184,166185.12,166637.643,,15,his
screen,html.Screen,0_4_1_0_1_16,2021-12-03T12:43:43.132Z,,,,,,,,,,,,,,,,2,,,,,,,,,,,,,,425.35699999998906,,response,,,1,C,,,,,Space,keypress(Space),,,,instrumental,--- ---- ------ --- ------- ---------- ------- ----------<br>--- --------- --- ----------- ------- ----- ------- ---<br>telescope ---- -- --- ---- -- --------- -- ---- -------<br>-- --------- ------ --- ----- ------ ---- --- --------- --<br>------ - ---- -- --- ----------- ------- ---- ----- -----<br>--- -------- - ------ ---- -- ----- ---- --- --- -----------<br>-- -------,167063.79999999702,167063,166621.527,166632.19999998808,166637.643,167071.099,,16,telescope
screen,html.Screen,0_4_1_0_1_17,2021-12-03T12:43:43.564Z,,,,,,,,,,,,,,,,2,,,,,,,,,,,,,,423.9010000000126,,response,,,1,C,,,,,Space,keypress(Space),,,,instrumental,--- ---- ------ --- ------- ---------- ------- ----------<br>--- --------- --- ----------- ------- ----- ------- ---<br>--------- when -- --- ---- -- --------- -- ---- -------<br>-- --------- ------ --- ----- ------ ---- --- --------- --<br>------ - ---- -- --- ----------- ------- ---- ----- -----<br>--- -------- - ------ ---- -- ----- ---- --- --- -----------<br>-- -------,167495.79999999702,167495,167055.005,167064,167071.099,167505.098,,17,when
screen,html.Screen,0_4_1_0_1_18,2021-12-03T12:43:44.092Z,,,,,,,,,,,,,,,,2,,,,,,,,,,,,,,517.6019999880809,,response,,,1,C,,,,,Space,keypress(Space),,,,instrumental,--- ---- ------ --- ------- ---------- ------- ----------<br>--- --------- --- ----------- ------- ----- ------- ---<br>--------- ---- he --- ---- -- --------- -- ---- -------<br>-- --------- ------ --- ----- ------ ---- --- --------- --<br>------ - ---- -- --- ----------- ------- ---- ----- -----<br>--- -------- - ------ ---- -- ----- ---- --- --- -----------<br>-- -------,168023.69999998808,168022.69999998808,167489.023,167496,167505.098,168033.814,,18,he
screen,html.Screen,0_4_1_0_1_19,2021-12-03T12:43:44.708Z,,,,,,,,,,,,,,,,2,,,,,,,,,,,,,,604.9859999970067,,response,,,1,C,,,,,Space,keypress(Space),,,,instrumental,--- ---- ------ --- ------- ---------- ------- ----------<br>--- --------- --- ----------- ------- ----- ------- ---<br>--------- ---- -- saw ---- -- --------- -- ---- -------<br>-- --------- ------ --- ----- ------ ---- --- --------- --<br>------ - ---- -- --- ----------- ------- ---- ----- -----<br>--- -------- - ------ ---- -- ----- ---- --- --- -----------<br>-- -------,168639.59999999404,168638.79999999702,168017.76,168023.89999999106,168033.814,168643.796,,19,saw
screen,html.Screen,0_4_1_0_1_20,2021-12-03T12:43:45.228Z,,,,,,,,,,,,,,,,2,,,,,,,,,,,,,,515.0039999970177,,response,,,1,C,,,,,Space,keypress(Space),,,,instrumental,--- ---- ------ --- ------- ---------- ------- ----------<br>--- --------- --- ----------- ------- ----- ------- ---<br>--------- ---- -- --- what -- --------- -- ---- -------<br>-- --------- ------ --- ----- ------ ---- --- --------- --<br>------ - ---- -- --- ----------- ------- ---- ----- -----<br>--- -------- - ------ ---- -- ----- ---- --- --- -----------<br>-- -------,169159.59999999404,169158.79999999702,168627.743,168639.79999999702,168643.796,169167.245,,20,what
screen,html.Screen,0_4_1_0_1_21,2021-12-03T12:43:45.708Z,,,,,,,,,,,,,,,,2,,,,,,,,,,,,,,471.4549999880837,,response,,,1,C,,,,,Space,keypress(Space),,,,instrumental,--- ---- ------ --- ------- ---------- ------- ----------<br>--- --------- --- ----------- ------- ----- ------- ---<br>--------- ---- -- --- ---- he --------- -- ---- -------<br>-- --------- ------ --- ----- ------ ---- --- --------- --<br>------ - ---- -- --- ----------- ------- ---- ----- -----<br>--- -------- - ------ ---- -- ----- ---- --- --- -----------<br>-- -------,169639.59999999404,169638.69999998808,169151.096,169159.89999999106,169167.245,169656.79,,21,he
screen,html.Screen,0_4_1_0_1_22,2021-12-03T12:43:46.172Z,,,,,,,,,,,,,,,,2,,,,,,,,,,,,,,446.4099999880709,,response,,,1,C,,,,,Space,keypress(Space),,,,instrumental,--- ---- ------ --- ------- ---------- ------- ----------<br>--- --------- --- ----------- ------- ----- ------- ---<br>--------- ---- -- --- ---- -- described -- ---- -------<br>-- --------- ------ --- ----- ------ ---- --- --------- --<br>------ - ---- -- --- ----------- ------- ---- ----- -----<br>--- -------- - ------ ---- -- ----- ---- --- --- -----------<br>-- -------,170104,170103.19999998808,169640.56,169639.79999999702,169656.79,170105.672,,22,described
screen,html.Screen,0_4_1_0_1_23,2021-12-03T12:43:46.580Z,,,,,,,,,,,,,,,,2,,,,,,,,,,,,,,405.0279999880877,,response,,,1,C,,,,,Space,keypress(Space),,,,instrumental,--- ---- ------ --- ------- ---------- ------- ----------<br>--- --------- --- ----------- ------- ----- ------- ---<br>--------- ---- -- --- ---- -- --------- as ---- -------<br>-- --------- ------ --- ----- ------ ---- --- --------- --<br>------ - ---- -- --- ----------- ------- ---- ----- -----<br>--- -------- - ------ ---- -- ----- ---- --- --- -----------<br>-- -------,170511.5,170510.69999998808,170089.521,170104.29999999702,170105.672,170523.042,,23,as
screen,html.Screen,0_4_1_0_1_24,2021-12-03T12:43:47.020Z,,,,,,,,,,,,,,,,2,,,,,,,,,,,,,,427.75799999703304,,response,,,1,C,,,,,Space,keypress(Space),,,,instrumental,"--- ---- ------ --- ------- ---------- ------- ----------<br>--- --------- --- ----------- ------- ----- ------- ---<br>--------- ---- -- --- ---- -- --------- -- ""two -------<br>-- --------- ------ --- ----- ------ ---- --- --------- --<br>------ - ---- -- --- ----------- ------- ---- ----- -----<br>--- -------- - ------ ---- -- ----- ---- --- --- -----------<br>-- -------",170951.5,170950.79999999702,170506.929,170511.79999999702,170523.042,170957.751,,24,"""two"
screen,html.Screen,0_4_1_0_1_25,2021-12-03T12:43:47.580Z,,,,,,,,,,,,,,,,2,,,,,,,,,,,,,,552.8489999940502,,response,,,1,C,,,,,Space,keypress(Space),,,,instrumental,--- ---- ------ --- ------- ---------- ------- ----------<br>--- --------- --- ----------- ------- ----- ------- ---<br>--------- ---- -- --- ---- -- --------- -- ---- patches<br>-- --------- ------ --- ----- ------ ---- --- --------- --<br>------ - ---- -- --- ----------- ------- ---- ----- -----<br>--- -------- - ------ ---- -- ----- ---- --- --- -----------<br>-- -------,171511.39999999106,171510.59999999404,170941.654,170951.69999998808,170957.751,171515.344,,25,patches
screen,html.Screen,0_4_1_0_1_26,2021-12-03T12:43:48.012Z,,,,,,,,,,,,,,,,2,,,,,,,,,,,,,,427.3559999880672,,response,,,1,C,,,,,Space,keypress(Space),,,,instrumental,--- ---- ------ --- ------- ---------- ------- ----------<br>--- --------- --- ----------- ------- ----- ------- ---<br>--------- ---- -- --- ---- -- --------- -- ---- -------<br>of --------- ------ --- ----- ------ ---- --- --------- --<br>------ - ---- -- --- ----------- ------- ---- ----- -----<br>--- -------- - ------ ---- -- ----- ---- --- --- -----------<br>-- -------,171943.5,171942.69999998808,171499.315,171511.69999998808,171515.344,171950.195,,26,of
screen,html.Screen,0_4_1_0_1_27,2021-12-03T12:43:48.492Z,,,,,,,,,,,,,,,,2,,,,,,,,,,,,,,472.5049999880721,,response,,,1,C,,,,,Space,keypress(Space),,,,instrumental,--- ---- ------ --- ------- ---------- ------- ----------<br>--- --------- --- ----------- ------- ----- ------- ---<br>--------- ---- -- --- ---- -- --------- -- ---- -------<br>-- intensely ------ --- ----- ------ ---- --- --------- --<br>------ - ---- -- --- ----------- ------- ---- ----- -----<br>--- -------- - ------ ---- -- ----- ---- --- --- -----------<br>-- -------,172423.5,172422.69999998808,171934.142,171943.59999999404,171950.195,172439.846,,27,intensely
screen,html.Screen,0_4_1_0_1_28,2021-12-03T12:43:48.956Z,,,,,,,,,,,,,,,,2,,,,,,,,,,,,,,446.7539999940491,,response,,,1,C,,,,,Space,keypress(Space),,,,instrumental,--- ---- ------ --- ------- ---------- ------- ----------<br>--- --------- --- ----------- ------- ----- ------- ---<br>--------- ---- -- --- ---- -- --------- -- ---- -------<br>-- --------- bright --- ----- ------ ---- --- --------- --<br>------ - ---- -- --- ----------- ------- ---- ----- -----<br>--- -------- - ------ ---- -- ----- ---- --- --- -----------<br>-- -------,172887.39999999106,172886.59999999404,172423.651,172423.59999999404,172439.846,172900.245,,28,bright
screen,html.Screen,0_4_1_0_1_29,2021-12-03T12:43:49.404Z,,,,,,,,,,,,,,,,2,,,,,,,,,,,,,,434.3549999940442,,response,,,1,C,,,,,Space,keypress(Space),,,,instrumental,--- ---- ------ --- ------- ---------- ------- ----------<br>--- --------- --- ----------- ------- ----- ------- ---<br>--------- ---- -- --- ---- -- --------- -- ---- -------<br>-- --------- ------ and ----- ------ ---- --- --------- --<br>------ - ---- -- --- ----------- ------- ---- ----- -----<br>--- -------- - ------ ---- -- ----- ---- --- --- -----------<br>-- -------,173335.39999999106,173334.59999999404,172884.217,172887.59999999404,172900.245,173339.394,,29,and
screen,html.Screen,0_4_1_0_1_30,2021-12-03T12:43:49.916Z,,,,,,,,,,,,,,,,2,,,,,,,,,,,,,,507.2059999940393,,response,,,1,C,,,,,Space,keypress(Space),,,,instrumental,--- ---- ------ --- ------- ---------- ------- ----------<br>--- --------- --- ----------- ------- ----- ------- ---<br>--------- ---- -- --- ---- -- --------- -- ---- -------<br>-- --------- ------ --- white ------ ---- --- --------- --<br>------ - ---- -- --- ----------- ------- ---- ----- -----<br>--- -------- - ------ ---- -- ----- ---- --- --- -----------<br>-- -------,173847.39999999106,173846.59999999404,173323.279,173335.59999999404,173339.394,173853.322,,30,white
screen,html.Screen,0_4_1_0_1_31,2021-12-03T12:43:50.348Z,,,,,,,,,,,,,,,,2,,,,,,,,,,,,,,425.07799999107374,,response,,,1,C,,,,,Space,keypress(Space),,,,instrumental,"--- ---- ------ --- ------- ---------- ------- ----------<br>--- --------- --- ----------- ------- ----- ------- ---<br>--------- ---- -- --- ---- -- --------- -- ---- -------<br>-- --------- ------ --- ----- light"" ---- --- --------- --<br>------ - ---- -- --- ----------- ------- ---- ----- -----<br>--- -------- - ------ ---- -- ----- ---- --- --- -----------<br>-- -------",174279.29999999702,174278.39999999106,173837.227,173847.59999999404,173853.322,174287.251,,31,"light"""
screen,html.Screen,0_4_1_0_1_32,2021-12-03T12:43:50.764Z,,,,,,,,,,,,,,,,2,,,,,,,,,,,,,,407.34899999405025,,response,,,1,C,,,,,Space,keypress(Space),,,,instrumental,--- ---- ------ --- ------- ---------- ------- ----------<br>--- --------- --- ----------- ------- ----- ------- ---<br>--------- ---- -- --- ---- -- --------- -- ---- -------<br>-- --------- ------ --- ----- ------ over --- --------- --<br>------ - ---- -- --- ----------- ------- ---- ----- -----<br>--- -------- - ------ ---- -- ----- ---- --- --- -----------<br>-- -------,174695.39999999106,174694.59999999404,174271.176,174279.59999999404,174287.251,174711.366,,32,over
screen,html.Screen,0_4_1_0_1_33,2021-12-03T12:43:51.196Z,,,,,,,,,,,,,,,,2,,,,,,,,,,,,,,415.0339999910502,,response,,,1,C,,,,,Space,keypress(Space),,,,instrumental,--- ---- ------ --- ------- ---------- ------- ----------<br>--- --------- --- ----------- ------- ----- ------- ---<br>--------- ---- -- --- ---- -- --------- -- ---- -------<br>-- --------- ------ --- ----- ------ ---- the --------- --<br>------ - ---- -- --- ----------- ------- ---- ----- -----<br>--- -------- - ------ ---- -- ----- ---- --- --- -----------<br>-- -------,175127.39999999106,175126.39999999106,174695.217,174695.59999999404,174711.366,175139.907,,33,the
screen,html.Screen,0_4_1_0_1_34,2021-12-03T12:43:51.636Z,,,,,,,,,,,,,,,,2,,,,,,,,,,,,,,426.5929999999935,,response,,,1,C,,,,,Space,keypress(Space),,,,instrumental,--- ---- ------ --- ------- ---------- ------- ----------<br>--- --------- --- ----------- ------- ----- ------- ---<br>--------- ---- -- --- ---- -- --------- -- ---- -------<br>-- --------- ------ --- ----- ------ ---- --- sunspots. --<br>------ - ---- -- --- ----------- ------- ---- ----- -----<br>--- -------- - ------ ---- -- ----- ---- --- --- -----------<br>-- -------,175567.29999999702,175566.5,175123.854,175127.59999999404,175139.907,175570.87,,34,sunspots.
screen,html.Screen,0_4_1_0_1_35,2021-12-03T12:43:52.075Z,,,,,,,,,,,,,,,,2,,,,,,,,,,,,,,435.52999999106396,,response,,,1,C,,,,,Space,keypress(Space),,,,instrumental,--- ---- ------ --- ------- ---------- ------- ----------<br>--- --------- --- ----------- ------- ----- ------- ---<br>--------- ---- -- --- ---- -- --------- -- ---- -------<br>-- --------- ------ --- ----- ------ ---- --- --------- He<br>------ - ---- -- --- ----------- ------- ---- ----- -----<br>--- -------- - ------ ---- -- ----- ---- --- --- -----------<br>-- -------,176007.19999998808,176006.39999999106,175554.842,175567.5,175570.87,176020.431,,35,He
screen,html.Screen,0_4_1_0_1_36,2021-12-03T12:43:52.499Z,,,,,,,,,,,,,,,,2,,,,,,,,,,,,,,410.0689999999886,,response,,,1,C,,,,,Space,keypress(Space),,,,instrumental,--- ---- ------ --- ------- ---------- ------- ----------<br>--- --------- --- ----------- ------- ----- ------- ---<br>--------- ---- -- --- ---- -- --------- -- ---- -------<br>-- --------- ------ --- ----- ------ ---- --- --------- --<br>jotted - ---- -- --- ----------- ------- ---- ----- -----<br>--- -------- - ------ ---- -- ----- ---- --- --- -----------<br>-- -------,176431.19999998808,176430.5,176004.4,176007.5,176020.431,176439.694,,36,jotted
screen,html.Screen,0_4_1_0_1_37,2021-12-03T12:43:52.907Z,,,,,,,,,,,,,,,,2,,,,,,,,,,,,,,398.7059999910707,,response,,,1,C,,,,,Space,keypress(Space),,,,instrumental,--- ---- ------ --- ------- ---------- ------- ----------<br>--- --------- --- ----------- ------- ----- ------- ---<br>--------- ---- -- --- ---- -- --------- -- ---- -------<br>-- --------- ------ --- ----- ------ ---- --- --------- --<br>------ a ---- -- --- ----------- ------- ---- ----- -----<br>--- -------- - ------ ---- -- ----- ---- --- --- -----------<br>-- -------,176839.19999998808,176838.39999999106,176423.619,176431.39999999106,176439.694,176840.823,,37,a
screen,html.Screen,0_4_1_0_1_38,2021-12-03T12:43:53.355Z,,,,,,,,,,,,,,,,2,,,,,,,,,,,,,,445.57699999105535,,response,,,1,C,,,,,Space,keypress(Space),,,,instrumental,--- ---- ------ --- ------- ---------- ------- ----------<br>--- --------- --- ----------- ------- ----- ------- ---<br>--------- ---- -- --- ---- -- --------- -- ---- -------<br>-- --------- ------ --- ----- ------ ---- --- --------- --<br>------ - note -- --- ----------- ------- ---- ----- -----<br>--- -------- - ------ ---- -- ----- ---- --- --- -----------<br>-- -------,177287.19999998808,177286.39999999106,176824.772,176839.5,176840.823,177288.792,,38,note
screen,html.Screen,0_4_1_0_1_39,2021-12-03T12:43:53.803Z,,,,,,,,,,,,,,,,2,,,,,,,,,,,,,,445.6079999910726,,response,,,1,C,,,,,Space,keypress(Space),,,,instrumental,--- ---- ------ --- ------- ---------- ------- ----------<br>--- --------- --- ----------- ------- ----- ------- ---<br>--------- ---- -- --- ---- -- --------- -- ---- -------<br>-- --------- ------ --- ----- ------ ---- --- --------- --<br>------ - ---- in --- ----------- ------- ---- ----- -----<br>--- -------- - ------ ---- -- ----- ---- --- --- -----------<br>-- -------,177735.09999999404,177734.39999999106,177272.737,177287.39999999106,177288.792,177752.034,,39,in
screen,html.Screen,0_4_1_0_1_40,2021-12-03T12:43:54.275Z,,,,,,,,,,,,,,,,2,,,,,,,,,,,,,,454.26599999700557,,response,,,1,C,,,,,Space,keypress(Space),,,,instrumental,--- ---- ------ --- ------- ---------- ------- ----------<br>--- --------- --- ----------- ------- ----- ------- ---<br>--------- ---- -- --- ---- -- --------- -- ---- -------<br>-- --------- ------ --- ----- ------ ---- --- --------- --<br>------ - ---- -- his ----------- ------- ---- ----- -----<br>--- -------- - ------ ---- -- ----- ---- --- --- -----------<br>-- -------,178207.09999999404,178206.29999999702,177736.031,177735.39999999106,177752.034,178221.665,,40,his
screen,html.Screen,0_4_1_0_1_41,2021-12-03T12:43:54.875Z,,,,,,,,,,,,,,,,2,,,,,,,,,,,,,,584.6349999970116,,response,,,1,C,,,,,Space,keypress(Space),,,,instrumental,--- ---- ------ --- ------- ---------- ------- ----------<br>--- --------- --- ----------- ------- ----- ------- ---<br>--------- ---- -- --- ---- -- --------- -- ---- -------<br>-- --------- ------ --- ----- ------ ---- --- --------- --<br>------ - ---- -- --- painstaking ------- ---- ----- -----<br>--- -------- - ------ ---- -- ----- ---- --- --- -----------<br>-- -------,178807.19999998808,178806.29999999702,178205.591,178207.29999999702,178221.665,178817.055,,41,painstaking
screen,html.Screen,0_4_1_0_1_42,2021-12-03T12:43:55.395Z,,,,,,,,,,,,,,,,2,,,,,,,,,,,,,,509.24499999702675,,response,,,1,C,,,,,Space,keypress(Space),,,,instrumental,--- ---- ------ --- ------- ---------- ------- ----------<br>--- --------- --- ----------- ------- ----- ------- ---<br>--------- ---- -- --- ---- -- --------- -- ---- -------<br>-- --------- ------ --- ----- ------ ---- --- --------- --<br>------ - ---- -- --- ----------- record. ---- ----- -----<br>--- -------- - ------ ---- -- ----- ---- --- --- -----------<br>-- -------,179327.09999999404,179326.29999999702,178800.979,178807.39999999106,178817.055,179333.256,,42,record.
screen,html.Screen,0_4_1_0_1_43,2021-12-03T12:43:55.955Z,,,,,,,,,,,,,,,,2,,,,,,,,,,,,,,552.9439999880851,,response,,,1,C,,,,,Space,keypress(Space),,,,instrumental,--- ---- ------ --- ------- ---------- ------- ----------<br>--- --------- --- ----------- ------- ----- ------- ---<br>--------- ---- -- --- ---- -- --------- -- ---- -------<br>-- --------- ------ --- ----- ------ ---- --- --------- --<br>------ - ---- -- --- ----------- ------- That ----- -----<br>--- -------- - ------ ---- -- ----- ---- --- --- -----------<br>-- -------,179887.09999999404,179886.19999998808,179317.162,179327.29999999702,179333.256,179890.707,,43,That
screen,html.Screen,0_4_1_0_1_44,2021-12-03T12:43:56.512Z,,,,,,,,,,,,,,,,2,,,,,,,,,,,,,,555.9929999880842,,response,,,1,C,,,,,Space,keypress(Space),,,,instrumental,--- ---- ------ --- ------- ---------- ------- ----------<br>--- --------- --- ----------- ------- ----- ------- ---<br>--------- ---- -- --- ---- -- --------- -- ---- -------<br>-- --------- ------ --- ----- ------ ---- --- --------- --<br>------ - ---- -- --- ----------- ------- ---- night -----<br>--- -------- - ------ ---- -- ----- ---- --- --- -----------<br>-- -------,180447.39999999106,180446.69999998808,179874.487,179887.29999999702,179890.707,180453.927,,44,night
screen,html.Screen,0_4_1_0_1_45,2021-12-03T12:43:57.039Z,,,,,,,,,,,,,,,,2,,,,,,,,,,,,,,520.1729999940435,,response,,,1,C,,,,,Space,keypress(Space),,,,instrumental,--- ---- ------ --- ------- ---------- ------- ----------<br>--- --------- --- ----------- ------- ----- ------- ---<br>--------- ---- -- --- ---- -- --------- -- ---- -------<br>-- --------- ------ --- ----- ------ ---- --- --------- --<br>------ - ---- -- --- ----------- ------- ---- ----- there<br>--- -------- - ------ ---- -- ----- ---- --- --- -----------<br>-- -------,180975,180974.09999999404,180437.778,180447.59999999404,180453.927,180991.517,,45,there
screen,html.Screen,0_4_1_0_1_46,2021-12-03T12:43:57.503Z,,,,,,,,,,,,,,,,2,,,,,,,,,,,,,,446.48300000000745,,response,,,1,C,,,,,Space,keypress(Space),,,,instrumental,--- ---- ------ --- ------- ---------- ------- ----------<br>--- --------- --- ----------- ------- ----- ------- ---<br>--------- ---- -- --- ---- -- --------- -- ---- -------<br>-- --------- ------ --- ----- ------ ---- --- --------- --<br>------ - ---- -- --- ----------- ------- ---- ----- -----<br>was -------- - ------ ---- -- ----- ---- --- --- -----------<br>-- -------,181438.89999999106,181438,180975.322,180975.19999998808,180991.517,181443.085,,46,was
screen,html.Screen,0_4_1_0_1_47,2021-12-03T12:43:57.975Z,,,,,,,,,,,,,,,,2,,,,,,,,,,,,,,467.0149999940477,,response,,,1,C,,,,,Space,keypress(Space),,,,instrumental,--- ---- ------ --- ------- ---------- ------- ----------<br>--- --------- --- ----------- ------- ----- ------- ---<br>--------- ---- -- --- ---- -- --------- -- ---- -------<br>-- --------- ------ --- ----- ------ ---- --- --------- --<br>------ - ---- -- --- ----------- ------- ---- ----- -----<br>--- scarcely - ------ ---- -- ----- ---- --- --- -----------<br>-- -------,181910.89999999106,181910.09999999404,181426.892,181439.09999999404,181443.085,181924.842,,47,scarcely
screen,html.Screen,0_4_1_0_1_48,2021-12-03T12:43:58.423Z,,,,,,,,,,,,,,,,2,,,,,,,,,,,,,,433.1579999999958,,response,,,1,C,,,,,Space,keypress(Space),,,,instrumental,--- ---- ------ --- ------- ---------- ------- ----------<br>--- --------- --- ----------- ------- ----- ------- ---<br>--------- ---- -- --- ---- -- --------- -- ---- -------<br>-- --------- ------ --- ----- ------ ---- --- --------- --<br>------ - ---- -- --- ----------- ------- ---- ----- -----<br>--- -------- a ------ ---- -- ----- ---- --- --- -----------<br>-- -------,182358.79999999702,182358,181908.691,181911.09999999404,181924.842,182373.89,,48,a
