sender,sender_type,sender_id,timestamp,meta,,Blues,Classical,Country,Dance,Electronic,Folk,Gospel,Hip-Hop,Jazz,Latin,Musical/Film,New-age,Pop,Provo_ID,R&B,Rap,Reggae,Religious,Rock,Soul,Swing,Traditional,age,artist_name,correct,correctResponse,distraction,duration,education,ended_on,familiarity,gender,item,list,music_frequency,offensiveness,pleasantness,preference,response,response_action,snippet_file,song_name,song_rating,sound,text,time_commit,time_end,time_render,time_run,time_show,time_switch,url,word,word_ID
Instructions,html.Page,0_0,2021-11-05T11:41:10.201Z,"{""labjs_version"":""20.2.3"",""labjs_build"":{""flavor"":""production"",""commit"":""7ea907d66ca8aeef8054924ca5d82ffbe11e34e5""},""location"":""https://run.pavlovia.org/mvasilev/lab_music_a/"",""userAgent"":""Mozilla/5.0 (Windows NT 6.1; Win64; x64) AppleWebKit/537.36 (KHTML, like Gecko) Chrome/95.0.4638.69 Safari/537.36"",""platform"":""Win32"",""language"":""en-US"",""locale"":""en-US"",""timeZone"":""Europe/London"",""timezoneOffset"":0,""screen_width"":1920,""screen_height"":1080,""scroll_width"":1920,""scroll_height"":959,""window_innerWidth"":1920,""window_innerHeight"":1007,""devicePixelRatio"":1}",,,,,,,,,,,,,,,,,,,,,,,,,,,,,39878.71199999404,,form submission,,,,,,,,,,,,,,,,49550.89999999106,49549.59999999404,9637.548,9642.39999999106,9670.888,49547.789,{},,
Headphones,html.Page,0_1,2021-11-05T11:41:13.402Z,,,,,,,,,,,,,,,,,,,,,,,,,,,,,,3204.411000002983,,form submission,,,,,,,,,,,,,,,,52752.70000000298,52752.20000000298,49531.116,49551.70000000298,49547.789,52765.251,,,
Holding screen,html.Screen,0_2_0_0,2021-11-05T11:41:23.411Z,,,,,,,,,,,,,,,,,,,,,,,,,,,,,,10002.224000000002,,timeout,,,,,,,,,,,,,,,,62757.20000000298,62750.806,52748.579,52753.39999999106,52765.251,62767.475,,,
screen,html.Screen,0_2_0_1_0,2021-11-05T11:41:24.998Z,,,,,,,,,,,,,,,,53,,,,,,,,,,,,,,1575.124999994041,,response,,,99,,,,,,Space,keypress(Space),,,,,When -- ----- -- ------ - ------- --- ----------<br>------------- ------ ------ ---- ---- ------- ----- -- ----<br>-------- ------- -- ---------- --- - --- ----- ----- ----<br>---- --- --- ----- --- ---- ---- ------- ----- ---- -------<br>--- --- -- ----- -- --- ---- -- --- ---- -- ------ ------<br>--- ----- -- ----,64344,64342.59999999404,62750.806,62757.59999999404,62767.475,64351.522,,0,When
screen,html.Screen,0_2_0_1_1,2021-11-05T11:41:26.557Z,,,,,,,,,,,,,,,,53,,,,,,,,,,,,,,1550.5779999940423,,response,,,99,,,,,,Space,keypress(Space),,,,,---- it ----- -- ------ - ------- --- ----------<br>------------- ------ ------ ---- ---- ------- ----- -- ----<br>-------- ------- -- ---------- --- - --- ----- ----- ----<br>---- --- --- ----- --- ---- ---- ------- ----- ---- -------<br>--- --- -- ----- -- --- ---- -- --- ---- -- ------ ------<br>--- ----- -- ----,65903,65902.09999999404,64334.851,64344.39999999106,64351.522,65935.082,,1,it
screen,html.Screen,0_2_0_1_2,2021-11-05T11:41:27.749Z,,,,,,,,,,,,,,,,53,,,,,,,,,,,,,,1159.0179999940447,,response,,,99,,,,,,Space,keypress(Space),,,,,---- -- comes -- ------ - ------- --- ----------<br>------------- ------ ------ ---- ---- ------- ----- -- ----<br>-------- ------- -- ---------- --- - --- ----- ----- ----<br>---- --- --- ----- --- ---- ---- ------- ----- ---- -------<br>--- --- -- ----- -- --- ---- -- --- ---- -- ------ ------<br>--- ----- -- ----,67095,67094.09999999404,65918.412,65903.29999999702,65935.082,67102.102,,2,comes
screen,html.Screen,0_2_0_1_3,2021-11-05T11:41:28.837Z,,,,,,,,,,,,,,,,53,,,,,,,,,,,,,,1079.898000000001,,response,,,99,,,,,,Space,keypress(Space),,,,,---- -- ----- to ------ - ------- --- ----------<br>------------- ------ ------ ---- ---- ------- ----- -- ----<br>-------- ------- -- ---------- --- - --- ----- ----- ----<br>---- --- --- ----- --- ---- ---- ------- ----- ---- -------<br>--- --- -- ----- -- --- ---- -- --- ---- -- ------ ------<br>--- ----- -- ----,68183,68182,67085.432,67095.29999999702,67102.102,68185.627,,3,to
screen,html.Screen,0_2_0_1_4,2021-11-05T11:41:29.965Z,,,,,,,,,,,,,,,,53,,,,,,,,,,,,,,1124.3730000000069,,response,,,99,,,,,,Space,keypress(Space),,,,,---- -- ----- -- having - ------- --- ----------<br>------------- ------ ------ ---- ---- ------- ----- -- ----<br>-------- ------- -- ---------- --- - --- ----- ----- ----<br>---- --- --- ----- --- ---- ---- ------- ----- ---- -------<br>--- --- -- ----- -- --- ---- -- --- ---- -- ------ ------<br>--- ----- -- ----,69311.09999999404,69310,68168.957,68183.39999999106,68185.627,69319.403,,4,having
screen,html.Screen,0_2_0_1_5,2021-11-05T11:41:30.772Z,,,,,,,,,,,,,,,,53,,,,,,,,,,,,,,798.4969999910536,,response,,,99,,,,,,Space,keypress(Space),,,,,---- -- ----- -- ------ a ------- --- ----------<br>------------- ------ ------ ---- ---- ------- ----- -- ----<br>-------- ------- -- ---------- --- - --- ----- ----- ----<br>---- --- --- ----- --- ---- ---- ------- ----- ---- -------<br>--- --- -- ----- -- --- ---- -- --- ---- -- ------ ------<br>--- ----- -- ----,70118.79999999702,70117.89999999106,69302.732,69311.5,69319.403,70136.158,,5,a
screen,html.Screen,0_2_0_1_6,2021-11-05T11:41:31.844Z,,,,,,,,,,,,,,,,53,,,,,,,,,,,,,,1053.641999997024,,response,,,99,,,,,,Space,keypress(Space),,,,,---- -- ----- -- ------ - lasting --- ----------<br>------------- ------ ------ ---- ---- ------- ----- -- ----<br>-------- ------- -- ---------- --- - --- ----- ----- ----<br>---- --- --- ----- --- ---- ---- ------- ----- ---- -------<br>--- --- -- ----- -- --- ---- -- --- ---- -- ------ ------<br>--- ----- -- ----,71190.79999999702,71189.79999999702,70119.488,70119.29999999702,70136.158,71203.134,,6,lasting
screen,html.Screen,0_2_0_1_7,2021-11-05T11:41:32.596Z,,,,,,,,,,,,,,,,53,,,,,,,,,,,,,,738.6659999970143,,response,,,99,,,,,,Space,keypress(Space),,,,,---- -- ----- -- ------ - ------- and ----------<br>------------- ------ ------ ---- ---- ------- ----- -- ----<br>-------- ------- -- ---------- --- - --- ----- ----- ----<br>---- --- --- ----- --- ---- ---- ------- ----- ---- -------<br>--- --- -- ----- -- --- ---- -- --- ---- -- ------ ------<br>--- ----- -- ----,71942.79999999702,71941.79999999702,71186.464,71191.09999999404,71203.134,71953.197,,7,and
screen,html.Screen,0_2_0_1_8,2021-11-05T11:41:33.636Z,,,,,,,,,,,,,,,,53,,,,,,,,,,,,,,1028.5030000029801,,response,,,99,,,,,,Space,keypress(Space),,,,,---- -- ----- -- ------ - ------- --- fulfilling<br>------------- ------ ------ ---- ---- ------- ----- -- ----<br>-------- ------- -- ---------- --- - --- ----- ----- ----<br>---- --- --- ----- --- ---- ---- ------- ----- ---- -------<br>--- --- -- ----- -- --- ---- -- --- ---- -- ------ ------<br>--- ----- -- ----,72982.79999999702,72981.70000000298,71936.528,71943.09999999404,71953.197,72986.885,,8,fulfilling
screen,html.Screen,0_2_0_1_9,2021-11-05T11:41:41.212Z,,,,,,,,,,,,,,,,53,,,,,,,,,,,,,,7570.714999994045,,response,,,99,,,,,,Space,keypress(Space),,,,,"---- -- ----- -- ------ - ------- --- ----------<br>relationship, ------ ------ ---- ---- ------- ----- -- ----<br>-------- ------- -- ---------- --- - --- ----- ----- ----<br>---- --- --- ----- --- ---- ---- ------- ----- ---- -------<br>--- --- -- ----- -- --- ---- -- --- ---- -- ------ ------<br>--- ----- -- ----",80558.59999999404,80557.59999999404,72970.215,72983.20000000298,72986.885,80572.297,,9,"relationship,"
screen,html.Screen,0_2_0_1_10,2021-11-05T11:41:42.244Z,,,,,,,,,,,,,,,,53,,,,,,,,,,,,,,1016.9030000029743,,response,,,99,,,,,,Space,keypress(Space),,,,,---- -- ----- -- ------ - ------- --- ----------<br>------------- common ------ ---- ---- ------- ----- -- ----<br>-------- ------- -- ---------- --- - --- ----- ----- ----<br>---- --- --- ----- --- ---- ---- ------- ----- ---- -------<br>--- --- -- ----- -- --- ---- -- --- ---- -- ------ ------<br>--- ----- -- ----,81590.20000000298,81589.20000000298,80555.626,80558.89999999106,80572.297,81605.669,,10,common
screen,html.Screen,0_2_0_1_11,2021-11-05T11:41:43.988Z,,,,,,,,,,,,,,,,53,,,,,,,,,,,,,,1727.3310000000056,,response,,,99,,,,,,Space,keypress(Space),,,,,---- -- ----- -- ------ - ------- --- ----------<br>------------- ------ wisdom ---- ---- ------- ----- -- ----<br>-------- ------- -- ---------- --- - --- ----- ----- ----<br>---- --- --- ----- --- ---- ---- ------- ----- ---- -------<br>--- --- -- ----- -- --- ---- -- --- ---- -- ------ ------<br>--- ----- -- ----,83334,83333,81588.999,81590.5,81605.669,83339.338,,11,wisdom
screen,html.Screen,0_2_0_1_12,2021-11-05T11:41:45.043Z,,,,,,,,,,,,,,,,53,,,,,,,,,,,,,,1049.6619999999966,,response,,,99,,,,,,Space,keypress(Space),,,,,---- -- ----- -- ------ - ------- --- ----------<br>------------- ------ ------ says ---- ------- ----- -- ----<br>-------- ------- -- ---------- --- - --- ----- ----- ----<br>---- --- --- ----- --- ---- ---- ------- ----- ---- -------<br>--- --- -- ----- -- --- ---- -- --- ---- -- ------ ------<br>--- ----- -- ----,84389.79999999702,84389,83322.668,83334.29999999702,83339.338,84406.45,,12,says
screen,html.Screen,0_2_0_1_13,2021-11-05T11:41:46.171Z,,,,,,,,,,,,,,,,53,,,,,,,,,,,,,,1110.550000000003,,response,,,99,,,,,,Space,keypress(Space),,,,,---- -- ----- -- ------ - ------- --- ----------<br>------------- ------ ------ ---- that ------- ----- -- ----<br>-------- ------- -- ---------- --- - --- ----- ----- ----<br>---- --- --- ----- --- ---- ---- ------- ----- ---- -------<br>--- --- -- ----- -- --- ---- -- --- ---- -- ------ ------<br>--- ----- -- ----,85517.79999999702,85517,84389.779,84390,84406.45,85523.26,,13,that
screen,html.Screen,0_2_0_1_14,2021-11-05T11:41:47.203Z,,,,,,,,,,,,,,,,53,,,,,,,,,,,,,,1025.6399999910645,,response,,,99,,,,,,Space,keypress(Space),,,,,---- -- ----- -- ------ - ------- --- ----------<br>------------- ------ ------ ---- ---- feeling ----- -- ----<br>-------- ------- -- ---------- --- - --- ----- ----- ----<br>---- --- --- ----- --- ---- ---- ------- ----- ---- -------<br>--- --- -- ----- -- --- ---- -- --- ---- -- ------ ------<br>--- ----- -- ----,86549.70000000298,86548.89999999106,85506.59,85518.09999999404,85523.26,86556.994,,14,feeling
screen,html.Screen,0_2_0_1_15,2021-11-05T11:41:48.243Z,,,,,,,,,,,,,,,,53,,,,,,,,,,,,,,1031.8059999970137,,response,,,99,,,,,,Space,keypress(Space),,,,,---- -- ----- -- ------ - ------- --- ----------<br>------------- ------ ------ ---- ---- ------- close -- ----<br>-------- ------- -- ---------- --- - --- ----- ----- ----<br>---- --- --- ----- --- ---- ---- ------- ----- ---- -------<br>--- --- -- ----- -- --- ---- -- --- ---- -- ------ ------<br>--- ----- -- ----,87589.70000000298,87588.79999999702,86540.323,86550.09999999404,86556.994,87607.039,,15,close
screen,html.Screen,0_2_0_1_16,2021-11-05T11:41:49.131Z,,,,,,,,,,,,,,,,53,,,,,,,,,,,,,,869.6610000029759,,response,,,99,,,,,,Space,keypress(Space),,,,,---- -- ----- -- ------ - ------- --- ----------<br>------------- ------ ------ ---- ---- ------- ----- to ----<br>-------- ------- -- ---------- --- - --- ----- ----- ----<br>---- --- --- ----- --- ---- ---- ------- ----- ---- -------<br>--- --- -- ----- -- --- ---- -- --- ---- -- ------ ------<br>--- ----- -- ----,88477.59999999404,88476.70000000298,87590.37,87590,87607.039,88490.872,,16,to
screen,html.Screen,0_2_0_1_17,2021-11-05T11:41:49.899Z,,,,,,,,,,,,,,,,53,,,,,,,,,,,,,,753.8280000029772,,response,,,99,,,,,,Space,keypress(Space),,,,,---- -- ----- -- ------ - ------- --- ----------<br>------------- ------ ------ ---- ---- ------- ----- -- your<br>-------- ------- -- ---------- --- - --- ----- ----- ----<br>---- --- --- ----- --- ---- ---- ------- ----- ---- -------<br>--- --- -- ----- -- --- ---- -- --- ---- -- ------ ------<br>--- ----- -- ----,89245.59999999404,89244.70000000298,88474.201,88477.89999999106,88490.872,89257.597,,17,your
screen,html.Screen,0_2_0_1_18,2021-11-05T11:41:50.891Z,,,,,,,,,,,,,,,,53,,,,,,,,,,,,,,979.0029999940452,,response,,,99,,,,,,Space,keypress(Space),,,,,---- -- ----- -- ------ - ------- --- ----------<br>------------- ------ ------ ---- ---- ------- ----- -- ----<br>romantic ------- -- ---------- --- - --- ----- ----- ----<br>---- --- --- ----- --- ---- ---- ------- ----- ---- -------<br>--- --- -- ----- -- --- ---- -- --- ---- -- ------ ------<br>--- ----- -- ----,90237.5,90236.59999999404,89240.927,89246,89257.597,90241.277,,18,romantic
screen,html.Screen,0_2_0_1_19,2021-11-05T11:41:51.947Z,,,,,,,,,,,,,,,,53,,,,,,,,,,,,,,1051.6229999910574,,response,,,99,,,,,,Space,keypress(Space),,,,,---- -- ----- -- ------ - ------- --- ----------<br>------------- ------ ------ ---- ---- ------- ----- -- ----<br>-------- partner -- ---------- --- - --- ----- ----- ----<br>---- --- --- ----- --- ---- ---- ------- ----- ---- -------<br>--- --- -- ----- -- --- ---- -- --- ---- -- ------ ------<br>--- ----- -- ----,91293.70000000298,91292.89999999106,90224.606,90237.79999999702,90241.277,91308.127,,19,partner
screen,html.Screen,0_2_0_1_20,2021-11-05T11:41:53.147Z,,,,,,,,,,,,,,,,53,,,,,,,,,,,,,,1184.3730000000069,,response,,,99,,,,,,Space,keypress(Space),,,,,---- -- ----- -- ------ - ------- --- ----------<br>------------- ------ ------ ---- ---- ------- ----- -- ----<br>-------- ------- is ---------- --- - --- ----- ----- ----<br>---- --- --- ----- --- ---- ---- ------- ----- ---- -------<br>--- --- -- ----- -- --- ---- -- --- ---- -- ------ ------<br>--- ----- -- ----,92493.29999999702,92492.5,91291.457,91294.20000000298,91308.127,92508.43,,20,is
screen,html.Screen,0_2_0_1_21,2021-11-05T11:41:56.987Z,,,,,,,,,,,,,,,,53,,,,,,,,,,,,,,3823.8699999970268,,response,,,99,,,,,,Space,keypress(Space),,,,,---- -- ----- -- ------ - ------- --- ----------<br>------------- ------ ------ ---- ---- ------- ----- -- ----<br>-------- ------- -- paramount. --- - --- ----- ----- ----<br>---- --- --- ----- --- ---- ---- ------- ----- ---- -------<br>--- --- -- ----- -- --- ---- -- --- ---- -- ------ ------<br>--- ----- -- ----,96333.29999999702,96332.29999999702,92491.76,92493.70000000298,92508.43,96342.56,,21,paramount.
screen,html.Screen,0_2_0_1_22,2021-11-05T11:41:57.787Z,,,,,,,,,,,,,,,,53,,,,,,,,,,,,,,789.6400000029826,,response,,,99,,,,,,Space,keypress(Space),,,,,---- -- ----- -- ------ - ------- --- ----------<br>------------- ------ ------ ---- ---- ------- ----- -- ----<br>-------- ------- -- ---------- But - --- ----- ----- ----<br>---- --- --- ----- --- ---- ---- ------- ----- ---- -------<br>--- --- -- ----- -- --- ---- -- --- ---- -- ------ ------<br>--- ----- -- ----,97133.09999999404,97132.20000000298,96325.89,96333.79999999702,96342.56,97142.839,,22,But
screen,html.Screen,0_2_0_1_23,2021-11-05T11:41:58.963Z,,,,,,,,,,,,,,,,53,,,,,,,,,,,,,,1165.361000002973,,response,,,99,,,,,,Space,keypress(Space),,,,,---- -- ----- -- ------ - ------- --- ----------<br>------------- ------ ------ ---- ---- ------- ----- -- ----<br>-------- ------- -- ---------- --- a --- ----- ----- ----<br>---- --- --- ----- --- ---- ---- ------- ----- ---- -------<br>--- --- -- ----- -- --- ---- -- --- ---- -- ------ ------<br>--- ----- -- ----,98309,98308.20000000298,97126.169,97133.29999999702,97142.839,98326.46,,23,a
screen,html.Screen,0_2_0_1_24,2021-11-05T11:41:59.954Z,,,,,,,,,,,,,,,,53,,,,,,,,,,,,,,973.5399999999936,,response,,,99,,,,,,Space,keypress(Space),,,,,---- -- ----- -- ------ - ------- --- ----------<br>------------- ------ ------ ---- ---- ------- ----- -- ----<br>-------- ------- -- ---------- --- - new ----- ----- ----<br>---- --- --- ----- --- ---- ---- ------- ----- ---- -------<br>--- --- -- ----- -- --- ---- -- --- ---- -- ------ ------<br>--- ----- -- ----,99300.89999999106,99300,98309.79,98309.20000000298,98326.46,99310.154,,24,new
screen,html.Screen,0_2_0_1_25,2021-11-05T11:42:00.930Z,,,,,,,,,,,,,,,,53,,,,,,,,,,,,,,965.846000000005,,response,,,99,,,,,,Space,keypress(Space),,,,,---- -- ----- -- ------ - ------- --- ----------<br>------------- ------ ------ ---- ---- ------- ----- -- ----<br>-------- ------- -- ---------- --- - --- study ----- ----<br>---- --- --- ----- --- ---- ---- ------- ----- ---- -------<br>--- --- -- ----- -- --- ---- -- --- ---- -- ------ ------<br>--- ----- -- ----,100276.79999999702,100276,99293.483,99301.20000000298,99310.154,100293.779,,25,study
screen,html.Screen,0_2_0_1_26,2021-11-05T11:42:01.842Z,,,,,,,,,,,,,,,,53,,,,,,,,,,,,,,894.1209999910643,,response,,,99,,,,,,Space,keypress(Space),,,,,---- -- ----- -- ------ - ------- --- ----------<br>------------- ------ ------ ---- ---- ------- ----- -- ----<br>-------- ------- -- ---------- --- - --- ----- finds ----<br>---- --- --- ----- --- ---- ---- ------- ----- ---- -------<br>--- --- -- ----- -- --- ---- -- --- ---- -- ------ ------<br>--- ----- -- ----,101188.70000000298,101187.89999999106,100277.108,100277.20000000298,100293.779,101193.933,,26,finds
screen,html.Screen,0_2_0_1_27,2021-11-05T11:42:02.683Z,,,,,,,,,,,,,,,,53,,,,,,,,,,,,,,834.2670000029757,,response,,,99,,,,,,Space,keypress(Space),,,,,---- -- ----- -- ------ - ------- --- ----------<br>------------- ------ ------ ---- ---- ------- ----- -- ----<br>-------- ------- -- ---------- --- - --- ----- ----- that<br>---- --- --- ----- --- ---- ---- ------- ----- ---- -------<br>--- --- -- ----- -- --- ---- -- --- ---- -- ------ ------<br>--- ----- -- ----,102029.09999999404,102028.20000000298,101177.263,101189,101193.933,102044.142,,27,that
screen,html.Screen,0_2_0_1_28,2021-11-05T11:42:03.522Z,,,,,,,,,,,,,,,,53,,,,,,,,,,,,,,823.7579999910522,,response,,,99,,,,,,Space,keypress(Space),,,,,---- -- ----- -- ------ - ------- --- ----------<br>------------- ------ ------ ---- ---- ------- ----- -- ----<br>-------- ------- -- ---------- --- - --- ----- ----- ----<br>it's --- --- ----- --- ---- ---- ------- ----- ---- -------<br>--- --- -- ----- -- --- ---- -- --- ---- -- ------ ------<br>--- ----- -- ----,102868.70000000298,102867.89999999106,102027.472,102029.39999999106,102044.142,102877.677,,28,it's
screen,html.Screen,0_2_0_1_29,2021-11-05T11:42:04.498Z,,,,,,,,,,,,,,,,53,,,,,,,,,,,,,,966.1229999970237,,response,,,99,,,,,,Space,keypress(Space),,,,,---- -- ----- -- ------ - ------- --- ----------<br>------------- ------ ------ ---- ---- ------- ----- -- ----<br>-------- ------- -- ---------- --- - --- ----- ----- ----<br>---- not --- ----- --- ---- ---- ------- ----- ---- -------<br>--- --- -- ----- -- --- ---- -- --- ---- -- ------ ------<br>--- ----- -- ----,103844.59999999404,103843.79999999702,102861.007,102869.09999999404,102877.677,103861.215,,29,not
screen,html.Screen,0_2_0_1_30,2021-11-05T11:42:05.330Z,,,,,,,,,,,,,,,,53,,,,,,,,,,,,,,814.4850000029837,,response,,,99,,,,,,Space,keypress(Space),,,,,---- -- ----- -- ------ - ------- --- ----------<br>------------- ------ ------ ---- ---- ------- ----- -- ----<br>-------- ------- -- ---------- --- - --- ----- ----- ----<br>---- --- how ----- --- ---- ---- ------- ----- ---- -------<br>--- --- -- ----- -- --- ---- -- --- ---- -- ------ ------<br>--- ----- -- ----,104676.59999999404,104675.70000000298,103844.545,103844.79999999702,103861.215,104678.133,,30,how
screen,html.Screen,0_2_0_1_31,2021-11-05T11:42:06.042Z,,,,,,,,,,,,,,,,53,,,,,,,,,,,,,,709.4669999940379,,response,,,99,,,,,,Space,keypress(Space),,,,,---- -- ----- -- ------ - ------- --- ----------<br>------------- ------ ------ ---- ---- ------- ----- -- ----<br>-------- ------- -- ---------- --- - --- ----- ----- ----<br>---- --- --- close --- ---- ---- ------- ----- ---- -------<br>--- --- -- ----- -- --- ---- -- --- ---- -- ------ ------<br>--- ----- -- ----,105388.5,105387.59999999404,104661.463,104676.79999999702,104678.133,105394.963,,31,close
screen,html.Screen,0_2_0_1_32,2021-11-05T11:42:07.170Z,,,,,,,,,,,,,,,,53,,,,,,,,,,,,,,1120.6369999940362,,response,,,99,,,,,,Space,keypress(Space),,,,,---- -- ----- -- ------ - ------- --- ----------<br>------------- ------ ------ ---- ---- ------- ----- -- ----<br>-------- ------- -- ---------- --- - --- ----- ----- ----<br>---- --- --- ----- you ---- ---- ------- ----- ---- -------<br>--- --- -- ----- -- --- ---- -- --- ---- -- ------ ------<br>--- ----- -- ----,106516.29999999702,106515.59999999404,105378.293,105388.79999999702,105394.963,106528.579,,32,you
screen,html.Screen,0_2_0_1_33,2021-11-05T11:42:08.074Z,,,,,,,,,,,,,,,,53,,,,,,,,,,,,,,890.9210000000021,,response,,,99,,,,,,Space,keypress(Space),,,,,---- -- ----- -- ------ - ------- --- ----------<br>------------- ------ ------ ---- ---- ------- ----- -- ----<br>-------- ------- -- ---------- --- - --- ----- ----- ----<br>---- --- --- ----- --- feel ---- ------- ----- ---- -------<br>--- --- -- ----- -- --- ---- -- --- ---- -- ------ ------<br>--- ----- -- ----,107420.29999999702,107419.5,106511.909,106516.59999999404,106528.579,107428.788,,33,feel
screen,html.Screen,0_2_0_1_34,2021-11-05T11:42:08.898Z,,,,,,,,,,,,,,,,53,,,,,,,,,,,,,,814.7119999999995,,response,,,99,,,,,,Space,keypress(Space),,,,,---- -- ----- -- ------ - ------- --- ----------<br>------------- ------ ------ ---- ---- ------- ----- -- ----<br>-------- ------- -- ---------- --- - --- ----- ----- ----<br>---- --- --- ----- --- ---- that ------- ----- ---- -------<br>--- --- -- ----- -- --- ---- -- --- ---- -- ------ ------<br>--- ----- -- ----,108244.29999999702,108243.5,107412.118,107420.79999999702,107428.788,108245.484,,34,that
screen,html.Screen,0_2_0_1_35,2021-11-05T11:42:09.674Z,,,,,,,,,,,,,,,,53,,,,,,,,,,,,,,773.9159999910626,,response,,,99,,,,,,Space,keypress(Space),,,,,---- -- ----- -- ------ - ------- --- ----------<br>------------- ------ ------ ---- ---- ------- ----- -- ----<br>-------- ------- -- ---------- --- - --- ----- ----- ----<br>---- --- --- ----- --- ---- ---- matters ----- ---- -------<br>--- --- -- ----- -- --- ---- -- --- ---- -- ------ ------<br>--- ----- -- ----,109020.5,109019.39999999106,108228.815,108244.5,108245.484,109029.33,,35,matters
screen,html.Screen,0_2_0_1_36,2021-11-05T11:42:10.882Z,,,,,,,,,,,,,,,,53,,,,,,,,,,,,,,1198.0699999910576,,response,,,99,,,,,,Space,keypress(Space),,,,,"---- -- ----- -- ------ - ------- --- ----------<br>------------- ------ ------ ---- ---- ------- ----- -- ----<br>-------- ------- -- ---------- --- - --- ----- ----- ----<br>---- --- --- ----- --- ---- ---- ------- most, ---- -------<br>--- --- -- ----- -- --- ---- -- --- ---- -- ------ ------<br>--- ----- -- ----",110228.29999999702,110227.39999999106,109012.658,109020.70000000298,109029.33,110229.499,,36,"most,"
screen,html.Screen,0_2_0_1_37,2021-11-05T11:42:12.490Z,,,,,,,,,,,,,,,,53,,,,,,,,,,,,,,1605.701000002984,,response,,,99,,,,,,Space,keypress(Space),,,,,---- -- ----- -- ------ - ------- --- ----------<br>------------- ------ ------ ---- ---- ------- ----- -- ----<br>-------- ------- -- ---------- --- - --- ----- ----- ----<br>---- --- --- ----- --- ---- ---- ------- ----- it's -------<br>--- --- -- ----- -- --- ---- -- --- ---- -- ------ ------<br>--- ----- -- ----,111836,111835.20000000298,110212.829,110228.59999999404,110229.499,111846.347,,37,it's
screen,html.Screen,0_2_0_1_38,2021-11-05T11:42:13.386Z,,,,,,,,,,,,,,,,53,,,,,,,,,,,,,,885.052999991065,,response,,,99,,,,,,Space,keypress(Space),,,,,---- -- ----- -- ------ - ------- --- ----------<br>------------- ------ ------ ---- ---- ------- ----- -- ----<br>-------- ------- -- ---------- --- - --- ----- ----- ----<br>---- --- --- ----- --- ---- ---- ------- ----- ---- whether<br>--- --- -- ----- -- --- ---- -- --- ---- -- ------ ------<br>--- ----- -- ----,112732.20000000298,112731.39999999106,111829.678,111836.20000000298,111846.347,112746.873,,38,whether
screen,html.Screen,0_2_0_1_39,2021-11-05T11:42:14.193Z,,,,,,,,,,,,,,,,53,,,,,,,,,,,,,,792.2269999940327,,response,,,99,,,,,,Space,keypress(Space),,,,,---- -- ----- -- ------ - ------- --- ----------<br>------------- ------ ------ ---- ---- ------- ----- -- ----<br>-------- ------- -- ---------- --- - --- ----- ----- ----<br>---- --- --- ----- --- ---- ---- ------- ----- ---- -------<br>you --- -- ----- -- --- ---- -- --- ---- -- ------ ------<br>--- ----- -- ----,113539.89999999106,113539.09999999404,112730.202,112732.39999999106,112746.873,113547.004,,39,you
screen,html.Screen,0_2_0_1_40,2021-11-05T11:42:15.081Z,,,,,,,,,,,,,,,,53,,,,,,,,,,,,,,880.0959999940387,,response,,,99,,,,,,Space,keypress(Space),,,,,---- -- ----- -- ------ - ------- --- ----------<br>------------- ------ ------ ---- ---- ------- ----- -- ----<br>-------- ------- -- ---------- --- - --- ----- ----- ----<br>---- --- --- ----- --- ---- ---- ------- ----- ---- -------<br>--- are -- ----- -- --- ---- -- --- ---- -- ------ ------<br>--- ----- -- ----,114427.89999999106,114427.09999999404,113530.334,113540.09999999404,113547.004,114430.495,,40,are
screen,html.Screen,0_2_0_1_41,2021-11-05T11:42:15.897Z,,,,,,,,,,,,,,,,53,,,,,,,,,,,,,,812.6049999940442,,response,,,99,,,,,,Space,keypress(Space),,,,,---- -- ----- -- ------ - ------- --- ----------<br>------------- ------ ------ ---- ---- ------- ----- -- ----<br>-------- ------- -- ---------- --- - --- ----- ----- ----<br>---- --- --- ----- --- ---- ---- ------- ----- ---- -------<br>--- --- as ----- -- --- ---- -- --- ---- -- ------ ------<br>--- ----- -- ----,115243.79999999702,115243.09999999404,114413.825,114428.09999999404,114430.495,115247.504,,41,as
screen,html.Screen,0_2_0_1_42,2021-11-05T11:42:16.689Z,,,,,,,,,,,,,,,,53,,,,,,,,,,,,,,787.3959999910585,,response,,,99,,,,,,Space,keypress(Space),,,,,---- -- ----- -- ------ - ------- --- ----------<br>------------- ------ ------ ---- ---- ------- ----- -- ----<br>-------- ------- -- ---------- --- - --- ----- ----- ----<br>---- --- --- ----- --- ---- ---- ------- ----- ---- -------<br>--- --- -- close -- --- ---- -- --- ---- -- ------ ------<br>--- ----- -- ----,116035.79999999702,116034.89999999106,115230.833,115244.09999999404,115247.504,116047.624,,42,close
screen,html.Screen,0_2_0_1_43,2021-11-05T11:42:17.593Z,,,,,,,,,,,,,,,,53,,,,,,,,,,,,,,891.3760000000038,,response,,,99,,,,,,Space,keypress(Space),,,,,---- -- ----- -- ------ - ------- --- ----------<br>------------- ------ ------ ---- ---- ------- ----- -- ----<br>-------- ------- -- ---------- --- - --- ----- ----- ----<br>---- --- --- ----- --- ---- ---- ------- ----- ---- -------<br>--- --- -- ----- as --- ---- -- --- ---- -- ------ ------<br>--- ----- -- ----,116939.79999999702,116939,116030.954,116036,116047.624,116947.851,,43,as
screen,html.Screen,0_2_0_1_44,2021-11-05T11:42:18.345Z,,,,,,,,,,,,,,,,53,,,,,,,,,,,,,,743.0489999910642,,response,,,99,,,,,,Space,keypress(Space),,,,,---- -- ----- -- ------ - ------- --- ----------<br>------------- ------ ------ ---- ---- ------- ----- -- ----<br>-------- ------- -- ---------- --- - --- ----- ----- ----<br>---- --- --- ----- --- ---- ---- ------- ----- ---- -------<br>--- --- -- ----- -- you ---- -- --- ---- -- ------ ------<br>--- ----- -- ----,117691.59999999404,117690.89999999106,116931.181,116940.09999999404,116947.851,117698.011,,44,you
screen,html.Screen,0_2_0_1_45,2021-11-05T11:42:19.225Z,,,,,,,,,,,,,,,,53,,,,,,,,,,,,,,872.7889999970212,,response,,,99,,,,,,Space,keypress(Space),,,,,---- -- ----- -- ------ - ------- --- ----------<br>------------- ------ ------ ---- ---- ------- ----- -- ----<br>-------- ------- -- ---------- --- - --- ----- ----- ----<br>---- --- --- ----- --- ---- ---- ------- ----- ---- -------<br>--- --- -- ----- -- --- want -- --- ---- -- ------ ------<br>--- ----- -- ----,118571.59999999404,118570.79999999702,117681.341,117691.89999999106,117698.011,118581.597,,45,want
screen,html.Screen,0_2_0_1_46,2021-11-05T11:42:20.057Z,,,,,,,,,,,,,,,,53,,,,,,,,,,,,,,821.1030000029859,,response,,,99,,,,,,Space,keypress(Space),,,,,---- -- ----- -- ------ - ------- --- ----------<br>------------- ------ ------ ---- ---- ------- ----- -- ----<br>-------- ------- -- ---------- --- - --- ----- ----- ----<br>---- --- --- ----- --- ---- ---- ------- ----- ---- -------<br>--- --- -- ----- -- --- ---- to --- ---- -- ------ ------<br>--- ----- -- ----,119403.59999999404,119402.70000000298,118564.927,118571.89999999106,118581.597,119415.142,,46,to
screen,html.Screen,0_2_0_1_47,2021-11-05T11:42:20.793Z,,,,,,,,,,,,,,,,53,,,,,,,,,,,,,,723.6579999970127,,response,,,99,,,,,,Space,keypress(Space),,,,,"---- -- ----- -- ------ - ------- --- ----------<br>------------- ------ ------ ---- ---- ------- ----- -- ----<br>-------- ------- -- ---------- --- - --- ----- ----- ----<br>---- --- --- ----- --- ---- ---- ------- ----- ---- -------<br>--- --- -- ----- -- --- ---- -- be, ---- -- ------ ------<br>--- ----- -- ----",120139.5,120138.79999999702,119398.472,119403.79999999702,119415.142,120148.632,,47,"be,"
screen,html.Screen,0_2_0_1_48,2021-11-05T11:42:21.853Z,,,,,,,,,,,,,,,,53,,,,,,,,,,,,,,1045.9679999940417,,response,,,99,,,,,,Space,keypress(Space),,,,,---- -- ----- -- ------ - ------- --- ----------<br>------------- ------ ------ ---- ---- ------- ----- -- ----<br>-------- ------- -- ---------- --- - --- ----- ----- ----<br>---- --- --- ----- --- ---- ---- ------- ----- ---- -------<br>--- --- -- ----- -- --- ---- -- --- even -- ------ ------<br>--- ----- -- ----,121195.5,121194.59999999404,120131.962,120139.79999999702,120148.632,121198.901,,48,even
screen,html.Screen,0_2_0_1_49,2021-11-05T11:42:23.894Z,,,,,,,,,,,,,,,,53,,,,,,,,,,,,,,2035.9989999910613,,response,,,99,,,,,,Space,keypress(Space),,,,,---- -- ----- -- ------ - ------- --- ----------<br>------------- ------ ------ ---- ---- ------- ----- -- ----<br>-------- ------- -- ---------- --- - --- ----- ----- ----<br>---- --- --- ----- --- ---- ---- ------- ----- ---- -------<br>--- --- -- ----- -- --- ---- -- --- ---- if ------ ------<br>--- ----- -- ----,123235.70000000298,123234.89999999106,121182.231,121195.70000000298,121198.901,123249.368,,49,if
screen,html.Screen,0_2_0_1_50,2021-11-05T11:42:24.845Z,,,,,,,,,,,,,,,,53,,,,,,,,,,,,,,937.0319999910571,,response,,,99,,,,,,Space,keypress(Space),,,,,---- -- ----- -- ------ - ------- --- ----------<br>------------- ------ ------ ---- ---- ------- ----- -- ----<br>-------- ------- -- ---------- --- - --- ----- ----- ----<br>---- --- --- ----- --- ---- ---- ------- ----- ---- -------<br>--- --- -- ----- -- --- ---- -- --- ---- -- that's ------<br>--- ----- -- ----,124187.29999999702,124186.39999999106,123232.698,123235.89999999106,123249.368,124199.606,,50,that's
screen,html.Screen,0_2_0_1_51,2021-11-05T11:42:25.949Z,,,,,,,,,,,,,,,,53,,,,,,,,,,,,,,1090.69399999702,,response,,,99,,,,,,Space,keypress(Space),,,,,---- -- ----- -- ------ - ------- --- ----------<br>------------- ------ ------ ---- ---- ------- ----- -- ----<br>-------- ------- -- ---------- --- - --- ----- ----- ----<br>---- --- --- ----- --- ---- ---- ------- ----- ---- -------<br>--- --- -- ----- -- --- ---- -- --- ---- -- ------ really<br>--- ----- -- ----,125291.20000000298,125290.29999999702,124182.936,124187.5,124199.606,125299.829,,51,really
screen,html.Screen,0_2_0_1_52,2021-11-05T11:42:26.997Z,,,,,,,,,,,,,,,,53,,,,,,,,,,,,,,1038.4709999970219,,response,,,99,,,,,,Space,keypress(Space),,,,,---- -- ----- -- ------ - ------- --- ----------<br>------------- ------ ------ ---- ---- ------- ----- -- ----<br>-------- ------- -- ---------- --- - --- ----- ----- ----<br>---- --- --- ----- --- ---- ---- ------- ----- ---- -------<br>--- --- -- ----- -- --- ---- -- --- ---- -- ------ ------<br>not ----- -- ----,126339.09999999404,126338.29999999702,125283.159,125291.39999999106,125299.829,126350.3,,52,not
screen,html.Screen,0_2_0_1_53,2021-11-05T11:42:27.669Z,,,,,,,,,,,,,,,,53,,,,,,,,,,,,,,659.9999999970169,,response,,,99,,,,,,Space,keypress(Space),,,,,---- -- ----- -- ------ - ------- --- ----------<br>------------- ------ ------ ---- ---- ------- ----- -- ----<br>-------- ------- -- ---------- --- - --- ----- ----- ----<br>---- --- --- ----- --- ---- ---- ------- ----- ---- -------<br>--- --- -- ----- -- --- ---- -- --- ---- -- ------ ------<br>--- close -- ----,127011.09999999404,127010.29999999702,126333.629,126339.29999999702,126350.3,127017.043,,53,close
screen,html.Screen,0_2_0_1_54,2021-11-05T11:42:28.245Z,,,,,,,,,,,,,,,,53,,,,,,,,,,,,,,569.1570000029751,,response,,,99,,,,,,Space,keypress(Space),,,,,---- -- ----- -- ------ - ------- --- ----------<br>------------- ------ ------ ---- ---- ------- ----- -- ----<br>-------- ------- -- ---------- --- - --- ----- ----- ----<br>---- --- --- ----- --- ---- ---- ------- ----- ---- -------<br>--- --- -- ----- -- --- ---- -- --- ---- -- ------ ------<br>--- ----- at ----,127587,127586.20000000298,127000.373,127011.20000000298,127017.043,127600.503,,54,at
screen,html.Screen,0_2_0_1_55,2021-11-05T11:42:28.877Z,,,,,,,,,,,,,,,,53,,,,,,,,,,,,,,617.6970000029833,,response,,,99,,,,,,Space,keypress(Space),,,,,---- -- ----- -- ------ - ------- --- ----------<br>------------- ------ ------ ---- ---- ------- ----- -- ----<br>-------- ------- -- ---------- --- - --- ----- ----- ----<br>---- --- --- ----- --- ---- ---- ------- ----- ---- -------<br>--- --- -- ----- -- --- ---- -- --- ---- -- ------ ------<br>--- ----- -- all.,128218.89999999106,128218.20000000298,127583.833,127587.29999999702,127600.503,128233.906,,55,all.
Item 99,flow.Loop,0_2_0_1,2021-11-05T11:42:28.882Z,,,,,,,,,,,,,,,,,,,,,,,,,,,,,,65450.72500000298,,completion,,,,A,,,,,,,,,,silence,,128223.70000000298,128218.20000000298,62750.806,62757.5,62767.475,128233.906,,,
Question 1,html.Screen,0_2_0_2,2021-11-05T11:42:32.589Z,,,,,,,,,,,,,,,,,,,,,,,,,,,true,FALSE,,3695.7940000029776,,response,,,99,A,,,,,FALSE,click #choice-2,,,,silence,,131931,131929.70000000298,128217.237,128224.09999999404,128233.906,131934.923,,,
Question 2,html.Screen,0_2_0_3,2021-11-05T11:42:40.565Z,,,,,,,,,,,,,,,,,,,,,,,,,,,true,TRUE,,7970.27700000297,,response,,,99,A,,,,,TRUE,click #choice-1,,,,silence,,139906.70000000298,139905.20000000298,131918.253,131931.29999999702,131934.923,139920.198,,,
Item 99,flow.Sequence,0_2_0,2021-11-05T11:42:40.565Z,,,,,,,,,,,,,,,,,,,,,,,,,,,,,,87139.94900000299,,completion,,,,,,,,,,,,,,,,139907.29999999702,139905.20000000298,52748.579,52753.20000000298,52765.251,139920.198,,,
Holding screen,html.Screen,0_2_1_0,2021-11-05T11:42:50.566Z,,,,,,,,,,,,,,,,,,,,,,,,,,,,,,10002.413,,timeout,,,,,,,,,,,,,,,,149907.89999999106,149905.941,139903.529,139907.70000000298,139920.198,149922.611,,,
screen,html.Screen,0_2_1_1_0,2021-11-05T11:42:52.428Z,,,,,,,,,,,,,,,,54,,,,,,,,,,,,,,1846.488999994035,,response,,,100,,,,,,Space,keypress(Space),,,,,At --- ---- --- ------ ----- ------- ---- -- --- ------- --<br>------- ---------- ------ -- ----- -- ----- -- ---- ------<br>--- ----- --- --- ------ -------- ----- --- ------ ----- --<br>----- ----- ---------- --- --- ------ ------ ---- -- ------<br>------- --- ------ ----- --- ---- ------- -- ---- --- --<br>------- ------,151770,151769.09999999404,149905.941,149908.39999999106,149922.611,151773.291,,0,At
screen,html.Screen,0_2_1_1_1,2021-11-05T11:42:53.467Z,,,,,,,,,,,,,,,,54,,,,,,,,,,,,,,1035.308999994042,,response,,,100,,,,,,Space,keypress(Space),,,,,-- the ---- --- ------ ----- ------- ---- -- --- ------- --<br>------- ---------- ------ -- ----- -- ----- -- ---- ------<br>--- ----- --- --- ------ -------- ----- --- ------ ----- --<br>----- ----- ---------- --- --- ------ ------ ---- -- ------<br>------- --- ------ ----- --- ---- ------- -- ---- --- --<br>------- ------,152809.39999999106,152808.59999999404,151756.62,151770.20000000298,151773.291,152823.342,,1,the
screen,html.Screen,0_2_1_1_2,2021-11-05T11:42:54.307Z,,,,,,,,,,,,,,,,54,,,,,,,,,,,,,,825.2579999940353,,response,,,100,,,,,,Space,keypress(Space),,,,,-- --- time --- ------ ----- ------- ---- -- --- ------- --<br>------- ---------- ------ -- ----- -- ----- -- ---- ------<br>--- ----- --- --- ------ -------- ----- --- ------ ----- --<br>----- ----- ---------- --- --- ------ ------ ---- -- ------<br>------- --- ------ ----- --- ---- ------- -- ---- --- --<br>------- ------,153649.39999999106,153648.59999999404,152806.672,152809.59999999404,152823.342,153656.984,,2,time
screen,html.Screen,0_2_1_1_3,2021-11-05T11:42:55.603Z,,,,,,,,,,,,,,,,54,,,,,,,,,,,,,,1287.4159999910626,,response,,,100,,,,,,Space,keypress(Space),,,,,-- --- ---- the ------ ----- ------- ---- -- --- ------- --<br>------- ---------- ------ -- ----- -- ----- -- ---- ------<br>--- ----- --- --- ------ -------- ----- --- ------ ----- --<br>----- ----- ---------- --- --- ------ ------ ---- -- ------<br>------- --- ------ ----- --- ---- ------- -- ---- --- --<br>------- ------,154945.20000000298,154944.39999999106,153640.314,153649.59999999404,153656.984,154957.249,,3,the
screen,html.Screen,0_2_1_1_4,2021-11-05T11:42:56.363Z,,,,,,,,,,,,,,,,54,,,,,,,,,,,,,,747.1509999910486,,response,,,100,,,,,,Space,keypress(Space),,,,,-- --- ---- --- French ----- ------- ---- -- --- ------- --<br>------- ---------- ------ -- ----- -- ----- -- ---- ------<br>--- ----- --- --- ------ -------- ----- --- ------ ----- --<br>----- ----- ---------- --- --- ------ ------ ---- -- ------<br>------- --- ------ ----- --- ---- ------- -- ---- --- --<br>------- ------,155705.29999999702,155704.39999999106,154940.579,154945.39999999106,154957.249,155707.5,,4,French
screen,html.Screen,0_2_1_1_5,2021-11-05T11:42:57.027Z,,,,,,,,,,,,,,,,54,,,,,,,,,,,,,,660.8999999910593,,response,,,100,,,,,,Space,keypress(Space),,,,,-- --- ---- --- ------ crown ------- ---- -- --- ------- --<br>------- ---------- ------ -- ----- -- ----- -- ---- ------<br>--- ----- --- --- ------ -------- ----- --- ------ ----- --<br>----- ----- ---------- --- --- ------ ------ ---- -- ------<br>------- --- ------ ----- --- ---- ------- -- ---- --- --<br>------- ------,156369.29999999702,156368.39999999106,155690.83,155705.59999999404,155707.5,156374.264,,5,crown
screen,html.Screen,0_2_1_1_6,2021-11-05T11:42:58.155Z,,,,,,,,,,,,,,,,54,,,,,,,,,,,,,,1122.0359999970242,,response,,,100,,,,,,Space,keypress(Space),,,,,-- --- ---- --- ------ ----- secured ---- -- --- ------- --<br>------- ---------- ------ -- ----- -- ----- -- ---- ------<br>--- ----- --- --- ------ -------- ----- --- ------ ----- --<br>----- ----- ---------- --- --- ------ ------ ---- -- ------<br>------- --- ------ ----- --- ---- ------- -- ---- --- --<br>------- ------,157497.20000000298,157496.29999999702,156357.594,156369.39999999106,156374.264,157507.981,,6,secured
screen,html.Screen,0_2_1_1_7,2021-11-05T11:42:59.195Z,,,,,,,,,,,,,,,,54,,,,,,,,,,,,,,1028.31899999702,,response,,,100,,,,,,Space,keypress(Space),,,,,-- --- ---- --- ------ ----- ------- much -- --- ------- --<br>------- ---------- ------ -- ----- -- ----- -- ---- ------<br>--- ----- --- --- ------ -------- ----- --- ------ ----- --<br>----- ----- ---------- --- --- ------ ------ ---- -- ------<br>------- --- ------ ----- --- ---- ------- -- ---- --- --<br>------- ------,158537,158536.29999999702,157491.31,157497.39999999106,157507.981,158541.639,,7,much
screen,html.Screen,0_2_1_1_8,2021-11-05T11:42:59.683Z,,,,,,,,,,,,,,,,54,,,,,,,,,,,,,,482.56100000298466,,response,,,100,,,,,,Space,keypress(Space),,,,,-- --- ---- --- ------ ----- ------- ---- of --- ------- --<br>------- ---------- ------ -- ----- -- ----- -- ---- ------<br>--- ----- --- --- ------ -------- ----- --- ------ ----- --<br>----- ----- ---------- --- --- ------ ------ ---- -- ------<br>------- --- ------ ----- --- ---- ------- -- ---- --- --<br>------- ------,159025.09999999404,159024.20000000298,158524.968,158537.29999999702,158541.639,159041.66,,8,of
screen,html.Screen,0_2_1_1_9,2021-11-05T11:43:00.355Z,,,,,,,,,,,,,,,,54,,,,,,,,,,,,,,654.5400000029767,,response,,,100,,,,,,Space,keypress(Space),,,,,-- --- ---- --- ------ ----- ------- ---- -- its ------- --<br>------- ---------- ------ -- ----- -- ----- -- ---- ------<br>--- ----- --- --- ------ -------- ----- --- ------ ----- --<br>----- ----- ---------- --- --- ------ ------ ---- -- ------<br>------- --- ------ ----- --- ---- ------- -- ---- --- --<br>------- ------,159697,159696.20000000298,159024.99,159025.29999999702,159041.66,159708.469,,9,its
screen,html.Screen,0_2_1_1_10,2021-11-05T11:43:01.315Z,,,,,,,,,,,,,,,,54,,,,,,,,,,,,,,947.6309999940277,,response,,,100,,,,,,Space,keypress(Space),,,,,-- --- ---- --- ------ ----- ------- ---- -- --- revenue --<br>------- ---------- ------ -- ----- -- ----- -- ---- ------<br>--- ----- --- --- ------ -------- ----- --- ------ ----- --<br>----- ----- ---------- --- --- ------ ------ ---- -- ------<br>------- --- ------ ----- --- ---- ------- -- ---- --- --<br>------- ------,160656.89999999106,160656.09999999404,159691.799,159697.20000000298,159708.469,160658.791,,10,revenue
screen,html.Screen,0_2_1_1_11,2021-11-05T11:43:01.851Z,,,,,,,,,,,,,,,,54,,,,,,,,,,,,,,533.3089999940421,,response,,,100,,,,,,Space,keypress(Space),,,,,-- --- ---- --- ------ ----- ------- ---- -- --- ------- by<br>------- ---------- ------ -- ----- -- ----- -- ---- ------<br>--- ----- --- --- ------ -------- ----- --- ------ ----- --<br>----- ----- ---------- --- --- ------ ------ ---- -- ------<br>------- --- ------ ----- --- ---- ------- -- ---- --- --<br>------- ------,161192.79999999702,161192.09999999404,160642.12,160657.09999999404,160658.791,161208.875,,11,by
screen,html.Screen,0_2_1_1_12,2021-11-05T11:43:02.763Z,,,,,,,,,,,,,,,,54,,,,,,,,,,,,,,895.5249999910593,,response,,,100,,,,,,Space,keypress(Space),,,,,-- --- ---- --- ------ ----- ------- ---- -- --- ------- --<br>issuing ---------- ------ -- ----- -- ----- -- ---- ------<br>--- ----- --- --- ------ -------- ----- --- ------ ----- --<br>----- ----- ---------- --- --- ------ ------ ---- -- ------<br>------- --- ------ ----- --- ---- ------- -- ---- --- --<br>------- ------,162105.20000000298,162104.39999999106,161192.205,161193.09999999404,161208.875,162109.085,,12,issuing
screen,html.Screen,0_2_1_1_13,2021-11-05T11:43:03.795Z,,,,,,,,,,,,,,,,54,,,,,,,,,,,,,,1026.9150000000081,,response,,,100,,,,,,Space,keypress(Space),,,,,-- --- ---- --- ------ ----- ------- ---- -- --- ------- --<br>------- government ------ -- ----- -- ----- -- ---- ------<br>--- ----- --- --- ------ -------- ----- --- ------ ----- --<br>----- ----- ---------- --- --- ------ ------ ---- -- ------<br>------- --- ------ ----- --- ---- ------- -- ---- --- --<br>------- ------,163136.79999999702,163136,162092.415,162105.39999999106,162109.085,163142.751,,13,government
screen,html.Screen,0_2_1_1_14,2021-11-05T11:43:05.387Z,,,,,,,,,,,,,,,,54,,,,,,,,,,,,,,1585.14899999107,,response,,,100,,,,,,Space,keypress(Space),,,,,-- --- ---- --- ------ ----- ------- ---- -- --- ------- --<br>------- ---------- bonds. -- ----- -- ----- -- ---- ------<br>--- ----- --- --- ------ -------- ----- --- ------ ----- --<br>----- ----- ---------- --- --- ------ ------ ---- -- ------<br>------- --- ------ ----- --- ---- ------- -- ---- --- --<br>------- ------,164728.70000000298,164727.89999999106,163126.08,163137.09999999404,163142.751,164743.045,,14,bonds.
screen,html.Screen,0_2_1_1_15,2021-11-05T11:43:05.882Z,,,,,,,,,,,,,,,,54,,,,,,,,,,,,,,480.75499999700696,,response,,,100,,,,,,Space,keypress(Space),,,,,-- --- ---- --- ------ ----- ------- ---- -- --- ------- --<br>------- ---------- ------ In ----- -- ----- -- ---- ------<br>--- ----- --- --- ------ -------- ----- --- ------ ----- --<br>----- ----- ---------- --- --- ------ ------ ---- -- ------<br>------- --- ------ ----- --- ---- ------- -- ---- --- --<br>------- ------,165224.59999999404,165223.79999999702,164726.375,164728.89999999106,164743.045,165226.547,,15,In
screen,html.Screen,0_2_1_1_16,2021-11-05T11:43:07.570Z,,,,,,,,,,,,,,,,54,,,,,,,,,,,,,,1685.0529999940482,,response,,,100,,,,,,Space,keypress(Space),,,,,"-- --- ---- --- ------ ----- ------- ---- -- --- ------- --<br>------- ---------- ------ -- 1727, -- ----- -- ---- ------<br>--- ----- --- --- ------ -------- ----- --- ------ ----- --<br>----- ----- ---------- --- --- ------ ------ ---- -- ------<br>------- --- ------ ----- --- ---- ------- -- ---- --- --<br>------- ------",166912.5,166911.59999999404,165209.877,165224.79999999702,165226.547,166926.874,,16,"1727,"
screen,html.Screen,0_2_1_1_17,2021-11-05T11:43:08.322Z,,,,,,,,,,,,,,,,54,,,,,,,,,,,,,,736.8260000029695,,response,,,100,,,,,,Space,keypress(Space),,,,,-- --- ---- --- ------ ----- ------- ---- -- --- ------- --<br>------- ---------- ------ -- ----- in ----- -- ---- ------<br>--- ----- --- --- ------ -------- ----- --- ------ ----- --<br>----- ----- ---------- --- --- ------ ------ ---- -- ------<br>------- --- ------ ----- --- ---- ------- -- ---- --- --<br>------- ------,167664.39999999106,167663.70000000298,166910.204,166912.70000000298,166926.874,167677.206,,17,in
screen,html.Screen,0_2_1_1_18,2021-11-05T11:43:08.962Z,,,,,,,,,,,,,,,,54,,,,,,,,,,,,,,626.4940000029746,,response,,,100,,,,,,Space,keypress(Space),,,,,-- --- ---- --- ------ ----- ------- ---- -- --- ------- --<br>------- ---------- ------ -- ----- -- order -- ---- ------<br>--- ----- --- --- ------ -------- ----- --- ------ ----- --<br>----- ----- ---------- --- --- ------ ------ ---- -- ------<br>------- --- ------ ----- --- ---- ------- -- ---- --- --<br>------- ------,168304.39999999106,168303.70000000298,167660.535,167664.70000000298,167677.206,168310.562,,18,order
screen,html.Screen,0_2_1_1_19,2021-11-05T11:43:09.682Z,,,,,,,,,,,,,,,,54,,,,,,,,,,,,,,713.0379999940342,,response,,,100,,,,,,Space,keypress(Space),,,,,-- --- ---- --- ------ ----- ------- ---- -- --- ------- --<br>------- ---------- ------ -- ----- -- ----- to ---- ------<br>--- ----- --- --- ------ -------- ----- --- ------ ----- --<br>----- ----- ---------- --- --- ------ ------ ---- -- ------<br>------- --- ------ ----- --- ---- ------- -- ---- --- --<br>------- ------,169024.39999999106,169023.59999999404,168293.892,168304.79999999702,168310.562,169027.489,,19,to
screen,html.Screen,0_2_1_1_20,2021-11-05T11:43:10.170Z,,,,,,,,,,,,,,,,54,,,,,,,,,,,,,,484.11099999403814,,response,,,100,,,,,,Space,keypress(Space),,,,,-- --- ---- --- ------ ----- ------- ---- -- --- ------- --<br>------- ---------- ------ -- ----- -- ----- -- save ------<br>--- ----- --- --- ------ -------- ----- --- ------ ----- --<br>----- ----- ---------- --- --- ------ ------ ---- -- ------<br>------- --- ------ ----- --- ---- ------- -- ---- --- --<br>------- ------,169512.5,169511.59999999404,169010.818,169024.70000000298,169027.489,169527.57,,20,save
screen,html.Screen,0_2_1_1_21,2021-11-05T11:43:10.626Z,,,,,,,,,,,,,,,,54,,,,,,,,,,,,,,439.929999999993,,response,,,100,,,,,,Space,keypress(Space),,,,,"-- --- ---- --- ------ ----- ------- ---- -- --- ------- --<br>------- ---------- ------ -- ----- -- ----- -- ---- money,<br>--- ----- --- --- ------ -------- ----- --- ------ ----- --<br>----- ----- ---------- --- --- ------ ------ ---- -- ------<br>------- --- ------ ----- --- ---- ------- -- ---- --- --<br>------- ------",169968.29999999702,169967.5,169510.9,169512.70000000298,169527.57,169977.76,,21,"money,"
screen,html.Screen,0_2_1_1_22,2021-11-05T11:43:11.106Z,,,,,,,,,,,,,,,,54,,,,,,,,,,,,,,469.63999999105,,response,,,100,,,,,,Space,keypress(Space),,,,,-- --- ---- --- ------ ----- ------- ---- -- --- ------- --<br>------- ---------- ------ -- ----- -- ----- -- ---- ------<br>the ----- --- --- ------ -------- ----- --- ------ ----- --<br>----- ----- ---------- --- --- ------ ------ ---- -- ------<br>------- --- ------ ----- --- ---- ------- -- ---- --- --<br>------- ------,170448.20000000298,170447.39999999106,169961.089,169968.5,169977.76,170461.212,,22,the
screen,html.Screen,0_2_1_1_23,2021-11-05T11:43:11.906Z,,,,,,,,,,,,,,,,54,,,,,,,,,,,,,,786.2880000000005,,response,,,100,,,,,,Space,keypress(Space),,,,,-- --- ---- --- ------ ----- ------- ---- -- --- ------- --<br>------- ---------- ------ -- ----- -- ----- -- ---- ------<br>--- state --- --- ------ -------- ----- --- ------ ----- --<br>----- ----- ---------- --- --- ------ ------ ---- -- ------<br>------- --- ------ ----- --- ---- ------- -- ---- --- --<br>------- ------,171248.29999999702,171247.5,170444.541,170448.5,170461.212,171261.353,,23,state
screen,html.Screen,0_2_1_1_24,2021-11-05T11:43:12.570Z,,,,,,,,,,,,,,,,54,,,,,,,,,,,,,,650.0469999910565,,response,,,100,,,,,,Space,keypress(Space),,,,,-- --- ---- --- ------ ----- ------- ---- -- --- ------- --<br>------- ---------- ------ -- ----- -- ----- -- ---- ------<br>--- ----- cut --- ------ -------- ----- --- ------ ----- --<br>----- ----- ---------- --- --- ------ ------ ---- -- ------<br>------- --- ------ ----- --- ---- ------- -- ---- --- --<br>------- ------,171912.20000000298,171911.39999999106,171244.683,171248.5,171261.353,171928.262,,24,cut
screen,html.Screen,0_2_1_1_25,2021-11-05T11:43:13.426Z,,,,,,,,,,,,,,,,54,,,,,,,,,,,,,,839.4380000029923,,response,,,100,,,,,,Space,keypress(Space),,,,,-- --- ---- --- ------ ----- ------- ---- -- --- ------- --<br>------- ---------- ------ -- ----- -- ----- -- ---- ------<br>--- ----- --- the ------ -------- ----- --- ------ ----- --<br>----- ----- ---------- --- --- ------ ------ ---- -- ------<br>------- --- ------ ----- --- ---- ------- -- ---- --- --<br>------- ------,172768.5,172767.70000000298,171911.591,171912.29999999702,171928.262,172778.391,,25,the
screen,html.Screen,0_2_1_1_26,2021-11-05T11:43:14.098Z,,,,,,,,,,,,,,,,54,,,,,,,,,,,,,,660.809000002977,,response,,,100,,,,,,Space,keypress(Space),,,,,-- --- ---- --- ------ ----- ------- ---- -- --- ------- --<br>------- ---------- ------ -- ----- -- ----- -- ---- ------<br>--- ----- --- --- bonds' -------- ----- --- ------ ----- --<br>----- ----- ---------- --- --- ------ ------ ---- -- ------<br>------- --- ------ ----- --- ---- ------- -- ---- --- --<br>------- ------,173440.09999999404,173439.20000000298,172761.721,172768.70000000298,172778.391,173445.305,,26,bonds'
screen,html.Screen,0_2_1_1_27,2021-11-05T11:43:15.322Z,,,,,,,,,,,,,,,,54,,,,,,,,,,,,,,1217.8950000029872,,response,,,100,,,,,,Space,keypress(Space),,,,,-- --- ---- --- ------ ----- ------- ---- -- --- ------- --<br>------- ---------- ------ -- ----- -- ----- -- ---- ------<br>--- ----- --- --- ------ interest ----- --- ------ ----- --<br>----- ----- ---------- --- --- ------ ------ ---- -- ------<br>------- --- ------ ----- --- ---- ------- -- ---- --- --<br>------- ------,174664.09999999404,174663.20000000298,173428.634,173440.29999999702,173445.305,174678.863,,27,interest
screen,html.Screen,0_2_1_1_28,2021-11-05T11:43:15.994Z,,,,,,,,,,,,,,,,54,,,,,,,,,,,,,,656.3370000029681,,response,,,100,,,,,,Space,keypress(Space),,,,,-- --- ---- --- ------ ----- ------- ---- -- --- ------- --<br>------- ---------- ------ -- ----- -- ----- -- ---- ------<br>--- ----- --- --- ------ -------- rate. --- ------ ----- --<br>----- ----- ---------- --- --- ------ ------ ---- -- ------<br>------- --- ------ ----- --- ---- ------- -- ---- --- --<br>------- ------,175336.09999999404,175335.20000000298,174662.193,174664.39999999106,174678.863,175345.757,,28,rate.
screen,html.Screen,0_2_1_1_29,2021-11-05T11:43:16.906Z,,,,,,,,,,,,,,,,54,,,,,,,,,,,,,,901.3429999940272,,response,,,100,,,,,,Space,keypress(Space),,,,,-- --- ---- --- ------ ----- ------- ---- -- --- ------- --<br>------- ---------- ------ -- ----- -- ----- -- ---- ------<br>--- ----- --- --- ------ -------- ----- The ------ ----- --<br>----- ----- ---------- --- --- ------ ------ ---- -- ------<br>------- --- ------ ----- --- ---- ------- -- ---- --- --<br>------- ------,176248,176247.09999999404,175329.086,175336.39999999106,175345.757,176262.58,,29,The
screen,html.Screen,0_2_1_1_30,2021-11-05T11:43:17.674Z,,,,,,,,,,,,,,,,54,,,,,,,,,,,,,,752.3199999910721,,response,,,100,,,,,,Space,keypress(Space),,,,,-- --- ---- --- ------ ----- ------- ---- -- --- ------- --<br>------- ---------- ------ -- ----- -- ----- -- ---- ------<br>--- ----- --- --- ------ -------- ----- --- market ----- --<br>----- ----- ---------- --- --- ------ ------ ---- -- ------<br>------- --- ------ ----- --- ---- ------- -- ---- --- --<br>------- ------,177015.70000000298,177014.89999999106,176245.91,176248.20000000298,176262.58,177029.469,,30,market
screen,html.Screen,0_2_1_1_31,2021-11-05T11:43:18.354Z,,,,,,,,,,,,,,,,54,,,,,,,,,,,,,,665.6309999940277,,response,,,100,,,,,,Space,keypress(Space),,,,,-- --- ---- --- ------ ----- ------- ---- -- --- ------- --<br>------- ---------- ------ -- ----- -- ----- -- ---- ------<br>--- ----- --- --- ------ -------- ----- --- ------ value --<br>----- ----- ---------- --- --- ------ ------ ---- -- ------<br>------- --- ------ ----- --- ---- ------- -- ---- --- --<br>------- ------,177695.79999999702,177695.09999999404,177012.799,177016,177029.469,177712.958,,31,value
screen,html.Screen,0_2_1_1_32,2021-11-05T11:43:18.866Z,,,,,,,,,,,,,,,,54,,,,,,,,,,,,,,494.04199999998673,,response,,,100,,,,,,Space,keypress(Space),,,,,-- --- ---- --- ------ ----- ------- ---- -- --- ------- --<br>------- ---------- ------ -- ----- -- ----- -- ---- ------<br>--- ----- --- --- ------ -------- ----- --- ------ ----- of<br>----- ----- ---------- --- --- ------ ------ ---- -- ------<br>------- --- ------ ----- --- ---- ------- -- ---- --- --<br>------- ------,178207.70000000298,178207,177696.288,177696,177712.958,178212.982,,32,of
screen,html.Screen,0_2_1_1_33,2021-11-05T11:43:19.370Z,,,,,,,,,,,,,,,,54,,,,,,,,,,,,,,497.91799999107025,,response,,,100,,,,,,Space,keypress(Space),,,,,-- --- ---- --- ------ ----- ------- ---- -- --- ------- --<br>------- ---------- ------ -- ----- -- ----- -- ---- ------<br>--- ----- --- --- ------ -------- ----- --- ------ ----- --<br>these ----- ---------- --- --- ------ ------ ---- -- ------<br>------- --- ------ ----- --- ---- ------- -- ---- --- --<br>------- ------,178711.70000000298,178710.89999999106,178196.313,178208,178212.982,178713.237,,33,these
screen,html.Screen,0_2_1_1_34,2021-11-05T11:43:19.874Z,,,,,,,,,,,,,,,,54,,,,,,,,,,,,,,501.6629999910656,,response,,,100,,,,,,Space,keypress(Space),,,,,-- --- ---- --- ------ ----- ------- ---- -- --- ------- --<br>------- ---------- ------ -- ----- -- ----- -- ---- ------<br>--- ----- --- --- ------ -------- ----- --- ------ ----- --<br>----- bonds ---------- --- --- ------ ------ ---- -- ------<br>------- --- ------ ----- --- ---- ------- -- ---- --- --<br>------- ------,179215.70000000298,179214.89999999106,178696.566,178711.89999999106,178713.237,179230.097,,34,bonds
screen,html.Screen,0_2_1_1_35,2021-11-05T11:43:20.594Z,,,,,,,,,,,,,,,,54,,,,,,,,,,,,,,704.8029999910505,,response,,,100,,,,,,Space,keypress(Space),,,,,"-- --- ---- --- ------ ----- ------- ---- -- --- ------- --<br>------- ---------- ------ -- ----- -- ----- -- ---- ------<br>--- ----- --- --- ------ -------- ----- --- ------ ----- --<br>----- ----- plummeted, --- --- ------ ------ ---- -- ------<br>------- --- ------ ----- --- ---- ------- -- ---- --- --<br>------- ------",179935.70000000298,179934.89999999106,179213.426,179216,179230.097,179946.868,,35,"plummeted,"
screen,html.Screen,0_2_1_1_36,2021-11-05T11:43:21.162Z,,,,,,,,,,,,,,,,54,,,,,,,,,,,,,,556.0319999910716,,response,,,100,,,,,,Space,keypress(Space),,,,,-- --- ---- --- ------ ----- ------- ---- -- --- ------- --<br>------- ---------- ------ -- ----- -- ----- -- ---- ------<br>--- ----- --- --- ------ -------- ----- --- ------ ----- --<br>----- ----- ---------- and --- ------ ------ ---- -- ------<br>------- --- ------ ----- --- ---- ------- -- ---- --- --<br>------- ------,180503.70000000298,180502.89999999106,179930.198,179935.89999999106,179946.868,180513.586,,36,and
screen,html.Screen,0_2_1_1_37,2021-11-05T11:43:21.909Z,,,,,,,,,,,,,,,,54,,,,,,,,,,,,,,733.2139999970095,,response,,,100,,,,,,Space,keypress(Space),,,,,-- --- ---- --- ------ ----- ------- ---- -- --- ------- --<br>------- ---------- ------ -- ----- -- ----- -- ---- ------<br>--- ----- --- --- ------ -------- ----- --- ------ ----- --<br>----- ----- ---------- --- the ------ ------ ---- -- ------<br>------- --- ------ ----- --- ---- ------- -- ---- --- --<br>------- ------,181247.59999999404,181246.79999999702,180496.917,180503.89999999106,180513.586,181263.945,,37,the
screen,html.Screen,0_2_1_1_38,2021-11-05T11:43:22.677Z,,,,,,,,,,,,,,,,54,,,,,,,,,,,,,,750.8549999970128,,response,,,100,,,,,,Space,keypress(Space),,,,,-- --- ---- --- ------ ----- ------- ---- -- --- ------- --<br>------- ---------- ------ -- ----- -- ----- -- ---- ------<br>--- ----- --- --- ------ -------- ----- --- ------ ----- --<br>----- ----- ---------- --- --- market ------ ---- -- ------<br>------- --- ------ ----- --- ---- ------- -- ---- --- --<br>------- ------,182015.59999999404,182014.79999999702,181247.274,181247.79999999702,181263.945,182030.706,,38,market
screen,html.Screen,0_2_1_1_39,2021-11-05T11:43:23.389Z,,,,,,,,,,,,,,,,54,,,,,,,,,,,,,,696.0939999970142,,response,,,100,,,,,,Space,keypress(Space),,,,,-- --- ---- --- ------ ----- ------- ---- -- --- ------- --<br>------- ---------- ------ -- ----- -- ----- -- ---- ------<br>--- ----- --- --- ------ -------- ----- --- ------ ----- --<br>----- ----- ---------- --- --- ------ became ---- -- ------<br>------- --- ------ ----- --- ---- ------- -- ---- --- --<br>------- ------,182727.5,182726.79999999702,182014.036,182015.79999999702,182030.706,182730.904,,39,became
screen,html.Screen,0_2_1_1_40,2021-11-05T11:43:25.262Z,,,,,,,,,,,,,,,,54,,,,,,,,,,,,,,1867.9959999910498,,response,,,100,,,,,,Space,keypress(Space),,,,,-- --- ---- --- ------ ----- ------- ---- -- --- ------- --<br>------- ---------- ------ -- ----- -- ----- -- ---- ------<br>--- ----- --- --- ------ -------- ----- --- ------ ----- --<br>----- ----- ---------- --- --- ------ ------ wary -- ------<br>------- --- ------ ----- --- ---- ------- -- ---- --- --<br>------- ------,184599.79999999702,184598.89999999106,182714.234,182727.70000000298,182730.904,184614.608,,40,wary
screen,html.Screen,0_2_1_1_41,2021-11-05T11:43:25.781Z,,,,,,,,,,,,,,,,54,,,,,,,,,,,,,,503.9919999940321,,response,,,100,,,,,,Space,keypress(Space),,,,,-- --- ---- --- ------ ----- ------- ---- -- --- ------- --<br>------- ---------- ------ -- ----- -- ----- -- ---- ------<br>--- ----- --- --- ------ -------- ----- --- ------ ----- --<br>----- ----- ---------- --- --- ------ ------ ---- of ------<br>------- --- ------ ----- --- ---- ------- -- ---- --- --<br>------- ------,185119.39999999106,185118.59999999404,184597.938,184600,184614.608,185131.491,,41,of
screen,html.Screen,0_2_1_1_42,2021-11-05T11:43:26.509Z,,,,,,,,,,,,,,,,54,,,,,,,,,,,,,,715.0089999999909,,response,,,100,,,,,,Space,keypress(Space),,,,,-- --- ---- --- ------ ----- ------- ---- -- --- ------- --<br>------- ---------- ------ -- ----- -- ----- -- ---- ------<br>--- ----- --- --- ------ -------- ----- --- ------ ----- --<br>----- ----- ---------- --- --- ------ ------ ---- -- French<br>------- --- ------ ----- --- ---- ------- -- ---- --- --<br>------- ------,185847.39999999106,185846.5,185114.821,185119.59999999404,185131.491,185848.307,,42,French
screen,html.Screen,0_2_1_1_43,2021-11-05T11:43:27.157Z,,,,,,,,,,,,,,,,54,,,,,,,,,,,,,,646.1929999999993,,response,,,100,,,,,,Space,keypress(Space),,,,,-- --- ---- --- ------ ----- ------- ---- -- --- ------- --<br>------- ---------- ------ -- ----- -- ----- -- ---- ------<br>--- ----- --- --- ------ -------- ----- --- ------ ----- --<br>----- ----- ---------- --- --- ------ ------ ---- -- ------<br>credit. --- ------ ----- --- ---- ------- -- ---- --- --<br>------- ------,186495.20000000298,186494.5,185831.637,185847.59999999404,185848.307,186498.493,,43,credit.
screen,html.Screen,0_2_1_1_44,2021-11-05T11:43:27.805Z,,,,,,,,,,,,,,,,54,,,,,,,,,,,,,,643.9069999910716,,response,,,100,,,,,,Space,keypress(Space),,,,,-- --- ---- --- ------ ----- ------- ---- -- --- ------- --<br>------- ---------- ------ -- ----- -- ----- -- ---- ------<br>--- ----- --- --- ------ -------- ----- --- ------ ----- --<br>----- ----- ---------- --- --- ------ ------ ---- -- ------<br>------- The ------ ----- --- ---- ------- -- ---- --- --<br>------- ------,187143.20000000298,187142.39999999106,186481.823,186495.5,186498.493,187148.653,,44,The
screen,html.Screen,0_2_1_1_45,2021-11-05T11:43:28.637Z,,,,,,,,,,,,,,,,54,,,,,,,,,,,,,,825.6469999970286,,response,,,100,,,,,,Space,keypress(Space),,,,,-- --- ---- --- ------ ----- ------- ---- -- --- ------- --<br>------- ---------- ------ -- ----- -- ----- -- ---- ------<br>--- ----- --- --- ------ -------- ----- --- ------ ----- --<br>----- ----- ---------- --- --- ------ ------ ---- -- ------<br>------- --- French ----- --- ---- ------- -- ---- --- --<br>------- ------,187975.09999999404,187974.29999999702,187131.983,187143.39999999106,187148.653,187982.253,,45,French
screen,html.Screen,0_2_1_1_46,2021-11-05T11:43:29.109Z,,,,,,,,,,,,,,,,54,,,,,,,,,,,,,,464.0469999970228,,response,,,100,,,,,,Space,keypress(Space),,,,,-- --- ---- --- ------ ----- ------- ---- -- --- ------- --<br>------- ---------- ------ -- ----- -- ----- -- ---- ------<br>--- ----- --- --- ------ -------- ----- --- ------ ----- --<br>----- ----- ---------- --- --- ------ ------ ---- -- ------<br>------- --- ------ state --- ---- ------- -- ---- --- --<br>------- ------,188447.09999999404,188446.29999999702,187965.582,187975.29999999702,187982.253,188448.956,,46,state
screen,html.Screen,0_2_1_1_47,2021-11-05T11:43:29.581Z,,,,,,,,,,,,,,,,54,,,,,,,,,,,,,,469.4439999910537,,response,,,100,,,,,,Space,keypress(Space),,,,,-- --- ---- --- ------ ----- ------- ---- -- --- ------- --<br>------- ---------- ------ -- ----- -- ----- -- ---- ------<br>--- ----- --- --- ------ -------- ----- --- ------ ----- --<br>----- ----- ---------- --- --- ------ ------ ---- -- ------<br>------- --- ------ ----- was ---- ------- -- ---- --- --<br>------- ------,188919.20000000298,188918.39999999106,188432.286,188447.39999999106,188448.956,188932.396,,47,was
screen,html.Screen,0_2_1_1_48,2021-11-05T11:43:30.141Z,,,,,,,,,,,,,,,,54,,,,,,,,,,,,,,545.8040000029723,,response,,,100,,,,,,Space,keypress(Space),,,,,-- --- ---- --- ------ ----- ------- ---- -- --- ------- --<br>------- ---------- ------ -- ----- -- ----- -- ---- ------<br>--- ----- --- --- ------ -------- ----- --- ------ ----- --<br>----- ----- ---------- --- --- ------ ------ ---- -- ------<br>------- --- ------ ----- --- left ------- -- ---- --- --<br>------- ------,189479.09999999404,189478.20000000298,188915.726,188919.39999999106,188932.396,189482.642,,48,left
screen,html.Screen,0_2_1_1_49,2021-11-05T11:43:30.621Z,,,,,,,,,,,,,,,,54,,,,,,,,,,,,,,475.5580000029877,,response,,,100,,,,,,Space,keypress(Space),,,,,-- --- ---- --- ------ ----- ------- ---- -- --- ------- --<br>------- ---------- ------ -- ----- -- ----- -- ---- ------<br>--- ----- --- --- ------ -------- ----- --- ------ ----- --<br>----- ----- ---------- --- --- ------ ------ ---- -- ------<br>------- --- ------ ----- --- ---- without -- ---- --- --<br>------- ------,189959,189958.20000000298,189465.971,189479.29999999702,189482.642,189966.032,,49,without
screen,html.Screen,0_2_1_1_50,2021-11-05T11:43:31.061Z,,,,,,,,,,,,,,,,54,,,,,,,,,,,,,,432.1680000029737,,response,,,100,,,,,,Space,keypress(Space),,,,,-- --- ---- --- ------ ----- ------- ---- -- --- ------- --<br>------- ---------- ------ -- ----- -- ----- -- ---- ------<br>--- ----- --- --- ------ -------- ----- --- ------ ----- --<br>----- ----- ---------- --- --- ------ ------ ---- -- ------<br>------- --- ------ ----- --- ---- ------- an ---- --- --<br>------- ------,190399,190398.20000000298,189949.362,189959.20000000298,189966.032,190416.126,,50,an
screen,html.Screen,0_2_1_1_51,2021-11-05T11:43:31.533Z,,,,,,,,,,,,,,,,54,,,,,,,,,,,,,,454.07400000299094,,response,,,100,,,,,,Space,keypress(Space),,,,,-- --- ---- --- ------ ----- ------- ---- -- --- ------- --<br>------- ---------- ------ -- ----- -- ----- -- ---- ------<br>--- ----- --- --- ------ -------- ----- --- ------ ----- --<br>----- ----- ---------- --- --- ------ ------ ---- -- ------<br>------- --- ------ ----- --- ---- ------- -- easy --- --<br>------- ------,190870.89999999106,190870.20000000298,190399.456,190399.20000000298,190416.126,190882.976,,51,easy
screen,html.Screen,0_2_1_1_52,2021-11-05T11:43:31.989Z,,,,,,,,,,,,,,,,54,,,,,,,,,,,,,,443.2240000029851,,response,,,100,,,,,,Space,keypress(Space),,,,,-- --- ---- --- ------ ----- ------- ---- -- --- ------- --<br>------- ---------- ------ -- ----- -- ----- -- ---- ------<br>--- ----- --- --- ------ -------- ----- --- ------ ----- --<br>----- ----- ---------- --- --- ------ ------ ---- -- ------<br>------- --- ------ ----- --- ---- ------- -- ---- way --<br>------- ------,191326.89999999106,191326.20000000298,190866.305,190871.09999999404,190882.976,191333.035,,52,way
screen,html.Screen,0_2_1_1_53,2021-11-05T11:43:32.445Z,,,,,,,,,,,,,,,,54,,,,,,,,,,,,,,449.06499999403604,,response,,,100,,,,,,Space,keypress(Space),,,,,-- --- ---- --- ------ ----- ------- ---- -- --- ------- --<br>------- ---------- ------ -- ----- -- ----- -- ---- ------<br>--- ----- --- --- ------ -------- ----- --- ------ ----- --<br>----- ----- ---------- --- --- ------ ------ ---- -- ------<br>------- --- ------ ----- --- ---- ------- -- ---- --- of<br>------- ------,191783,191782.09999999404,191316.365,191327.20000000298,191333.035,191799.68,,53,of
screen,html.Screen,0_2_1_1_54,2021-11-05T11:43:32.877Z,,,,,,,,,,,,,,,,54,,,,,,,,,,,,,,414.4199999940465,,response,,,100,,,,,,Space,keypress(Space),,,,,-- --- ---- --- ------ ----- ------- ---- -- --- ------- --<br>------- ---------- ------ -- ----- -- ----- -- ---- ------<br>--- ----- --- --- ------ -------- ----- --- ------ ----- --<br>----- ----- ---------- --- --- ------ ------ ---- -- ------<br>------- --- ------ ----- --- ---- ------- -- ---- --- --<br>raising ------,192214.89999999106,192214.09999999404,191783.012,191783.20000000298,191799.68,192216.702,,54,raising
screen,html.Screen,0_2_1_1_55,2021-11-05T11:43:33.413Z,,,,,,,,,,,,,,,,54,,,,,,,,,,,,,,533.3979999940493,,response,,,100,,,,,,Space,keypress(Space),,,,,-- --- ---- --- ------ ----- ------- ---- -- --- ------- --<br>------- ---------- ------ -- ----- -- ----- -- ---- ------<br>--- ----- --- --- ------ -------- ----- --- ------ ----- --<br>----- ----- ---------- --- --- ------ ------ ---- -- ------<br>------- --- ------ ----- --- ---- ------- -- ---- --- --<br>------- money.,192750.89999999106,192750.09999999404,192200.03,192215.09999999404,192216.702,192766.713,,55,money.
Item 100,flow.Loop,0_2_1_1,2021-11-05T11:43:33.413Z,,,,,,,,,,,,,,,,,,,,,,,,,,,,,,42827.488999994035,,completion,,,,A,,,,,,,,,,silence,,192751.29999999702,192750.09999999404,149905.941,149908.20000000298,149922.611,192766.713,,,
Question 1,html.Screen,0_2_1_2,2021-11-05T11:43:36.517Z,,,,,,,,,,,,,,,,,,,,,,,,,,,true,TRUE,,3086.8869999940507,,response,,,100,A,,,,,TRUE,click #choice-1,,,,silence,,195854.79999999702,195853.59999999404,192750.043,192751.59999999404,192766.713,195867.51,,,
Question 2,html.Screen,0_2_1_3,2021-11-05T11:43:39.260Z,,,,,,,,,,,,,,,,,,,,,,,,,,,true,FALSE,,2729.88999999105,,response,,,100,A,,,,,FALSE,click #choice-2,,,,silence,,198598.59999999404,198597.39999999106,195850.84,195855.09999999404,195867.51,198601.423,,,
Item 100,flow.Sequence,0_2_1,2021-11-05T11:43:39.261Z,,,,,,,,,,,,,,,,,,,,,,,,,,,,,,58677.201999991055,,completion,,,,,,,,,,,,,,,,198599,198597.39999999106,139903.529,139907.59999999404,139920.198,198601.423,,,
End of Practice,html.Page,0_2_2,2021-11-05T11:43:44.997Z,,,,,,,,,,,,,,,,,,,,,,,,,,,,,,5733.17699999403,,form submission,,,,,,,,,,,,,,,,204335.20000000298,204334.59999999404,198584.754,198599.20000000298,198601.423,204336.241,,,
Practice,flow.Sequence,0_2,2021-11-05T11:43:44.997Z,,,,,,,,,,,,,,,,,,,,,,,,,,,,,,151569.34899999405,,completion,,,,,,,,,,,,,,,,204335.79999999702,204334.59999999404,52748.579,52753.09999999404,52765.251,204336.241,,,
Trap_instruction,html.Page,0_3_0,2021-11-05T11:43:49.708Z,,,,,,,,,,,,,,,,,,,,,,,,,,,,,,4709.758999999991,,form submission,,,,,,,,,,,,,,,,209046.59999999404,209046,204319.57,204336.09999999404,204336.241,209070.826,,,
trap_trial,html.Screen,0_3_1,2021-11-05T11:43:53.492Z,,,,,,,,,,,,,,,,,,,,,,,,,,,true,1,,3757.673999999999,,response,,,,,,,,,1,click #choice-1,,,,,,212829.79999999702,212828.5,209054.152,209046.79999999702,209070.826,212837.741,,,
end of trap trial,html.Page,0_3_2,2021-11-05T11:43:55.428Z,,,,,,,,,,,,,,,,,,,,,,,,,,,,,,1928.3589999940305,,form submission,,,,,,,,,,,,,,,,214766.39999999106,214766.09999999404,212821.073,212830,212837.741,214772.156,,,
Trap 1,flow.Sequence,0_3,2021-11-05T11:43:55.429Z,,,,,,,,,,,,,,,,,,,,,,,,,,,,,,10429.85899999403,,completion,,,,,,,,,,,,,,,,214766.79999999702,214766.09999999404,204319.57,204336,204336.241,214772.156,,,
Standby,html.Page,0_4_0,2021-11-05T11:44:03.420Z,,,,,,,,,,,,,,,,,,,,,,,,,,,,,,8001.632000000012,,timeout,,,,,,,,,,,,,,,,222758.29999999702,222757.118,214755.486,214767.09999999404,214772.156,222773.788,,,
Holding screen,html.Screen,0_4_1_0_0,2021-11-05T11:44:10.422Z,,,,,,,,,,,,,,,,,,,,,,,,,,,,,,7002.084000000003,,timeout,,,,,,,,,,,,,,,,229760.20000000298,229759.202,222757.118,222758.70000000298,222773.788,229775.872,,,
screen,html.Screen,0_4_1_0_1_0,2021-11-05T11:44:12.147Z,,,,,,,,,,,,,,,,48,,,,,,,,,,,,,,1708.127999999997,,response,,,10,A,,,,,Space,keypress(Space),,,,silence,As -- --- ------ ------- --------- ----------- --------<br>--------- -------- --- ------- -- ------- ---- -- ------<br>-- --- -------- -------- ---------- ---- ---- ---- ------<br>-- --------- -- ---- -- --- -- --- ------- -- - -----<br>---------- -- -- -- ---- ----- -- ------ -- --- ------<br>-------,231485,231484,229759.202,229760.59999999404,229775.872,231492.981,,0,As
screen,html.Screen,0_4_1_0_1_1,2021-11-05T11:44:12.770Z,,,,,,,,,,,,,,,,48,,,,,,,,,,,,,,614.6189999940398,,response,,,10,A,,,,,Space,keypress(Space),,,,silence,-- in --- ------ ------- --------- ----------- --------<br>--------- -------- --- ------- -- ------- ---- -- ------<br>-- --- -------- -------- ---------- ---- ---- ---- ------<br>-- --------- -- ---- -- --- -- --- ------- -- - -----<br>---------- -- -- -- ---- ----- -- ------ -- --- ------<br>-------,232108.39999999106,232107.59999999404,231476.311,231485.39999999106,231492.981,232109.623,,1,in
screen,html.Screen,0_4_1_0_1_2,2021-11-05T11:44:14.002Z,,,,,,,,,,,,,,,,48,,,,,,,,,,,,,,1229.776999991067,,response,,,10,A,,,,,Space,keypress(Space),,,,silence,-- -- the ------ ------- --------- ----------- --------<br>--------- -------- --- ------- -- ------- ---- -- ------<br>-- --- -------- -------- ---------- ---- ---- ---- ------<br>-- --------- -- ---- -- --- -- --- ------- -- - -----<br>---------- -- -- -- ---- ----- -- ------ -- --- ------<br>-------,233340.29999999702,233339.39999999106,232092.954,232108.79999999702,232109.623,233343.511,,2,the
screen,html.Screen,0_4_1_0_1_3,2021-11-05T11:44:15.034Z,,,,,,,,,,,,,,,,48,,,,,,,,,,,,,,1027.9890000000014,,response,,,10,A,,,,,Space,keypress(Space),,,,silence,-- -- --- United ------- --------- ----------- --------<br>--------- -------- --- ------- -- ------- ---- -- ------<br>-- --- -------- -------- ---------- ---- ---- ---- ------<br>-- --------- -- ---- -- --- -- --- ------- -- - -----<br>---------- -- -- -- ---- ----- -- ------ -- --- ------<br>-------,234372.20000000298,234371.5,233326.84,233340.5,233343.511,234377.181,,3,United
screen,html.Screen,0_4_1_0_1_4,2021-11-05T11:44:16.306Z,,,,,,,,,,,,,,,,48,,,,,,,,,,,,,,1266.218999991048,,response,,,10,A,,,,,Space,keypress(Space),,,,silence,"-- -- --- ------ States, --------- ----------- --------<br>--------- -------- --- ------- -- ------- ---- -- ------<br>-- --- -------- -------- ---------- ---- ---- ---- ------<br>-- --------- -- ---- -- --- -- --- ------- -- - -----<br>---------- -- -- -- ---- ----- -- ------ -- --- ------<br>-------",235644.09999999404,235643.39999999106,234360.51,234372.39999999106,234377.181,235660.697,,4,"States,"
screen,html.Screen,0_4_1_0_1_5,2021-11-05T11:44:17.322Z,,,,,,,,,,,,,,,,48,,,,,,,,,,,,,,998.7029999910737,,response,,,10,A,,,,,Space,keypress(Space),,,,silence,-- -- --- ------ ------- Colombian ----------- --------<br>--------- -------- --- ------- -- ------- ---- -- ------<br>-- --- -------- -------- ---------- ---- ---- ---- ------<br>-- --------- -- ---- -- --- -- --- ------- -- - -----<br>---------- -- -- -- ---- ----- -- ------ -- --- ------<br>-------,236660.09999999404,236659.39999999106,235644.027,235644.39999999106,235660.697,236677.626,,5,Colombian
screen,html.Screen,0_4_1_0_1_6,2021-11-05T11:44:18.226Z,,,,,,,,,,,,,,,,48,,,,,,,,,,,,,,885.5740000029909,,response,,,10,A,,,,,Space,keypress(Space),,,,silence,-- -- --- ------ ------- --------- legislation --------<br>--------- -------- --- ------- -- ------- ---- -- ------<br>-- --- -------- -------- ---------- ---- ---- ---- ------<br>-- --------- -- ---- -- --- -- --- ------- -- - -----<br>---------- -- -- -- ---- ----- -- ------ -- --- ------<br>-------,237564.09999999404,237563.20000000298,236660.956,236660.29999999702,236677.626,237577.858,,6,legislation
screen,html.Screen,0_4_1_0_1_7,2021-11-05T11:44:19.210Z,,,,,,,,,,,,,,,,48,,,,,,,,,,,,,,969.2419999940321,,response,,,10,A,,,,,Space,keypress(Space),,,,silence,-- -- --- ------ ------- --------- ----------- requires<br>--------- -------- --- ------- -- ------- ---- -- ------<br>-- --- -------- -------- ---------- ---- ---- ---- ------<br>-- --------- -- ---- -- --- -- --- ------- -- - -----<br>---------- -- -- -- ---- ----- -- ------ -- --- ------<br>-------,238548,238547.09999999404,237561.188,237564.29999999702,237577.858,238561.282,,7,requires
screen,html.Screen,0_4_1_0_1_8,2021-11-05T11:44:20.002Z,,,,,,,,,,,,,,,,48,,,,,,,,,,,,,,777.6179999910528,,response,,,10,A,,,,,Space,keypress(Space),,,,silence,-- -- --- ------ ------- --------- ----------- --------<br>travelers -------- --- ------- -- ------- ---- -- ------<br>-- --- -------- -------- ---------- ---- ---- ---- ------<br>-- --------- -- ---- -- --- -- --- ------- -- - -----<br>---------- -- -- -- ---- ----- -- ------ -- --- ------<br>-------,239339.79999999702,239338.89999999106,238544.613,238548.29999999702,238561.282,239345.046,,8,travelers
screen,html.Screen,0_4_1_0_1_9,2021-11-05T11:44:20.850Z,,,,,,,,,,,,,,,,48,,,,,,,,,,,,,,842.0539999940374,,response,,,10,A,,,,,Space,keypress(Space),,,,silence,-- -- --- ------ ------- --------- ----------- --------<br>--------- entering --- ------- -- ------- ---- -- ------<br>-- --- -------- -------- ---------- ---- ---- ---- ------<br>-- --------- -- ---- -- --- -- --- ------- -- - -----<br>---------- -- -- -- ---- ----- -- ------ -- --- ------<br>-------,240187.89999999106,240187.09999999404,239328.375,239340,239345.046,240195.251,,9,entering
screen,html.Screen,0_4_1_0_1_10,2021-11-05T11:44:21.417Z,,,,,,,,,,,,,,,,48,,,,,,,,,,,,,,559.64899999107,,response,,,10,A,,,,,Space,keypress(Space),,,,silence,-- -- --- ------ ------- --------- ----------- --------<br>--------- -------- the ------- -- ------- ---- -- ------<br>-- --- -------- -------- ---------- ---- ---- ---- ------<br>-- --------- -- ---- -- --- -- --- ------- -- - -----<br>---------- -- -- -- ---- ----- -- ------ -- --- ------<br>-------,240755.70000000298,240754.89999999106,240178.58,240188.09999999404,240195.251,240761.96,,10,the
screen,html.Screen,0_4_1_0_1_11,2021-11-05T11:44:22.174Z,,,,,,,,,,,,,,,,48,,,,,,,,,,,,,,745.3399999970279,,response,,,10,A,,,,,Space,keypress(Space),,,,silence,-- -- --- ------ ------- --------- ----------- --------<br>--------- -------- --- country -- ------- ---- -- ------<br>-- --- -------- -------- ---------- ---- ---- ---- ------<br>-- --------- -- ---- -- --- -- --- ------- -- - -----<br>---------- -- -- -- ---- ----- -- ------ -- --- ------<br>-------,241508.09999999404,241507.29999999702,240745.29,240756,240761.96,241512.24,,11,country
screen,html.Screen,0_4_1_0_1_12,2021-11-05T11:44:23.149Z,,,,,,,,,,,,,,,,48,,,,,,,,,,,,,,970.6599999910686,,response,,,10,A,,,,,Space,keypress(Space),,,,silence,-- -- --- ------ ------- --------- ----------- --------<br>--------- -------- --- ------- to ------- ---- -- ------<br>-- --- -------- -------- ---------- ---- ---- ---- ------<br>-- --------- -- ---- -- --- -- --- ------- -- - -----<br>---------- -- -- -- ---- ----- -- ------ -- --- ------<br>-------,242483.79999999702,242482.89999999106,241495.569,241508.29999999702,241512.24,242495.73,,12,to
screen,html.Screen,0_4_1_0_1_13,2021-11-05T11:44:23.925Z,,,,,,,,,,,,,,,,48,,,,,,,,,,,,,,763.0699999970093,,response,,,10,A,,,,,Space,keypress(Space),,,,silence,-- -- --- ------ ------- --------- ----------- --------<br>--------- -------- --- ------- -- declare ---- -- ------<br>-- --- -------- -------- ---------- ---- ---- ---- ------<br>-- --------- -- ---- -- --- -- --- ------- -- - -----<br>---------- -- -- -- ---- ----- -- ------ -- --- ------<br>-------,243259.59999999404,243258.79999999702,242479.06,242483.89999999106,242495.73,243262.682,,13,declare
screen,html.Screen,0_4_1_0_1_14,2021-11-05T11:44:24.597Z,,,,,,,,,,,,,,,,48,,,,,,,,,,,,,,668.1179999970191,,response,,,10,A,,,,,Space,keypress(Space),,,,silence,-- -- --- ------ ------- --------- ----------- --------<br>--------- -------- --- ------- -- ------- cash -- ------<br>-- --- -------- -------- ---------- ---- ---- ---- ------<br>-- --------- -- ---- -- --- -- --- ------- -- - -----<br>---------- -- -- -- ---- ----- -- ------ -- --- ------<br>-------,243931.59999999404,243930.79999999702,243246.011,243259.79999999702,243262.682,243946.126,,14,cash
screen,html.Screen,0_4_1_0_1_15,2021-11-05T11:44:24.941Z,,,,,,,,,,,,,,,,48,,,,,,,,,,,,,,328.57400000299094,,response,,,10,A,,,,,Space,keypress(Space),,,,silence,-- -- --- ------ ------- --------- ----------- --------<br>--------- -------- --- ------- -- ------- ---- in ------<br>-- --- -------- -------- ---------- ---- ---- ---- ------<br>-- --------- -- ---- -- --- -- --- ------- -- - -----<br>---------- -- -- -- ---- ----- -- ------ -- --- ------<br>-------,244275.5,244274.70000000298,243929.456,243931.70000000298,243946.126,244279.555,,15,in
screen,html.Screen,0_4_1_0_1_16,2021-11-05T11:44:25.613Z,,,,,,,,,,,,,,,,48,,,,,,,,,,,,,,667.2449999970268,,response,,,10,A,,,,,Space,keypress(Space),,,,silence,-- -- --- ------ ------- --------- ----------- --------<br>--------- -------- --- ------- -- ------- ---- -- excess<br>-- --- -------- -------- ---------- ---- ---- ---- ------<br>-- --------- -- ---- -- --- -- --- ------- -- - -----<br>---------- -- -- -- ---- ----- -- ------ -- --- ------<br>-------,244947.59999999404,244946.79999999702,244262.885,244275.79999999702,244279.555,244963.043,,16,excess
screen,html.Screen,0_4_1_0_1_17,2021-11-05T11:44:26.109Z,,,,,,,,,,,,,,,,48,,,,,,,,,,,,,,479.6570000029751,,response,,,10,A,,,,,Space,keypress(Space),,,,silence,-- -- --- ------ ------- --------- ----------- --------<br>--------- -------- --- ------- -- ------- ---- -- ------<br>of --- -------- -------- ---------- ---- ---- ---- ------<br>-- --------- -- ---- -- --- -- --- ------- -- - -----<br>---------- -- -- -- ---- ----- -- ------ -- --- ------<br>-------,245443.59999999404,245442.70000000298,244946.373,244947.79999999702,244963.043,245446.472,,17,of
screen,html.Screen,0_4_1_0_1_18,2021-11-05T11:44:26.757Z,,,,,,,,,,,,,,,,48,,,,,,,,,,,,,,644.2280000029714,,response,,,10,A,,,,,Space,keypress(Space),,,,silence,-- -- --- ------ ------- --------- ----------- --------<br>--------- -------- --- ------- -- ------- ---- -- ------<br>-- ten -------- -------- ---------- ---- ---- ---- ------<br>-- --------- -- ---- -- --- -- --- ------- -- - -----<br>---------- -- -- -- ---- ----- -- ------ -- --- ------<br>-------,246091.5,246090.70000000298,245429.802,245443.79999999702,245446.472,246096.714,,18,ten
screen,html.Screen,0_4_1_0_1_19,2021-11-05T11:44:27.341Z,,,,,,,,,,,,,,,,48,,,,,,,,,,,,,,577.8859999940323,,response,,,10,A,,,,,Space,keypress(Space),,,,silence,-- -- --- ------ ------- --------- ----------- --------<br>--------- -------- --- ------- -- ------- ---- -- ------<br>-- --- thousand -------- ---------- ---- ---- ---- ------<br>-- --------- -- ---- -- --- -- --- ------- -- - -----<br>---------- -- -- -- ---- ----- -- ------ -- --- ------<br>-------,246675.5,246674.59999999404,246080.043,246091.70000000298,246096.714,246680.13,,19,thousand
screen,html.Screen,0_4_1_0_1_20,2021-11-05T11:44:28.413Z,,,,,,,,,,,,,,,,48,,,,,,,,,,,,,,1066.4699999940349,,response,,,10,A,,,,,Space,keypress(Space),,,,silence,-- -- --- ------ ------- --------- ----------- --------<br>--------- -------- --- ------- -- ------- ---- -- ------<br>-- --- -------- dollars. ---------- ---- ---- ---- ------<br>-- --------- -- ---- -- --- -- --- ------- -- - -----<br>---------- -- -- -- ---- ----- -- ------ -- --- ------<br>-------,247747.39999999106,247746.59999999404,246663.46,246675.79999999702,246680.13,247763.809,,20,dollars.
screen,html.Screen,0_4_1_0_1_21,2021-11-05T11:44:29.701Z,,,,,,,,,,,,,,,,48,,,,,,,,,,,,,,1270.6909999999916,,response,,,10,A,,,,,Space,keypress(Space),,,,silence,-- -- --- ------ ------- --------- ----------- --------<br>--------- -------- --- ------- -- ------- ---- -- ------<br>-- --- -------- -------- Concealing ---- ---- ---- ------<br>-- --------- -- ---- -- --- -- --- ------- -- - -----<br>---------- -- -- -- ---- ----- -- ------ -- --- ------<br>-------,249035.29999999702,249034.5,247747.138,247747.59999999404,247763.809,249047.342,,21,Concealing
screen,html.Screen,0_4_1_0_1_22,2021-11-05T11:44:30.253Z,,,,,,,,,,,,,,,,48,,,,,,,,,,,,,,539.1579999999958,,response,,,10,A,,,,,Space,keypress(Space),,,,silence,-- -- --- ------ ------- --------- ----------- --------<br>--------- -------- --- ------- -- ------- ---- -- ------<br>-- --- -------- -------- ---------- more ---- ---- ------<br>-- --------- -- ---- -- --- -- --- ------- -- - -----<br>---------- -- -- -- ---- ----- -- ------ -- --- ------<br>-------,249587.39999999106,249586.5,249030.672,249035.5,249047.342,249597.516,,22,more
screen,html.Screen,0_4_1_0_1_23,2021-11-05T11:44:30.725Z,,,,,,,,,,,,,,,,48,,,,,,,,,,,,,,460.88399999105604,,response,,,10,A,,,,,Space,keypress(Space),,,,silence,-- -- --- ------ ------- --------- ----------- --------<br>--------- -------- --- ------- -- ------- ---- -- ------<br>-- --- -------- -------- ---------- ---- than ---- ------<br>-- --------- -- ---- -- --- -- --- ------- -- - -----<br>---------- -- -- -- ---- ----- -- ------ -- --- ------<br>-------,250059.29999999702,250058.39999999106,249580.846,249587.70000000298,249597.516,250064.253,,23,than
screen,html.Screen,0_4_1_0_1_24,2021-11-05T11:44:31.189Z,,,,,,,,,,,,,,,,48,,,,,,,,,,,,,,458.14699999106233,,response,,,10,A,,,,,Space,keypress(Space),,,,silence,-- -- --- ------ ------- --------- ----------- --------<br>--------- -------- --- ------- -- ------- ---- -- ------<br>-- --- -------- -------- ---------- ---- ---- that ------<br>-- --------- -- ---- -- --- -- --- ------- -- - -----<br>---------- -- -- -- ---- ----- -- ------ -- --- ------<br>-------,250523.29999999702,250522.39999999106,250047.583,250059.59999999404,250064.253,250531.096,,24,that
screen,html.Screen,0_4_1_0_1_25,2021-11-05T11:44:31.709Z,,,,,,,,,,,,,,,,48,,,,,,,,,,,,,,511.30399999106885,,response,,,10,A,,,,,Space,keypress(Space),,,,silence,-- -- --- ------ ------- --------- ----------- --------<br>--------- -------- --- ------- -- ------- ---- -- ------<br>-- --- -------- -------- ---------- ---- ---- ---- amount<br>-- --------- -- ---- -- --- -- --- ------- -- - -----<br>---------- -- -- -- ---- ----- -- ------ -- --- ------<br>-------,251043.20000000298,251042.39999999106,250514.425,250523.59999999404,250531.096,251047.999,,25,amount
screen,html.Screen,0_4_1_0_1_26,2021-11-05T11:44:32.509Z,,,,,,,,,,,,,,,,48,,,,,,,,,,,,,,794.7010000029695,,response,,,10,A,,,,,Space,keypress(Space),,,,silence,-- -- --- ------ ------- --------- ----------- --------<br>--------- -------- --- ------- -- ------- ---- -- ------<br>-- --- -------- -------- ---------- ---- ---- ---- ------<br>to --------- -- ---- -- --- -- --- ------- -- - -----<br>---------- -- -- -- ---- ----- -- ------ -- --- ------<br>-------,251843.59999999404,251842.70000000298,251031.327,251043.59999999404,251047.999,251848.07,,26,to
screen,html.Screen,0_4_1_0_1_27,2021-11-05T11:44:33.205Z,,,,,,,,,,,,,,,,48,,,,,,,,,,,,,,690.2299999970128,,response,,,10,A,,,,,Space,keypress(Space),,,,silence,-- -- --- ------ ------- --------- ----------- --------<br>--------- -------- --- ------- -- ------- ---- -- ------<br>-- --- -------- -------- ---------- ---- ---- ---- ------<br>-- transport -- ---- -- --- -- --- ------- -- - -----<br>---------- -- -- -- ---- ----- -- ------ -- --- ------<br>-------,252539.09999999404,252538.29999999702,251831.4,251843.89999999106,251848.07,252548.237,,27,transport
screen,html.Screen,0_4_1_0_1_28,2021-11-05T11:44:33.669Z,,,,,,,,,,,,,,,,48,,,,,,,,,,,,,,453.9630000029865,,response,,,10,A,,,,,Space,keypress(Space),,,,silence,-- -- --- ------ ------- --------- ----------- --------<br>--------- -------- --- ------- -- ------- ---- -- ------<br>-- --- -------- -------- ---------- ---- ---- ---- ------<br>-- --------- it ---- -- --- -- --- ------- -- - -----<br>---------- -- -- -- ---- ----- -- ------ -- --- ------<br>-------,253003,253002.20000000298,252531.567,252539.39999999106,252548.237,253015.021,,28,it
screen,html.Screen,0_4_1_0_1_29,2021-11-05T11:44:34.157Z,,,,,,,,,,,,,,,,48,,,,,,,,,,,,,,475.1790000029723,,response,,,10,A,,,,,Space,keypress(Space),,,,silence,-- -- --- ------ ------- --------- ----------- --------<br>--------- -------- --- ------- -- ------- ---- -- ------<br>-- --- -------- -------- ---------- ---- ---- ---- ------<br>-- --------- -- into -- --- -- --- ------- -- - -----<br>---------- -- -- -- ---- ----- -- ------ -- --- ------<br>-------,253491,253490.20000000298,252998.351,253003.29999999702,253015.021,253498.552,,29,into
screen,html.Screen,0_4_1_0_1_30,2021-11-05T11:44:34.749Z,,,,,,,,,,,,,,,,48,,,,,,,,,,,,,,583.6480000029842,,response,,,10,A,,,,,Space,keypress(Space),,,,silence,-- -- --- ------ ------- --------- ----------- --------<br>--------- -------- --- ------- -- ------- ---- -- ------<br>-- --- -------- -------- ---------- ---- ---- ---- ------<br>-- --------- -- ---- or --- -- --- ------- -- - -----<br>---------- -- -- -- ---- ----- -- ------ -- --- ------<br>-------,254082.89999999106,254082.20000000298,253481.881,253491.29999999702,253498.552,254098.644,,30,or
screen,html.Screen,0_4_1_0_1_31,2021-11-05T11:44:35.133Z,,,,,,,,,,,,,,,,48,,,,,,,,,,,,,,367.55600000298,,response,,,10,A,,,,,Space,keypress(Space),,,,silence,-- -- --- ------ ------- --------- ----------- --------<br>--------- -------- --- ------- -- ------- ---- -- ------<br>-- --- -------- -------- ---------- ---- ---- ---- ------<br>-- --------- -- ---- -- out -- --- ------- -- - -----<br>---------- -- -- -- ---- ----- -- ------ -- --- ------<br>-------,254466.89999999106,254466.20000000298,254081.974,254083.20000000298,254098.644,254482.089,,31,out
screen,html.Screen,0_4_1_0_1_32,2021-11-05T11:44:35.525Z,,,,,,,,,,,,,,,,48,,,,,,,,,,,,,,376.111000002973,,response,,,10,A,,,,,Space,keypress(Space),,,,silence,-- -- --- ------ ------- --------- ----------- --------<br>--------- -------- --- ------- -- ------- ---- -- ------<br>-- --- -------- -------- ---------- ---- ---- ---- ------<br>-- --------- -- ---- -- --- of --- ------- -- - -----<br>---------- -- -- -- ---- ----- -- ------ -- --- ------<br>-------,254858.89999999106,254858.20000000298,254465.419,254467.20000000298,254482.089,254865.518,,32,of
screen,html.Screen,0_4_1_0_1_33,2021-11-05T11:44:35.933Z,,,,,,,,,,,,,,,,48,,,,,,,,,,,,,,400.5819999940286,,response,,,10,A,,,,,Space,keypress(Space),,,,silence,-- -- --- ------ ------- --------- ----------- --------<br>--------- -------- --- ------- -- ------- ---- -- ------<br>-- --- -------- -------- ---------- ---- ---- ---- ------<br>-- --------- -- ---- -- --- -- the ------- -- - -----<br>---------- -- -- -- ---- ----- -- ------ -- --- ------<br>-------,255266.89999999106,255266.09999999404,254848.848,254859.09999999404,254865.518,255282.325,,33,the
screen,html.Screen,0_4_1_0_1_34,2021-11-05T11:44:36.341Z,,,,,,,,,,,,,,,,48,,,,,,,,,,,,,,391.7749999940279,,response,,,10,A,,,,,Space,keypress(Space),,,,silence,-- -- --- ------ ------- --------- ----------- --------<br>--------- -------- --- ------- -- ------- ---- -- ------<br>-- --- -------- -------- ---------- ---- ---- ---- ------<br>-- --------- -- ---- -- --- -- --- country -- - -----<br>---------- -- -- -- ---- ----- -- ------ -- --- ------<br>-------,255674.79999999702,255674.09999999404,255265.654,255267.20000000298,255282.325,255682.394,,34,country
screen,html.Screen,0_4_1_0_1_35,2021-11-05T11:44:36.741Z,,,,,,,,,,,,,,,,48,,,,,,,,,,,,,,391.7059999940393,,response,,,10,A,,,,,Space,keypress(Space),,,,silence,-- -- --- ------ ------- --------- ----------- --------<br>--------- -------- --- ------- -- ------- ---- -- ------<br>-- --- -------- -------- ---------- ---- ---- ---- ------<br>-- --------- -- ---- -- --- -- --- ------- is - -----<br>---------- -- -- -- ---- ----- -- ------ -- --- ------<br>-------,256074.79999999702,256074.09999999404,255665.724,255675.09999999404,255682.394,256082.533,,35,is
screen,html.Screen,0_4_1_0_1_36,2021-11-05T11:44:37.221Z,,,,,,,,,,,,,,,,48,,,,,,,,,,,,,,471.3669999910635,,response,,,10,A,,,,,Space,keypress(Space),,,,silence,-- -- --- ------ ------- --------- ----------- --------<br>--------- -------- --- ------- -- ------- ---- -- ------<br>-- --- -------- -------- ---------- ---- ---- ---- ------<br>-- --------- -- ---- -- --- -- --- ------- -- a -----<br>---------- -- -- -- ---- ----- -- ------ -- --- ------<br>-------,256554.89999999106,256553.89999999106,256065.862,256075.20000000298,256082.533,256565.927,,36,a
screen,html.Screen,0_4_1_0_1_37,2021-11-05T11:44:37.724Z,,,,,,,,,,,,,,,,48,,,,,,,,,,,,,,492.07300000000396,,response,,,10,A,,,,,Space,keypress(Space),,,,silence,-- -- --- ------ ------- --------- ----------- --------<br>--------- -------- --- ------- -- ------- ---- -- ------<br>-- --- -------- -------- ---------- ---- ---- ---- ------<br>-- --------- -- ---- -- --- -- --- ------- -- - crime<br>---------- -- -- -- ---- ----- -- ------ -- --- ------<br>-------,257058.79999999702,257058,256549.257,256555.20000000298,256565.927,257066.065,,37,crime
screen,html.Screen,0_4_1_0_1_38,2021-11-05T11:44:38.372Z,,,,,,,,,,,,,,,,48,,,,,,,,,,,,,,639.834999991057,,response,,,10,A,,,,,Space,keypress(Space),,,,silence,-- -- --- ------ ------- --------- ----------- --------<br>--------- -------- --- ------- -- ------- ---- -- ------<br>-- --- -------- -------- ---------- ---- ---- ---- ------<br>-- --------- -- ---- -- --- -- --- ------- -- - -----<br>punishable -- -- -- ---- ----- -- ------ -- --- ------<br>-------,257706.79999999702,257705.89999999106,257049.395,257059,257066.065,257716.225,,38,punishable
screen,html.Screen,0_4_1_0_1_39,2021-11-05T11:44:38.892Z,,,,,,,,,,,,,,,,48,,,,,,,,,,,,,,509.6749999910535,,response,,,10,A,,,,,Space,keypress(Space),,,,silence,-- -- --- ------ ------- --------- ----------- --------<br>--------- -------- --- ------- -- ------- ---- -- ------<br>-- --- -------- -------- ---------- ---- ---- ---- ------<br>-- --------- -- ---- -- --- -- --- ------- -- - -----<br>---------- by -- -- ---- ----- -- ------ -- --- ------<br>-------,258226.70000000298,258225.89999999106,257699.555,257707.09999999404,257716.225,258233.007,,39,by
screen,html.Screen,0_4_1_0_1_40,2021-11-05T11:44:39.476Z,,,,,,,,,,,,,,,,48,,,,,,,,,,,,,,576.7929999970074,,response,,,10,A,,,,,Space,keypress(Space),,,,silence,-- -- --- ------ ------- --------- ----------- --------<br>--------- -------- --- ------- -- ------- ---- -- ------<br>-- --- -------- -------- ---------- ---- ---- ---- ------<br>-- --------- -- ---- -- --- -- --- ------- -- - -----<br>---------- -- up -- ---- ----- -- ------ -- --- ------<br>-------,258810.70000000298,258809.79999999702,258216.337,258226.89999999106,258233.007,258816.481,,40,up
screen,html.Screen,0_4_1_0_1_41,2021-11-05T11:44:39.860Z,,,,,,,,,,,,,,,,48,,,,,,,,,,,,,,377.41899999105954,,response,,,10,A,,,,,Space,keypress(Space),,,,silence,-- -- --- ------ ------- --------- ----------- --------<br>--------- -------- --- ------- -- ------- ---- -- ------<br>-- --- -------- -------- ---------- ---- ---- ---- ------<br>-- --------- -- ---- -- --- -- --- ------- -- - -----<br>---------- -- -- to ---- ----- -- ------ -- --- ------<br>-------,259194.70000000298,259193.89999999106,258799.811,258811,258816.481,259199.913,,41,to
screen,html.Screen,0_4_1_0_1_42,2021-11-05T11:44:40.372Z,,,,,,,,,,,,,,,,48,,,,,,,,,,,,,,505.98699999105884,,response,,,10,A,,,,,Space,keypress(Space),,,,silence,-- -- --- ------ ------- --------- ----------- --------<br>--------- -------- --- ------- -- ------- ---- -- ------<br>-- --- -------- -------- ---------- ---- ---- ---- ------<br>-- --------- -- ---- -- --- -- --- ------- -- - -----<br>---------- -- -- -- five ----- -- ------ -- --- ------<br>-------,259706.70000000298,259705.89999999106,259183.243,259195.09999999404,259199.913,259716.765,,42,five
screen,html.Screen,0_4_1_0_1_43,2021-11-05T11:44:40.932Z,,,,,,,,,,,,,,,,48,,,,,,,,,,,,,,549.0349999970058,,response,,,10,A,,,,,Space,keypress(Space),,,,silence,-- -- --- ------ ------- --------- ----------- --------<br>--------- -------- --- ------- -- ------- ---- -- ------<br>-- --- -------- -------- ---------- ---- ---- ---- ------<br>-- --------- -- ---- -- --- -- --- ------- -- - -----<br>---------- -- -- -- ---- years -- ------ -- --- ------<br>-------,260266.70000000298,260265.79999999702,259700.094,259707,259716.765,260283.451,,43,years
screen,html.Screen,0_4_1_0_1_44,2021-11-05T11:44:41.676Z,,,,,,,,,,,,,,,,48,,,,,,,,,,,,,,726.2490000029793,,response,,,10,A,,,,,Space,keypress(Space),,,,silence,-- -- --- ------ ------- --------- ----------- --------<br>--------- -------- --- ------- -- ------- ---- -- ------<br>-- --- -------- -------- ---------- ---- ---- ---- ------<br>-- --------- -- ---- -- --- -- --- ------- -- - -----<br>---------- -- -- -- ---- ----- in ------ -- --- ------<br>-------,261010.5,261009.70000000298,260266.782,260266.89999999106,260283.451,261017.082,,44,in
screen,html.Screen,0_4_1_0_1_45,2021-11-05T11:44:42.436Z,,,,,,,,,,,,,,,,48,,,,,,,,,,,,,,752.6180000029854,,response,,,10,A,,,,,Space,keypress(Space),,,,silence,-- -- --- ------ ------- --------- ----------- --------<br>--------- -------- --- ------- -- ------- ---- -- ------<br>-- --- -------- -------- ---------- ---- ---- ---- ------<br>-- --------- -- ---- -- --- -- --- ------- -- - -----<br>---------- -- -- -- ---- ----- -- prison -- --- ------<br>-------,261770.5,261769.70000000298,261000.411,261010.89999999106,261017.082,261783.881,,45,prison
screen,html.Screen,0_4_1_0_1_46,2021-11-05T11:44:43.069Z,,,,,,,,,,,,,,,,48,,,,,,,,,,,,,,618.119000000006,,response,,,10,A,,,,,Space,keypress(Space),,,,silence,-- -- --- ------ ------- --------- ----------- --------<br>--------- -------- --- ------- -- ------- ---- -- ------<br>-- --- -------- -------- ---------- ---- ---- ---- ------<br>-- --------- -- ---- -- --- -- --- ------- -- - -----<br>---------- -- -- -- ---- ----- -- ------ in --- ------<br>-------,262402.89999999106,262402,261767.211,261770.79999999702,261783.881,262417.379,,46,in
screen,html.Screen,0_4_1_0_1_47,2021-11-05T11:44:43.484Z,,,,,,,,,,,,,,,,48,,,,,,,,,,,,,,400.22099999402417,,response,,,10,A,,,,,Space,keypress(Space),,,,silence,-- -- --- ------ ------- --------- ----------- --------<br>--------- -------- --- ------- -- ------- ---- -- ------<br>-- --- -------- -------- ---------- ---- ---- ---- ------<br>-- --------- -- ---- -- --- -- --- ------- -- - -----<br>---------- -- -- -- ---- ----- -- ------ -- the ------<br>-------,262818.5,262817.59999999404,262400.709,262403.200000003,262417.379,262834.21,,47,the
screen,html.Screen,0_4_1_0_1_48,2021-11-05T11:44:43.980Z,,,,,,,,,,,,,,,,48,,,,,,,,,,,,,,479.3899999940186,,response,,,10,A,,,,,Space,keypress(Space),,,,silence,-- -- --- ------ ------- --------- ----------- --------<br>--------- -------- --- ------- -- ------- ---- -- ------<br>-- --- -------- -------- ---------- ---- ---- ---- ------<br>-- --------- -- ---- -- --- -- --- ------- -- - -----<br>---------- -- -- -- ---- ----- -- ------ -- --- United<br>-------,263314.5,263313.59999999404,262817.539,262818.700000003,262834.21,263317.627,,48,United
screen,html.Screen,0_4_1_0_1_49,2021-11-05T11:44:44.404Z,,,,,,,,,,,,,,,,48,,,,,,,,,,,,,,419.97299999406096,,response,,,10,A,,,,,Space,keypress(Space),,,,silence,-- -- --- ------ ------- --------- ----------- --------<br>--------- -------- --- ------- -- ------- ---- -- ------<br>-- --- -------- -------- ---------- ---- ---- ---- ------<br>-- --------- -- ---- -- --- -- --- ------- -- - -----<br>---------- -- -- -- ---- ----- -- ------ -- --- ------<br>States.,263738.5,263737.59999999404,263300.957,263315,263317.627,263751.057,,49,States.
Item 10,flow.Loop,0_4_1_0_1,2021-11-05T11:44:44.405Z,,,,,,,,,,,,,,,,,,,,,,,,,,,,,,33961.72799999404,,completion,,,,,,,,,,,,,,,,263739,263737.59999999404,229759.202,229760.39999999106,229775.872,263751.057,,,
Question 1,html.Screen,0_4_1_0_2,2021-11-05T11:44:53.220Z,,,,,,,,,,,,,,,,,,,,,,,,,,,false,TRUE,,8801.742999997048,,response,,,10,A,,,,,FALSE,click #choice-2,,,,silence,,272554.09999999404,272552.799999997,263734.387,263739.200000003,263751.057,272569.886,,,
Question 2,html.Screen,0_4_1_0_3,2021-11-05T11:44:56.659Z,,,,,,,,,,,,,,,,,,,,,,,,,,,true,TRUE,,3422.6140000000014,,response,,,10,A,,,,,TRUE,click #choice-1,,,,silence,,275993.700000003,275992.5,272553.217,272554.5,272569.886,276004.124,,,
Item 10,flow.Sequence,0_4_1_0,2021-11-05T11:44:56.660Z,,,,,,,,,,,,,,,,,,,,,,,,,,,,,,53218.712,,completion,,,,,,,,,,,,,,,,275994.09999999404,275992.5,222757.118,222758.59999999404,222773.788,276004.124,,,
Holding screen,html.Screen,0_4_1_1_0,2021-11-05T11:45:03.656Z,,,,,,,,,,,,,,,,,,,,,,,,,,,,,,7001.611999999965,,timeout,,,,,,,,,,,,,,,,282990,282989.066,275987.454,275994.39999999106,276004.124,283005.736,,,
screen,html.Screen,0_4_1_1_1_0,2021-11-05T11:45:05.411Z,,,,,,,,,,,,,,,,2,,,,,,,,,,,,,,1738.964000003005,,response,,,1,A,,,,,Space,keypress(Space),,,,silence,Two ---- ------ --- ------- ---------- ------- ----------<br>--- --------- --- ----------- ------- ----- ------- ---<br>--------- ---- -- --- ---- -- --------- -- ---- -------<br>-- --------- ------ --- ----- ------ ---- --- --------- --<br>------ - ---- -- --- ----------- ------- ---- ----- -----<br>--- -------- - ------ ---- -- ----- ---- --- --- -----------<br>-- -------,284745.59999999404,284744.700000003,282989.066,282990.59999999404,283005.736,284756.14,,0,Two
screen,html.Screen,0_4_1_1_1_1,2021-11-05T11:45:06.211Z,,,,,,,,,,,,,,,,2,,,,,,,,,,,,,,788.0600000029663,,response,,,1,A,,,,,Space,keypress(Space),,,,silence,--- days ------ --- ------- ---------- ------- ----------<br>--- --------- --- ----------- ------- ----- ------- ---<br>--------- ---- -- --- ---- -- --------- -- ---- -------<br>-- --------- ------ --- ----- ------ ---- --- --------- --<br>------ - ---- -- --- ----------- ------- ---- ----- -----<br>--- -------- - ------ ---- -- ----- ---- --- --- -----------<br>-- -------,285545.09999999404,285544.200000003,284739.47,284745.89999999106,284756.14,285556.41,,1,days
screen,html.Screen,0_4_1_1_1_2,2021-11-05T11:45:06.971Z,,,,,,,,,,,,,,,,2,,,,,,,,,,,,,,747.6899999940651,,response,,,1,A,,,,,Space,keypress(Space),,,,silence,"--- ---- later, --- ------- ---------- ------- ----------<br>--- --------- --- ----------- ------- ----- ------- ---<br>--------- ---- -- --- ---- -- --------- -- ---- -------<br>-- --------- ------ --- ----- ------ ---- --- --------- --<br>------ - ---- -- --- ----------- ------- ---- ----- -----<br>--- -------- - ------ ---- -- ----- ---- --- --- -----------<br>-- -------",286305,286304.09999999404,285539.74,285545.39999999106,285556.41,286306.576,,2,"later,"
