sender,sender_type,sender_id,timestamp,meta,,Blues,Classical,Country,Dance,Electronic,Folk,Gospel,Hip-Hop,Jazz,Latin,Musical/Film,New-age,Pop,Provo_ID,R&B,Rap,Reggae,Religious,Rock,Soul,Swing,Traditional,age,artist_name,correct,correctResponse,distraction,duration,education,ended_on,familiarity,gender,item,list,music_frequency,offensiveness,pleasantness,preference,response,response_action,snippet_file,song_name,song_rating,sound,text,time_commit,time_end,time_render,time_run,time_show,time_switch,url,word,word_ID
Instructions,html.Page,0_0,2021-11-05T14:15:50.612Z,"{""labjs_version"":""20.2.3"",""labjs_build"":{""flavor"":""production"",""commit"":""7ea907d66ca8aeef8054924ca5d82ffbe11e34e5""},""location"":""https://run.pavlovia.org/mvasilev/lab_music_b/"",""userAgent"":""Mozilla/5.0 (Windows NT 6.1; Win64; x64) AppleWebKit/537.36 (KHTML, like Gecko) Chrome/95.0.4638.54 Safari/537.36"",""platform"":""Win32"",""language"":""en-US"",""locale"":""en-US"",""timeZone"":""Europe/London"",""timezoneOffset"":0,""screen_width"":1920,""screen_height"":1080,""scroll_width"":1920,""scroll_height"":959,""window_innerWidth"":1920,""window_innerHeight"":1007,""devicePixelRatio"":1}",,,,,,,,,,,,,,,,,,,,,,,,,,,,,11157.10399999404,,form submission,,,,,,,,,,,,,,,,19238.79999999702,19237.59999999404,8063.826,8075.20000000298,8080.496,19233.119,{},,
Headphones,html.Page,0_1,2021-11-05T14:15:52.748Z,,,,,,,,,,,,,,,,,,,,,,,,,,,,,,2141.4809999940408,,form submission,,,,,,,,,,,,,,,,21375.09999999404,21374.59999999404,19216.45,19239.70000000298,19233.119,21383.962,,,
Holding screen,html.Screen,0_2_0_0,2021-11-05T14:16:02.751Z,,,,,,,,,,,,,,,,,,,,,,,,,,,,,,10019.562000000002,,timeout,,,,,,,,,,,,,,,,31378.29999999702,31370.18,21367.292,21375.59999999404,21383.962,31403.524,,,
screen,html.Screen,0_2_0_1_0,2021-11-05T14:16:03.964Z,,,,,,,,,,,,,,,,53,,,,,,,,,,,,,,1185.375999991058,,response,,,99,,,,,,Space,keypress(Space),,,,,When -- ----- -- ------ - ------- --- ----------<br>------------- ------ ------ ---- ---- ------- ----- -- ----<br>-------- ------- -- ---------- --- - --- ----- ----- ----<br>---- --- --- ----- --- ---- ---- ------- ----- ---- -------<br>--- --- -- ----- -- --- ---- -- --- ---- -- ------ ------<br>--- ----- -- ----,32590.70000000298,32588.89999999106,31370.18,31378.70000000298,31403.524,32603.633,,0,When
screen,html.Screen,0_2_0_1_1,2021-11-05T14:16:04.474Z,,,,,,,,,,,,,,,,53,,,,,,,,,,,,,,496.86699999999837,,response,,,99,,,,,,Space,keypress(Space),,,,,---- it ----- -- ------ - ------- --- ----------<br>------------- ------ ------ ---- ---- ------- ----- -- ----<br>-------- ------- -- ---------- --- - --- ----- ----- ----<br>---- --- --- ----- --- ---- ---- ------- ----- ---- -------<br>--- --- -- ----- -- --- ---- -- --- ---- -- ------ ------<br>--- ----- -- ----,33101.29999999702,33100.5,32586.963,32591,32603.633,33103.797,,1,it
screen,html.Screen,0_2_0_1_2,2021-11-05T14:16:05.106Z,,,,,,,,,,,,,,,,53,,,,,,,,,,,,,,628.6029999910606,,response,,,99,,,,,,Space,keypress(Space),,,,,---- -- comes -- ------ - ------- --- ----------<br>------------- ------ ------ ---- ---- ------- ----- -- ----<br>-------- ------- -- ---------- --- - --- ----- ----- ----<br>---- --- --- ----- --- ---- ---- ------- ----- ---- -------<br>--- --- -- ----- -- --- ---- -- --- ---- -- ------ ------<br>--- ----- -- ----,33733.5,33732.39999999106,33087.127,33101.70000000298,33103.797,33737.298,,2,comes
screen,html.Screen,0_2_0_1_3,2021-11-05T14:16:05.794Z,,,,,,,,,,,,,,,,53,,,,,,,,,,,,,,683.1019999910568,,response,,,99,,,,,,Space,keypress(Space),,,,,---- -- ----- to ------ - ------- --- ----------<br>------------- ------ ------ ---- ---- ------- ----- -- ----<br>-------- ------- -- ---------- --- - --- ----- ----- ----<br>---- --- --- ----- --- ---- ---- ------- ----- ---- -------<br>--- --- -- ----- -- --- ---- -- --- ---- -- ------ ------<br>--- ----- -- ----,34421.39999999106,34420.39999999106,33720.628,33733.70000000298,33737.298,34437.352,,3,to
screen,html.Screen,0_2_0_1_4,2021-11-05T14:16:06.298Z,,,,,,,,,,,,,,,,53,,,,,,,,,,,,,,486.9479999970208,,response,,,99,,,,,,Space,keypress(Space),,,,,---- -- ----- -- having - ------- --- ----------<br>------------- ------ ------ ---- ---- ------- ----- -- ----<br>-------- ------- -- ---------- --- - --- ----- ----- ----<br>---- --- --- ----- --- ---- ---- ------- ----- ---- -------<br>--- --- -- ----- -- --- ---- -- --- ---- -- ------ ------<br>--- ----- -- ----,34925.59999999404,34924.29999999702,34420.683,34421.89999999106,34437.352,34937.677,,4,having
screen,html.Screen,0_2_0_1_5,2021-11-05T14:16:06.794Z,,,,,,,,,,,,,,,,53,,,,,,,,,,,,,,482.722999991056,,response,,,99,,,,,,Space,keypress(Space),,,,,---- -- ----- -- ------ a ------- --- ----------<br>------------- ------ ------ ---- ---- ------- ----- -- ----<br>-------- ------- -- ---------- --- - --- ----- ----- ----<br>---- --- --- ----- --- ---- ---- ------- ----- ---- -------<br>--- --- -- ----- -- --- ---- -- --- ---- -- ------ ------<br>--- ----- -- ----,35421.29999999702,35420.39999999106,34921.006,34925.89999999106,34937.677,35437.65,,5,a
screen,html.Screen,0_2_0_1_6,2021-11-05T14:16:07.386Z,,,,,,,,,,,,,,,,53,,,,,,,,,,,,,,574.6499999970183,,response,,,99,,,,,,Space,keypress(Space),,,,,---- -- ----- -- ------ - lasting --- ----------<br>------------- ------ ------ ---- ---- ------- ----- -- ----<br>-------- ------- -- ---------- --- - --- ----- ----- ----<br>---- --- --- ----- --- ---- ---- ------- ----- ---- -------<br>--- --- -- ----- -- --- ---- -- --- ---- -- ------ ------<br>--- ----- -- ----,36013.20000000298,36012.29999999702,35420.981,35421.89999999106,35437.65,36021.164,,6,lasting
screen,html.Screen,0_2_0_1_7,2021-11-05T14:16:07.914Z,,,,,,,,,,,,,,,,53,,,,,,,,,,,,,,519.1359999970227,,response,,,99,,,,,,Space,keypress(Space),,,,,---- -- ----- -- ------ - ------- and ----------<br>------------- ------ ------ ---- ---- ------- ----- -- ----<br>-------- ------- -- ---------- --- - --- ----- ----- ----<br>---- --- --- ----- --- ---- ---- ------- ----- ---- -------<br>--- --- -- ----- -- --- ---- -- --- ---- -- ------ ------<br>--- ----- -- ----,36541.20000000298,36540.29999999702,36004.494,36013.59999999404,36021.164,36554.734,,7,and
screen,html.Screen,0_2_0_1_8,2021-11-05T14:16:08.402Z,,,,,,,,,,,,,,,,53,,,,,,,,,,,,,,473.565999997023,,response,,,99,,,,,,Space,keypress(Space),,,,,---- -- ----- -- ------ - ------- --- fulfilling<br>------------- ------ ------ ---- ---- ------- ----- -- ----<br>-------- ------- -- ---------- --- - --- ----- ----- ----<br>---- --- --- ----- --- ---- ---- ------- ----- ---- -------<br>--- --- -- ----- -- --- ---- -- --- ---- -- ------ ------<br>--- ----- -- ----,37029.59999999404,37028.29999999702,36538.063,36541.59999999404,36554.734,37038.186,,8,fulfilling
screen,html.Screen,0_2_0_1_9,2021-11-05T14:16:08.962Z,,,,,,,,,,,,,,,,53,,,,,,,,,,,,,,550.0140000029787,,response,,,99,,,,,,Space,keypress(Space),,,,,"---- -- ----- -- ------ - ------- --- ----------<br>relationship, ------ ------ ---- ---- ------- ----- -- ----<br>-------- ------- -- ---------- --- - --- ----- ----- ----<br>---- --- --- ----- --- ---- ---- ------- ----- ---- -------<br>--- --- -- ----- -- --- ---- -- --- ---- -- ------ ------<br>--- ----- -- ----",37589.20000000298,37588.20000000298,37021.515,37030,37038.186,37605.004,,9,"relationship,"
screen,html.Screen,0_2_0_1_10,2021-11-05T14:16:09.498Z,,,,,,,,,,,,,,,,53,,,,,,,,,,,,,,519.1960000029794,,response,,,99,,,,,,Space,keypress(Space),,,,,---- -- ----- -- ------ - ------- --- ----------<br>------------- common ------ ---- ---- ------- ----- -- ----<br>-------- ------- -- ---------- --- - --- ----- ----- ----<br>---- --- --- ----- --- ---- ---- ------- ----- ---- -------<br>--- --- -- ----- -- --- ---- -- --- ---- -- ------ ------<br>--- ----- -- ----,38125.20000000298,38124.20000000298,37588.333,37589.5,37605.004,38138.432,,10,common
screen,html.Screen,0_2_0_1_11,2021-11-05T14:16:09.706Z,,,,,,,,,,,,,,,,53,,,,,,,,,,,,,,193.76800000297953,,response,,,99,,,,,,Space,keypress(Space),,,,,---- -- ----- -- ------ - ------- --- ----------<br>------------- ------ wisdom ---- ---- ------- ----- -- ----<br>-------- ------- -- ---------- --- - --- ----- ----- ----<br>---- --- --- ----- --- ---- ---- ------- ----- ---- -------<br>--- --- -- ----- -- --- ---- -- --- ---- -- ------ ------<br>--- ----- -- ----,38333.09999999404,38332.20000000298,38121.762,38125.39999999106,38138.432,38338.506,,11,wisdom
screen,html.Screen,0_2_0_1_12,2021-11-05T14:16:10.442Z,,,,,,,,,,,,,,,,53,,,,,,,,,,,,,,729.5939999940383,,response,,,99,,,,,,Space,keypress(Space),,,,,---- -- ----- -- ------ - ------- --- ----------<br>------------- ------ ------ says ---- ------- ----- -- ----<br>-------- ------- -- ---------- --- - --- ----- ----- ----<br>---- --- --- ----- --- ---- ---- ------- ----- ---- -------<br>--- --- -- ----- -- --- ---- -- --- ---- -- ------ ------<br>--- ----- -- ----,39069,39068.09999999404,38321.836,38333.39999999106,38338.506,39071.993,,12,says
screen,html.Screen,0_2_0_1_13,2021-11-05T14:16:11.074Z,,,,,,,,,,,,,,,,53,,,,,,,,,,,,,,628.1069999940373,,response,,,99,,,,,,Space,keypress(Space),,,,,---- -- ----- -- ------ - ------- --- ----------<br>------------- ------ ------ ---- that ------- ----- -- ----<br>-------- ------- -- ---------- --- - --- ----- ----- ----<br>---- --- --- ----- --- ---- ---- ------- ----- ---- -------<br>--- --- -- ----- -- --- ---- -- --- ---- -- ------ ------<br>--- ----- -- ----,39700.89999999106,39700.09999999404,39055.323,39069.20000000298,39071.993,39705.48,,13,that
screen,html.Screen,0_2_0_1_14,2021-11-05T14:16:11.746Z,,,,,,,,,,,,,,,,53,,,,,,,,,,,,,,666.6199999940363,,response,,,99,,,,,,Space,keypress(Space),,,,,---- -- ----- -- ------ - ------- --- ----------<br>------------- ------ ------ ---- ---- feeling ----- -- ----<br>-------- ------- -- ---------- --- - --- ----- ----- ----<br>---- --- --- ----- --- ---- ---- ------- ----- ---- -------<br>--- --- -- ----- -- --- ---- -- --- ---- -- ------ ------<br>--- ----- -- ----,40372.89999999106,40372.09999999404,39688.81,39701.20000000298,39705.48,40388.996,,14,feeling
screen,html.Screen,0_2_0_1_15,2021-11-05T14:16:12.250Z,,,,,,,,,,,,,,,,53,,,,,,,,,,,,,,487.0040000000008,,response,,,99,,,,,,Space,keypress(Space),,,,,---- -- ----- -- ------ - ------- --- ----------<br>------------- ------ ------ ---- ---- ------- close -- ----<br>-------- ------- -- ---------- --- - --- ----- ----- ----<br>---- --- --- ----- --- ---- ---- ------- ----- ---- -------<br>--- --- -- ----- -- --- ---- -- --- ---- -- ------ ------<br>--- ----- -- ----,40876.89999999106,40876,40372.326,40373.20000000298,40388.996,40889.141,,15,close
screen,html.Screen,0_2_0_1_16,2021-11-05T14:16:12.634Z,,,,,,,,,,,,,,,,53,,,,,,,,,,,,,,370.85899999999674,,response,,,99,,,,,,Space,keypress(Space),,,,,---- -- ----- -- ------ - ------- --- ----------<br>------------- ------ ------ ---- ---- ------- ----- to ----<br>-------- ------- -- ---------- --- - --- ----- ----- ----<br>---- --- --- ----- --- ---- ---- ------- ----- ---- -------<br>--- --- -- ----- -- --- ---- -- --- ---- -- ------ ------<br>--- ----- -- ----,41260.79999999702,41260,40872.471,40877.09999999404,40889.141,41272.579,,16,to
screen,html.Screen,0_2_0_1_17,2021-11-05T14:16:13.114Z,,,,,,,,,,,,,,,,53,,,,,,,,,,,,,,467.4210000000021,,response,,,99,,,,,,Space,keypress(Space),,,,,---- -- ----- -- ------ - ------- --- ----------<br>------------- ------ ------ ---- ---- ------- ----- -- your<br>-------- ------- -- ---------- --- - --- ----- ----- ----<br>---- --- --- ----- --- ---- ---- ------- ----- ---- -------<br>--- --- -- ----- -- --- ---- -- --- ---- -- ------ ------<br>--- ----- -- ----,41740.79999999702,41740,41255.909,41261.09999999404,41272.579,41756.074,,17,your
screen,html.Screen,0_2_0_1_18,2021-11-05T14:16:13.602Z,,,,,,,,,,,,,,,,53,,,,,,,,,,,,,,471.9259999999995,,response,,,99,,,,,,Space,keypress(Space),,,,,---- -- ----- -- ------ - ------- --- ----------<br>------------- ------ ------ ---- ---- ------- ----- -- ----<br>romantic ------- -- ---------- --- - --- ----- ----- ----<br>---- --- --- ----- --- ---- ---- ------- ----- ---- -------<br>--- --- -- ----- -- --- ---- -- --- ---- -- ------ ------<br>--- ----- -- ----,42228.70000000298,42228,41739.403,41741.09999999404,41756.074,42239.421,,18,romantic
screen,html.Screen,0_2_0_1_19,2021-11-05T14:16:14.074Z,,,,,,,,,,,,,,,,53,,,,,,,,,,,,,,460.8789999970177,,response,,,99,,,,,,Space,keypress(Space),,,,,---- -- ----- -- ------ - ------- --- ----------<br>------------- ------ ------ ---- ---- ------- ----- -- ----<br>-------- partner -- ---------- --- - --- ----- ----- ----<br>---- --- --- ----- --- ---- ---- ------- ----- ---- -------<br>--- --- -- ----- -- --- ---- -- --- ---- -- ------ ------<br>--- ----- -- ----,42701.20000000298,42700.29999999702,42222.752,42229,42239.421,42706.322,,19,partner
screen,html.Screen,0_2_0_1_20,2021-11-05T14:16:14.570Z,,,,,,,,,,,,,,,,53,,,,,,,,,,,,,,489.5779999910592,,response,,,99,,,,,,Space,keypress(Space),,,,,---- -- ----- -- ------ - ------- --- ----------<br>------------- ------ ------ ---- ---- ------- ----- -- ----<br>-------- ------- is ---------- --- - --- ----- ----- ----<br>---- --- --- ----- --- ---- ---- ------- ----- ---- -------<br>--- --- -- ----- -- --- ---- -- --- ---- -- ------ ------<br>--- ----- -- ----,43196.59999999404,43195.89999999106,42689.651,42701.5,42706.322,43206.313,,20,is
screen,html.Screen,0_2_0_1_21,2021-11-05T14:16:15.058Z,,,,,,,,,,,,,,,,53,,,,,,,,,,,,,,477.48699999701785,,response,,,99,,,,,,Space,keypress(Space),,,,,---- -- ----- -- ------ - ------- --- ----------<br>------------- ------ ------ ---- ---- ------- ----- -- ----<br>-------- ------- -- paramount. --- - --- ----- ----- ----<br>---- --- --- ----- --- ---- ---- ------- ----- ---- -------<br>--- --- -- ----- -- --- ---- -- --- ---- -- ------ ------<br>--- ----- -- ----,43684.70000000298,43683.79999999702,43189.644,43196.89999999106,43206.313,43689.917,,21,paramount.
screen,html.Screen,0_2_0_1_22,2021-11-05T14:16:15.650Z,,,,,,,,,,,,,,,,53,,,,,,,,,,,,,,585.8829999970185,,response,,,99,,,,,,Space,keypress(Space),,,,,---- -- ----- -- ------ - ------- --- ----------<br>------------- ------ ------ ---- ---- ------- ----- -- ----<br>-------- ------- -- ---------- But - --- ----- ----- ----<br>---- --- --- ----- --- ---- ---- ------- ----- ---- -------<br>--- --- -- ----- -- --- ---- -- --- ---- -- ------ ------<br>--- ----- -- ----,44276.59999999404,44275.79999999702,43673.246,43685.09999999404,43689.917,44290.062,,22,But
screen,html.Screen,0_2_0_1_23,2021-11-05T14:16:16.106Z,,,,,,,,,,,,,,,,53,,,,,,,,,,,,,,441.63800000298215,,response,,,99,,,,,,Space,keypress(Space),,,,,---- -- ----- -- ------ - ------- --- ----------<br>------------- ------ ------ ---- ---- ------- ----- -- ----<br>-------- ------- -- ---------- --- a --- ----- ----- ----<br>---- --- --- ----- --- ---- ---- ------- ----- ---- -------<br>--- --- -- ----- -- --- ---- -- --- ---- -- ------ ------<br>--- ----- -- ----,44732.59999999404,44731.70000000298,44273.391,44276.79999999702,44290.062,44740.003,,23,a
screen,html.Screen,0_2_0_1_24,2021-11-05T14:16:16.609Z,,,,,,,,,,,,,,,,53,,,,,,,,,,,,,,495.7969999970228,,response,,,99,,,,,,Space,keypress(Space),,,,,---- -- ----- -- ------ - ------- --- ----------<br>------------- ------ ------ ---- ---- ------- ----- -- ----<br>-------- ------- -- ---------- --- - new ----- ----- ----<br>---- --- --- ----- --- ---- ---- ------- ----- ---- -------<br>--- --- -- ----- -- --- ---- -- --- ---- -- ------ ------<br>--- ----- -- ----,45236.59999999404,45235.79999999702,44723.334,44732.89999999106,44740.003,45240.349,,24,new
screen,html.Screen,0_2_0_1_25,2021-11-05T14:16:17.090Z,,,,,,,,,,,,,,,,53,,,,,,,,,,,,,,475.4509999970178,,response,,,99,,,,,,Space,keypress(Space),,,,,---- -- ----- -- ------ - ------- --- ----------<br>------------- ------ ------ ---- ---- ------- ----- -- ----<br>-------- ------- -- ---------- --- - --- study ----- ----<br>---- --- --- ----- --- ---- ---- ------- ----- ---- -------<br>--- --- -- ----- -- --- ---- -- --- ---- -- ------ ------<br>--- ----- -- ----,45716.59999999404,45715.79999999702,45223.677,45236.79999999702,45240.349,45723.718,,25,study
screen,html.Screen,0_2_0_1_26,2021-11-05T14:16:17.489Z,,,,,,,,,,,,,,,,53,,,,,,,,,,,,,,391.9820000029795,,response,,,99,,,,,,Space,keypress(Space),,,,,---- -- ----- -- ------ - ------- --- ----------<br>------------- ------ ------ ---- ---- ------- ----- -- ----<br>-------- ------- -- ---------- --- - --- ----- finds ----<br>---- --- --- ----- --- ---- ---- ------- ----- ---- -------<br>--- --- -- ----- -- --- ---- -- --- ---- -- ------ ------<br>--- ----- -- ----,46116.5,46115.70000000298,45707.048,45716.89999999106,45723.718,46123.826,,26,finds
screen,html.Screen,0_2_0_1_27,2021-11-05T14:16:17.825Z,,,,,,,,,,,,,,,,53,,,,,,,,,,,,,,327.97399999701884,,response,,,99,,,,,,Space,keypress(Space),,,,,---- -- ----- -- ------ - ------- --- ----------<br>------------- ------ ------ ---- ---- ------- ----- -- ----<br>-------- ------- -- ---------- --- - --- ----- ----- that<br>---- --- --- ----- --- ---- ---- ------- ----- ---- -------<br>--- --- -- ----- -- --- ---- -- --- ---- -- ------ ------<br>--- ----- -- ----,46452.59999999404,46451.79999999702,46107.156,46116.79999999702,46123.826,46457.282,,27,that
screen,html.Screen,0_2_0_1_28,2021-11-05T14:16:18.313Z,,,,,,,,,,,,,,,,53,,,,,,,,,,,,,,482.418000002981,,response,,,99,,,,,,Space,keypress(Space),,,,,---- -- ----- -- ------ - ------- --- ----------<br>------------- ------ ------ ---- ---- ------- ----- -- ----<br>-------- ------- -- ---------- --- - --- ----- ----- ----<br>it's --- --- ----- --- ---- ---- ------- ----- ---- -------<br>--- --- -- ----- -- --- ---- -- --- ---- -- ------ ------<br>--- ----- -- ----,46940.5,46939.70000000298,46440.611,46452.79999999702,46457.282,46957.287,,28,it's
screen,html.Screen,0_2_0_1_29,2021-11-05T14:16:18.705Z,,,,,,,,,,,,,,,,53,,,,,,,,,,,,,,374.3129999940429,,response,,,99,,,,,,Space,keypress(Space),,,,,---- -- ----- -- ------ - ------- --- ----------<br>------------- ------ ------ ---- ---- ------- ----- -- ----<br>-------- ------- -- ---------- --- - --- ----- ----- ----<br>---- not --- ----- --- ---- ---- ------- ----- ---- -------<br>--- --- -- ----- -- --- ---- -- --- ---- -- ------ ------<br>--- ----- -- ----,47332.5,47331.59999999404,46940.618,46940.79999999702,46957.287,47340.882,,29,not
screen,html.Screen,0_2_0_1_30,2021-11-05T14:16:19.121Z,,,,,,,,,,,,,,,,53,,,,,,,,,,,,,,406.81800000298244,,response,,,99,,,,,,Space,keypress(Space),,,,,---- -- ----- -- ------ - ------- --- ----------<br>------------- ------ ------ ---- ---- ------- ----- -- ----<br>-------- ------- -- ---------- --- - --- ----- ----- ----<br>---- --- how ----- --- ---- ---- ------- ----- ---- -------<br>--- --- -- ----- -- --- ---- -- --- ---- -- ------ ------<br>--- ----- -- ----,47748.39999999106,47747.70000000298,47324.21,47332.79999999702,47340.882,47757.58,,30,how
screen,html.Screen,0_2_0_1_31,2021-11-05T14:16:19.569Z,,,,,,,,,,,,,,,,53,,,,,,,,,,,,,,438.0199999940378,,response,,,99,,,,,,Space,keypress(Space),,,,,---- -- ----- -- ------ - ------- --- ----------<br>------------- ------ ------ ---- ---- ------- ----- -- ----<br>-------- ------- -- ---------- --- - --- ----- ----- ----<br>---- --- --- close --- ---- ---- ------- ----- ---- -------<br>--- --- -- ----- -- --- ---- -- --- ---- -- ------ ------<br>--- ----- -- ----,48196.5,48195.59999999404,47740.91,47748.70000000298,47757.58,48207.692,,31,close
screen,html.Screen,0_2_0_1_32,2021-11-05T14:16:19.993Z,,,,,,,,,,,,,,,,53,,,,,,,,,,,,,,411.9079999940368,,response,,,99,,,,,,Space,keypress(Space),,,,,---- -- ----- -- ------ - ------- --- ----------<br>------------- ------ ------ ---- ---- ------- ----- -- ----<br>-------- ------- -- ---------- --- - --- ----- ----- ----<br>---- --- --- ----- you ---- ---- ------- ----- ---- -------<br>--- --- -- ----- -- --- ---- -- --- ---- -- ------ ------<br>--- ----- -- ----,48620.39999999106,48619.59999999404,48191.022,48196.59999999404,48207.692,48624.353,,32,you
screen,html.Screen,0_2_0_1_33,2021-11-05T14:16:20.441Z,,,,,,,,,,,,,,,,53,,,,,,,,,,,,,,443.24699999403674,,response,,,99,,,,,,Space,keypress(Space),,,,,---- -- ----- -- ------ - ------- --- ----------<br>------------- ------ ------ ---- ---- ------- ----- -- ----<br>-------- ------- -- ---------- --- - --- ----- ----- ----<br>---- --- --- ----- --- feel ---- ------- ----- ---- -------<br>--- --- -- ----- -- --- ---- -- --- ---- -- ------ ------<br>--- ----- -- ----,49068.39999999106,49067.59999999404,48607.684,48620.70000000298,48624.353,49074.58,,33,feel
screen,html.Screen,0_2_0_1_34,2021-11-05T14:16:20.882Z,,,,,,,,,,,,,,,,53,,,,,,,,,,,,,,432.91999999999825,,response,,,99,,,,,,Space,keypress(Space),,,,,---- -- ----- -- ------ - ------- --- ----------<br>------------- ------ ------ ---- ---- ------- ----- -- ----<br>-------- ------- -- ---------- --- - --- ----- ----- ----<br>---- --- --- ----- --- ---- that ------- ----- ---- -------<br>--- --- -- ----- -- --- ---- -- --- ---- -- ------ ------<br>--- ----- -- ----,49508.79999999702,49507.5,49057.909,49071,49074.58,49524.781,,34,that
screen,html.Screen,0_2_0_1_35,2021-11-05T14:16:21.385Z,,,,,,,,,,,,,,,,53,,,,,,,,,,,,,,486.7189999999973,,response,,,99,,,,,,Space,keypress(Space),,,,,---- -- ----- -- ------ - ------- --- ----------<br>------------- ------ ------ ---- ---- ------- ----- -- ----<br>-------- ------- -- ---------- --- - --- ----- ----- ----<br>---- --- --- ----- --- ---- ---- matters ----- ---- -------<br>--- --- -- ----- -- --- ---- -- --- ---- -- ------ ------<br>--- ----- -- ----,50012.39999999106,50011.5,49508.109,49509,49524.781,50024.82,,35,matters
screen,html.Screen,0_2_0_1_36,2021-11-05T14:16:21.866Z,,,,,,,,,,,,,,,,53,,,,,,,,,,,,,,466.7799999940398,,response,,,99,,,,,,Space,keypress(Space),,,,,"---- -- ----- -- ------ - ------- --- ----------<br>------------- ------ ------ ---- ---- ------- ----- -- ----<br>-------- ------- -- ---------- --- - --- ----- ----- ----<br>---- --- --- ----- --- ---- ---- ------- most, ---- -------<br>--- --- -- ----- -- --- ---- -- --- ---- -- ------ ------<br>--- ----- -- ----",50492.79999999702,50491.59999999404,50008.15,50012.59999999404,50024.82,50508.287,,36,"most,"
screen,html.Screen,0_2_0_1_37,2021-11-05T14:16:22.377Z,,,,,,,,,,,,,,,,53,,,,,,,,,,,,,,495.1129999910627,,response,,,99,,,,,,Space,keypress(Space),,,,,---- -- ----- -- ------ - ------- --- ----------<br>------------- ------ ------ ---- ---- ------- ----- -- ----<br>-------- ------- -- ---------- --- - --- ----- ----- ----<br>---- --- --- ----- --- ---- ---- ------- ----- it's -------<br>--- --- -- ----- -- --- ---- -- --- ---- -- ------ ------<br>--- ----- -- ----,51004.29999999702,51003.39999999106,50491.617,50493,50508.287,51008.239,,37,it's
screen,html.Screen,0_2_0_1_38,2021-11-05T14:16:22.769Z,,,,,,,,,,,,,,,,53,,,,,,,,,,,,,,387.1609999910579,,response,,,99,,,,,,Space,keypress(Space),,,,,---- -- ----- -- ------ - ------- --- ----------<br>------------- ------ ------ ---- ---- ------- ----- -- ----<br>-------- ------- -- ---------- --- - --- ----- ----- ----<br>---- --- --- ----- --- ---- ---- ------- ----- ---- whether<br>--- --- -- ----- -- --- ---- -- --- ---- -- ------ ------<br>--- ----- -- ----,51396.20000000298,51395.39999999106,50991.571,51004.5,51008.239,51408.634,,38,whether
screen,html.Screen,0_2_0_1_39,2021-11-05T14:16:23.161Z,,,,,,,,,,,,,,,,53,,,,,,,,,,,,,,378.8660000000018,,response,,,99,,,,,,Space,keypress(Space),,,,,---- -- ----- -- ------ - ------- --- ----------<br>------------- ------ ------ ---- ---- ------- ----- -- ----<br>-------- ------- -- ---------- --- - --- ----- ----- ----<br>---- --- --- ----- --- ---- ---- ------- ----- ---- -------<br>you --- -- ----- -- --- ---- -- --- ---- -- ------ ------<br>--- ----- -- ----,51788.20000000298,51787.5,51391.962,51396.5,51408.634,51791.959,,39,you
screen,html.Screen,0_2_0_1_40,2021-11-05T14:16:23.321Z,,,,,,,,,,,,,,,,53,,,,,,,,,,,,,,155.44099999105674,,response,,,99,,,,,,Space,keypress(Space),,,,,---- -- ----- -- ------ - ------- --- ----------<br>------------- ------ ------ ---- ---- ------- ----- -- ----<br>-------- ------- -- ---------- --- - --- ----- ----- ----<br>---- --- --- ----- --- ---- ---- ------- ----- ---- -------<br>--- are -- ----- -- --- ---- -- --- ---- -- ------ ------<br>--- ----- -- ----,51948.20000000298,51947.39999999106,51775.289,51788.39999999106,51791.959,51958.591,,40,are
screen,html.Screen,0_2_0_1_41,2021-11-05T14:16:23.961Z,,,,,,,,,,,,,,,,53,,,,,,,,,,,,,,628.9089999999997,,response,,,99,,,,,,Space,keypress(Space),,,,,---- -- ----- -- ------ - ------- --- ----------<br>------------- ------ ------ ---- ---- ------- ----- -- ----<br>-------- ------- -- ---------- --- - --- ----- ----- ----<br>---- --- --- ----- --- ---- ---- ------- ----- ---- -------<br>--- --- as ----- -- --- ---- -- --- ---- -- ------ ------<br>--- ----- -- ----,52588.20000000298,52587.5,51941.922,51948.5,51958.591,52592.096,,41,as
screen,html.Screen,0_2_0_1_42,2021-11-05T14:16:24.386Z,,,,,,,,,,,,,,,,53,,,,,,,,,,,,,,419.70399999702204,,response,,,99,,,,,,Space,keypress(Space),,,,,---- -- ----- -- ------ - ------- --- ----------<br>------------- ------ ------ ---- ---- ------- ----- -- ----<br>-------- ------- -- ---------- --- - --- ----- ----- ----<br>---- --- --- ----- --- ---- ---- ------- ----- ---- -------<br>--- --- -- close -- --- ---- -- --- ---- -- ------ ------<br>--- ----- -- ----,53012.59999999404,53011.79999999702,52575.426,52588.5,52592.096,53025.76,,42,close
screen,html.Screen,0_2_0_1_43,2021-11-05T14:16:24.753Z,,,,,,,,,,,,,,,,53,,,,,,,,,,,,,,353.63999999105727,,response,,,99,,,,,,Space,keypress(Space),,,,,---- -- ----- -- ------ - ------- --- ----------<br>------------- ------ ------ ---- ---- ------- ----- -- ----<br>-------- ------- -- ---------- --- - --- ----- ----- ----<br>---- --- --- ----- --- ---- ---- ------- ----- ---- -------<br>--- --- -- ----- as --- ---- -- --- ---- -- ------ ------<br>--- ----- -- ----,53380.20000000298,53379.39999999106,53009.086,53012.89999999106,53025.76,53392.277,,43,as
screen,html.Screen,0_2_0_1_44,2021-11-05T14:16:25.153Z,,,,,,,,,,,,,,,,53,,,,,,,,,,,,,,387.0229999970179,,response,,,99,,,,,,Space,keypress(Space),,,,,---- -- ----- -- ------ - ------- --- ----------<br>------------- ------ ------ ---- ---- ------- ----- -- ----<br>-------- ------- -- ---------- --- - --- ----- ----- ----<br>---- --- --- ----- --- ---- ---- ------- ----- ---- -------<br>--- --- -- ----- -- you ---- -- --- ---- -- ------ ------<br>--- ----- -- ----,53780.09999999404,53779.29999999702,53375.608,53380.39999999106,53392.277,53792.526,,44,you
screen,html.Screen,0_2_0_1_45,2021-11-05T14:16:25.673Z,,,,,,,,,,,,,,,,53,,,,,,,,,,,,,,506.77399999702175,,response,,,99,,,,,,Space,keypress(Space),,,,,---- -- ----- -- ------ - ------- --- ----------<br>------------- ------ ------ ---- ---- ------- ----- -- ----<br>-------- ------- -- ---------- --- - --- ----- ----- ----<br>---- --- --- ----- --- ---- ---- ------- ----- ---- -------<br>--- --- -- ----- -- --- want -- --- ---- -- ------ ------<br>--- ----- -- ----,54300,54299.29999999702,53775.854,53780.29999999702,53792.526,54309.307,,45,want
screen,html.Screen,0_2_0_1_46,2021-11-05T14:16:26.081Z,,,,,,,,,,,,,,,,53,,,,,,,,,,,,,,397.99299999701907,,response,,,99,,,,,,Space,keypress(Space),,,,,---- -- ----- -- ------ - ------- --- ----------<br>------------- ------ ------ ---- ---- ------- ----- -- ----<br>-------- ------- -- ---------- --- - --- ----- ----- ----<br>---- --- --- ----- --- ---- ---- ------- ----- ---- -------<br>--- --- -- ----- -- --- ---- to --- ---- -- ------ ------<br>--- ----- -- ----,54708,54707.29999999702,54292.636,54300.29999999702,54309.307,54709.373,,46,to
screen,html.Screen,0_2_0_1_47,2021-11-05T14:16:26.673Z,,,,,,,,,,,,,,,,53,,,,,,,,,,,,,,589.8270000029806,,response,,,99,,,,,,Space,keypress(Space),,,,,"---- -- ----- -- ------ - ------- --- ----------<br>------------- ------ ------ ---- ---- ------- ----- -- ----<br>-------- ------- -- ---------- --- - --- ----- ----- ----<br>---- --- --- ----- --- ---- ---- ------- ----- ---- -------<br>--- --- -- ----- -- --- ---- -- be, ---- -- ------ ------<br>--- ----- -- ----",55300,55299.20000000298,54692.703,54708.29999999702,54709.373,55309.504,,47,"be,"
screen,html.Screen,0_2_0_1_48,2021-11-05T14:16:27.377Z,,,,,,,,,,,,,,,,53,,,,,,,,,,,,,,693.6960000029794,,response,,,99,,,,,,Space,keypress(Space),,,,,---- -- ----- -- ------ - ------- --- ----------<br>------------- ------ ------ ---- ---- ------- ----- -- ----<br>-------- ------- -- ---------- --- - --- ----- ----- ----<br>---- --- --- ----- --- ---- ---- ------- ----- ---- -------<br>--- --- -- ----- -- --- ---- -- --- even -- ------ ------<br>--- ----- -- ----,56004.09999999404,56003.20000000298,55292.834,55300.20000000298,55309.504,56009.745,,48,even
screen,html.Screen,0_2_0_1_49,2021-11-05T14:16:27.929Z,,,,,,,,,,,,,,,,53,,,,,,,,,,,,,,545.4550000029776,,response,,,99,,,,,,Space,keypress(Space),,,,,---- -- ----- -- ------ - ------- --- ----------<br>------------- ------ ------ ---- ---- ------- ----- -- ----<br>-------- ------- -- ---------- --- - --- ----- ----- ----<br>---- --- --- ----- --- ---- ---- ------- ----- ---- -------<br>--- --- -- ----- -- --- ---- -- --- ---- if ------ ------<br>--- ----- -- ----,56555.89999999106,56555.20000000298,55993.074,56004.20000000298,56009.745,56559.697,,49,if
screen,html.Screen,0_2_0_1_50,2021-11-05T14:16:28.561Z,,,,,,,,,,,,,,,,53,,,,,,,,,,,,,,627.5030000029801,,response,,,99,,,,,,Space,keypress(Space),,,,,---- -- ----- -- ------ - ------- --- ----------<br>------------- ------ ------ ---- ---- ------- ----- -- ----<br>-------- ------- -- ---------- --- - --- ----- ----- ----<br>---- --- --- ----- --- ---- ---- ------- ----- ---- -------<br>--- --- -- ----- -- --- ---- -- --- ---- -- that's ------<br>--- ----- -- ----,57188,57187.20000000298,56543.028,56556.09999999404,56559.697,57193.39,,50,that's
screen,html.Screen,0_2_0_1_51,2021-11-05T14:16:29.169Z,,,,,,,,,,,,,,,,53,,,,,,,,,,,,,,601.7099999940401,,response,,,99,,,,,,Space,keypress(Space),,,,,---- -- ----- -- ------ - ------- --- ----------<br>------------- ------ ------ ---- ---- ------- ----- -- ----<br>-------- ------- -- ---------- --- - --- ----- ----- ----<br>---- --- --- ----- --- ---- ---- ------- ----- ---- -------<br>--- --- -- ----- -- --- ---- -- --- ---- -- ------ really<br>--- ----- -- ----,57795.79999999702,57795.09999999404,57176.719,57188.20000000298,57193.39,57810.031,,51,really
screen,html.Screen,0_2_0_1_52,2021-11-05T14:16:29.617Z,,,,,,,,,,,,,,,,53,,,,,,,,,,,,,,432.9689999999973,,response,,,99,,,,,,Space,keypress(Space),,,,,---- -- ----- -- ------ - ------- --- ----------<br>------------- ------ ------ ---- ---- ------- ----- -- ----<br>-------- ------- -- ---------- --- - --- ----- ----- ----<br>---- --- --- ----- --- ---- ---- ------- ----- ---- -------<br>--- --- -- ----- -- --- ---- -- --- ---- -- ------ ------<br>not ----- -- ----,58243.89999999106,58243,57793.362,57796.09999999404,57810.031,58260.377,,52,not
screen,html.Screen,0_2_0_1_53,2021-11-05T14:16:30.057Z,,,,,,,,,,,,,,,,53,,,,,,,,,,,,,,422.7229999940391,,response,,,99,,,,,,Space,keypress(Space),,,,,---- -- ----- -- ------ - ------- --- ----------<br>------------- ------ ------ ---- ---- ------- ----- -- ----<br>-------- ------- -- ---------- --- - --- ----- ----- ----<br>---- --- --- ----- --- ---- ---- ------- ----- ---- -------<br>--- --- -- ----- -- --- ---- -- --- ---- -- ------ ------<br>--- close -- ----,58683.79999999702,58683.09999999404,58243.705,58244.20000000298,58260.377,58693.731,,53,close
screen,html.Screen,0_2_0_1_54,2021-11-05T14:16:30.601Z,,,,,,,,,,,,,,,,53,,,,,,,,,,,,,,533.2690000000002,,response,,,99,,,,,,Space,keypress(Space),,,,,---- -- ----- -- ------ - ------- --- ----------<br>------------- ------ ------ ---- ---- ------- ----- -- ----<br>-------- ------- -- ---------- --- - --- ----- ----- ----<br>---- --- --- ----- --- ---- ---- ------- ----- ---- -------<br>--- --- -- ----- -- --- ---- -- --- ---- -- ------ ------<br>--- ----- at ----,59227.89999999106,59227,58677.061,58684.09999999404,58693.731,59243.867,,54,at
screen,html.Screen,0_2_0_1_55,2021-11-05T14:16:32.788Z,,,,,,,,,,,,,,,,53,,,,,,,,,,,,,,2167.032999991061,,response,,,99,,,,,,Space,keypress(Space),,,,,---- -- ----- -- ------ - ------- --- ----------<br>------------- ------ ------ ---- ---- ------- ----- -- ----<br>-------- ------- -- ---------- --- - --- ----- ----- ----<br>---- --- --- ----- --- ---- ---- ------- ----- ---- -------<br>--- --- -- ----- -- --- ---- -- --- ---- -- ------ ------<br>--- ----- -- all.,61411.59999999404,61410.89999999106,59227.197,59228,59243.867,61427.655,,55,all.
Item 99,flow.Loop,0_2_0_1,2021-11-05T14:16:32.792Z,,,,,,,,,,,,,,,,,,,,,,,,,,,,,,30007.375999991058,,completion,,,,B,,,,,,,,,,silence,,61416.29999999702,61410.89999999106,31370.18,31378.59999999404,31403.524,61427.655,,,
Question 1,html.Screen,0_2_0_2,2021-11-05T14:16:38.727Z,,,,,,,,,,,,,,,,,,,,,,,,,,,true,FALSE,,5921.845000000001,,response,,,99,B,,,,,FALSE,click #choice-2,,,,silence,,67350.89999999106,67349.5,61410.985,61416.59999999404,61427.655,67362.619,,,
Question 2,html.Screen,0_2_0_3,2021-11-05T14:16:46.971Z,,,,,,,,,,,,,,,,,,,,,,,,,,,false,TRUE,,8230.680999997014,,response,,,99,B,,,,,FALSE,click #choice-2,,,,silence,,75594.59999999404,75593.29999999702,67345.949,67351.09999999404,67362.619,75597.988,,,
Item 99,flow.Sequence,0_2_0,2021-11-05T14:16:46.971Z,,,,,,,,,,,,,,,,,,,,,,,,,,,,,,54209.33799999702,,completion,,,,,,,,,,,,,,,,75595.09999999404,75593.29999999702,21367.292,21375.5,21383.962,75597.988,,,
Holding screen,html.Screen,0_2_1_0,2021-11-05T14:16:56.961Z,,,,,,,,,,,,,,,,,,,,,,,,,,,,,,10002.453999999998,,timeout,,,,,,,,,,,,,,,,85584.70000000298,85583.773,75581.318,75595.5,75597.988,85600.442,,,
screen,html.Screen,0_2_1_1_0,2021-11-05T14:16:57.939Z,,,,,,,,,,,,,,,,54,,,,,,,,,,,,,,961.5580000000045,,response,,,100,,,,,,Space,keypress(Space),,,,,At --- ---- --- ------ ----- ------- ---- -- --- ------- --<br>------- ---------- ------ -- ----- -- ----- -- ---- ------<br>--- ----- --- --- ------ -------- ----- --- ------ ----- --<br>----- ----- ---------- --- --- ------ ------ ---- -- ------<br>------- --- ------ ----- --- ---- ------- -- ---- --- --<br>------- ------,86563,86562,85583.773,85585,85600.442,86567.73,,0,At
screen,html.Screen,0_2_1_1_1,2021-11-05T14:16:58.314Z,,,,,,,,,,,,,,,,54,,,,,,,,,,,,,,369.6699999910634,,response,,,100,,,,,,Space,keypress(Space),,,,,-- the ---- --- ------ ----- ------- ---- -- --- ------- --<br>------- ---------- ------ -- ----- -- ----- -- ---- ------<br>--- ----- --- --- ------ -------- ----- --- ------ ----- --<br>----- ----- ---------- --- --- ------ ------ ---- -- ------<br>------- --- ------ ----- --- ---- ------- -- ---- --- --<br>------- ------,86938.20000000298,86937.39999999106,86551.058,86563.20000000298,86567.73,86950.973,,1,the
screen,html.Screen,0_2_1_1_2,2021-11-05T14:16:58.674Z,,,,,,,,,,,,,,,,54,,,,,,,,,,,,,,346.42699999106117,,response,,,100,,,,,,Space,keypress(Space),,,,,-- --- time --- ------ ----- ------- ---- -- --- ------- --<br>------- ---------- ------ -- ----- -- ----- -- ---- ------<br>--- ----- --- --- ------ -------- ----- --- ------ ----- --<br>----- ----- ---------- --- --- ------ ------ ---- -- ------<br>------- --- ------ ----- --- ---- ------- -- ---- --- --<br>------- ------,87298.20000000298,87297.39999999106,86934.303,86938.5,86950.973,87301.07,,2,time
screen,html.Screen,0_2_1_1_3,2021-11-05T14:16:59.074Z,,,,,,,,,,,,,,,,54,,,,,,,,,,,,,,396.3299999910523,,response,,,100,,,,,,Space,keypress(Space),,,,,-- --- ---- the ------ ----- ------- ---- -- --- ------- --<br>------- ---------- ------ -- ----- -- ----- -- ---- ------<br>--- ----- --- --- ------ -------- ----- --- ------ ----- --<br>----- ----- ---------- --- --- ------ ------ ---- -- ------<br>------- --- ------ ----- --- ---- ------- -- ---- --- --<br>------- ------,87698.20000000298,87697.39999999106,87284.4,87298.39999999106,87301.07,87701.226,,3,the
screen,html.Screen,0_2_1_1_4,2021-11-05T14:16:59.610Z,,,,,,,,,,,,,,,,54,,,,,,,,,,,,,,532.1739999910642,,response,,,100,,,,,,Space,keypress(Space),,,,,-- --- ---- --- French ----- ------- ---- -- --- ------- --<br>------- ---------- ------ -- ----- -- ----- -- ---- ------<br>--- ----- --- --- ------ -------- ----- --- ------ ----- --<br>----- ----- ---------- --- --- ------ ------ ---- -- ------<br>------- --- ------ ----- --- ---- ------- -- ---- --- --<br>------- ------,88234.20000000298,88233.39999999106,87684.555,87698.39999999106,87701.226,88251.372,,4,French
screen,html.Screen,0_2_1_1_5,2021-11-05T14:17:00.003Z,,,,,,,,,,,,,,,,54,,,,,,,,,,,,,,373.8280000029772,,response,,,100,,,,,,Space,keypress(Space),,,,,-- --- ---- --- ------ crown ------- ---- -- --- ------- --<br>------- ---------- ------ -- ----- -- ----- -- ---- ------<br>--- ----- --- --- ------ -------- ----- --- ------ ----- --<br>----- ----- ---------- --- --- ------ ------ ---- -- ------<br>------- --- ------ ----- --- ---- ------- -- ---- --- --<br>------- ------,88626.59999999404,88625.20000000298,88234.701,88234.5,88251.372,88634.772,,5,crown
screen,html.Screen,0_2_1_1_6,2021-11-05T14:17:00.458Z,,,,,,,,,,,,,,,,54,,,,,,,,,,,,,,446.52799999702256,,response,,,100,,,,,,Space,keypress(Space),,,,,-- --- ---- --- ------ ----- secured ---- -- --- ------- --<br>------- ---------- ------ -- ----- -- ----- -- ---- ------<br>--- ----- --- --- ------ -------- ----- --- ------ ----- --<br>----- ----- ---------- --- --- ------ ------ ---- -- ------<br>------- --- ------ ----- --- ---- ------- -- ---- --- --<br>------- ------,89082.09999999404,89081.29999999702,88618.102,88626.89999999106,88634.772,89084.762,,6,secured
screen,html.Screen,0_2_1_1_7,2021-11-05T14:17:00.906Z,,,,,,,,,,,,,,,,54,,,,,,,,,,,,,,444.5379999970173,,response,,,100,,,,,,Space,keypress(Space),,,,,-- --- ---- --- ------ ----- ------- much -- --- ------- --<br>------- ---------- ------ -- ----- -- ----- -- ---- ------<br>--- ----- --- --- ------ -------- ----- --- ------ ----- --<br>----- ----- ---------- --- --- ------ ------ ---- -- ------<br>------- --- ------ ----- --- ---- ------- -- ---- --- --<br>------- ------,89530.20000000298,89529.29999999702,89068.093,89082.39999999106,89084.762,89534.915,,7,much
screen,html.Screen,0_2_1_1_8,2021-11-05T14:17:01.346Z,,,,,,,,,,,,,,,,54,,,,,,,,,,,,,,434.38499999702617,,response,,,100,,,,,,Space,keypress(Space),,,,,-- --- ---- --- ------ ----- ------- ---- of --- ------- --<br>------- ---------- ------ -- ----- -- ----- -- ---- ------<br>--- ----- --- --- ------ -------- ----- --- ------ ----- --<br>----- ----- ---------- --- --- ------ ------ ---- -- ------<br>------- --- ------ ----- --- ---- ------- -- ---- --- --<br>------- ------,89970,89969.29999999702,89518.245,89530.39999999106,89534.915,89985.211,,8,of
screen,html.Screen,0_2_1_1_9,2021-11-05T14:17:01.762Z,,,,,,,,,,,,,,,,54,,,,,,,,,,,,,,400.0889999970241,,response,,,100,,,,,,Space,keypress(Space),,,,,-- --- ---- --- ------ ----- ------- ---- -- its ------- --<br>------- ---------- ------ -- ----- -- ----- -- ---- ------<br>--- ----- --- --- ------ -------- ----- --- ------ ----- --<br>----- ----- ---------- --- --- ------ ------ ---- -- ------<br>------- --- ------ ----- --- ---- ------- -- ---- --- --<br>------- ------,90386.09999999404,90385.29999999702,89968.539,89970.29999999702,89985.211,90401.881,,9,its
screen,html.Screen,0_2_1_1_10,2021-11-05T14:17:02.250Z,,,,,,,,,,,,,,,,54,,,,,,,,,,,,,,471.4189999970258,,response,,,100,,,,,,Space,keypress(Space),,,,,-- --- ---- --- ------ ----- ------- ---- -- --- revenue --<br>------- ---------- ------ -- ----- -- ----- -- ---- ------<br>--- ----- --- --- ------ -------- ----- --- ------ ----- --<br>----- ----- ---------- --- --- ------ ------ ---- -- ------<br>------- --- ------ ----- --- ---- ------- -- ---- --- --<br>------- ------,90874.09999999404,90873.29999999702,90385.211,90386.29999999702,90401.881,90885.391,,10,revenue
screen,html.Screen,0_2_1_1_11,2021-11-05T14:17:02.722Z,,,,,,,,,,,,,,,,54,,,,,,,,,,,,,,459.9089999970165,,response,,,100,,,,,,Space,keypress(Space),,,,,-- --- ---- --- ------ ----- ------- ---- -- --- ------- by<br>------- ---------- ------ -- ----- -- ----- -- ---- ------<br>--- ----- --- --- ------ -------- ----- --- ------ ----- --<br>----- ----- ---------- --- --- ------ ------ ---- -- ------<br>------- --- ------ ----- --- ---- ------- -- ---- --- --<br>------- ------,91346,91345.29999999702,90868.72,90874.39999999106,90885.391,91352.135,,11,by
screen,html.Screen,0_2_1_1_12,2021-11-05T14:17:03.202Z,,,,,,,,,,,,,,,,54,,,,,,,,,,,,,,473.06500000298547,,response,,,100,,,,,,Space,keypress(Space),,,,,-- --- ---- --- ------ ----- ------- ---- -- --- ------- --<br>issuing ---------- ------ -- ----- -- ----- -- ---- ------<br>--- ----- --- --- ------ -------- ----- --- ------ ----- --<br>----- ----- ---------- --- --- ------ ------ ---- -- ------<br>------- --- ------ ----- --- ---- ------- -- ---- --- --<br>------- ------,91825.89999999106,91825.20000000298,91335.465,91346.29999999702,91352.135,91835.574,,12,issuing
screen,html.Screen,0_2_1_1_13,2021-11-05T14:17:03.802Z,,,,,,,,,,,,,,,,54,,,,,,,,,,,,,,589.626000002987,,response,,,100,,,,,,Space,keypress(Space),,,,,-- --- ---- --- ------ ----- ------- ---- -- --- ------- --<br>------- government ------ -- ----- -- ----- -- ---- ------<br>--- ----- --- --- ------ -------- ----- --- ------ ----- --<br>----- ----- ---------- --- --- ------ ------ ---- -- ------<br>------- --- ------ ----- --- ---- ------- -- ---- --- --<br>------- ------,92426,92425.20000000298,91818.904,91826.29999999702,91835.574,92435.734,,13,government
screen,html.Screen,0_2_1_1_14,2021-11-05T14:17:04.202Z,,,,,,,,,,,,,,,,54,,,,,,,,,,,,,,389.565999997023,,response,,,100,,,,,,Space,keypress(Space),,,,,-- --- ---- --- ------ ----- ------- ---- -- --- ------- --<br>------- ---------- bonds. -- ----- -- ----- -- ---- ------<br>--- ----- --- --- ------ -------- ----- --- ------ ----- --<br>----- ----- ---------- --- --- ------ ------ ---- -- ------<br>------- --- ------ ----- --- ---- ------- -- ---- --- --<br>------- ------,92826,92825.29999999702,92419.064,92426.20000000298,92435.734,92835.847,,14,bonds.
screen,html.Screen,0_2_1_1_15,2021-11-05T14:17:05.250Z,,,,,,,,,,,,,,,,54,,,,,,,,,,,,,,1037.2529999940452,,response,,,100,,,,,,Space,keypress(Space),,,,,-- --- ---- --- ------ ----- ------- ---- -- --- ------- --<br>------- ---------- ------ In ----- -- ----- -- ---- ------<br>--- ----- --- --- ------ -------- ----- --- ------ ----- --<br>----- ----- ---------- --- --- ------ ------ ---- -- ------<br>------- --- ------ ----- --- ---- ------- -- ---- --- --<br>------- ------,93874,93873.09999999404,92819.177,92826.20000000298,92835.847,93886.071,,15,In
screen,html.Screen,0_2_1_1_16,2021-11-05T14:17:05.866Z,,,,,,,,,,,,,,,,54,,,,,,,,,,,,,,602.9290000000037,,response,,,100,,,,,,Space,keypress(Space),,,,,"-- --- ---- --- ------ ----- ------- ---- -- --- ------- --<br>------- ---------- ------ -- 1727, -- ----- -- ---- ------<br>--- ----- --- --- ------ -------- ----- --- ------ ----- --<br>----- ----- ---------- --- --- ------ ------ ---- -- ------<br>------- --- ------ ----- --- ---- ------- -- ---- --- --<br>------- ------",94489.89999999106,94489,93869.401,93874.29999999702,93886.071,94502.928,,16,"1727,"
screen,html.Screen,0_2_1_1_17,2021-11-05T14:17:06.730Z,,,,,,,,,,,,,,,,54,,,,,,,,,,,,,,850.0720000000001,,response,,,100,,,,,,Space,keypress(Space),,,,,-- --- ---- --- ------ ----- ------- ---- -- --- ------- --<br>------- ---------- ------ -- ----- in ----- -- ---- ------<br>--- ----- --- --- ------ -------- ----- --- ------ ----- --<br>----- ----- ---------- --- --- ------ ------ ---- -- ------<br>------- --- ------ ----- --- ---- ------- -- ---- --- --<br>------- ------,95353.89999999106,95353,94486.258,94490.09999999404,94502.928,95369.811,,17,in
screen,html.Screen,0_2_1_1_18,2021-11-05T14:17:07.162Z,,,,,,,,,,,,,,,,54,,,,,,,,,,,,,,415.288999994038,,response,,,100,,,,,,Space,keypress(Space),,,,,-- --- ---- --- ------ ----- ------- ---- -- --- ------- --<br>------- ---------- ------ -- ----- -- order -- ---- ------<br>--- ----- --- --- ------ -------- ----- --- ------ ----- --<br>----- ----- ---------- --- --- ------ ------ ---- -- ------<br>------- --- ------ ----- --- ---- ------- -- ---- --- --<br>------- ------,95785.79999999702,95785.09999999404,95353.141,95354.20000000298,95369.811,95803.26,,18,order
screen,html.Screen,0_2_1_1_19,2021-11-05T14:17:07.466Z,,,,,,,,,,,,,,,,54,,,,,,,,,,,,,,285.74000000000524,,response,,,100,,,,,,Space,keypress(Space),,,,,-- --- ---- --- ------ ----- ------- ---- -- --- ------- --<br>------- ---------- ------ -- ----- -- ----- to ---- ------<br>--- ----- --- --- ------ -------- ----- --- ------ ----- --<br>----- ----- ---------- --- --- ------ ------ ---- -- ------<br>------- --- ------ ----- --- ---- ------- -- ---- --- --<br>------- ------,96089.79999999702,96089,95786.59,95786,95803.26,96103.347,,19,to
screen,html.Screen,0_2_1_1_20,2021-11-05T14:17:07.754Z,,,,,,,,,,,,,,,,54,,,,,,,,,,,,,,273.552999991065,,response,,,100,,,,,,Space,keypress(Space),,,,,-- --- ---- --- ------ ----- ------- ---- -- --- ------- --<br>------- ---------- ------ -- ----- -- ----- -- save ------<br>--- ----- --- --- ------ -------- ----- --- ------ ----- --<br>----- ----- ---------- --- --- ------ ------ ---- -- ------<br>------- --- ------ ----- --- ---- ------- -- ---- --- --<br>------- ------,96377.79999999702,96376.89999999106,96086.677,96090,96103.347,96386.752,,20,save
screen,html.Screen,0_2_1_1_21,2021-11-05T14:17:08.138Z,,,,,,,,,,,,,,,,54,,,,,,,,,,,,,,374.6479999910662,,response,,,100,,,,,,Space,keypress(Space),,,,,"-- --- ---- --- ------ ----- ------- ---- -- --- ------- --<br>------- ---------- ------ -- ----- -- ----- -- ---- money,<br>--- ----- --- --- ------ -------- ----- --- ------ ----- --<br>----- ----- ---------- --- --- ------ ------ ---- -- ------<br>------- --- ------ ----- --- ---- ------- -- ---- --- --<br>------- ------",96762.20000000298,96761.39999999106,96370.082,96378,96386.752,96770.215,,21,"money,"
screen,html.Screen,0_2_1_1_22,2021-11-05T14:17:08.538Z,,,,,,,,,,,,,,,,54,,,,,,,,,,,,,,390.7850000000035,,response,,,100,,,,,,Space,keypress(Space),,,,,-- --- ---- --- ------ ----- ------- ---- -- --- ------- --<br>------- ---------- ------ -- ----- -- ----- -- ---- ------<br>the ----- --- --- ------ -------- ----- --- ------ ----- --<br>----- ----- ---------- --- --- ------ ------ ---- -- ------<br>------- --- ------ ----- --- ---- ------- -- ---- --- --<br>------- ------,97161.70000000298,97161,96753.544,96762.5,96770.215,97170.347,,22,the
screen,html.Screen,0_2_1_1_23,2021-11-05T14:17:08.914Z,,,,,,,,,,,,,,,,54,,,,,,,,,,,,,,366.552999991065,,response,,,100,,,,,,Space,keypress(Space),,,,,-- --- ---- --- ------ ----- ------- ---- -- --- ------- --<br>------- ---------- ------ -- ----- -- ----- -- ---- ------<br>--- state --- --- ------ -------- ----- --- ------ ----- --<br>----- ----- ---------- --- --- ------ ------ ---- -- ------<br>------- --- ------ ----- --- ---- ------- -- ---- --- --<br>------- ------,97537.70000000298,97536.89999999106,97153.676,97162,97170.347,97553.714,,23,state
screen,html.Screen,0_2_1_1_24,2021-11-05T14:17:09.234Z,,,,,,,,,,,,,,,,54,,,,,,,,,,,,,,303.1859999910521,,response,,,100,,,,,,Space,keypress(Space),,,,,-- --- ---- --- ------ ----- ------- ---- -- --- ------- --<br>------- ---------- ------ -- ----- -- ----- -- ---- ------<br>--- ----- cut --- ------ -------- ----- --- ------ ----- --<br>----- ----- ---------- --- --- ------ ------ ---- -- ------<br>------- --- ------ ----- --- ---- ------- -- ---- --- --<br>------- ------,97857.70000000298,97856.89999999106,97537.044,97537.89999999106,97553.714,97870.515,,24,cut
screen,html.Screen,0_2_1_1_25,2021-11-05T14:17:09.578Z,,,,,,,,,,,,,,,,54,,,,,,,,,,,,,,330.28499999702035,,response,,,100,,,,,,Space,keypress(Space),,,,,-- --- ---- --- ------ ----- ------- ---- -- --- ------- --<br>------- ---------- ------ -- ----- -- ----- -- ---- ------<br>--- ----- --- the ------ -------- ----- --- ------ ----- --<br>----- ----- ---------- --- --- ------ ------ ---- -- ------<br>------- --- ------ ----- --- ---- ------- -- ---- --- --<br>------- ------,98201.70000000298,98200.79999999702,97853.844,97857.89999999106,97870.515,98203.895,,25,the
screen,html.Screen,0_2_1_1_26,2021-11-05T14:17:09.994Z,,,,,,,,,,,,,,,,54,,,,,,,,,,,,,,412.9049999970157,,response,,,100,,,,,,Space,keypress(Space),,,,,-- --- ---- --- ------ ----- ------- ---- -- --- ------- --<br>------- ---------- ------ -- ----- -- ----- -- ---- ------<br>--- ----- --- --- bonds' -------- ----- --- ------ ----- --<br>----- ----- ---------- --- --- ------ ------ ---- -- ------<br>------- --- ------ ----- --- ---- ------- -- ---- --- --<br>------- ------,98617.59999999404,98616.79999999702,98187.225,98201.89999999106,98203.895,98620.669,,26,bonds'
screen,html.Screen,0_2_1_1_27,2021-11-05T14:17:10.442Z,,,,,,,,,,,,,,,,54,,,,,,,,,,,,,,444.13099999702536,,response,,,100,,,,,,Space,keypress(Space),,,,,-- --- ---- --- ------ ----- ------- ---- -- --- ------- --<br>------- ---------- ------ -- ----- -- ----- -- ---- ------<br>--- ----- --- --- ------ interest ----- --- ------ ----- --<br>----- ----- ---------- --- --- ------ ------ ---- -- ------<br>------- --- ------ ----- --- ---- ------- -- ---- --- --<br>------- ------,99065.59999999404,99064.79999999702,98603.999,98617.89999999106,98620.669,99070.781,,27,interest
screen,html.Screen,0_2_1_1_28,2021-11-05T14:17:10.922Z,,,,,,,,,,,,,,,,54,,,,,,,,,,,,,,474.1189999910566,,response,,,100,,,,,,Space,keypress(Space),,,,,-- --- ---- --- ------ ----- ------- ---- -- --- ------- --<br>------- ---------- ------ -- ----- -- ----- -- ---- ------<br>--- ----- --- --- ------ -------- rate. --- ------ ----- --<br>----- ----- ---------- --- --- ------ ------ ---- -- ------<br>------- --- ------ ----- --- ---- ------- -- ---- --- --<br>------- ------,99545.59999999404,99544.89999999106,99054.111,99065.89999999106,99070.781,99554.238,,28,rate.
screen,html.Screen,0_2_1_1_29,2021-11-05T14:17:12.010Z,,,,,,,,,,,,,,,,54,,,,,,,,,,,,,,1078.4620000029827,,response,,,100,,,,,,Space,keypress(Space),,,,,-- --- ---- --- ------ ----- ------- ---- -- --- ------- --<br>------- ---------- ------ -- ----- -- ----- -- ---- ------<br>--- ----- --- --- ------ -------- ----- The ------ ----- --<br>----- ----- ---------- --- --- ------ ------ ---- -- ------<br>------- --- ------ ----- --- ---- ------- -- ---- --- --<br>------- ------,100633.5,100632.70000000298,99537.568,99545.79999999702,99554.238,100637.817,,29,The
screen,html.Screen,0_2_1_1_30,2021-11-05T14:17:12.610Z,,,,,,,,,,,,,,,,54,,,,,,,,,,,,,,594.8830000029848,,response,,,100,,,,,,Space,keypress(Space),,,,,-- --- ---- --- ------ ----- ------- ---- -- --- ------- --<br>------- ---------- ------ -- ----- -- ----- -- ---- ------<br>--- ----- --- --- ------ -------- ----- --- market ----- --<br>----- ----- ---------- --- --- ------ ------ ---- -- ------<br>------- --- ------ ----- --- ---- ------- -- ---- --- --<br>------- ------,101233.5,101232.70000000298,100621.147,100633.79999999702,100637.817,101237.995,,30,market
screen,html.Screen,0_2_1_1_31,2021-11-05T14:17:13.562Z,,,,,,,,,,,,,,,,54,,,,,,,,,,,,,,946.7050000029849,,response,,,100,,,,,,Space,keypress(Space),,,,,-- --- ---- --- ------ ----- ------- ---- -- --- ------- --<br>------- ---------- ------ -- ----- -- ----- -- ---- ------<br>--- ----- --- --- ------ -------- ----- --- ------ value --<br>----- ----- ---------- --- --- ------ ------ ---- -- ------<br>------- --- ------ ----- --- ---- ------- -- ---- --- --<br>------- ------,102185.39999999106,102184.70000000298,101221.325,101233.79999999702,101237.995,102188.219,,31,value
screen,html.Screen,0_2_1_1_32,2021-11-05T14:17:13.977Z,,,,,,,,,,,,,,,,54,,,,,,,,,,,,,,412.3809999940422,,response,,,100,,,,,,Space,keypress(Space),,,,,-- --- ---- --- ------ ----- ------- ---- -- --- ------- --<br>------- ---------- ------ -- ----- -- ----- -- ---- ------<br>--- ----- --- --- ------ -------- ----- --- ------ ----- of<br>----- ----- ---------- --- --- ------ ------ ---- -- ------<br>------- --- ------ ----- --- ---- ------- -- ---- --- --<br>------- ------,102601.39999999106,102600.59999999404,102171.549,102185.70000000298,102188.219,102605.023,,32,of
screen,html.Screen,0_2_1_1_33,2021-11-05T14:17:14.385Z,,,,,,,,,,,,,,,,54,,,,,,,,,,,,,,403.5769999940385,,response,,,100,,,,,,Space,keypress(Space),,,,,-- --- ---- --- ------ ----- ------- ---- -- --- ------- --<br>------- ---------- ------ -- ----- -- ----- -- ---- ------<br>--- ----- --- --- ------ -------- ----- --- ------ ----- --<br>these ----- ---------- --- --- ------ ------ ---- -- ------<br>------- --- ------ ----- --- ---- ------- -- ---- --- --<br>------- ------,103009.39999999106,103008.59999999404,102588.353,102601.70000000298,102605.023,103021.799,,33,these
screen,html.Screen,0_2_1_1_34,2021-11-05T14:17:14.753Z,,,,,,,,,,,,,,,,54,,,,,,,,,,,,,,354.80099999404047,,response,,,100,,,,,,Space,keypress(Space),,,,,-- --- ---- --- ------ ----- ------- ---- -- --- ------- --<br>------- ---------- ------ -- ----- -- ----- -- ---- ------<br>--- ----- --- --- ------ -------- ----- --- ------ ----- --<br>----- bonds ---------- --- --- ------ ------ ---- -- ------<br>------- --- ------ ----- --- ---- ------- -- ---- --- --<br>------- ------,103377.39999999106,103376.59999999404,103005.129,103009.59999999404,103021.799,103388.596,,34,bonds
screen,html.Screen,0_2_1_1_35,2021-11-05T14:17:15.193Z,,,,,,,,,,,,,,,,54,,,,,,,,,,,,,,427.903999999995,,response,,,100,,,,,,Space,keypress(Space),,,,,"-- --- ---- --- ------ ----- ------- ---- -- --- ------- --<br>------- ---------- ------ -- ----- -- ----- -- ---- ------<br>--- ----- --- --- ------ -------- ----- --- ------ ----- --<br>----- ----- plummeted, --- --- ------ ------ ---- -- ------<br>------- --- ------ ----- --- ---- ------- -- ---- --- --<br>------- ------",103817.29999999702,103816.5,103371.925,103377.59999999404,103388.596,103821.999,,35,"plummeted,"
screen,html.Screen,0_2_1_1_36,2021-11-05T14:17:16.081Z,,,,,,,,,,,,,,,,54,,,,,,,,,,,,,,882.5010000000038,,response,,,100,,,,,,Space,keypress(Space),,,,,-- --- ---- --- ------ ----- ------- ---- -- --- ------- --<br>------- ---------- ------ -- ----- -- ----- -- ---- ------<br>--- ----- --- --- ------ -------- ----- --- ------ ----- --<br>----- ----- ---------- and --- ------ ------ ---- -- ------<br>------- --- ------ ----- --- ---- ------- -- ---- --- --<br>------- ------,104705.29999999702,104704.5,103805.329,103817.59999999404,103821.999,104722.197,,36,and
screen,html.Screen,0_2_1_1_37,2021-11-05T14:17:16.881Z,,,,,,,,,,,,,,,,54,,,,,,,,,,,,,,782.2029999910592,,response,,,100,,,,,,Space,keypress(Space),,,,,-- --- ---- --- ------ ----- ------- ---- -- --- ------- --<br>------- ---------- ------ -- ----- -- ----- -- ---- ------<br>--- ----- --- --- ------ -------- ----- --- ------ ----- --<br>----- ----- ---------- --- the ------ ------ ---- -- ------<br>------- --- ------ ----- --- ---- ------- -- ---- --- --<br>------- ------,105505.29999999702,105504.39999999106,104705.527,104705.59999999404,104722.197,105522.485,,37,the
screen,html.Screen,0_2_1_1_38,2021-11-05T14:17:17.281Z,,,,,,,,,,,,,,,,54,,,,,,,,,,,,,,382.0149999999994,,response,,,100,,,,,,Space,keypress(Space),,,,,-- --- ---- --- ------ ----- ------- ---- -- --- ------- --<br>------- ---------- ------ -- ----- -- ----- -- ---- ------<br>--- ----- --- --- ------ -------- ----- --- ------ ----- --<br>----- ----- ---------- --- --- market ------ ---- -- ------<br>------- --- ------ ----- --- ---- ------- -- ---- --- --<br>------- ------,105905.20000000298,105904.5,105505.814,105505.5,105522.485,105922.433,,38,market
screen,html.Screen,0_2_1_1_39,2021-11-05T14:17:17.761Z,,,,,,,,,,,,,,,,54,,,,,,,,,,,,,,461.96699999105476,,response,,,100,,,,,,Space,keypress(Space),,,,,-- --- ---- --- ------ ----- ------- ---- -- --- ------- --<br>------- ---------- ------ -- ----- -- ----- -- ---- ------<br>--- ----- --- --- ------ -------- ----- --- ------ ----- --<br>----- ----- ---------- --- --- ------ became ---- -- ------<br>------- --- ------ ----- --- ---- ------- -- ---- --- --<br>------- ------,106385.20000000298,106384.39999999106,105905.764,105905.39999999106,105922.433,106389.36,,39,became
screen,html.Screen,0_2_1_1_40,2021-11-05T14:17:18.258Z,,,,,,,,,,,,,,,,54,,,,,,,,,,,,,,491.5399999910587,,response,,,100,,,,,,Space,keypress(Space),,,,,-- --- ---- --- ------ ----- ------- ---- -- --- ------- --<br>------- ---------- ------ -- ----- -- ----- -- ---- ------<br>--- ----- --- --- ------ -------- ----- --- ------ ----- --<br>----- ----- ---------- --- --- ------ ------ wary -- ------<br>------- --- ------ ----- --- ---- ------- -- ---- --- --<br>------- ------,106881.59999999404,106880.89999999106,106372.689,106385.5,106389.36,106889.492,,40,wary
screen,html.Screen,0_2_1_1_41,2021-11-05T14:17:18.737Z,,,,,,,,,,,,,,,,54,,,,,,,,,,,,,,470.90799999106093,,response,,,100,,,,,,Space,keypress(Space),,,,,-- --- ---- --- ------ ----- ------- ---- -- --- ------- --<br>------- ---------- ------ -- ----- -- ----- -- ---- ------<br>--- ----- --- --- ------ -------- ----- --- ------ ----- --<br>----- ----- ---------- --- --- ------ ------ ---- of ------<br>------- --- ------ ----- --- ---- ------- -- ---- --- --<br>------- ------,107361.09999999404,107360.39999999106,106872.821,106881.89999999106,106889.492,107372.91,,41,of
screen,html.Screen,0_2_1_1_42,2021-11-05T14:17:19.241Z,,,,,,,,,,,,,,,,54,,,,,,,,,,,,,,491.4899999910558,,response,,,100,,,,,,Space,keypress(Space),,,,,-- --- ---- --- ------ ----- ------- ---- -- --- ------- --<br>------- ---------- ------ -- ----- -- ----- -- ---- ------<br>--- ----- --- --- ------ -------- ----- --- ------ ----- --<br>----- ----- ---------- --- --- ------ ------ ---- -- French<br>------- --- ------ ----- --- ---- ------- -- ---- --- --<br>------- ------,107865.09999999404,107864.39999999106,107356.24,107361.39999999106,107372.91,107873.084,,42,French
screen,html.Screen,0_2_1_1_43,2021-11-05T14:17:19.665Z,,,,,,,,,,,,,,,,54,,,,,,,,,,,,,,415.31599999105674,,response,,,100,,,,,,Space,keypress(Space),,,,,-- --- ---- --- ------ ----- ------- ---- -- --- ------- --<br>------- ---------- ------ -- ----- -- ----- -- ---- ------<br>--- ----- --- --- ------ -------- ----- --- ------ ----- --<br>----- ----- ---------- --- --- ------ ------ ---- -- ------<br>credit. --- ------ ----- --- ---- ------- -- ---- --- --<br>------- ------,108289.20000000298,108288.39999999106,107856.413,107865.39999999106,107873.084,108306.493,,43,credit.
screen,html.Screen,0_2_1_1_44,2021-11-05T14:17:20.209Z,,,,,,,,,,,,,,,,54,,,,,,,,,,,,,,525.8069999970176,,response,,,100,,,,,,Space,keypress(Space),,,,,-- --- ---- --- ------ ----- ------- ---- -- --- ------- --<br>------- ---------- ------ -- ----- -- ----- -- ---- ------<br>--- ----- --- --- ------ -------- ----- --- ------ ----- --<br>----- ----- ---------- --- --- ------ ------ ---- -- ------<br>------- The ------ ----- --- ---- ------- -- ---- --- --<br>------- ------,108833,108832.29999999702,108289.823,108289.39999999106,108306.493,108839.964,,44,The
screen,html.Screen,0_2_1_1_45,2021-11-05T14:17:20.641Z,,,,,,,,,,,,,,,,54,,,,,,,,,,,,,,424.33599999701255,,response,,,100,,,,,,Space,keypress(Space),,,,,-- --- ---- --- ------ ----- ------- ---- -- --- ------- --<br>------- ---------- ------ -- ----- -- ----- -- ---- ------<br>--- ----- --- --- ------ -------- ----- --- ------ ----- --<br>----- ----- ---------- --- --- ------ ------ ---- -- ------<br>------- --- French ----- --- ---- ------- -- ---- --- --<br>------- ------,109265.09999999404,109264.29999999702,108823.294,108833.29999999702,108839.964,109273.396,,45,French
screen,html.Screen,0_2_1_1_46,2021-11-05T14:17:21.153Z,,,,,,,,,,,,,,,,54,,,,,,,,,,,,,,502.80400000298687,,response,,,100,,,,,,Space,keypress(Space),,,,,-- --- ---- --- ------ ----- ------- ---- -- --- ------- --<br>------- ---------- ------ -- ----- -- ----- -- ---- ------<br>--- ----- --- --- ------ -------- ----- --- ------ ----- --<br>----- ----- ---------- --- --- ------ ------ ---- -- ------<br>------- --- ------ state --- ---- ------- -- ---- --- --<br>------- ------,109777.09999999404,109776.20000000298,109256.726,109265.29999999702,109273.396,109790.203,,46,state
screen,html.Screen,0_2_1_1_47,2021-11-05T14:17:21.569Z,,,,,,,,,,,,,,,,54,,,,,,,,,,,,,,401.99700000298617,,response,,,100,,,,,,Space,keypress(Space),,,,,-- --- ---- --- ------ ----- ------- ---- -- --- ------- --<br>------- ---------- ------ -- ----- -- ----- -- ---- ------<br>--- ----- --- --- ------ -------- ----- --- ------ ----- --<br>----- ----- ---------- --- --- ------ ------ ---- -- ------<br>------- --- ------ ----- was ---- ------- -- ---- --- --<br>------- ------,110193,110192.20000000298,109773.533,109777.20000000298,109790.203,110206.987,,47,was
screen,html.Screen,0_2_1_1_48,2021-11-05T14:17:22.169Z,,,,,,,,,,,,,,,,54,,,,,,,,,,,,,,585.2130000029865,,response,,,100,,,,,,Space,keypress(Space),,,,,-- --- ---- --- ------ ----- ------- ---- -- --- ------- --<br>------- ---------- ------ -- ----- -- ----- -- ---- ------<br>--- ----- --- --- ------ -------- ----- --- ------ ----- --<br>----- ----- ---------- --- --- ------ ------ ---- -- ------<br>------- --- ------ ----- --- left ------- -- ---- --- --<br>------- ------,110792.89999999106,110792.20000000298,110190.317,110193.29999999702,110206.987,110807.018,,48,left
screen,html.Screen,0_2_1_1_49,2021-11-05T14:17:22.609Z,,,,,,,,,,,,,,,,54,,,,,,,,,,,,,,425.18200000298384,,response,,,100,,,,,,Space,keypress(Space),,,,,-- --- ---- --- ------ ----- ------- ---- -- --- ------- --<br>------- ---------- ------ -- ----- -- ----- -- ---- ------<br>--- ----- --- --- ------ -------- ----- --- ------ ----- --<br>----- ----- ---------- --- --- ------ ------ ---- -- ------<br>------- --- ------ ----- --- ---- without -- ---- --- --<br>------- ------,111233,111232.20000000298,110790.349,110793.20000000298,110807.018,111240.685,,49,without
screen,html.Screen,0_2_1_1_50,2021-11-05T14:17:23.009Z,,,,,,,,,,,,,,,,54,,,,,,,,,,,,,,391.41499999404186,,response,,,100,,,,,,Space,keypress(Space),,,,,-- --- ---- --- ------ ----- ------- ---- -- --- ------- --<br>------- ---------- ------ -- ----- -- ----- -- ---- ------<br>--- ----- --- --- ------ -------- ----- --- ------ ----- --<br>----- ----- ---------- --- --- ------ ------ ---- -- ------<br>------- --- ------ ----- --- ---- ------- an ---- --- --<br>------- ------,111633,111632.09999999404,111224.013,111233.20000000298,111240.685,111640.693,,50,an
screen,html.Screen,0_2_1_1_51,2021-11-05T14:17:23.353Z,,,,,,,,,,,,,,,,54,,,,,,,,,,,,,,335.40699999404023,,response,,,100,,,,,,Space,keypress(Space),,,,,-- --- ---- --- ------ ----- ------- ---- -- --- ------- --<br>------- ---------- ------ -- ----- -- ----- -- ---- ------<br>--- ----- --- --- ------ -------- ----- --- ------ ----- --<br>----- ----- ---------- --- --- ------ ------ ---- -- ------<br>------- --- ------ ----- --- ---- ------- -- easy --- --<br>------- ------,111976.89999999106,111976.09999999404,111624.023,111633.20000000298,111640.693,111990.681,,51,easy
screen,html.Screen,0_2_1_1_52,2021-11-05T14:17:23.681Z,,,,,,,,,,,,,,,,54,,,,,,,,,,,,,,313.4189999940427,,response,,,100,,,,,,Space,keypress(Space),,,,,-- --- ---- --- ------ ----- ------- ---- -- --- ------- --<br>------- ---------- ------ -- ----- -- ----- -- ---- ------<br>--- ----- --- --- ------ -------- ----- --- ------ ----- --<br>----- ----- ---------- --- --- ------ ------ ---- -- ------<br>------- --- ------ ----- --- ---- ------- -- ---- way --<br>------- ------,112304.89999999106,112304.09999999404,111974.012,111977.09999999404,111990.681,112307.583,,52,way
screen,html.Screen,0_2_1_1_53,2021-11-05T14:17:24.121Z,,,,,,,,,,,,,,,,54,,,,,,,,,,,,,,436.5169999940408,,response,,,100,,,,,,Space,keypress(Space),,,,,-- --- ---- --- ------ ----- ------- ---- -- --- ------- --<br>------- ---------- ------ -- ----- -- ----- -- ---- ------<br>--- ----- --- --- ------ -------- ----- --- ------ ----- --<br>----- ----- ---------- --- --- ------ ------ ---- -- ------<br>------- --- ------ ----- --- ---- ------- -- ---- --- of<br>------- ------,112744.89999999106,112744.09999999404,112290.911,112305.09999999404,112307.583,112757.635,,53,of
screen,html.Screen,0_2_1_1_54,2021-11-05T14:17:24.577Z,,,,,,,,,,,,,,,,54,,,,,,,,,,,,,,442.4649999940448,,response,,,100,,,,,,Space,keypress(Space),,,,,-- --- ---- --- ------ ----- ------- ---- -- --- ------- --<br>------- ---------- ------ -- ----- -- ----- -- ---- ------<br>--- ----- --- --- ------ -------- ----- --- ------ ----- --<br>----- ----- ---------- --- --- ------ ------ ---- -- ------<br>------- --- ------ ----- --- ---- ------- -- ---- --- --<br>raising ------,113200.79999999702,113200.09999999404,112740.965,112745.20000000298,112757.635,113207.602,,54,raising
screen,html.Screen,0_2_1_1_55,2021-11-05T14:17:25.697Z,,,,,,,,,,,,,,,,54,,,,,,,,,,,,,,1112.398000000001,,response,,,100,,,,,,Space,keypress(Space),,,,,-- --- ---- --- ------ ----- ------- ---- -- --- ------- --<br>------- ---------- ------ -- ----- -- ----- -- ---- ------<br>--- ----- --- --- ------ -------- ----- --- ------ ----- --<br>----- ----- ---------- --- --- ------ ------ ---- -- ------<br>------- --- ------ ----- --- ---- ------- -- ---- --- --<br>------- money.,114320.79999999702,114320,113190.934,113201.09999999404,113207.602,114324.841,,55,money.
Item 100,flow.Loop,0_2_1_1,2021-11-05T14:17:25.697Z,,,,,,,,,,,,,,,,,,,,,,,,,,,,,,28719.558000000005,,completion,,,,B,,,,,,,,,,silence,,114321.29999999702,114320,85583.773,85584.89999999106,85600.442,114324.841,,,
Question 1,html.Screen,0_2_1_2,2021-11-05T14:17:28.330Z,,,,,,,,,,,,,,,,,,,,,,,,,,,true,TRUE,,2627.558999991059,,response,,,100,B,,,,,TRUE,click #choice-1,,,,silence,,116953.5,116952.39999999106,114308.169,114321.5,114324.841,116958.52,,,
Question 2,html.Screen,0_2_1_3,2021-11-05T14:17:30.970Z,,,,,,,,,,,,,,,,,,,,,,,,,,,true,FALSE,,2634.5799999940355,,response,,,100,B,,,,,FALSE,click #choice-2,,,,silence,,119594.20000000298,119593.09999999404,116941.855,116953.70000000298,116958.52,119609.746,,,
Item 100,flow.Sequence,0_2_1,2021-11-05T14:17:30.971Z,,,,,,,,,,,,,,,,,,,,,,,,,,,,,,43995.11199999404,,completion,,,,,,,,,,,,,,,,119594.59999999404,119593.09999999404,75581.318,75595.39999999106,75597.988,119609.746,,,
End of Practice,html.Page,0_2_2,2021-11-05T14:17:38.505Z,,,,,,,,,,,,,,,,,,,,,,,,,,,,,,7515.15399999106,,form submission,,,,,,,,,,,,,,,,127125.5,127124.89999999106,119593.068,119594.79999999702,119609.746,127127.996,,,
Practice,flow.Sequence,0_2,2021-11-05T14:17:38.505Z,,,,,,,,,,,,,,,,,,,,,,,,,,,,,,105740.93799999106,,completion,,,,,,,,,,,,,,,,127126,127124.89999999106,21367.292,21375.39999999106,21383.962,127127.996,,,
Trap_instruction,html.Page,0_3_0,2021-11-05T14:17:41.691Z,,,,,,,,,,,,,,,,,,,,,,,,,,,,,,3183.3039999970206,,form submission,,,,,,,,,,,,,,,,130311.70000000298,130311.29999999702,127111.325,127126.29999999702,127127.996,130345.268,,,
trap_trial,html.Screen,0_3_1,2021-11-05T14:17:45.336Z,,,,,,,,,,,,,,,,,,,,,,,,,,,true,1,,3609.831999994043,,response,,,,,,,,,1,click #choice-1,,,,,,133956.39999999106,133955.09999999404,130295.258,130312,130345.268,133962.853,,,
end of trap trial,html.Page,0_3_2,2021-11-05T14:17:47.932Z,,,,,,,,,,,,,,,,,,,,,,,,,,,,,,2589.446999997017,,form submission,,,,,,,,,,,,,,,,136552.89999999106,136552.29999999702,133946.183,133956.70000000298,133962.853,136563.637,,,
Trap 1,flow.Sequence,0_3,2021-11-05T14:17:47.933Z,,,,,,,,,,,,,,,,,,,,,,,,,,,,,,9424.30399999702,,completion,,,,,,,,,,,,,,,,136553.39999999106,136552.29999999702,127111.325,127126.20000000298,127127.996,136563.637,,,
Standby,html.Page,0_4_0,2021-11-05T14:17:55.930Z,,,,,,,,,,,,,,,,,,,,,,,,,,,,,,8002.270000000019,,timeout,,,,,,,,,,,,,,,,144550.39999999106,144549.236,136546.967,136553.70000000298,136563.637,144565.907,,,
Holding screen,html.Screen,0_4_1_0_0,2021-11-05T14:18:02.931Z,,,,,,,,,,,,,,,,,,,,,,,,,,,,,,7001.524000000005,,timeout,,,,,,,,,,,,,,,,151552,151550.762,144549.236,144550.79999999702,144565.907,151567.431,,,
screen,html.Screen,0_4_1_0_1_0,2021-11-05T14:18:03.835Z,,,,,,,,,,,,,,,,15,,,,,,,,,,,,,,886.9689999910479,,response,,,7,B,,,,,Space,keypress(Space),,,,lyrical,Greg --------- ---------- - --- ------- -- --- ------------<br>----- -- -------- ------- ---- ------ - -------- ---- -----<br>--- ------- ---- -- --- -------- --- - ----- ------ ---- --<br>-------- --- -------- -------- --- -------- ---- -- ----- -<br>-------- ---- --- ---------- --------- -- ------- ------ -<br>--------- ----- -----,152455.5,152454.39999999106,151550.762,151552.39999999106,151567.431,152467.873,,0,Greg
screen,html.Screen,0_4_1_0_1_1,2021-11-05T14:18:04.290Z,,,,,,,,,,,,,,,,15,,,,,,,,,,,,,,441.92699999702745,,response,,,7,B,,,,,Space,keypress(Space),,,,lyrical,"---- Anderson, ---------- - --- ------- -- --- ------------<br>----- -- -------- ------- ---- ------ - -------- ---- -----<br>--- ------- ---- -- --- -------- --- - ----- ------ ---- --<br>-------- --- -------- -------- --- -------- ---- -- ----- -<br>-------- ---- --- ---------- --------- -- ------- ------ -<br>--------- ----- -----",152910.59999999404,152909.79999999702,152451.202,152455.79999999702,152467.873,152918.003,,1,"Anderson,"
screen,html.Screen,0_4_1_0_1_2,2021-11-05T14:18:04.682Z,,,,,,,,,,,,,,,,15,,,,,,,,,,,,,,383.7969999970228,,response,,,7,B,,,,,Space,keypress(Space),,,,lyrical,---- --------- considered - --- ------- -- --- ------------<br>----- -- -------- ------- ---- ------ - -------- ---- -----<br>--- ------- ---- -- --- -------- --- - ----- ------ ---- --<br>-------- --- -------- -------- --- -------- ---- -- ----- -<br>-------- ---- --- ---------- --------- -- ------- ------ -<br>--------- ----- -----,153302.59999999404,153301.79999999702,152901.332,152910.79999999702,152918.003,153318.077,,2,considered
screen,html.Screen,0_4_1_0_1_3,2021-11-05T14:18:05.082Z,,,,,,,,,,,,,,,,15,,,,,,,,,,,,,,383.72299999702955,,response,,,7,B,,,,,Space,keypress(Space),,,,lyrical,---- --------- ---------- a --- ------- -- --- ------------<br>----- -- -------- ------- ---- ------ - -------- ---- -----<br>--- ------- ---- -- --- -------- --- - ----- ------ ---- --<br>-------- --- -------- -------- --- -------- ---- -- ----- -<br>-------- ---- --- ---------- --------- -- ------- ------ -<br>--------- ----- -----,153702.70000000298,153701.79999999702,153301.407,153302.79999999702,153318.077,153718.167,,3,a
screen,html.Screen,0_4_1_0_1_4,2021-11-05T14:18:05.482Z,,,,,,,,,,,,,,,,15,,,,,,,,,,,,,,383.63299999703304,,response,,,7,B,,,,,Space,keypress(Space),,,,lyrical,---- --------- ---------- - key ------- -- --- ------------<br>----- -- -------- ------- ---- ------ - -------- ---- -----<br>--- ------- ---- -- --- -------- --- - ----- ------ ---- --<br>-------- --- -------- -------- --- -------- ---- -- ----- -<br>-------- ---- --- ---------- --------- -- ------- ------ -<br>--------- ----- -----,154102.59999999404,154101.79999999702,153701.497,153703.09999999404,153718.167,154118.276,,4,key
screen,html.Screen,0_4_1_0_1_5,2021-11-05T14:18:05.986Z,,,,,,,,,,,,,,,,15,,,,,,,,,,,,,,487.5239999970072,,response,,,7,B,,,,,Space,keypress(Space),,,,lyrical,---- --------- ---------- - --- witness -- --- ------------<br>----- -- -------- ------- ---- ------ - -------- ---- -----<br>--- ------- ---- -- --- -------- --- - ----- ------ ---- --<br>-------- --- -------- -------- --- -------- ---- -- ----- -<br>-------- ---- --- ---------- --------- -- ------- ------ -<br>--------- ----- -----,154606.59999999404,154605.79999999702,154101.606,154102.79999999702,154118.276,154618.456,,5,witness
screen,html.Screen,0_4_1_0_1_6,2021-11-05T14:18:06.378Z,,,,,,,,,,,,,,,,15,,,,,,,,,,,,,,379.3439999970142,,response,,,7,B,,,,,Space,keypress(Space),,,,lyrical,---- --------- ---------- - --- ------- by --- ------------<br>----- -- -------- ------- ---- ------ - -------- ---- -----<br>--- ------- ---- -- --- -------- --- - ----- ------ ---- --<br>-------- --- -------- -------- --- -------- ---- -- ----- -<br>-------- ---- --- ---------- --------- -- ------- ------ -<br>--------- ----- -----,154998.59999999404,154997.79999999702,154601.785,154606.79999999702,154618.456,155001.889,,6,by
screen,html.Screen,0_4_1_0_1_7,2021-11-05T14:18:06.802Z,,,,,,,,,,,,,,,,15,,,,,,,,,,,,,,419.81100000298466,,response,,,7,B,,,,,Space,keypress(Space),,,,lyrical,---- --------- ---------- - --- ------- -- the ------------<br>----- -- -------- ------- ---- ------ - -------- ---- -----<br>--- ------- ---- -- --- -------- --- - ----- ------ ---- --<br>-------- --- -------- -------- --- -------- ---- -- ----- -<br>-------- ---- --- ---------- --------- -- ------- ------ -<br>--------- ----- -----,155422.59999999404,155421.70000000298,154985.218,154998.89999999106,155001.889,155435.231,,7,the
screen,html.Screen,0_4_1_0_1_8,2021-11-05T14:18:07.306Z,,,,,,,,,,,,,,,,15,,,,,,,,,,,,,,490.46900000298047,,response,,,7,B,,,,,Space,keypress(Space),,,,lyrical,"---- --------- ---------- - --- ------- -- --- prosecution,<br>----- -- -------- ------- ---- ------ - -------- ---- -----<br>--- ------- ---- -- --- -------- --- - ----- ------ ---- --<br>-------- --- -------- -------- --- -------- ---- -- ----- -<br>-------- ---- --- ---------- --------- -- ------- ------ -<br>--------- ----- -----",155926.5,155925.70000000298,155418.562,155422.79999999702,155435.231,155935.33,,8,"prosecution,"
screen,html.Screen,0_4_1_0_1_9,2021-11-05T14:18:07.946Z,,,,,,,,,,,,,,,,15,,,,,,,,,,,,,,630.2699999940523,,response,,,7,B,,,,,Space,keypress(Space),,,,lyrical,---- --------- ---------- - --- ------- -- --- ------------<br>vowed -- -------- ------- ---- ------ - -------- ---- -----<br>--- ------- ---- -- --- -------- --- - ----- ------ ---- --<br>-------- --- -------- -------- --- -------- ---- -- ----- -<br>-------- ---- --- ---------- --------- -- ------- ------ -<br>--------- ----- -----,156566.39999999106,156565.59999999404,155918.661,155926.70000000298,155935.33,156568.924,,9,vowed
screen,html.Screen,0_4_1_0_1_10,2021-11-05T14:18:08.314Z,,,,,,,,,,,,,,,,15,,,,,,,,,,,,,,364.67599999404047,,response,,,7,B,,,,,Space,keypress(Space),,,,lyrical,---- --------- ---------- - --- ------- -- --- ------------<br>----- he -------- ------- ---- ------ - -------- ---- -----<br>--- ------- ---- -- --- -------- --- - ----- ------ ---- --<br>-------- --- -------- -------- --- -------- ---- -- ----- -<br>-------- ---- --- ---------- --------- -- ------- ------ -<br>--------- ----- -----,156934.5,156933.59999999404,156552.253,156566.70000000298,156568.924,156935.717,,10,he
screen,html.Screen,0_4_1_0_1_11,2021-11-05T14:18:08.722Z,,,,,,,,,,,,,,,,15,,,,,,,,,,,,,,405.88299999403534,,response,,,7,B,,,,,Space,keypress(Space),,,,lyrical,---- --------- ---------- - --- ------- -- --- ------------<br>----- -- wouldn't ------- ---- ------ - -------- ---- -----<br>--- ------- ---- -- --- -------- --- - ----- ------ ---- --<br>-------- --- -------- -------- --- -------- ---- -- ----- -<br>-------- ---- --- ---------- --------- -- ------- ------ -<br>--------- ----- -----,157342.39999999106,157341.59999999404,156919.046,156934.59999999404,156935.717,157352.453,,11,wouldn't
screen,html.Screen,0_4_1_0_1_12,2021-11-05T14:18:09.194Z,,,,,,,,,,,,,,,,15,,,,,,,,,,,,,,461.1469999940309,,response,,,7,B,,,,,Space,keypress(Space),,,,lyrical,---- --------- ---------- - --- ------- -- --- ------------<br>----- -- -------- testify ---- ------ - -------- ---- -----<br>--- ------- ---- -- --- -------- --- - ----- ------ ---- --<br>-------- --- -------- -------- --- -------- ---- -- ----- -<br>-------- ---- --- ---------- --------- -- ------- ------ -<br>--------- ----- -----,157814.39999999106,157813.59999999404,157335.783,157342.70000000298,157352.453,157819.075,,12,testify
screen,html.Screen,0_4_1_0_1_13,2021-11-05T14:18:09.762Z,,,,,,,,,,,,,,,,15,,,,,,,,,,,,,,562.5249999940279,,response,,,7,B,,,,,Space,keypress(Space),,,,lyrical,---- --------- ---------- - --- ------- -- --- ------------<br>----- -- -------- ------- when ------ - -------- ---- -----<br>--- ------- ---- -- --- -------- --- - ----- ------ ---- --<br>-------- --- -------- -------- --- -------- ---- -- ----- -<br>-------- ---- --- ---------- --------- -- ------- ------ -<br>--------- ----- -----,158382.39999999106,158381.59999999404,157802.407,157814.70000000298,157819.075,158386.152,,13,when
screen,html.Screen,0_4_1_0_1_14,2021-11-05T14:18:10.162Z,,,,,,,,,,,,,,,,15,,,,,,,,,,,,,,395.34799999999814,,response,,,7,B,,,,,Space,keypress(Space),,,,lyrical,---- --------- ---------- - --- ------- -- --- ------------<br>----- -- -------- ------- ---- served - -------- ---- -----<br>--- ------- ---- -- --- -------- --- - ----- ------ ---- --<br>-------- --- -------- -------- --- -------- ---- -- ----- -<br>-------- ---- --- ---------- --------- -- ------- ------ -<br>--------- ----- -----,158782.29999999702,158781.5,158369.48,158382.59999999404,158386.152,158786.154,,14,served
screen,html.Screen,0_4_1_0_1_15,2021-11-05T14:18:10.602Z,,,,,,,,,,,,,,,,15,,,,,,,,,,,,,,435.34599999999045,,response,,,7,B,,,,,Space,keypress(Space),,,,lyrical,---- --------- ---------- - --- ------- -- --- ------------<br>----- -- -------- ------- ---- ------ a -------- ---- -----<br>--- ------- ---- -- --- -------- --- - ----- ------ ---- --<br>-------- --- -------- -------- --- -------- ---- -- ----- -<br>-------- ---- --- ---------- --------- -- ------- ------ -<br>--------- ----- -----,159222.29999999702,159221.5,158769.484,158782.59999999404,158786.154,159236.158,,15,a
screen,html.Screen,0_4_1_0_1_16,2021-11-05T14:18:11.226Z,,,,,,,,,,,,,,,,15,,,,,,,,,,,,,,609.3420000000042,,response,,,7,B,,,,,Space,keypress(Space),,,,lyrical,---- --------- ---------- - --- ------- -- --- ------------<br>----- -- -------- ------- ---- ------ - subpoena ---- -----<br>--- ------- ---- -- --- -------- --- - ----- ------ ---- --<br>-------- --- -------- -------- --- -------- ---- -- ----- -<br>-------- ---- --- ---------- --------- -- ------- ------ -<br>--------- ----- -----,159846.20000000298,159845.5,159219.489,159222.59999999404,159236.158,159853.178,,16,subpoena
screen,html.Screen,0_4_1_0_1_17,2021-11-05T14:18:11.786Z,,,,,,,,,,,,,,,,15,,,,,,,,,,,,,,552.3219999999856,,response,,,7,B,,,,,Space,keypress(Space),,,,lyrical,---- --------- ---------- - --- ------- -- --- ------------<br>----- -- -------- ------- ---- ------ - -------- last -----<br>--- ------- ---- -- --- -------- --- - ----- ------ ---- --<br>-------- --- -------- -------- --- -------- ---- -- ----- -<br>-------- ---- --- ---------- --------- -- ------- ------ -<br>--------- ----- -----,160406.29999999702,160405.5,159836.506,159846.59999999404,159853.178,160419.886,,17,last
screen,html.Screen,0_4_1_0_1_18,2021-11-05T14:18:12.209Z,,,,,,,,,,,,,,,,15,,,,,,,,,,,,,,409.41399999702116,,response,,,7,B,,,,,Space,keypress(Space),,,,lyrical,---- --------- ---------- - --- ------- -- --- ------------<br>----- -- -------- ------- ---- ------ - -------- ---- week.<br>--- ------- ---- -- --- -------- --- - ----- ------ ---- --<br>-------- --- -------- -------- --- -------- ---- -- ----- -<br>-------- ---- --- ---------- --------- -- ------- ------ -<br>--------- ----- -----,160830.20000000298,160829.29999999702,160403.216,160406.5,160419.886,160836.671,,18,week.
screen,html.Screen,0_4_1_0_1_19,2021-11-05T14:18:12.641Z,,,,,,,,,,,,,,,,15,,,,,,,,,,,,,,424.7289999910572,,response,,,7,B,,,,,Space,keypress(Space),,,,lyrical,---- --------- ---------- - --- ------- -- --- ------------<br>----- -- -------- ------- ---- ------ - -------- ---- -----<br>His ------- ---- -- --- -------- --- - ----- ------ ---- --<br>-------- --- -------- -------- --- -------- ---- -- ----- -<br>-------- ---- --- ---------- --------- -- ------- ------ -<br>--------- ----- -----,161262.20000000298,161261.39999999106,160820.001,160830.39999999106,160836.671,161270.122,,19,His
screen,html.Screen,0_4_1_0_1_20,2021-11-05T14:18:13.049Z,,,,,,,,,,,,,,,,15,,,,,,,,,,,,,,399.17799999701674,,response,,,7,B,,,,,Space,keypress(Space),,,,lyrical,---- --------- ---------- - --- ------- -- --- ------------<br>----- -- -------- ------- ---- ------ - -------- ---- -----<br>--- lawyers ---- -- --- -------- --- - ----- ------ ---- --<br>-------- --- -------- -------- --- -------- ---- -- ----- -<br>-------- ---- --- ---------- --------- -- ------- ------ -<br>--------- ----- -----,161670.20000000298,161669.29999999702,161253.452,161262.5,161270.122,161686.9,,20,lawyers
screen,html.Screen,0_4_1_0_1_21,2021-11-05T14:18:13.441Z,,,,,,,,,,,,,,,,15,,,,,,,,,,,,,,374.3999999970256,,response,,,7,B,,,,,Space,keypress(Space),,,,lyrical,---- --------- ---------- - --- ------- -- --- ------------<br>----- -- -------- ------- ---- ------ - -------- ---- -----<br>--- ------- said -- --- -------- --- - ----- ------ ---- --<br>-------- --- -------- -------- --- -------- ---- -- ----- -<br>-------- ---- --- ---------- --------- -- ------- ------ -<br>--------- ----- -----,162062.09999999404,162061.29999999702,161670.23,161670.5,161686.9,162070.322,,21,said
screen,html.Screen,0_4_1_0_1_22,2021-11-05T14:18:13.890Z,,,,,,,,,,,,,,,,15,,,,,,,,,,,,,,439.37800000299467,,response,,,7,B,,,,,Space,keypress(Space),,,,lyrical,---- --------- ---------- - --- ------- -- --- ------------<br>----- -- -------- ------- ---- ------ - -------- ---- -----<br>--- ------- ---- he --- -------- --- - ----- ------ ---- --<br>-------- --- -------- -------- --- -------- ---- -- ----- -<br>-------- ---- --- ---------- --------- -- ------- ------ -<br>--------- ----- -----,162510.5,162509.70000000298,162053.652,162062.39999999106,162070.322,162520.485,,22,he
screen,html.Screen,0_4_1_0_1_23,2021-11-05T14:18:14.313Z,,,,,,,,,,,,,,,,15,,,,,,,,,,,,,,412.7150000029942,,response,,,7,B,,,,,Space,keypress(Space),,,,lyrical,---- --------- ---------- - --- ------- -- --- ------------<br>----- -- -------- ------- ---- ------ - -------- ---- -----<br>--- ------- ---- -- was -------- --- - ----- ------ ---- --<br>-------- --- -------- -------- --- -------- ---- -- ----- -<br>-------- ---- --- ---------- --------- -- ------- ------ -<br>--------- ----- -----,162934.09999999404,162933.20000000298,162503.814,162510.79999999702,162520.485,162937.063,,23,was
screen,html.Screen,0_4_1_0_1_24,2021-11-05T14:18:14.753Z,,,,,,,,,,,,,,,,15,,,,,,,,,,,,,,436.1370000029856,,response,,,7,B,,,,,Space,keypress(Space),,,,lyrical,---- --------- ---------- - --- ------- -- --- ------------<br>----- -- -------- ------- ---- ------ - -------- ---- -----<br>--- ------- ---- -- --- prepared --- - ----- ------ ---- --<br>-------- --- -------- -------- --- -------- ---- -- ----- -<br>-------- ---- --- ---------- --------- -- ------- ------ -<br>--------- ----- -----,163374.09999999404,163373.20000000298,162920.395,162934.29999999702,162937.063,163387.415,,24,prepared
screen,html.Screen,0_4_1_0_1_25,2021-11-05T14:18:15.217Z,,,,,,,,,,,,,,,,15,,,,,,,,,,,,,,449.8849999970116,,response,,,7,B,,,,,Space,keypress(Space),,,,lyrical,---- --------- ---------- - --- ------- -- --- ------------<br>----- -- -------- ------- ---- ------ - -------- ---- -----<br>--- ------- ---- -- --- -------- for - ----- ------ ---- --<br>-------- --- -------- -------- --- -------- ---- -- ----- -<br>-------- ---- --- ---------- --------- -- ------- ------ -<br>--------- ----- -----,163838.09999999404,163837.29999999702,163370.743,163374.29999999702,163387.415,163854.079,,25,for
screen,html.Screen,0_4_1_0_1_26,2021-11-05T14:18:15.689Z,,,,,,,,,,,,,,,,15,,,,,,,,,,,,,,455.02099999404163,,response,,,7,B,,,,,Space,keypress(Space),,,,lyrical,---- --------- ---------- - --- ------- -- --- ------------<br>----- -- -------- ------- ---- ------ - -------- ---- -----<br>--- ------- ---- -- --- -------- --- a ----- ------ ---- --<br>-------- --- -------- -------- --- -------- ---- -- ----- -<br>-------- ---- --- ---------- --------- -- ------- ------ -<br>--------- ----- -----,164310.09999999404,164309.09999999404,163837.409,163838.29999999702,163854.079,164320.997,,26,a
screen,html.Screen,0_4_1_0_1_27,2021-11-05T14:18:16.177Z,,,,,,,,,,,,,,,,15,,,,,,,,,,,,,,476.30299999701674,,response,,,7,B,,,,,Space,keypress(Space),,,,lyrical,---- --------- ---------- - --- ------- -- --- ------------<br>----- -- -------- ------- ---- ------ - -------- ---- -----<br>--- ------- ---- -- --- -------- --- - third ------ ---- --<br>-------- --- -------- -------- --- -------- ---- -- ----- -<br>-------- ---- --- ---------- --------- -- ------- ------ -<br>--------- ----- -----,164798,164797.29999999702,164304.325,164310.5,164320.997,164804.354,,27,third
screen,html.Screen,0_4_1_0_1_28,2021-11-05T14:18:16.569Z,,,,,,,,,,,,,,,,15,,,,,,,,,,,,,,384.74599999404745,,response,,,7,B,,,,,Space,keypress(Space),,,,lyrical,---- --------- ---------- - --- ------- -- --- ------------<br>----- -- -------- ------- ---- ------ - -------- ---- -----<br>--- ------- ---- -- --- -------- --- - ----- prison ---- --<br>-------- --- -------- -------- --- -------- ---- -- ----- -<br>-------- ---- --- ---------- --------- -- ------- ------ -<br>--------- ----- -----,165190,165189.09999999404,164787.684,164798.29999999702,164804.354,165204.348,,28,prison
screen,html.Screen,0_4_1_0_1_29,2021-11-05T14:18:17.121Z,,,,,,,,,,,,,,,,15,,,,,,,,,,,,,,536.7519999940414,,response,,,7,B,,,,,Space,keypress(Space),,,,lyrical,---- --------- ---------- - --- ------- -- --- ------------<br>----- -- -------- ------- ---- ------ - -------- ---- -----<br>--- ------- ---- -- --- -------- --- - ----- ------ stay --<br>-------- --- -------- -------- --- -------- ---- -- ----- -<br>-------- ---- --- ---------- --------- -- ------- ------ -<br>--------- ----- -----,165742,165741.09999999404,165187.679,165190.09999999404,165204.348,165754.556,,29,stay
screen,html.Screen,0_4_1_0_1_30,2021-11-05T14:18:17.593Z,,,,,,,,,,,,,,,,15,,,,,,,,,,,,,,458.6440000029688,,response,,,7,B,,,,,Space,keypress(Space),,,,lyrical,---- --------- ---------- - --- ------- -- --- ------------<br>----- -- -------- ------- ---- ------ - -------- ---- -----<br>--- ------- ---- -- --- -------- --- - ----- ------ ---- to<br>-------- --- -------- -------- --- -------- ---- -- ----- -<br>-------- ---- --- ---------- --------- -- ------- ------ -<br>--------- ----- -----,166213.89999999106,166213.20000000298,165737.886,165742.20000000298,165754.556,166221.518,,30,to
screen,html.Screen,0_4_1_0_1_31,2021-11-05T14:18:18.129Z,,,,,,,,,,,,,,,,15,,,,,,,,,,,,,,527.4819999999891,,response,,,7,B,,,,,Space,keypress(Space),,,,lyrical,---- --------- ---------- - --- ------- -- --- ------------<br>----- -- -------- ------- ---- ------ - -------- ---- -----<br>--- ------- ---- -- --- -------- --- - ----- ------ ---- --<br>maintain --- -------- -------- --- -------- ---- -- ----- -<br>-------- ---- --- ---------- --------- -- ------- ------ -<br>--------- ----- -----,166749.79999999702,166749,166204.846,166214.20000000298,166221.518,166754.848,,31,maintain
screen,html.Screen,0_4_1_0_1_32,2021-11-05T14:18:18.577Z,,,,,,,,,,,,,,,,15,,,,,,,,,,,,,,442.15200000000186,,response,,,7,B,,,,,Space,keypress(Space),,,,lyrical,---- --------- ---------- - --- ------- -- --- ------------<br>----- -- -------- ------- ---- ------ - -------- ---- -----<br>--- ------- ---- -- --- -------- --- - ----- ------ ---- --<br>-------- his -------- -------- --- -------- ---- -- ----- -<br>-------- ---- --- ---------- --------- -- ------- ------ -<br>--------- ----- -----,167198,167197,166738.178,166750.09999999404,166754.848,167204.978,,32,his
screen,html.Screen,0_4_1_0_1_33,2021-11-05T14:18:19.025Z,,,,,,,,,,,,,,,,15,,,,,,,,,,,,,,440.0219999999972,,response,,,7,B,,,,,Space,keypress(Space),,,,lyrical,---- --------- ---------- - --- ------- -- --- ------------<br>----- -- -------- ------- ---- ------ - -------- ---- -----<br>--- ------- ---- -- --- -------- --- - ----- ------ ---- --<br>-------- --- silence. -------- --- -------- ---- -- ----- -<br>-------- ---- --- ---------- --------- -- ------- ------ -<br>--------- ----- -----,167645.89999999106,167645,167188.308,167198.20000000298,167204.978,167654.986,,33,silence.
screen,html.Screen,0_4_1_0_1_34,2021-11-05T14:18:19.569Z,,,,,,,,,,,,,,,,15,,,,,,,,,,,,,,533.9139999910549,,response,,,7,B,,,,,Space,keypress(Space),,,,lyrical,---- --------- ---------- - --- ------- -- --- ------------<br>----- -- -------- ------- ---- ------ - -------- ---- -----<br>--- ------- ---- -- --- -------- --- - ----- ------ ---- --<br>-------- --- -------- Anderson --- -------- ---- -- ----- -<br>-------- ---- --- ---------- --------- -- ------- ------ -<br>--------- ----- -----,168189.70000000298,168188.89999999106,167638.317,167646.09999999404,167654.986,168205.265,,34,Anderson
screen,html.Screen,0_4_1_0_1_35,2021-11-05T14:18:19.993Z,,,,,,,,,,,,,,,,15,,,,,,,,,,,,,,407.73499999998603,,response,,,7,B,,,,,Space,keypress(Space),,,,lyrical,---- --------- ---------- - --- ------- -- --- ------------<br>----- -- -------- ------- ---- ------ - -------- ---- -----<br>--- ------- ---- -- --- -------- --- - ----- ------ ---- --<br>-------- --- -------- -------- was -------- ---- -- ----- -<br>-------- ---- --- ---------- --------- -- ------- ------ -<br>--------- ----- -----,168613.79999999702,168613,168188.594,168189.89999999106,168205.265,168622.054,,35,was
screen,html.Screen,0_4_1_0_1_36,2021-11-05T14:18:20.449Z,,,,,,,,,,,,,,,,15,,,,,,,,,,,,,,446.8459999910556,,response,,,7,B,,,,,Space,keypress(Space),,,,lyrical,---- --------- ---------- - --- ------- -- --- ------------<br>----- -- -------- ------- ---- ------ - -------- ---- -----<br>--- ------- ---- -- --- -------- --- - ----- ------ ---- --<br>-------- --- -------- -------- --- released ---- -- ----- -<br>-------- ---- --- ---------- --------- -- ------- ------ -<br>--------- ----- -----,169069.70000000298,169068.89999999106,168605.383,168614,168622.054,169072.114,,36,released
screen,html.Screen,0_4_1_0_1_37,2021-11-05T14:18:20.865Z,,,,,,,,,,,,,,,,15,,,,,,,,,,,,,,412.7859999910579,,response,,,7,B,,,,,Space,keypress(Space),,,,lyrical,---- --------- ---------- - --- ------- -- --- ------------<br>----- -- -------- ------- ---- ------ - -------- ---- -----<br>--- ------- ---- -- --- -------- --- - ----- ------ ---- --<br>-------- --- -------- -------- --- -------- July -- ----- -<br>-------- ---- --- ---------- --------- -- ------- ------ -<br>--------- ----- -----,169485.70000000298,169484.89999999106,169055.444,169069.89999999106,169072.114,169488.811,,37,July
screen,html.Screen,0_4_1_0_1_38,2021-11-05T14:18:21.689Z,,,,,,,,,,,,,,,,15,,,,,,,,,,,,,,819.9889999970328,,response,,,7,B,,,,,Space,keypress(Space),,,,lyrical,---- --------- ---------- - --- ------- -- --- ------------<br>----- -- -------- ------- ---- ------ - -------- ---- -----<br>--- ------- ---- -- --- -------- --- - ----- ------ ---- --<br>-------- --- -------- -------- --- -------- ---- 20 ----- -<br>-------- ---- --- ---------- --------- -- ------- ------ -<br>--------- ----- -----,170309.59999999404,170308.79999999702,169472.142,169485.89999999106,169488.811,170322.549,,38,20
screen,html.Screen,0_4_1_0_1_39,2021-11-05T14:18:22.225Z,,,,,,,,,,,,,,,,15,,,,,,,,,,,,,,522.3509999910602,,response,,,7,B,,,,,Space,keypress(Space),,,,lyrical,---- --------- ---------- - --- ------- -- --- ------------<br>----- -- -------- ------- ---- ------ - -------- ---- -----<br>--- ------- ---- -- --- -------- --- - ----- ------ ---- --<br>-------- --- -------- -------- --- -------- ---- -- after -<br>-------- ---- --- ---------- --------- -- ------- ------ -<br>--------- ----- -----,170845.70000000298,170844.89999999106,170305.877,170309.89999999106,170322.549,170855.81,,39,after
screen,html.Screen,0_4_1_0_1_40,2021-11-05T14:18:22.585Z,,,,,,,,,,,,,,,,15,,,,,,,,,,,,,,348.9899999970221,,response,,,7,B,,,,,Space,keypress(Space),,,,lyrical,---- --------- ---------- - --- ------- -- --- ------------<br>----- -- -------- ------- ---- ------ - -------- ---- -----<br>--- ------- ---- -- --- -------- --- - ----- ------ ---- --<br>-------- --- -------- -------- --- -------- ---- -- ----- a<br>-------- ---- --- ---------- --------- -- ------- ------ -<br>--------- ----- -----,171205.59999999404,171204.79999999702,170839.141,170845.89999999106,170855.81,171222.709,,40,a
screen,html.Screen,0_4_1_0_1_41,2021-11-05T14:18:23.017Z,,,,,,,,,,,,,,,,15,,,,,,,,,,,,,,414.19099999105674,,response,,,7,B,,,,,Space,keypress(Space),,,,lyrical,---- --------- ---------- - --- ------- -- --- ------------<br>----- -- -------- ------- ---- ------ - -------- ---- -----<br>--- ------- ---- -- --- -------- --- - ----- ------ ---- --<br>-------- --- -------- -------- --- -------- ---- -- ----- -<br>two-week ---- --- ---------- --------- -- ------- ------ -<br>--------- ----- -----,171637.70000000298,171636.89999999106,171206.038,171205.89999999106,171222.709,171639.491,,41,two-week
screen,html.Screen,0_4_1_0_1_42,2021-11-05T14:18:23.473Z,,,,,,,,,,,,,,,,15,,,,,,,,,,,,,,453.20900000297115,,response,,,7,B,,,,,Space,keypress(Space),,,,lyrical,---- --------- ---------- - --- ------- -- --- ------------<br>----- -- -------- ------- ---- ------ - -------- ---- -----<br>--- ------- ---- -- --- -------- --- - ----- ------ ---- --<br>-------- --- -------- -------- --- -------- ---- -- ----- -<br>-------- stay --- ---------- --------- -- ------- ------ -<br>--------- ----- -----,172093.5,172092.70000000298,171622.82,171637.89999999106,171639.491,172106.231,,42,stay
screen,html.Screen,0_4_1_0_1_43,2021-11-05T14:18:23.857Z,,,,,,,,,,,,,,,,15,,,,,,,,,,,,,,370.56899999702,,response,,,7,B,,,,,Space,keypress(Space),,,,lyrical,---- --------- ---------- - --- ------- -- --- ------------<br>----- -- -------- ------- ---- ------ - -------- ---- -----<br>--- ------- ---- -- --- -------- --- - ----- ------ ---- --<br>-------- --- -------- -------- --- -------- ---- -- ----- -<br>-------- ---- for ---------- --------- -- ------- ------ -<br>--------- ----- -----,172477.59999999404,172476.79999999702,172089.561,172093.79999999702,172106.231,172489.678,,43,for
screen,html.Screen,0_4_1_0_1_44,2021-11-05T14:18:24.337Z,,,,,,,,,,,,,,,,15,,,,,,,,,,,,,,467.62199999700533,,response,,,7,B,,,,,Space,keypress(Space),,,,lyrical,---- --------- ---------- - --- ------- -- --- ------------<br>----- -- -------- ------- ---- ------ - -------- ---- -----<br>--- ------- ---- -- --- -------- --- - ----- ------ ---- --<br>-------- --- -------- -------- --- -------- ---- -- ----- -<br>-------- ---- --- previously --------- -- ------- ------ -<br>--------- ----- -----,172958.20000000298,172957.29999999702,172473.008,172477.89999999106,172489.678,172973.172,,44,previously
screen,html.Screen,0_4_1_0_1_45,2021-11-05T14:18:24.865Z,,,,,,,,,,,,,,,,15,,,,,,,,,,,,,,511.52800000298885,,response,,,7,B,,,,,Space,keypress(Space),,,,lyrical,---- --------- ---------- - --- ------- -- --- ------------<br>----- -- -------- ------- ---- ------ - -------- ---- -----<br>--- ------- ---- -- --- -------- --- - ----- ------ ---- --<br>-------- --- -------- -------- --- -------- ---- -- ----- -<br>-------- ---- --- ---------- declining -- ------- ------ -<br>--------- ----- -----,173485.5,173484.70000000298,172956.501,172958.39999999106,172973.172,173489.904,,45,declining
screen,html.Screen,0_4_1_0_1_46,2021-11-05T14:18:25.281Z,,,,,,,,,,,,,,,,15,,,,,,,,,,,,,,410.7960000029707,,response,,,7,B,,,,,Space,keypress(Space),,,,lyrical,---- --------- ---------- - --- ------- -- --- ------------<br>----- -- -------- ------- ---- ------ - -------- ---- -----<br>--- ------- ---- -- --- -------- --- - ----- ------ ---- --<br>-------- --- -------- -------- --- -------- ---- -- ----- -<br>-------- ---- --- ---------- --------- to ------- ------ -<br>--------- ----- -----,173901.59999999404,173900.70000000298,173473.234,173485.79999999702,173489.904,173906.759,,46,to
screen,html.Screen,0_4_1_0_1_47,2021-11-05T14:18:25.737Z,,,,,,,,,,,,,,,,15,,,,,,,,,,,,,,449.9410000029893,,response,,,7,B,,,,,Space,keypress(Space),,,,lyrical,---- --------- ---------- - --- ------- -- --- ------------<br>----- -- -------- ------- ---- ------ - -------- ---- -----<br>--- ------- ---- -- --- -------- --- - ----- ------ ---- --<br>-------- --- -------- -------- --- -------- ---- -- ----- -<br>-------- ---- --- ---------- --------- -- testify ------ -<br>--------- ----- -----,174357.5,174356.70000000298,173890.088,173901.79999999702,173906.759,174373.47,,47,testify
screen,html.Screen,0_4_1_0_1_48,2021-11-05T14:18:26.153Z,,,,,,,,,,,,,,,,15,,,,,,,,,,,,,,399.23000000297907,,response,,,7,B,,,,,Space,keypress(Space),,,,lyrical,---- --------- ---------- - --- ------- -- --- ------------<br>----- -- -------- ------- ---- ------ - -------- ---- -----<br>--- ------- ---- -- --- -------- --- - ----- ------ ---- --<br>-------- --- -------- -------- --- -------- ---- -- ----- -<br>-------- ---- --- ---------- --------- -- ------- before -<br>--------- ----- -----,174773.39999999106,174772.70000000298,174356.8,174357.70000000298,174373.47,174790.193,,48,before
screen,html.Screen,0_4_1_0_1_49,2021-11-05T14:18:26.617Z,,,,,,,,,,,,,,,,15,,,,,,,,,,,,,,446.50700000298093,,response,,,7,B,,,,,Space,keypress(Space),,,,lyrical,---- --------- ---------- - --- ------- -- --- ------------<br>----- -- -------- ------- ---- ------ - -------- ---- -----<br>--- ------- ---- -- --- -------- --- - ----- ------ ---- --<br>-------- --- -------- -------- --- -------- ---- -- ----- -<br>-------- ---- --- ---------- --------- -- ------- ------ a<br>--------- ----- -----,175237.5,175236.70000000298,174773.524,174773.70000000298,174790.193,175240.414,,49,a
screen,html.Screen,0_4_1_0_1_50,2021-11-05T14:18:27.129Z,,,,,,,,,,,,,,,,15,,,,,,,,,,,,,,508.08600000001024,,response,,,7,B,,,,,Space,keypress(Space),,,,lyrical,---- --------- ---------- - --- ------- -- --- ------------<br>----- -- -------- ------- ---- ------ - -------- ---- -----<br>--- ------- ---- -- --- -------- --- - ----- ------ ---- --<br>-------- --- -------- -------- --- -------- ---- -- ----- -<br>-------- ---- --- ---------- --------- -- ------- ------ -<br>different ----- -----,175749.29999999702,175748.5,175223.743,175237.70000000298,175240.414,175757.052,,50,different
screen,html.Screen,0_4_1_0_1_51,2021-11-05T14:18:27.673Z,,,,,,,,,,,,,,,,15,,,,,,,,,,,,,,535.5479999940435,,response,,,7,B,,,,,Space,keypress(Space),,,,lyrical,---- --------- ---------- - --- ------- -- --- ------------<br>----- -- -------- ------- ---- ------ - -------- ---- -----<br>--- ------- ---- -- --- -------- --- - ----- ------ ---- --<br>-------- --- -------- -------- --- -------- ---- -- ----- -<br>-------- ---- --- ---------- --------- -- ------- ------ -<br>--------- grand -----,176293.29999999702,176292.59999999404,175740.383,175749.5,175757.052,176307.438,,51,grand
screen,html.Screen,0_4_1_0_1_52,2021-11-05T14:18:28.281Z,,,,,,,,,,,,,,,,15,,,,,,,,,,,,,,593.0620000000054,,response,,,7,B,,,,,Space,keypress(Space),,,,lyrical,---- --------- ---------- - --- ------- -- --- ------------<br>----- -- -------- ------- ---- ------ - -------- ---- -----<br>--- ------- ---- -- --- -------- --- - ----- ------ ---- --<br>-------- --- -------- -------- --- -------- ---- -- ----- -<br>-------- ---- --- ---------- --------- -- ------- ------ -<br>--------- ----- jury.,176901.29999999702,176900.5,176290.766,176293.59999999404,176307.438,176907.47,,52,jury.
Item 7,flow.Loop,0_4_1_0_1,2021-11-05T14:18:28.281Z,,,,,,,,,,,,,,,,,,,,,,,,,,,,,,25333.06899999999,,completion,,,,,,,,,,,,,,,,176901.70000000298,176900.5,151550.762,151552.29999999702,151567.431,176907.47,,,
