sender,sender_type,sender_id,timestamp,meta,,Blues,Classical,Country,Dance,Electronic,Folk,Gospel,Hip-Hop,Jazz,Latin,Musical/Film,New-age,Pop,Provo_ID,R&B,Rap,Reggae,Religious,Rock,Soul,Swing,Traditional,age,artist_name,correct,correctResponse,distraction,duration,education,ended_on,familiarity,gender,item,list,music_frequency,offensiveness,pleasantness,preference,response,response_action,snippet_file,song_name,song_rating,sound,text,time_commit,time_end,time_render,time_run,time_show,time_switch,url,word,word_ID
Instructions,html.Page,0_0,2021-11-04T13:14:38.386Z,"{""labjs_version"":""20.2.3"",""labjs_build"":{""flavor"":""production"",""commit"":""7ea907d66ca8aeef8054924ca5d82ffbe11e34e5""},""location"":""https://run.pavlovia.org/mvasilev/lab_music_e/"",""userAgent"":""Mozilla/5.0 (Windows NT 6.1; Win64; x64) AppleWebKit/537.36 (KHTML, like Gecko) Chrome/95.0.4638.69 Safari/537.36"",""platform"":""Win32"",""language"":""en-US"",""locale"":""en-US"",""timeZone"":""Europe/London"",""timezoneOffset"":0,""screen_width"":1920,""screen_height"":1080,""scroll_width"":1920,""scroll_height"":959,""window_innerWidth"":1920,""window_innerHeight"":1007,""devicePixelRatio"":1}",,,,,,,,,,,,,,,,,,,,,,,,,,,,,31131.10099999702,,form submission,,,,,,,,,,,,,,,,40517.199999999255,40516.29999999702,9368.528,9374,9385.199,40521.686,{},,
Headphones,html.Page,0_1,2021-11-04T13:14:41.263Z,,,,,,,,,,,,,,,,,,,,,,,,,,,,,,2871.4139999977633,,form submission,,,,,,,,,,,,,,,,43393.599999997765,43393.099999997765,40505.06,40517.699999999255,40521.686,43393.863,,,
Holding screen,html.Screen,0_2_0_0,2021-11-04T13:14:51.255Z,,,,,,,,,,,,,,,,,,,,,,,,,,,,,,10003.112000000001,,timeout,,,,,,,,,,,,,,,,53386.39999999851,53380.305,43377.204,43394.199999999255,43393.863,53396.975,,,
screen,html.Screen,0_2_0_1_0,2021-11-04T13:14:53.286Z,,,,,,,,,,,,,,,,53,,,,,,,,,,,,,,2018.8249999970212,,response,,,99,,,,,,Space,keypress(Space),,,,,When -- ----- -- ------ - ------- --- ----------<br>------------- ------ ------ ---- ---- ------- ----- -- ----<br>-------- ------- -- ---------- --- - --- ----- ----- ----<br>---- --- --- ----- --- ---- ---- ------- ----- ---- -------<br>--- --- -- ----- -- --- ---- -- --- ---- -- ------ ------<br>--- ----- -- ----,55417.29999999702,55415.79999999702,53380.305,53386.699999999255,53396.975,55431.031,,0,When
screen,html.Screen,0_2_0_1_1,2021-11-04T13:14:53.869Z,,,,,,,,,,,,,,,,53,,,,,,,,,,,,,,568.3689999985072,,response,,,99,,,,,,Space,keypress(Space),,,,,---- it ----- -- ------ - ------- --- ----------<br>------------- ------ ------ ---- ---- ------- ----- -- ----<br>-------- ------- -- ---------- --- - --- ----- ----- ----<br>---- --- --- ----- --- ---- ---- ------- ----- ---- -------<br>--- --- -- ----- -- --- ---- -- --- ---- -- ------ ------<br>--- ----- -- ----,56000.199999999255,55999.39999999851,55414.36,55417.699999999255,55431.031,56014.391,,1,it
screen,html.Screen,0_2_0_1_2,2021-11-04T13:14:54.405Z,,,,,,,,,,,,,,,,53,,,,,,,,,,,,,,521.0089999985066,,response,,,99,,,,,,Space,keypress(Space),,,,,---- -- comes -- ------ - ------- --- ----------<br>------------- ------ ------ ---- ---- ------- ----- -- ----<br>-------- ------- -- ---------- --- - --- ----- ----- ----<br>---- --- --- ----- --- ---- ---- ------- ----- ---- -------<br>--- --- -- ----- -- --- ---- -- --- ---- -- ------ ------<br>--- ----- -- ----,56536.199999999255,56535.39999999851,55997.721,56000.5,56014.391,56547.965,,2,comes
screen,html.Screen,0_2_0_1_3,2021-11-04T13:14:55.317Z,,,,,,,,,,,,,,,,53,,,,,,,,,,,,,,899.4349999985134,,response,,,99,,,,,,Space,keypress(Space),,,,,---- -- ----- to ------ - ------- --- ----------<br>------------- ------ ------ ---- ---- ------- ----- -- ----<br>-------- ------- -- ---------- --- - --- ----- ----- ----<br>---- --- --- ----- --- ---- ---- ------- ----- ---- -------<br>--- --- -- ----- -- --- ---- -- --- ---- -- ------ ------<br>--- ----- -- ----,57448.29999999702,57447.39999999851,56531.294,56536.5,56547.965,57464.872,,3,to
screen,html.Screen,0_2_0_1_4,2021-11-04T13:14:56.245Z,,,,,,,,,,,,,,,,53,,,,,,,,,,,,,,910.4279999970167,,response,,,99,,,,,,Space,keypress(Space),,,,,---- -- ----- -- having - ------- --- ----------<br>------------- ------ ------ ---- ---- ------- ----- -- ----<br>-------- ------- -- ---------- --- - --- ----- ----- ----<br>---- --- --- ----- --- ---- ---- ------- ----- ---- -------<br>--- --- -- ----- -- --- ---- -- --- ---- -- ------ ------<br>--- ----- -- ----,58376.39999999851,58375.29999999702,57448.201,57448.79999999702,57464.872,58381.788,,4,having
screen,html.Screen,0_2_0_1_5,2021-11-04T13:14:56.997Z,,,,,,,,,,,,,,,,53,,,,,,,,,,,,,,745.5119999970193,,response,,,99,,,,,,Space,keypress(Space),,,,,---- -- ----- -- ------ a ------- --- ----------<br>------------- ------ ------ ---- ---- ------- ----- -- ----<br>-------- ------- -- ---------- --- - --- ----- ----- ----<br>---- --- --- ----- --- ---- ---- ------- ----- ---- -------<br>--- --- -- ----- -- --- ---- -- --- ---- -- ------ ------<br>--- ----- -- ----,59128.099999997765,59127.29999999702,58365.117,58376.699999999255,58381.788,59131.923,,5,a
screen,html.Screen,0_2_0_1_6,2021-11-04T13:14:57.653Z,,,,,,,,,,,,,,,,53,,,,,,,,,,,,,,651.2769999992524,,response,,,99,,,,,,Space,keypress(Space),,,,,---- -- ----- -- ------ - lasting --- ----------<br>------------- ------ ------ ---- ---- ------- ----- -- ----<br>-------- ------- -- ---------- --- - --- ----- ----- ----<br>---- --- --- ----- --- ---- ---- ------- ----- ---- -------<br>--- --- -- ----- -- --- ---- -- --- ---- -- ------ ------<br>--- ----- -- ----,59784.099999997765,59783.199999999255,59115.253,59128.699999999255,59131.923,59798.839,,6,lasting
screen,html.Screen,0_2_0_1_7,2021-11-04T13:14:59.640Z,,,,,,,,,,,,,,,,53,,,,,,,,,,,,,,1968.2609999977649,,response,,,99,,,,,,Space,keypress(Space),,,,,---- -- ----- -- ------ - ------- and ----------<br>------------- ------ ------ ---- ---- ------- ----- -- ----<br>-------- ------- -- ---------- --- - --- ----- ----- ----<br>---- --- --- ----- --- ---- ---- ------- ----- ---- -------<br>--- --- -- ----- -- --- ---- -- --- ---- -- ------ ------<br>--- ----- -- ----,61768.099999997765,61767.099999997765,59782.168,59784.5,59798.839,61782.557,,7,and
screen,html.Screen,0_2_0_1_8,2021-11-04T13:15:01.768Z,,,,,,,,,,,,,,,,53,,,,,,,,,,,,,,2112.4429999999993,,response,,,99,,,,,,Space,keypress(Space),,,,,---- -- ----- -- ------ - ------- --- fulfilling<br>------------- ------ ------ ---- ---- ------- ----- -- ----<br>-------- ------- -- ---------- --- - --- ----- ----- ----<br>---- --- --- ----- --- ---- ---- ------- ----- ---- -------<br>--- --- -- ----- -- --- ---- -- --- ---- -- ------ ------<br>--- ----- -- ----,63896.29999999702,63895,61765.887,61768.29999999702,61782.557,63899.907,,8,fulfilling
screen,html.Screen,0_2_0_1_9,2021-11-04T13:15:02.952Z,,,,,,,,,,,,,,,,53,,,,,,,,,,,,,,1179.0930000000008,,response,,,99,,,,,,Space,keypress(Space),,,,,"---- -- ----- -- ------ - ------- --- ----------<br>relationship, ------ ------ ---- ---- ------- ----- -- ----<br>-------- ------- -- ---------- --- - --- ----- ----- ----<br>---- --- --- ----- --- ---- ---- ------- ----- ---- -------<br>--- --- -- ----- -- --- ---- -- --- ---- -- ------ ------<br>--- ----- -- ----",65079.89999999851,65079,63883.236,63896.599999997765,63899.907,65083.366,,9,"relationship,"
screen,html.Screen,0_2_0_1_10,2021-11-04T13:15:03.688Z,,,,,,,,,,,,,,,,53,,,,,,,,,,,,,,731.933999997018,,response,,,99,,,,,,Space,keypress(Space),,,,,---- -- ----- -- ------ - ------- --- ----------<br>------------- common ------ ---- ---- ------- ----- -- ----<br>-------- ------- -- ---------- --- - --- ----- ----- ----<br>---- --- --- ----- --- ---- ---- ------- ----- ---- -------<br>--- --- -- ----- -- --- ---- -- --- ---- -- ------ ------<br>--- ----- -- ----,65816.19999999925,65815.29999999702,65066.696,65080.199999999255,65083.366,65833.732,,10,common
screen,html.Screen,0_2_0_1_11,2021-11-04T13:15:04.296Z,,,,,,,,,,,,,,,,53,,,,,,,,,,,,,,589.0679999970162,,response,,,99,,,,,,Space,keypress(Space),,,,,---- -- ----- -- ------ - ------- --- ----------<br>------------- ------ wisdom ---- ---- ------- ----- -- ----<br>-------- ------- -- ---------- --- - --- ----- ----- ----<br>---- --- --- ----- --- ---- ---- ------- ----- ---- -------<br>--- --- -- ----- -- --- ---- -- --- ---- -- ------ ------<br>--- ----- -- ----,66423.69999999925,66422.79999999702,65817.061,65816.39999999851,65833.732,66433.991,,11,wisdom
screen,html.Screen,0_2_0_1_12,2021-11-04T13:15:09.648Z,,,,,,,,,,,,,,,,53,,,,,,,,,,,,,,5340.70899999926,,response,,,99,,,,,,Space,keypress(Space),,,,,---- -- ----- -- ------ - ------- --- ----------<br>------------- ------ ------ says ---- ------- ----- -- ----<br>-------- ------- -- ---------- --- - --- ----- ----- ----<br>---- --- --- ----- --- ---- ---- ------- ----- ---- -------<br>--- --- -- ----- -- --- ---- -- --- ---- -- ------ ------<br>--- ----- -- ----,71775.59999999776,71774.69999999925,66417.32,66423.79999999702,66433.991,71785.354,,12,says
screen,html.Screen,0_2_0_1_13,2021-11-04T13:15:10.207Z,,,,,,,,,,,,,,,,53,,,,,,,,,,,,,,549.1459999999934,,response,,,99,,,,,,Space,keypress(Space),,,,,---- -- ----- -- ------ - ------- --- ----------<br>------------- ------ ------ ---- that ------- ----- -- ----<br>-------- ------- -- ---------- --- - --- ----- ----- ----<br>---- --- --- ----- --- ---- ---- ------- ----- ---- -------<br>--- --- -- ----- -- --- ---- -- --- ---- -- ------ ------<br>--- ----- -- ----,72335,72334.5,71768.683,71775.89999999851,71785.354,72352.056,,13,that
screen,html.Screen,0_2_0_1_14,2021-11-04T13:15:10.847Z,,,,,,,,,,,,,,,,53,,,,,,,,,,,,,,622.543999997768,,response,,,99,,,,,,Space,keypress(Space),,,,,---- -- ----- -- ------ - ------- --- ----------<br>------------- ------ ------ ---- ---- feeling ----- -- ----<br>-------- ------- -- ---------- --- - --- ----- ----- ----<br>---- --- --- ----- --- ---- ---- ------- ----- ---- -------<br>--- --- -- ----- -- --- ---- -- --- ---- -- ------ ------<br>--- ----- -- ----,72975.5,72974.59999999776,72335.386,72335.19999999925,72352.056,72985.613,,14,feeling
screen,html.Screen,0_2_0_1_15,2021-11-04T13:15:11.343Z,,,,,,,,,,,,,,,,53,,,,,,,,,,,,,,484.88700000000244,,response,,,99,,,,,,Space,keypress(Space),,,,,---- -- ----- -- ------ - ------- --- ----------<br>------------- ------ ------ ---- ---- ------- close -- ----<br>-------- ------- -- ---------- --- - --- ----- ----- ----<br>---- --- --- ----- --- ---- ---- ------- ----- ---- -------<br>--- --- -- ----- -- --- ---- -- --- ---- -- ------ ------<br>--- ----- -- ----,73471.5,73470.5,72968.943,72975.69999999925,72985.613,73485.987,,15,close
screen,html.Screen,0_2_0_1_16,2021-11-04T13:15:12.071Z,,,,,,,,,,,,,,,,53,,,,,,,,,,,,,,712.5130000000063,,response,,,99,,,,,,Space,keypress(Space),,,,,---- -- ----- -- ------ - ------- --- ----------<br>------------- ------ ------ ---- ---- ------- ----- to ----<br>-------- ------- -- ---------- --- - --- ----- ----- ----<br>---- --- --- ----- --- ---- ---- ------- ----- ---- -------<br>--- --- -- ----- -- --- ---- -- --- ---- -- ------ ------<br>--- ----- -- ----,74199.29999999702,74198.5,73469.314,73471.79999999702,73485.987,74202.65,,16,to
screen,html.Screen,0_2_0_1_17,2021-11-04T13:15:12.495Z,,,,,,,,,,,,,,,,53,,,,,,,,,,,,,,419.8500000000058,,response,,,99,,,,,,Space,keypress(Space),,,,,---- -- ----- -- ------ - ------- --- ----------<br>------------- ------ ------ ---- ---- ------- ----- -- your<br>-------- ------- -- ---------- --- - --- ----- ----- ----<br>---- --- --- ----- --- ---- ---- ------- ----- ---- -------<br>--- --- -- ----- -- --- ---- -- --- ---- -- ------ ------<br>--- ----- -- ----,74623.19999999925,74622.5,74185.98,74199.5,74202.65,74635.977,,17,your
screen,html.Screen,0_2_0_1_18,2021-11-04T13:15:12.951Z,,,,,,,,,,,,,,,,53,,,,,,,,,,,,,,442.42299999851093,,response,,,99,,,,,,Space,keypress(Space),,,,,---- -- ----- -- ------ - ------- --- ----------<br>------------- ------ ------ ---- ---- ------- ----- -- ----<br>romantic ------- -- ---------- --- - --- ----- ----- ----<br>---- --- --- ----- --- ---- ---- ------- ----- ---- -------<br>--- --- -- ----- -- --- ---- -- --- ---- -- ------ ------<br>--- ----- -- ----,75078.89999999851,75078.39999999851,74619.308,74623.39999999851,74635.977,75086.339,,18,romantic
screen,html.Screen,0_2_0_1_19,2021-11-04T13:15:13.383Z,,,,,,,,,,,,,,,,53,,,,,,,,,,,,,,424.06099999850267,,response,,,99,,,,,,Space,keypress(Space),,,,,---- -- ----- -- ------ - ------- --- ----------<br>------------- ------ ------ ---- ---- ------- ----- -- ----<br>-------- partner -- ---------- --- - --- ----- ----- ----<br>---- --- --- ----- --- ---- ---- ------- ----- ---- -------<br>--- --- -- ----- -- --- ---- -- --- ---- -- ------ ------<br>--- ----- -- ----,75511.09999999776,75510.39999999851,75069.667,75079,75086.339,75519.738,,19,partner
screen,html.Screen,0_2_0_1_20,2021-11-04T13:15:13.744Z,,,,,,,,,,,,,,,,53,,,,,,,,,,,,,,351.0619999970222,,response,,,99,,,,,,Space,keypress(Space),,,,,---- -- ----- -- ------ - ------- --- ----------<br>------------- ------ ------ ---- ---- ------- ----- -- ----<br>-------- ------- is ---------- --- - --- ----- ----- ----<br>---- --- --- ----- --- ---- ---- ------- ----- ---- -------<br>--- --- -- ----- -- --- ---- -- --- ---- -- ------ ------<br>--- ----- -- ----,75871.69999999925,75870.79999999702,75503.067,75511.29999999702,75519.738,75886.464,,20,is
screen,html.Screen,0_2_0_1_21,2021-11-04T13:15:14.599Z,,,,,,,,,,,,,,,,53,,,,,,,,,,,,,,839.9359999985027,,response,,,99,,,,,,Space,keypress(Space),,,,,---- -- ----- -- ------ - ------- --- ----------<br>------------- ------ ------ ---- ---- ------- ----- -- ----<br>-------- ------- -- paramount. --- - --- ----- ----- ----<br>---- --- --- ----- --- ---- ---- ------- ----- ---- -------<br>--- --- -- ----- -- --- ---- -- --- ---- -- ------ ------<br>--- ----- -- ----,76727.29999999702,76726.39999999851,75869.794,75872.09999999776,75886.464,76736.722,,21,paramount.
screen,html.Screen,0_2_0_1_22,2021-11-04T13:15:15.031Z,,,,,,,,,,,,,,,,53,,,,,,,,,,,,,,421.6779999985156,,response,,,99,,,,,,Space,keypress(Space),,,,,---- -- ----- -- ------ - ------- --- ----------<br>------------- ------ ------ ---- ---- ------- ----- -- ----<br>-------- ------- -- ---------- But - --- ----- ----- ----<br>---- --- --- ----- --- ---- ---- ------- ----- ---- -------<br>--- --- -- ----- -- --- ---- -- --- ---- -- ------ ------<br>--- ----- -- ----,77159.39999999851,77158.39999999851,76720.051,76727.89999999851,76736.722,77169.948,,22,But
screen,html.Screen,0_2_0_1_23,2021-11-04T13:15:15.399Z,,,,,,,,,,,,,,,,53,,,,,,,,,,,,,,356.4519999985059,,response,,,99,,,,,,Space,keypress(Space),,,,,---- -- ----- -- ------ - ------- --- ----------<br>------------- ------ ------ ---- ---- ------- ----- -- ----<br>-------- ------- -- ---------- --- a --- ----- ----- ----<br>---- --- --- ----- --- ---- ---- ------- ----- ---- -------<br>--- --- -- ----- -- --- ---- -- --- ---- -- ------ ------<br>--- ----- -- ----,77527.29999999702,77526.39999999851,77153.28,77159.69999999925,77169.948,77536.848,,23,a
screen,html.Screen,0_2_0_1_24,2021-11-04T13:15:15.775Z,,,,,,,,,,,,,,,,53,,,,,,,,,,,,,,365.55199999851175,,response,,,99,,,,,,Space,keypress(Space),,,,,---- -- ----- -- ------ - ------- --- ----------<br>------------- ------ ------ ---- ---- ------- ----- -- ----<br>-------- ------- -- ---------- --- - new ----- ----- ----<br>---- --- --- ----- --- ---- ---- ------- ----- ---- -------<br>--- --- -- ----- -- --- ---- -- --- ---- -- ------ ------<br>--- ----- -- ----,77903.29999999702,77902.39999999851,77520.178,77527.5,77536.848,77920.34,,24,new
screen,html.Screen,0_2_0_1_25,2021-11-04T13:15:16.191Z,,,,,,,,,,,,,,,,53,,,,,,,,,,,,,,397.7599999977683,,response,,,99,,,,,,Space,keypress(Space),,,,,---- -- ----- -- ------ - ------- --- ----------<br>------------- ------ ------ ---- ---- ------- ----- -- ----<br>-------- ------- -- ---------- --- - --- study ----- ----<br>---- --- --- ----- --- ---- ---- ------- ----- ---- -------<br>--- --- -- ----- -- --- ---- -- --- ---- -- ------ ------<br>--- ----- -- ----,78318.69999999925,78318.09999999776,77903.669,77903.39999999851,77920.34,78320.521,,25,study
screen,html.Screen,0_2_0_1_26,2021-11-04T13:15:16.559Z,,,,,,,,,,,,,,,,53,,,,,,,,,,,,,,365.8789999985165,,response,,,99,,,,,,Space,keypress(Space),,,,,---- -- ----- -- ------ - ------- --- ----------<br>------------- ------ ------ ---- ---- ------- ----- -- ----<br>-------- ------- -- ---------- --- - --- ----- finds ----<br>---- --- --- ----- --- ---- ---- ------- ----- ---- -------<br>--- --- -- ----- -- --- ---- -- --- ---- -- ------ ------<br>--- ----- -- ----,78687.19999999925,78686.39999999851,78303.848,78318.89999999851,78320.521,78703.875,,26,finds
screen,html.Screen,0_2_0_1_27,2021-11-04T13:15:16.935Z,,,,,,,,,,,,,,,,53,,,,,,,,,,,,,,358.5249999985099,,response,,,99,,,,,,Space,keypress(Space),,,,,---- -- ----- -- ------ - ------- --- ----------<br>------------- ------ ------ ---- ---- ------- ----- -- ----<br>-------- ------- -- ---------- --- - --- ----- ----- that<br>---- --- --- ----- --- ---- ---- ------- ----- ---- -------<br>--- --- -- ----- -- --- ---- -- --- ---- -- ------ ------<br>--- ----- -- ----,79063.19999999925,79062.39999999851,78687.205,78687.59999999776,78703.875,79070.703,,27,that
screen,html.Screen,0_2_0_1_28,2021-11-04T13:15:17.335Z,,,,,,,,,,,,,,,,53,,,,,,,,,,,,,,391.5969999970257,,response,,,99,,,,,,Space,keypress(Space),,,,,---- -- ----- -- ------ - ------- --- ----------<br>------------- ------ ------ ---- ---- ------- ----- -- ----<br>-------- ------- -- ---------- --- - --- ----- ----- ----<br>it's --- --- ----- --- ---- ---- ------- ----- ---- -------<br>--- --- -- ----- -- --- ---- -- --- ---- -- ------ ------<br>--- ----- -- ----,79463,79462.29999999702,79054.032,79063.39999999851,79070.703,79470.796,,28,it's
screen,html.Screen,0_2_0_1_29,2021-11-04T13:15:17.711Z,,,,,,,,,,,,,,,,53,,,,,,,,,,,,,,367.30399999776273,,response,,,99,,,,,,Space,keypress(Space),,,,,---- -- ----- -- ------ - ------- --- ----------<br>------------- ------ ------ ---- ---- ------- ----- -- ----<br>-------- ------- -- ---------- --- - --- ----- ----- ----<br>---- not --- ----- --- ---- ---- ------- ----- ---- -------<br>--- --- -- ----- -- --- ---- -- --- ---- -- ------ ------<br>--- ----- -- ----,79838.89999999851,79838.09999999776,79454.125,79463.29999999702,79470.796,79854.244,,29,not
screen,html.Screen,0_2_0_1_30,2021-11-04T13:15:18.063Z,,,,,,,,,,,,,,,,53,,,,,,,,,,,,,,336.0559999970137,,response,,,99,,,,,,Space,keypress(Space),,,,,---- -- ----- -- ------ - ------- --- ----------<br>------------- ------ ------ ---- ---- ------- ----- -- ----<br>-------- ------- -- ---------- --- - --- ----- ----- ----<br>---- --- how ----- --- ---- ---- ------- ----- ---- -------<br>--- --- -- ----- -- --- ---- -- --- ---- -- ------ ------<br>--- ----- -- ----,80191.09999999776,80190.29999999702,79837.573,79839.09999999776,79854.244,80204.287,,30,how
screen,html.Screen,0_2_0_1_31,2021-11-04T13:15:18.431Z,,,,,,,,,,,,,,,,53,,,,,,,,,,,,,,354.01299999702314,,response,,,99,,,,,,Space,keypress(Space),,,,,---- -- ----- -- ------ - ------- --- ----------<br>------------- ------ ------ ---- ---- ------- ----- -- ----<br>-------- ------- -- ---------- --- - --- ----- ----- ----<br>---- --- --- close --- ---- ---- ------- ----- ---- -------<br>--- --- -- ----- -- --- ---- -- --- ---- -- ------ ------<br>--- ----- -- ----,80559.09999999776,80558.29999999702,80187.617,80191.39999999851,80204.287,80571.036,,31,close
screen,html.Screen,0_2_0_1_32,2021-11-04T13:15:18.775Z,,,,,,,,,,,,,,,,53,,,,,,,,,,,,,,331.263999997027,,response,,,99,,,,,,Space,keypress(Space),,,,,---- -- ----- -- ------ - ------- --- ----------<br>------------- ------ ------ ---- ---- ------- ----- -- ----<br>-------- ------- -- ---------- --- - --- ----- ----- ----<br>---- --- --- ----- you ---- ---- ------- ----- ---- -------<br>--- --- -- ----- -- --- ---- -- --- ---- -- ------ ------<br>--- ----- -- ----,80903.09999999776,80902.29999999702,80554.366,80559.29999999702,80571.036,80904.539,,32,you
screen,html.Screen,0_2_0_1_33,2021-11-04T13:15:19.127Z,,,,,,,,,,,,,,,,53,,,,,,,,,,,,,,349.66099999925063,,response,,,99,,,,,,Space,keypress(Space),,,,,---- -- ----- -- ------ - ------- --- ----------<br>------------- ------ ------ ---- ---- ------- ----- -- ----<br>-------- ------- -- ---------- --- - --- ----- ----- ----<br>---- --- --- ----- --- feel ---- ------- ----- ---- -------<br>--- --- -- ----- -- --- ---- -- --- ---- -- ------ ------<br>--- ----- -- ----,81255.09999999776,81254.19999999925,80887.868,80903.39999999851,80904.539,81271.241,,33,feel
screen,html.Screen,0_2_0_1_34,2021-11-04T13:15:19.450Z,,,,,,,,,,,,,,,,53,,,,,,,,,,,,,,302.8589999977703,,response,,,99,,,,,,Space,keypress(Space),,,,,---- -- ----- -- ------ - ------- --- ----------<br>------------- ------ ------ ---- ---- ------- ----- -- ----<br>-------- ------- -- ---------- --- - --- ----- ----- ----<br>---- --- --- ----- --- ---- that ------- ----- ---- -------<br>--- --- -- ----- -- --- ---- -- --- ---- -- ------ ------<br>--- ----- -- ----,81578.29999999702,81574.09999999776,81254.571,81255.39999999851,81271.241,81587.864,,34,that
screen,html.Screen,0_2_0_1_35,2021-11-04T13:15:19.799Z,,,,,,,,,,,,,,,,53,,,,,,,,,,,,,,338.33599999925354,,response,,,99,,,,,,Space,keypress(Space),,,,,---- -- ----- -- ------ - ------- --- ----------<br>------------- ------ ------ ---- ---- ------- ----- -- ----<br>-------- ------- -- ---------- --- - --- ----- ----- ----<br>---- --- --- ----- --- ---- ---- matters ----- ---- -------<br>--- --- -- ----- -- --- ---- -- --- ---- -- ------ ------<br>--- ----- -- ----,81927.19999999925,81926.19999999925,81571.196,81578.59999999776,81587.864,81938.171,,35,matters
screen,html.Screen,0_2_0_1_36,2021-11-04T13:15:20.143Z,,,,,,,,,,,,,,,,53,,,,,,,,,,,,,,331.92899999776273,,response,,,99,,,,,,Space,keypress(Space),,,,,"---- -- ----- -- ------ - ------- --- ----------<br>------------- ------ ------ ---- ---- ------- ----- -- ----<br>-------- ------- -- ---------- --- - --- ----- ----- ----<br>---- --- --- ----- --- ---- ---- ------- most, ---- -------<br>--- --- -- ----- -- --- ---- -- --- ---- -- ------ ------<br>--- ----- -- ----",82270.89999999851,82270.09999999776,81921.498,81927.5,81938.171,82288.047,,36,"most,"
screen,html.Screen,0_2_0_1_37,2021-11-04T13:15:20.511Z,,,,,,,,,,,,,,,,53,,,,,,,,,,,,,,350.152999999249,,response,,,99,,,,,,Space,keypress(Space),,,,,---- -- ----- -- ------ - ------- --- ----------<br>------------- ------ ------ ---- ---- ------- ----- -- ----<br>-------- ------- -- ---------- --- - --- ----- ----- ----<br>---- --- --- ----- --- ---- ---- ------- ----- it's -------<br>--- --- -- ----- -- --- ---- -- --- ---- -- ------ ------<br>--- ----- -- ----,82639,82638.19999999925,82271.379,82271.19999999925,82288.047,82655.026,,37,it's
screen,html.Screen,0_2_0_1_38,2021-11-04T13:15:20.879Z,,,,,,,,,,,,,,,,53,,,,,,,,,,,,,,351.1739999992569,,response,,,99,,,,,,Space,keypress(Space),,,,,---- -- ----- -- ------ - ------- --- ----------<br>------------- ------ ------ ---- ---- ------- ----- -- ----<br>-------- ------- -- ---------- --- - --- ----- ----- ----<br>---- --- --- ----- --- ---- ---- ------- ----- ---- whether<br>--- --- -- ----- -- --- ---- -- --- ---- -- ------ ------<br>--- ----- -- ----,83006.89999999851,83006.19999999925,82638.354,82639.29999999702,82655.026,83021.762,,38,whether
screen,html.Screen,0_2_0_1_39,2021-11-04T13:15:21.399Z,,,,,,,,,,,,,,,,53,,,,,,,,,,,,,,504.4379999992525,,response,,,99,,,,,,Space,keypress(Space),,,,,---- -- ----- -- ------ - ------- --- ----------<br>------------- ------ ------ ---- ---- ------- ----- -- ----<br>-------- ------- -- ---------- --- - --- ----- ----- ----<br>---- --- --- ----- --- ---- ---- ------- ----- ---- -------<br>you --- -- ----- -- --- ---- -- --- ---- -- ------ ------<br>--- ----- -- ----,83526.89999999851,83526.19999999925,83005.091,83007.19999999925,83021.762,83538.364,,39,you
screen,html.Screen,0_2_0_1_40,2021-11-04T13:15:21.743Z,,,,,,,,,,,,,,,,53,,,,,,,,,,,,,,331.83599999925354,,response,,,99,,,,,,Space,keypress(Space),,,,,---- -- ----- -- ------ - ------- --- ----------<br>------------- ------ ------ ---- ---- ------- ----- -- ----<br>-------- ------- -- ---------- --- - --- ----- ----- ----<br>---- --- --- ----- --- ---- ---- ------- ----- ---- -------<br>--- are -- ----- -- --- ---- -- --- ---- -- ------ ------<br>--- ----- -- ----,83871,83870.19999999925,83521.696,83527.19999999925,83538.364,83872.025,,40,are
screen,html.Screen,0_2_0_1_41,2021-11-04T13:15:22.175Z,,,,,,,,,,,,,,,,53,,,,,,,,,,,,,,430.07499999777065,,response,,,99,,,,,,Space,keypress(Space),,,,,---- -- ----- -- ------ - ------- --- ----------<br>------------- ------ ------ ---- ---- ------- ----- -- ----<br>-------- ------- -- ---------- --- - --- ----- ----- ----<br>---- --- --- ----- --- ---- ---- ------- ----- ---- -------<br>--- --- as ----- -- --- ---- -- --- ---- -- ------ ------<br>--- ----- -- ----,84302.89999999851,84302.09999999776,83855.353,83871.09999999776,83872.025,84305.292,,41,as
screen,html.Screen,0_2_0_1_42,2021-11-04T13:15:22.503Z,,,,,,,,,,,,,,,,53,,,,,,,,,,,,,,324.80799999776355,,response,,,99,,,,,,Space,keypress(Space),,,,,---- -- ----- -- ------ - ------- --- ----------<br>------------- ------ ------ ---- ---- ------- ----- -- ----<br>-------- ------- -- ---------- --- - --- ----- ----- ----<br>---- --- --- ----- --- ---- ---- ------- ----- ---- -------<br>--- --- -- close -- --- ---- -- --- ---- -- ------ ------<br>--- ----- -- ----,84631,84630.09999999776,84288.623,84303.19999999925,84305.292,84638.955,,42,close
screen,html.Screen,0_2_0_1_43,2021-11-04T13:15:22.847Z,,,,,,,,,,,,,,,,53,,,,,,,,,,,,,,335.1449999977631,,response,,,99,,,,,,Space,keypress(Space),,,,,---- -- ----- -- ------ - ------- --- ----------<br>------------- ------ ------ ---- ---- ------- ----- -- ----<br>-------- ------- -- ---------- --- - --- ----- ----- ----<br>---- --- --- ----- --- ---- ---- ------- ----- ---- -------<br>--- --- -- ----- as --- ---- -- --- ---- -- ------ ------<br>--- ----- -- ----,84974.79999999702,84974.09999999776,84622.282,84631.09999999776,84638.955,84988.913,,43,as
screen,html.Screen,0_2_0_1_44,2021-11-04T13:15:23.231Z,,,,,,,,,,,,,,,,53,,,,,,,,,,,,,,369.08699999999953,,response,,,99,,,,,,Space,keypress(Space),,,,,---- -- ----- -- ------ - ------- --- ----------<br>------------- ------ ------ ---- ---- ------- ----- -- ----<br>-------- ------- -- ---------- --- - --- ----- ----- ----<br>---- --- --- ----- --- ---- ---- ------- ----- ---- -------<br>--- --- -- ----- -- you ---- -- --- ---- -- ------ ------<br>--- ----- -- ----,85358.69999999925,85358,84972.243,84975.09999999776,84988.913,85372.196,,44,you
screen,html.Screen,0_2_0_1_45,2021-11-04T13:15:23.567Z,,,,,,,,,,,,,,,,53,,,,,,,,,,,,,,321.8040000000037,,response,,,99,,,,,,Space,keypress(Space),,,,,---- -- ----- -- ------ - ------- --- ----------<br>------------- ------ ------ ---- ---- ------- ----- -- ----<br>-------- ------- -- ---------- --- - --- ----- ----- ----<br>---- --- --- ----- --- ---- ---- ------- ----- ---- -------<br>--- --- -- ----- -- --- want -- --- ---- -- ------ ------<br>--- ----- -- ----,85694.89999999851,85694,85355.528,85358.89999999851,85372.196,85705.91,,45,want
screen,html.Screen,0_2_0_1_46,2021-11-04T13:15:23.871Z,,,,,,,,,,,,,,,,53,,,,,,,,,,,,,,292.5899999999965,,response,,,99,,,,,,Space,keypress(Space),,,,,---- -- ----- -- ------ - ------- --- ----------<br>------------- ------ ------ ---- ---- ------- ----- -- ----<br>-------- ------- -- ---------- --- - --- ----- ----- ----<br>---- --- --- ----- --- ---- ---- ------- ----- ---- -------<br>--- --- -- ----- -- --- ---- to --- ---- -- ------ ------<br>--- ----- -- ----,85999.39999999851,85998.5,85689.237,85695.09999999776,85705.91,86005.79,,46,to
screen,html.Screen,0_2_0_1_47,2021-11-04T13:15:24.119Z,,,,,,,,,,,,,,,,53,,,,,,,,,,,,,,240.2100000000064,,response,,,99,,,,,,Space,keypress(Space),,,,,"---- -- ----- -- ------ - ------- --- ----------<br>------------- ------ ------ ---- ---- ------- ----- -- ----<br>-------- ------- -- ---------- --- - --- ----- ----- ----<br>---- --- --- ----- --- ---- ---- ------- ----- ---- -------<br>--- --- -- ----- -- --- ---- -- be, ---- -- ------ ------<br>--- ----- -- ----",86246.89999999851,86246,85989.121,85999.69999999925,86005.79,86255.982,,47,"be,"
screen,html.Screen,0_2_0_1_48,2021-11-04T13:15:24.431Z,,,,,,,,,,,,,,,,53,,,,,,,,,,,,,,302.1179999977612,,response,,,99,,,,,,Space,keypress(Space),,,,,---- -- ----- -- ------ - ------- --- ----------<br>------------- ------ ------ ---- ---- ------- ----- -- ----<br>-------- ------- -- ---------- --- - --- ----- ----- ----<br>---- --- --- ----- --- ---- ---- ------- ----- ---- -------<br>--- --- -- ----- -- --- ---- -- --- even -- ------ ------<br>--- ----- -- ----,86558.79999999702,86558.09999999776,86239.31,86247.19999999925,86255.982,86572.709,,48,even
screen,html.Screen,0_2_0_1_49,2021-11-04T13:15:24.742Z,,,,,,,,,,,,,,,,53,,,,,,,,,,,,,,297.1909999985073,,response,,,99,,,,,,Space,keypress(Space),,,,,---- -- ----- -- ------ - ------- --- ----------<br>------------- ------ ------ ---- ---- ------- ----- -- ----<br>-------- ------- -- ---------- --- - --- ----- ----- ----<br>---- --- --- ----- --- ---- ---- ------- ----- ---- -------<br>--- --- -- ----- -- --- ---- -- --- ---- if ------ ------<br>--- ----- -- ----,86870.5,86869.89999999851,86556.038,86559,86572.709,86872.794,,49,if
screen,html.Screen,0_2_0_1_50,2021-11-04T13:15:25.063Z,,,,,,,,,,,,,,,,53,,,,,,,,,,,,,,317.2060000000056,,response,,,99,,,,,,Space,keypress(Space),,,,,---- -- ----- -- ------ - ------- --- ----------<br>------------- ------ ------ ---- ---- ------- ----- -- ----<br>-------- ------- -- ---------- --- - --- ----- ----- ----<br>---- --- --- ----- --- ---- ---- ------- ----- ---- -------<br>--- --- -- ----- -- --- ---- -- --- ---- -- that's ------<br>--- ----- -- ----,87190.79999999702,87190,86856.123,86870.69999999925,86872.794,87206.174,,50,that's
screen,html.Screen,0_2_0_1_51,2021-11-04T13:15:25.407Z,,,,,,,,,,,,,,,,53,,,,,,,,,,,,,,327.82600000000093,,response,,,99,,,,,,Space,keypress(Space),,,,,---- -- ----- -- ------ - ------- --- ----------<br>------------- ------ ------ ---- ---- ------- ----- -- ----<br>-------- ------- -- ---------- --- - --- ----- ----- ----<br>---- --- --- ----- --- ---- ---- ------- ----- ---- -------<br>--- --- -- ----- -- --- ---- -- --- ---- -- ------ really<br>--- ----- -- ----,87534.69999999925,87534,87189.504,87191.09999999776,87206.174,87539.638,,51,really
screen,html.Screen,0_2_0_1_52,2021-11-04T13:15:25.823Z,,,,,,,,,,,,,,,,53,,,,,,,,,,,,,,410.2619999985036,,response,,,99,,,,,,Space,keypress(Space),,,,,---- -- ----- -- ------ - ------- --- ----------<br>------------- ------ ------ ---- ---- ------- ----- -- ----<br>-------- ------- -- ---------- --- - --- ----- ----- ----<br>---- --- --- ----- --- ---- ---- ------- ----- ---- -------<br>--- --- -- ----- -- --- ---- -- --- ---- -- ------ ------<br>not ----- -- ----,87950.69999999925,87949.89999999851,87522.967,87534.89999999851,87539.638,87956.411,,52,not
screen,html.Screen,0_2_0_1_53,2021-11-04T13:15:26.207Z,,,,,,,,,,,,,,,,53,,,,,,,,,,,,,,377.4889999985171,,response,,,99,,,,,,Space,keypress(Space),,,,,---- -- ----- -- ------ - ------- --- ----------<br>------------- ------ ------ ---- ---- ------- ----- -- ----<br>-------- ------- -- ---------- --- - --- ----- ----- ----<br>---- --- --- ----- --- ---- ---- ------- ----- ---- -------<br>--- --- -- ----- -- --- ---- -- --- ---- -- ------ ------<br>--- close -- ----,88334.69999999925,88333.89999999851,87939.74,87950.89999999851,87956.411,88339.726,,53,close
screen,html.Screen,0_2_0_1_54,2021-11-04T13:15:26.559Z,,,,,,,,,,,,,,,,53,,,,,,,,,,,,,,346.1739999985148,,response,,,99,,,,,,Space,keypress(Space),,,,,---- -- ----- -- ------ - ------- --- ----------<br>------------- ------ ------ ---- ---- ------- ----- -- ----<br>-------- ------- -- ---------- --- - --- ----- ----- ----<br>---- --- --- ----- --- ---- ---- ------- ----- ---- -------<br>--- --- -- ----- -- --- ---- -- --- ---- -- ------ ------<br>--- ----- at ----,88686.69999999925,88685.89999999851,88323.057,88335,88339.726,88689.958,,54,at
screen,html.Screen,0_2_0_1_55,2021-11-04T13:15:27.079Z,,,,,,,,,,,,,,,,53,,,,,,,,,,,,,,515.9419999985112,,response,,,99,,,,,,Space,keypress(Space),,,,,---- -- ----- -- ------ - ------- --- ----------<br>------------- ------ ------ ---- ---- ------- ----- -- ----<br>-------- ------- -- ---------- --- - --- ----- ----- ----<br>---- --- --- ----- --- ---- ---- ------- ----- ---- -------<br>--- --- -- ----- -- --- ---- -- --- ---- -- ------ ------<br>--- ----- -- all.,89206.69999999925,89205.89999999851,88673.286,88687,88689.958,89223.213,,55,all.
Item 99,flow.Loop,0_2_0_1,2021-11-04T13:15:27.084Z,,,,,,,,,,,,,,,,,,,,,,,,,,,,,,35808.92499999851,,completion,,,,E,,,,,,,,,,silence,,89212.5,89205.89999999851,53380.305,53386.599999997765,53396.975,89223.213,,,
Question 1,html.Screen,0_2_0_2,2021-11-04T13:15:33.367Z,,,,,,,,,,,,,,,,,,,,,,,,,,,true,FALSE,,6270.286999999997,,response,,,99,E,,,,,FALSE,click #choice-2,,,,silence,,95494.79999999702,95493.5,89206.545,89212.79999999702,89223.213,95508.287,,,
Question 2,html.Screen,0_2_0_3,2021-11-04T13:15:38.454Z,,,,,,,,,,,,,,,,,,,,,,,,,,,true,TRUE,,5072.912999999258,,response,,,99,E,,,,,TRUE,click #choice-1,,,,silence,,100582.29999999702,100581.19999999925,95491.618,95495,95508.287,100593.08,,,
Item 99,flow.Sequence,0_2_0,2021-11-04T13:15:38.455Z,,,,,,,,,,,,,,,,,,,,,,,,,,,,,,57187.33699999926,,completion,,,,,,,,,,,,,,,,100582.89999999851,100581.19999999925,43377.204,43394.099999997765,43393.863,100593.08,,,
Holding screen,html.Screen,0_2_1_0,2021-11-04T13:15:48.452Z,,,,,,,,,,,,,,,,,,,,,,,,,,,,,,10002.588999999993,,timeout,,,,,,,,,,,,,,,,110580.19999999925,110578.999,100576.41,100583.19999999925,100593.08,110595.669,,,
screen,html.Screen,0_2_1_1_0,2021-11-04T13:15:49.950Z,,,,,,,,,,,,,,,,54,,,,,,,,,,,,,,1481.6309999970254,,response,,,100,,,,,,Space,keypress(Space),,,,,At --- ---- --- ------ ----- ------- ---- -- --- ------- --<br>------- ---------- ------ -- ----- -- ----- -- ---- ------<br>--- ----- --- --- ------ -------- ----- --- ------ ----- --<br>----- ----- ---------- --- --- ------ ------ ---- -- ------<br>------- --- ------ ----- --- ---- ------- -- ---- --- --<br>------- ------,112078,112077.29999999702,110578.999,110580.59999999776,110595.669,112079.516,,0,At
screen,html.Screen,0_2_1_1_1,2021-11-04T13:15:50.494Z,,,,,,,,,,,,,,,,54,,,,,,,,,,,,,,541.2839999970165,,response,,,100,,,,,,Space,keypress(Space),,,,,-- the ---- --- ------ ----- ------- ---- -- --- ------- --<br>------- ---------- ------ -- ----- -- ----- -- ---- ------<br>--- ----- --- --- ------ -------- ----- --- ------ ----- --<br>----- ----- ---------- --- --- ------ ------ ---- -- ------<br>------- --- ------ ----- --- ---- ------- -- ---- --- --<br>------- ------,112621.69999999925,112620.79999999702,112062.845,112078.19999999925,112079.516,112629.776,,1,the
screen,html.Screen,0_2_1_1_2,2021-11-04T13:15:50.902Z,,,,,,,,,,,,,,,,54,,,,,,,,,,,,,,399.02399999702175,,response,,,100,,,,,,Space,keypress(Space),,,,,-- --- time --- ------ ----- ------- ---- -- --- ------- --<br>------- ---------- ------ -- ----- -- ----- -- ---- ------<br>--- ----- --- --- ------ -------- ----- --- ------ ----- --<br>----- ----- ---------- --- --- ------ ------ ---- -- ------<br>------- --- ------ ----- --- ---- ------- -- ---- --- --<br>------- ------,113029.69999999925,113028.79999999702,112613.105,112621.89999999851,112629.776,113046.483,,2,time
screen,html.Screen,0_2_1_1_3,2021-11-04T13:15:51.398Z,,,,,,,,,,,,,,,,54,,,,,,,,,,,,,,478.416999998517,,response,,,100,,,,,,Space,keypress(Space),,,,,-- --- ---- the ------ ----- ------- ---- -- --- ------- --<br>------- ---------- ------ -- ----- -- ----- -- ---- ------<br>--- ----- --- --- ------ -------- ----- --- ------ ----- --<br>----- ----- ---------- --- --- ------ ------ ---- -- ------<br>------- --- ------ ----- --- ---- ------- -- ---- --- --<br>------- ------,113525.59999999776,113524.89999999851,113029.812,113029.89999999851,113046.483,113529.96,,3,the
screen,html.Screen,0_2_1_1_4,2021-11-04T13:15:51.790Z,,,,,,,,,,,,,,,,54,,,,,,,,,,,,,,386.9399999985035,,response,,,100,,,,,,Space,keypress(Space),,,,,-- --- ---- --- French ----- ------- ---- -- --- ------- --<br>------- ---------- ------ -- ----- -- ----- -- ---- ------<br>--- ----- --- --- ------ -------- ----- --- ------ ----- --<br>----- ----- ---------- --- --- ------ ------ ---- -- ------<br>------- --- ------ ----- --- ---- ------- -- ---- --- --<br>------- ------,113917.59999999776,113916.89999999851,113513.289,113525.89999999851,113529.96,113930.02,,4,French
screen,html.Screen,0_2_1_1_5,2021-11-04T13:15:52.845Z,,,,,,,,,,,,,,,,54,,,,,,,,,,,,,,1042.7799999970157,,response,,,100,,,,,,Space,keypress(Space),,,,,-- --- ---- --- ------ crown ------- ---- -- --- ------- --<br>------- ---------- ------ -- ----- -- ----- -- ---- ------<br>--- ----- --- --- ------ -------- ----- --- ------ ----- --<br>----- ----- ---------- --- --- ------ ------ ---- -- ------<br>------- --- ------ ----- --- ---- ------- -- ---- --- --<br>------- ------,114973.5,114972.79999999702,113913.35,113917.79999999702,113930.02,114980.126,,5,crown
screen,html.Screen,0_2_1_1_6,2021-11-04T13:15:53.413Z,,,,,,,,,,,,,,,,54,,,,,,,,,,,,,,560.5739999992511,,response,,,100,,,,,,Space,keypress(Space),,,,,-- --- ---- --- ------ ----- secured ---- -- --- ------- --<br>------- ---------- ------ -- ----- -- ----- -- ---- ------<br>--- ----- --- --- ------ -------- ----- --- ------ ----- --<br>----- ----- ---------- --- --- ------ ------ ---- -- ------<br>------- --- ------ ----- --- ---- ------- -- ---- --- --<br>------- ------,115541.5,115540.69999999925,114963.457,114973.89999999851,114980.126,115547.26,,6,secured
screen,html.Screen,0_2_1_1_7,2021-11-04T13:15:53.765Z,,,,,,,,,,,,,,,,54,,,,,,,,,,,,,,345.4399999992602,,response,,,100,,,,,,Space,keypress(Space),,,,,-- --- ---- --- ------ ----- ------- much -- --- ------- --<br>------- ---------- ------ -- ----- -- ----- -- ---- ------<br>--- ----- --- --- ------ -------- ----- --- ------ ----- --<br>----- ----- ---------- --- --- ------ ------ ---- -- ------<br>------- --- ------ ----- --- ---- ------- -- ---- --- --<br>------- ------,115893.59999999776,115892.69999999925,115530.588,115541.79999999702,115547.26,115897.251,,7,much
screen,html.Screen,0_2_1_1_8,2021-11-04T13:15:54.373Z,,,,,,,,,,,,,,,,54,,,,,,,,,,,,,,603.5489999970159,,response,,,100,,,,,,Space,keypress(Space),,,,,-- --- ---- --- ------ ----- ------- ---- of --- ------- --<br>------- ---------- ------ -- ----- -- ----- -- ---- ------<br>--- ----- --- --- ------ -------- ----- --- ------ ----- --<br>----- ----- ---------- --- --- ------ ------ ---- -- ------<br>------- --- ------ ----- --- ---- ------- -- ---- --- --<br>------- ------,116501.5,116500.79999999702,115880.58,115893.79999999702,115897.251,116513.92,,8,of
screen,html.Screen,0_2_1_1_9,2021-11-04T13:15:54.717Z,,,,,,,,,,,,,,,,54,,,,,,,,,,,,,,330.7799999992567,,response,,,100,,,,,,Space,keypress(Space),,,,,-- --- ---- --- ------ ----- ------- ---- -- its ------- --<br>------- ---------- ------ -- ----- -- ----- -- ---- ------<br>--- ----- --- --- ------ -------- ----- --- ------ ----- --<br>----- ----- ---------- --- --- ------ ------ ---- -- ------<br>------- --- ------ ----- --- ---- ------- -- ---- --- --<br>------- ------,116845.5,116844.69999999925,116497.251,116501.79999999702,116513.92,116847.569,,9,its
screen,html.Screen,0_2_1_1_10,2021-11-04T13:15:57.229Z,,,,,,,,,,,,,,,,54,,,,,,,,,,,,,,2509.0309999977617,,response,,,100,,,,,,Space,keypress(Space),,,,,-- --- ---- --- ------ ----- ------- ---- -- --- revenue --<br>------- ---------- ------ -- ----- -- ----- -- ---- ------<br>--- ----- --- --- ------ -------- ----- --- ------ ----- --<br>----- ----- ---------- --- --- ------ ------ ---- -- ------<br>------- --- ------ ----- --- ---- ------- -- ---- --- --<br>------- ------,119357.39999999851,119356.59999999776,116830.897,116845.69999999925,116847.569,119364.849,,10,revenue
screen,html.Screen,0_2_1_1_11,2021-11-04T13:15:57.621Z,,,,,,,,,,,,,,,,54,,,,,,,,,,,,,,383.85099999925296,,response,,,100,,,,,,Space,keypress(Space),,,,,-- --- ---- --- ------ ----- ------- ---- -- --- ------- by<br>------- ---------- ------ -- ----- -- ----- -- ---- ------<br>--- ----- --- --- ------ -------- ----- --- ------ ----- --<br>----- ----- ---------- --- --- ------ ------ ---- -- ------<br>------- --- ------ ----- --- ---- ------- -- ---- --- --<br>------- ------,119749.5,119748.69999999925,119348.178,119357.59999999776,119364.849,119764.879,,11,by
screen,html.Screen,0_2_1_1_12,2021-11-04T13:15:58.117Z,,,,,,,,,,,,,,,,54,,,,,,,,,,,,,,479.720999997764,,response,,,100,,,,,,Space,keypress(Space),,,,,-- --- ---- --- ------ ----- ------- ---- -- --- ------- --<br>issuing ---------- ------ -- ----- -- ----- -- ---- ------<br>--- ----- --- --- ------ -------- ----- --- ------ ----- --<br>----- ----- ---------- --- --- ------ ------ ---- -- ------<br>------- --- ------ ----- --- ---- ------- -- ---- --- --<br>------- ------,120245.39999999851,120244.59999999776,119748.209,119749.79999999702,119764.879,120248.328,,12,issuing
screen,html.Screen,0_2_1_1_13,2021-11-04T13:15:58.533Z,,,,,,,,,,,,,,,,54,,,,,,,,,,,,,,412.27199999777076,,response,,,100,,,,,,Space,keypress(Space),,,,,-- --- ---- --- ------ ----- ------- ---- -- --- ------- --<br>------- government ------ -- ----- -- ----- -- ---- ------<br>--- ----- --- --- ------ -------- ----- --- ------ ----- --<br>----- ----- ---------- --- --- ------ ------ ---- -- ------<br>------- --- ------ ----- --- ---- ------- -- ---- --- --<br>------- ------,120661.39999999851,120660.59999999776,120231.658,120245.69999999925,120248.328,120665.169,,13,government
screen,html.Screen,0_2_1_1_14,2021-11-04T13:15:58.877Z,,,,,,,,,,,,,,,,54,,,,,,,,,,,,,,339.4309999977704,,response,,,100,,,,,,Space,keypress(Space),,,,,-- --- ---- --- ------ ----- ------- ---- -- --- ------- --<br>------- ---------- bonds. -- ----- -- ----- -- ---- ------<br>--- ----- --- --- ------ -------- ----- --- ------ ----- --<br>----- ----- ---------- --- --- ------ ------ ---- -- ------<br>------- --- ------ ----- --- ---- ------- -- ---- --- --<br>------- ------,121005.39999999851,121004.59999999776,120648.498,120661.69999999925,120665.169,121015.345,,14,bonds.
screen,html.Screen,0_2_1_1_15,2021-11-04T13:15:59.453Z,,,,,,,,,,,,,,,,54,,,,,,,,,,,,,,565.2549999977637,,response,,,100,,,,,,Space,keypress(Space),,,,,-- --- ---- --- ------ ----- ------- ---- -- --- ------- --<br>------- ---------- ------ In ----- -- ----- -- ---- ------<br>--- ----- --- --- ------ -------- ----- --- ------ ----- --<br>----- ----- ---------- --- --- ------ ------ ---- -- ------<br>------- --- ------ ----- --- ---- ------- -- ---- --- --<br>------- ------,121581.29999999702,121580.59999999776,120998.673,121005.79999999702,121015.345,121598.775,,15,In
screen,html.Screen,0_2_1_1_16,2021-11-04T13:16:00.416Z,,,,,,,,,,,,,,,,54,,,,,,,,,,,,,,942.0249999970256,,response,,,100,,,,,,Space,keypress(Space),,,,,"-- --- ---- --- ------ ----- ------- ---- -- --- ------- --<br>------- ---------- ------ -- 1727, -- ----- -- ---- ------<br>--- ----- --- --- ------ -------- ----- --- ------ ----- --<br>----- ----- ---------- --- --- ------ ------ ---- -- ------<br>------- --- ------ ----- --- ---- ------- -- ---- --- --<br>------- ------",122541.69999999925,122540.79999999702,121582.104,121581.59999999776,121598.775,122549.056,,16,"1727,"
screen,html.Screen,0_2_1_1_17,2021-11-04T13:16:00.960Z,,,,,,,,,,,,,,,,54,,,,,,,,,,,,,,535.4440000000031,,response,,,100,,,,,,Space,keypress(Space),,,,,-- --- ---- --- ------ ----- ------- ---- -- --- ------- --<br>------- ---------- ------ -- ----- in ----- -- ---- ------<br>--- ----- --- --- ------ -------- ----- --- ------ ----- --<br>----- ----- ---------- --- --- ------ ------ ---- -- ------<br>------- --- ------ ----- --- ---- ------- -- ---- --- --<br>------- ------,123085.19999999925,123084.5,122532.385,122542,122549.056,123099.187,,17,in
screen,html.Screen,0_2_1_1_18,2021-11-04T13:16:01.344Z,,,,,,,,,,,,,,,,54,,,,,,,,,,,,,,369.21299999850453,,response,,,100,,,,,,Space,keypress(Space),,,,,-- --- ---- --- ------ ----- ------- ---- -- --- ------- --<br>------- ---------- ------ -- ----- -- order -- ---- ------<br>--- ----- --- --- ------ -------- ----- --- ------ ----- --<br>----- ----- ---------- --- --- ------ ------ ---- -- ------<br>------- --- ------ ----- --- ---- ------- -- ---- --- --<br>------- ------,123469.19999999925,123468.39999999851,123082.516,123085.5,123099.187,123482.586,,18,order
screen,html.Screen,0_2_1_1_19,2021-11-04T13:16:01.672Z,,,,,,,,,,,,,,,,54,,,,,,,,,,,,,,313.8139999985142,,response,,,100,,,,,,Space,keypress(Space),,,,,-- --- ---- --- ------ ----- ------- ---- -- --- ------- --<br>------- ---------- ------ -- ----- -- ----- to ---- ------<br>--- ----- --- --- ------ -------- ----- --- ------ ----- --<br>----- ----- ---------- --- --- ------ ------ ---- -- ------<br>------- --- ------ ----- --- ---- ------- -- ---- --- --<br>------- ------,123797.19999999925,123796.39999999851,123465.916,123469.59999999776,123482.586,123799.385,,19,to
screen,html.Screen,0_2_1_1_20,2021-11-04T13:16:02.016Z,,,,,,,,,,,,,,,,54,,,,,,,,,,,,,,341.0149999985151,,response,,,100,,,,,,Space,keypress(Space),,,,,-- --- ---- --- ------ ----- ------- ---- -- --- ------- --<br>------- ---------- ------ -- ----- -- ----- -- save ------<br>--- ----- --- --- ------ -------- ----- --- ------ ----- --<br>----- ----- ---------- --- --- ------ ------ ---- -- ------<br>------- --- ------ ----- --- ---- ------- -- ---- --- --<br>------- ------,124141.19999999925,124140.39999999851,123782.714,123797.5,123799.385,124149.471,,20,save
screen,html.Screen,0_2_1_1_21,2021-11-04T13:16:02.368Z,,,,,,,,,,,,,,,,54,,,,,,,,,,,,,,342.82899999701476,,response,,,100,,,,,,Space,keypress(Space),,,,,"-- --- ---- --- ------ ----- ------- ---- -- --- ------- --<br>------- ---------- ------ -- ----- -- ----- -- ---- money,<br>--- ----- --- --- ------ -------- ----- --- ------ ----- --<br>----- ----- ---------- --- --- ------ ------ ---- -- ------<br>------- --- ------ ----- --- ---- ------- -- ---- --- --<br>------- ------",124493.09999999776,124492.29999999702,124132.8,124141.5,124149.471,124499.51,,21,"money,"
screen,html.Screen,0_2_1_1_22,2021-11-04T13:16:02.760Z,,,,,,,,,,,,,,,,54,,,,,,,,,,,,,,384.8899999985151,,response,,,100,,,,,,Space,keypress(Space),,,,,-- --- ---- --- ------ ----- ------- ---- -- --- ------- --<br>------- ---------- ------ -- ----- -- ----- -- ---- ------<br>the ----- --- --- ------ -------- ----- --- ------ ----- --<br>----- ----- ---------- --- --- ------ ------ ---- -- ------<br>------- --- ------ ----- --- ---- ------- -- ---- --- --<br>------- ------,124885.29999999702,124884.39999999851,124482.84,124493.39999999851,124499.51,124899.677,,22,the
screen,html.Screen,0_2_1_1_23,2021-11-04T13:16:03.096Z,,,,,,,,,,,,,,,,54,,,,,,,,,,,,,,320.6229999970237,,response,,,100,,,,,,Space,keypress(Space),,,,,-- --- ---- --- ------ ----- ------- ---- -- --- ------- --<br>------- ---------- ------ -- ----- -- ----- -- ---- ------<br>--- state --- --- ------ -------- ----- --- ------ ----- --<br>----- ----- ---------- --- --- ------ ------ ---- -- ------<br>------- --- ------ ----- --- ---- ------- -- ---- --- --<br>------- ------,125221.19999999925,125220.29999999702,124883.006,124885.59999999776,124899.677,125233.089,,23,state
screen,html.Screen,0_2_1_1_24,2021-11-04T13:16:03.448Z,,,,,,,,,,,,,,,,54,,,,,,,,,,,,,,339.1109999992477,,response,,,100,,,,,,Space,keypress(Space),,,,,-- --- ---- --- ------ ----- ------- ---- -- --- ------- --<br>------- ---------- ------ -- ----- -- ----- -- ---- ------<br>--- ----- cut --- ------ -------- ----- --- ------ ----- --<br>----- ----- ---------- --- --- ------ ------ ---- -- ------<br>------- --- ------ ----- --- ---- ------- -- ---- --- --<br>------- ------,125573.09999999776,125572.19999999925,125216.418,125221.5,125233.089,125583.208,,24,cut
screen,html.Screen,0_2_1_1_25,2021-11-04T13:16:03.832Z,,,,,,,,,,,,,,,,54,,,,,,,,,,,,,,373.09199999702105,,response,,,100,,,,,,Space,keypress(Space),,,,,-- --- ---- --- ------ ----- ------- ---- -- --- ------- --<br>------- ---------- ------ -- ----- -- ----- -- ---- ------<br>--- ----- --- the ------ -------- ----- --- ------ ----- --<br>----- ----- ---------- --- --- ------ ------ ---- -- ------<br>------- --- ------ ----- --- ---- ------- -- ---- --- --<br>------- ------,125957.09999999776,125956.29999999702,125566.537,125573.5,125583.208,125966.574,,25,the
screen,html.Screen,0_2_1_1_26,2021-11-04T13:16:04.272Z,,,,,,,,,,,,,,,,54,,,,,,,,,,,,,,429.6259999992617,,response,,,100,,,,,,Space,keypress(Space),,,,,-- --- ---- --- ------ ----- ------- ---- -- --- ------- --<br>------- ---------- ------ -- ----- -- ----- -- ---- ------<br>--- ----- --- --- bonds' -------- ----- --- ------ ----- --<br>----- ----- ---------- --- --- ------ ------ ---- -- ------<br>------- --- ------ ----- --- ---- ------- -- ---- --- --<br>------- ------,126397.09999999776,126396.19999999925,125949.904,125957.39999999851,125966.574,126400.082,,26,bonds'
screen,html.Screen,0_2_1_1_27,2021-11-04T13:16:04.680Z,,,,,,,,,,,,,,,,54,,,,,,,,,,,,,,404.11799999926006,,response,,,100,,,,,,Space,keypress(Space),,,,,-- --- ---- --- ------ ----- ------- ---- -- --- ------- --<br>------- ---------- ------ -- ----- -- ----- -- ---- ------<br>--- ----- --- --- ------ interest ----- --- ------ ----- --<br>----- ----- ---------- --- --- ------ ------ ---- -- ------<br>------- --- ------ ----- --- ---- ------- -- ---- --- --<br>------- ------,126805,126804.19999999925,126383.411,126397.39999999851,126400.082,126816.854,,27,interest
screen,html.Screen,0_2_1_1_28,2021-11-04T13:16:05.144Z,,,,,,,,,,,,,,,,54,,,,,,,,,,,,,,451.3459999992483,,response,,,100,,,,,,Space,keypress(Space),,,,,-- --- ---- --- ------ ----- ------- ---- -- --- ------- --<br>------- ---------- ------ -- ----- -- ----- -- ---- ------<br>--- ----- --- --- ------ -------- rate. --- ------ ----- --<br>----- ----- ---------- --- --- ------ ------ ---- -- ------<br>------- --- ------ ----- --- ---- ------- -- ---- --- --<br>------- ------,127269,127268.19999999925,126800.183,126805.29999999702,126816.854,127283.607,,28,rate.
screen,html.Screen,0_2_1_1_29,2021-11-04T13:16:05.528Z,,,,,,,,,,,,,,,,54,,,,,,,,,,,,,,368.59299999925133,,response,,,100,,,,,,Space,keypress(Space),,,,,-- --- ---- --- ------ ----- ------- ---- -- --- ------- --<br>------- ---------- ------ -- ----- -- ----- -- ---- ------<br>--- ----- --- --- ------ -------- ----- The ------ ----- --<br>----- ----- ---------- --- --- ------ ------ ---- -- ------<br>------- --- ------ ----- --- ---- ------- -- ---- --- --<br>------- ------,127653,127652.19999999925,127266.937,127269.29999999702,127283.607,127667.108,,29,The
screen,html.Screen,0_2_1_1_30,2021-11-04T13:16:05.872Z,,,,,,,,,,,,,,,,54,,,,,,,,,,,,,,328.9919999977719,,response,,,100,,,,,,Space,keypress(Space),,,,,-- --- ---- --- ------ ----- ------- ---- -- --- ------- --<br>------- ---------- ------ -- ----- -- ----- -- ---- ------<br>--- ----- --- --- ------ -------- ----- --- market ----- --<br>----- ----- ---------- --- --- ------ ------ ---- -- ------<br>------- --- ------ ----- --- ---- ------- -- ---- --- --<br>------- ------,127996.89999999851,127996.09999999776,127650.437,127653.39999999851,127667.108,128000.472,,30,market
screen,html.Screen,0_2_1_1_31,2021-11-04T13:16:06.248Z,,,,,,,,,,,,,,,,54,,,,,,,,,,,,,,371.72799999926065,,response,,,100,,,,,,Space,keypress(Space),,,,,-- --- ---- --- ------ ----- ------- ---- -- --- ------- --<br>------- ---------- ------ -- ----- -- ----- -- ---- ------<br>--- ----- --- --- ------ -------- ----- --- ------ value --<br>----- ----- ---------- --- --- ------ ------ ---- -- ------<br>------- --- ------ ----- --- ---- ------- -- ---- --- --<br>------- ------,128373.09999999776,128372.19999999925,127983.802,127997.19999999925,128000.472,128383.882,,31,value
screen,html.Screen,0_2_1_1_32,2021-11-04T13:16:06.640Z,,,,,,,,,,,,,,,,54,,,,,,,,,,,,,,380.31799999925715,,response,,,100,,,,,,Space,keypress(Space),,,,,-- --- ---- --- ------ ----- ------- ---- -- --- ------- --<br>------- ---------- ------ -- ----- -- ----- -- ---- ------<br>--- ----- --- --- ------ -------- ----- --- ------ ----- of<br>----- ----- ---------- --- --- ------ ------ ---- -- ------<br>------- --- ------ ----- --- ---- ------- -- ---- --- --<br>------- ------,128765.09999999776,128764.19999999925,128367.212,128373.29999999702,128383.882,128767.381,,32,of
screen,html.Screen,0_2_1_1_33,2021-11-04T13:16:07.040Z,,,,,,,,,,,,,,,,54,,,,,,,,,,,,,,396.7189999977709,,response,,,100,,,,,,Space,keypress(Space),,,,,-- --- ---- --- ------ ----- ------- ---- -- --- ------- --<br>------- ---------- ------ -- ----- -- ----- -- ---- ------<br>--- ----- --- --- ------ -------- ----- --- ------ ----- --<br>these ----- ---------- --- --- ------ ------ ---- -- ------<br>------- --- ------ ----- --- ---- ------- -- ---- --- --<br>------- ------,129165.09999999776,129164.09999999776,128750.71,128765.39999999851,128767.381,129167.491,,33,these
screen,html.Screen,0_2_1_1_34,2021-11-04T13:16:07.384Z,,,,,,,,,,,,,,,,54,,,,,,,,,,,,,,340.6089999977703,,response,,,100,,,,,,Space,keypress(Space),,,,,-- --- ---- --- ------ ----- ------- ---- -- --- ------- --<br>------- ---------- ------ -- ----- -- ----- -- ---- ------<br>--- ----- --- --- ------ -------- ----- --- ------ ----- --<br>----- bonds ---------- --- --- ------ ------ ---- -- ------<br>------- --- ------ ----- --- ---- ------- -- ---- --- --<br>------- ------,129509,129508.09999999776,129150.82,129165.39999999851,129167.491,129517.47,,34,bonds
screen,html.Screen,0_2_1_1_35,2021-11-04T13:16:07.808Z,,,,,,,,,,,,,,,,54,,,,,,,,,,,,,,414.7299999992538,,response,,,100,,,,,,Space,keypress(Space),,,,,"-- --- ---- --- ------ ----- ------- ---- -- --- ------- --<br>------- ---------- ------ -- ----- -- ----- -- ---- ------<br>--- ----- --- --- ------ -------- ----- --- ------ ----- --<br>----- ----- plummeted, --- --- ------ ------ ---- -- ------<br>------- --- ------ ----- --- ---- ------- -- ---- --- --<br>------- ------",129933.09999999776,129932.19999999925,129500.801,129509.29999999702,129517.47,129951.068,,35,"plummeted,"
screen,html.Screen,0_2_1_1_36,2021-11-04T13:16:08.223Z,,,,,,,,,,,,,,,,54,,,,,,,,,,,,,,397.0319999977655,,response,,,100,,,,,,Space,keypress(Space),,,,,-- --- ---- --- ------ ----- ------- ---- -- --- ------- --<br>------- ---------- ------ -- ----- -- ----- -- ---- ------<br>--- ----- --- --- ------ -------- ----- --- ------ ----- --<br>----- ----- ---------- and --- ------ ------ ---- -- ------<br>------- --- ------ ----- --- ---- ------- -- ---- --- --<br>------- ------,130348.89999999851,130348.09999999776,129934.396,129935.39999999851,129951.068,130351.142,,36,and
screen,html.Screen,0_2_1_1_37,2021-11-04T13:16:08.568Z,,,,,,,,,,,,,,,,54,,,,,,,,,,,,,,340.9579999977577,,response,,,100,,,,,,Space,keypress(Space),,,,,-- --- ---- --- ------ ----- ------- ---- -- --- ------- --<br>------- ---------- ------ -- ----- -- ----- -- ---- ------<br>--- ----- --- --- ------ -------- ----- --- ------ ----- --<br>----- ----- ---------- --- the ------ ------ ---- -- ------<br>------- --- ------ ----- --- ---- ------- -- ---- --- --<br>------- ------,130693,130692.09999999776,130334.471,130349.19999999925,130351.142,130701.101,,37,the
screen,html.Screen,0_2_1_1_38,2021-11-04T13:16:08.952Z,,,,,,,,,,,,,,,,54,,,,,,,,,,,,,,374.9989999977697,,response,,,100,,,,,,Space,keypress(Space),,,,,-- --- ---- --- ------ ----- ------- ---- -- --- ------- --<br>------- ---------- ------ -- ----- -- ----- -- ---- ------<br>--- ----- --- --- ------ -------- ----- --- ------ ----- --<br>----- ----- ---------- --- --- market ------ ---- -- ------<br>------- --- ------ ----- --- ---- ------- -- ---- --- --<br>------- ------,131077,131076.09999999776,130684.432,130693.29999999702,130701.101,131084.712,,38,market
screen,html.Screen,0_2_1_1_39,2021-11-04T13:16:09.351Z,,,,,,,,,,,,,,,,54,,,,,,,,,,,,,,391.28800000000047,,response,,,100,,,,,,Space,keypress(Space),,,,,-- --- ---- --- ------ ----- ------- ---- -- --- ------- --<br>------- ---------- ------ -- ----- -- ----- -- ---- ------<br>--- ----- --- --- ------ -------- ----- --- ------ ----- --<br>----- ----- ---------- --- --- ------ became ---- -- ------<br>------- --- ------ ----- --- ---- ------- -- ---- --- --<br>------- ------,131476.69999999925,131476,131068.04,131077.3999999985,131084.712,131484.778,,39,became
screen,html.Screen,0_2_1_1_40,2021-11-04T13:16:09.736Z,,,,,,,,,,,,,,,,54,,,,,,,,,,,,,,375.22200000000885,,response,,,100,,,,,,Space,keypress(Space),,,,,-- --- ---- --- ------ ----- ------- ---- -- --- ------- --<br>------- ---------- ------ -- ----- -- ----- -- ---- ------<br>--- ----- --- --- ------ -------- ----- --- ------ ----- --<br>----- ----- ---------- --- --- ------ ------ wary -- ------<br>------- --- ------ ----- --- ---- ------- -- ---- --- --<br>------- ------,131861,131860,131468.107,131477,131484.778,131868.221,,40,wary
screen,html.Screen,0_2_1_1_41,2021-11-04T13:16:10.223Z,,,,,,,,,,,,,,,,54,,,,,,,,,,,,,,479.8789999977744,,response,,,100,,,,,,Space,keypress(Space),,,,,-- --- ---- --- ------ ----- ------- ---- -- --- ------- --<br>------- ---------- ------ -- ----- -- ----- -- ---- ------<br>--- ----- --- --- ------ -------- ----- --- ------ ----- --<br>----- ----- ---------- --- --- ------ ------ ---- of ------<br>------- --- ------ ----- --- ---- ------- -- ---- --- --<br>------- ------,132348.79999999702,132348.09999999776,131851.55,131861.29999999702,131868.221,132351.626,,41,of
screen,html.Screen,0_2_1_1_42,2021-11-04T13:16:10.592Z,,,,,,,,,,,,,,,,54,,,,,,,,,,,,,,364.8740000000107,,response,,,100,,,,,,Space,keypress(Space),,,,,-- --- ---- --- ------ ----- ------- ---- -- --- ------- --<br>------- ---------- ------ -- ----- -- ----- -- ---- ------<br>--- ----- --- --- ------ -------- ----- --- ------ ----- --<br>----- ----- ---------- --- --- ------ ------ ---- -- French<br>------- --- ------ ----- --- ---- ------- -- ---- --- --<br>------- ------,132717.19999999925,132716.5,132334.956,132349,132351.626,132718.432,,42,French
screen,html.Screen,0_2_1_1_43,2021-11-04T13:16:11.007Z,,,,,,,,,,,,,,,,54,,,,,,,,,,,,,,413.4679999985092,,response,,,100,,,,,,Space,keypress(Space),,,,,-- --- ---- --- ------ ----- ------- ---- -- --- ------- --<br>------- ---------- ------ -- ----- -- ----- -- ---- ------<br>--- ----- --- --- ------ -------- ----- --- ------ ----- --<br>----- ----- ---------- --- --- ------ ------ ---- -- ------<br>credit. --- ------ ----- --- ---- ------- -- ---- --- --<br>------- ------,133132.79999999702,133131.8999999985,132701.761,132717.5,132718.432,133135.211,,43,credit.
screen,html.Screen,0_2_1_1_44,2021-11-04T13:16:11.423Z,,,,,,,,,,,,,,,,54,,,,,,,,,,,,,,412.68899999849964,,response,,,100,,,,,,Space,keypress(Space),,,,,-- --- ---- --- ------ ----- ------- ---- -- --- ------- --<br>------- ---------- ------ -- ----- -- ----- -- ---- ------<br>--- ----- --- --- ------ -------- ----- --- ------ ----- --<br>----- ----- ---------- --- --- ------ ------ ---- -- ------<br>------- The ------ ----- --- ---- ------- -- ---- --- --<br>------- ------,133548.79999999702,133547.8999999985,133118.54,133133.09999999776,133135.211,133551.874,,44,The
screen,html.Screen,0_2_1_1_45,2021-11-04T13:16:11.800Z,,,,,,,,,,,,,,,,54,,,,,,,,,,,,,,372.0259999984992,,response,,,100,,,,,,Space,keypress(Space),,,,,-- --- ---- --- ------ ----- ------- ---- -- --- ------- --<br>------- ---------- ------ -- ----- -- ----- -- ---- ------<br>--- ----- --- --- ------ -------- ----- --- ------ ----- --<br>----- ----- ---------- --- --- ------ ------ ---- -- ------<br>------- --- French ----- --- ---- ------- -- ---- --- --<br>------- ------,133924.8999999985,133923.8999999985,133535.205,133549.09999999776,133551.874,133935.488,,45,French
screen,html.Screen,0_2_1_1_46,2021-11-04T13:16:12.199Z,,,,,,,,,,,,,,,,54,,,,,,,,,,,,,,388.5119999999879,,response,,,100,,,,,,Space,keypress(Space),,,,,-- --- ---- --- ------ ----- ------- ---- -- --- ------- --<br>------- ---------- ------ -- ----- -- ----- -- ---- ------<br>--- ----- --- --- ------ -------- ----- --- ------ ----- --<br>----- ----- ---------- --- --- ------ ------ ---- -- ------<br>------- --- ------ state --- ---- ------- -- ---- --- --<br>------- ------,134324.69999999925,134324,133918.816,133925.19999999925,133935.488,134335.552,,46,state
screen,html.Screen,0_2_1_1_47,2021-11-04T13:16:12.591Z,,,,,,,,,,,,,,,,54,,,,,,,,,,,,,,380.34799999851384,,response,,,100,,,,,,Space,keypress(Space),,,,,-- --- ---- --- ------ ----- ------- ---- -- --- ------- --<br>------- ---------- ------ -- ----- -- ----- -- ---- ------<br>--- ----- --- --- ------ -------- ----- --- ------ ----- --<br>----- ----- ---------- --- --- ------ ------ ---- -- ------<br>------- --- ------ ----- was ---- ------- -- ---- --- --<br>------- ------,134716.69999999925,134715.8999999985,134318.881,134325,134335.552,134718.983,,47,was
screen,html.Screen,0_2_1_1_48,2021-11-04T13:16:13.063Z,,,,,,,,,,,,,,,,54,,,,,,,,,,,,,,468.91699999850243,,response,,,100,,,,,,Space,keypress(Space),,,,,-- --- ---- --- ------ ----- ------- ---- -- --- ------- --<br>------- ---------- ------ -- ----- -- ----- -- ---- ------<br>--- ----- --- --- ------ -------- ----- --- ------ ----- --<br>----- ----- ---------- --- --- ------ ------ ---- -- ------<br>------- --- ------ ----- --- left ------- -- ---- --- --<br>------- ------,135188.69999999925,135187.8999999985,134702.312,134716.8999999985,134718.983,135202.445,,48,left
screen,html.Screen,0_2_1_1_49,2021-11-04T13:16:13.495Z,,,,,,,,,,,,,,,,54,,,,,,,,,,,,,,417.3549999970128,,response,,,100,,,,,,Space,keypress(Space),,,,,-- --- ---- --- ------ ----- ------- ---- -- --- ------- --<br>------- ---------- ------ -- ----- -- ----- -- ---- ------<br>--- ----- --- --- ------ -------- ----- --- ------ ----- --<br>----- ----- ---------- --- --- ------ ------ ---- -- ------<br>------- --- ------ ----- --- ---- without -- ---- --- --<br>------- ------,135620.59999999776,135619.79999999702,135185.774,135188.8999999985,135202.445,135635.853,,49,without
screen,html.Screen,0_2_1_1_50,2021-11-04T13:16:13.927Z,,,,,,,,,,,,,,,,54,,,,,,,,,,,,,,415.946999997017,,response,,,100,,,,,,Space,keypress(Space),,,,,-- --- ---- --- ------ ----- ------- ---- -- --- ------- --<br>------- ---------- ------ -- ----- -- ----- -- ---- ------<br>--- ----- --- --- ------ -------- ----- --- ------ ----- --<br>----- ----- ---------- --- --- ------ ------ ---- -- ------<br>------- --- ------ ----- --- ---- ------- an ---- --- --<br>------- ------,136052.79999999702,136051.79999999702,135619.183,135620.79999999702,135635.853,136069.341,,50,an
screen,html.Screen,0_2_1_1_51,2021-11-04T13:16:14.343Z,,,,,,,,,,,,,,,,54,,,,,,,,,,,,,,398.45899999703397,,response,,,100,,,,,,Space,keypress(Space),,,,,-- --- ---- --- ------ ----- ------- ---- -- --- ------- --<br>------- ---------- ------ -- ----- -- ----- -- ---- ------<br>--- ----- --- --- ------ -------- ----- --- ------ ----- --<br>----- ----- ---------- --- --- ------ ------ ---- -- ------<br>------- --- ------ ----- --- ---- ------- -- easy --- --<br>------- ------,136468.59999999776,136467.79999999702,136052.67,136053.09999999776,136069.341,136486.083,,51,easy
screen,html.Screen,0_2_1_1_52,2021-11-04T13:16:14.831Z,,,,,,,,,,,,,,,,54,,,,,,,,,,,,,,469.7169999970065,,response,,,100,,,,,,Space,keypress(Space),,,,,-- --- ---- --- ------ ----- ------- ---- -- --- ------- --<br>------- ---------- ------ -- ----- -- ----- -- ---- ------<br>--- ----- --- --- ------ -------- ----- --- ------ ----- --<br>----- ----- ---------- --- --- ------ ------ ---- -- ------<br>------- --- ------ ----- --- ---- ------- -- ---- way --<br>------- ------,136956.79999999702,136955.79999999702,136469.413,136468.8999999985,136486.083,136969.539,,52,way
screen,html.Screen,0_2_1_1_53,2021-11-04T13:16:15.295Z,,,,,,,,,,,,,,,,54,,,,,,,,,,,,,,450.36099999852013,,response,,,100,,,,,,Space,keypress(Space),,,,,-- --- ---- --- ------ ----- ------- ---- -- --- ------- --<br>------- ---------- ------ -- ----- -- ----- -- ---- ------<br>--- ----- --- --- ------ -------- ----- --- ------ ----- --<br>----- ----- ---------- --- --- ------ ------ ---- -- ------<br>------- --- ------ ----- --- ---- ------- -- ---- --- of<br>------- ------,137420.59999999776,137419.8999999985,136952.869,136957.09999999776,136969.539,137436.221,,53,of
screen,html.Screen,0_2_1_1_54,2021-11-04T13:16:15.767Z,,,,,,,,,,,,,,,,54,,,,,,,,,,,,,,455.5789999970293,,response,,,100,,,,,,Space,keypress(Space),,,,,-- --- ---- --- ------ ----- ------- ---- -- --- ------- --<br>------- ---------- ------ -- ----- -- ----- -- ---- ------<br>--- ----- --- --- ------ -------- ----- --- ------ ----- --<br>----- ----- ---------- --- --- ------ ------ ---- -- ------<br>------- --- ------ ----- --- ---- ------- -- ---- --- --<br>raising ------,137892.79999999702,137891.79999999702,137419.552,137420.8999999985,137436.221,137903.117,,54,raising
screen,html.Screen,0_2_1_1_55,2021-11-04T13:16:16.623Z,,,,,,,,,,,,,,,,54,,,,,,,,,,,,,,844.5829999992566,,response,,,100,,,,,,Space,keypress(Space),,,,,-- --- ---- --- ------ ----- ------- ---- -- --- ------- --<br>------- ---------- ------ -- ----- -- ----- -- ---- ------<br>--- ----- --- --- ------ -------- ----- --- ------ ----- --<br>----- ----- ---------- --- --- ------ ------ ---- -- ------<br>------- --- ------ ----- --- ---- ------- -- ---- --- --<br>------- money.,138748.5,138747.69999999925,137886.446,137893.09999999776,137903.117,138753.491,,55,money.
Item 100,flow.Loop,0_2_1_1,2021-11-04T13:16:16.624Z,,,,,,,,,,,,,,,,,,,,,,,,,,,,,,28152.03099999926,,completion,,,,E,,,,,,,,,,silence,,138749.09999999776,138747.69999999925,110578.999,110580.5,110595.669,138753.491,,,
Question 1,html.Screen,0_2_1_2,2021-11-04T13:16:19.935Z,,,,,,,,,,,,,,,,,,,,,,,,,,,true,TRUE,,3305.908999998501,,response,,,100,E,,,,,TRUE,click #choice-1,,,,silence,,142060.59999999776,142059.3999999985,138736.819,138749.19999999925,138753.491,142070.793,,,
Question 2,html.Screen,0_2_1_3,2021-11-04T13:16:22.191Z,,,,,,,,,,,,,,,,,,,,,,,,,,,true,FALSE,,2244.5069999970146,,response,,,100,E,,,,,FALSE,click #choice-2,,,,silence,,144316.3999999985,144315.29999999702,142054.127,142061,142070.793,144321.57,,,
Item 100,flow.Sequence,0_2_1,2021-11-04T13:16:22.191Z,,,,,,,,,,,,,,,,,,,,,,,,,,,,,,43722.21999999702,,completion,,,,,,,,,,,,,,,,144316.79999999702,144315.29999999702,100576.41,100583,100593.08,144321.57,,,
End of Practice,html.Page,0_2_2,2021-11-04T13:16:28.504Z,,,,,,,,,,,,,,,,,,,,,,,,,,,,,,6307.229999997013,,form submission,,,,,,,,,,,,,,,,150629.3999999985,150628.79999999702,144304.899,144317,144321.57,150639.415,,,
Practice,flow.Sequence,0_2,2021-11-04T13:16:28.505Z,,,,,,,,,,,,,,,,,,,,,,,,,,,,,,107234.93699999702,,completion,,,,,,,,,,,,,,,,150630,150628.79999999702,43377.204,43394,43393.863,150639.415,,,
Trap_instruction,html.Page,0_3_0,2021-11-04T13:16:31.752Z,,,,,,,,,,,,,,,,,,,,,,,,,,,,,,3237.084999999992,,form submission,,,,,,,,,,,,,,,,153877.09999999776,153876.5,150622.746,150630.29999999702,150639.415,153907.609,,,
trap_trial,html.Screen,0_3_1,2021-11-04T13:16:35.367Z,,,,,,,,,,,,,,,,,,,,,,,,,,,true,1,,3583.190999997023,,response,,,,,,,,,1,click #choice-1,,,,,,157491.8999999985,157490.79999999702,153874.261,153877.29999999702,153907.609,157500.639,,,
end of trap trial,html.Page,0_3_2,2021-11-04T13:16:36.944Z,,,,,,,,,,,,,,,,,,,,,,,,,,,,,,1567.8610000000044,,form submission,,,,,,,,,,,,,,,,159069.09999999776,159068.5,157484.005,157492.19999999925,157500.639,159075.418,,,
Trap 1,flow.Sequence,0_3,2021-11-04T13:16:36.944Z,,,,,,,,,,,,,,,,,,,,,,,,,,,,,,8429.084999999992,,completion,,,,,,,,,,,,,,,,159069.59999999776,159068.5,150622.746,150630.29999999702,150639.415,159075.418,,,
Standby,html.Page,0_4_0,2021-11-04T13:16:44.937Z,,,,,,,,,,,,,,,,,,,,,,,,,,,,,,8002.138999999996,,timeout,,,,,,,,,,,,,,,,167062.69999999925,167060.886,159058.748,159069.8999999985,159075.418,167077.557,,,
Holding screen,html.Screen,0_4_1_0_0,2021-11-04T13:16:51.939Z,,,,,,,,,,,,,,,,,,,,,,,,,,,,,,7001.83600000001,,timeout,,,,,,,,,,,,,,,,174064.5,174062.723,167060.886,167063.09999999776,167077.557,174079.393,,,
screen,html.Screen,0_4_1_0_1_0,2021-11-04T13:16:53.342Z,,,,,,,,,,,,,,,,11,,,,,,,,,,,,,,1387.306999999244,,response,,,4,E,,,,,Space,keypress(Space),,,,lyrical,Known -- ---- --- -- --- -------- ------------ ---------- --<br>- ------- ------ --------- -- ------------ -- --- ---- -----<br>------ ---- ---- ------ ------ ------- --- ----- ---------<br>---- --- -------- -------- --- --- -- ------- --- --- -----<br>-- --- ------ ------- --- --- -------- ---- --------- --<br>---------- -- -------- ----------------,175467.59999999776,175466.69999999925,174062.723,174064.8999999985,174079.393,175479.758,,0,Known
screen,html.Screen,0_4_1_0_1_1,2021-11-04T13:16:53.926Z,,,,,,,,,,,,,,,,11,,,,,,,,,,,,,,570.3419999977632,,response,,,4,E,,,,,Space,keypress(Space),,,,lyrical,----- as ---- --- -- --- -------- ------------ ---------- --<br>- ------- ------ --------- -- ------------ -- --- ---- -----<br>------ ---- ---- ------ ------ ------- --- ----- ---------<br>---- --- -------- -------- --- --- -- ------- --- --- -----<br>-- --- ------ ------- --- --- -------- ---- --------- --<br>---------- -- -------- ----------------,176051,176050.09999999776,175463.088,175467.8999999985,175479.758,176063.435,,1,as
screen,html.Screen,0_4_1_0_1_2,2021-11-04T13:16:54.286Z,,,,,,,,,,,,,,,,11,,,,,,,,,,,,,,346.66499999776715,,response,,,4,E,,,,,Space,keypress(Space),,,,lyrical,----- -- Rapa --- -- --- -------- ------------ ---------- --<br>- ------- ------ --------- -- ------------ -- --- ---- -----<br>------ ---- ---- ------ ------ ------- --- ----- ---------<br>---- --- -------- -------- --- --- -- ------- --- --- -----<br>-- --- ------ ------- --- --- -------- ---- --------- --<br>---------- -- -------- ----------------,176410.8999999985,176410.09999999776,176046.764,176051.19999999925,176063.435,176413.435,,2,Rapa
screen,html.Screen,0_4_1_0_1_3,2021-11-04T13:16:54.669Z,,,,,,,,,,,,,,,,11,,,,,,,,,,,,,,380.66499999776715,,response,,,4,E,,,,,Space,keypress(Space),,,,lyrical,----- -- ---- Nui -- --- -------- ------------ ---------- --<br>- ------- ------ --------- -- ------------ -- --- ---- -----<br>------ ---- ---- ------ ------ ------- --- ----- ---------<br>---- --- -------- -------- --- --- -- ------- --- --- -----<br>-- --- ------ ------- --- --- -------- ---- --------- --<br>---------- -- -------- ----------------,176794.79999999702,176794.09999999776,176396.765,176411.19999999925,176413.435,176797.006,,3,Nui
screen,html.Screen,0_4_1_0_1_4,2021-11-04T13:16:55.085Z,,,,,,,,,,,,,,,,11,,,,,,,,,,,,,,412.89399999851594,,response,,,4,E,,,,,Space,keypress(Space),,,,lyrical,----- -- ---- --- to --- -------- ------------ ---------- --<br>- ------- ------ --------- -- ------------ -- --- ---- -----<br>------ ---- ---- ------ ------ ------- --- ----- ---------<br>---- --- -------- -------- --- --- -- ------- --- --- -----<br>-- --- ------ ------- --- --- -------- ---- --------- --<br>---------- -- -------- ----------------,177210.29999999702,177209.8999999985,176780.334,176795.09999999776,176797.006,177213.693,,4,to
screen,html.Screen,0_4_1_0_1_5,2021-11-04T13:16:55.525Z,,,,,,,,,,,,,,,,11,,,,,,,,,,,,,,436.4069999977655,,response,,,4,E,,,,,Space,keypress(Space),,,,lyrical,----- -- ---- --- -- the -------- ------------ ---------- --<br>- ------- ------ --------- -- ------------ -- --- ---- -----<br>------ ---- ---- ------ ------ ------- --- ----- ---------<br>---- --- -------- -------- --- --- -- ------- --- --- -----<br>-- --- ------ ------- --- --- -------- ---- --------- --<br>---------- -- -------- ----------------,177650.8999999985,177650.09999999776,177197.023,177210.5,177213.693,177663.856,,5,the
screen,html.Screen,0_4_1_0_1_6,2021-11-04T13:16:55.941Z,,,,,,,,,,,,,,,,11,,,,,,,,,,,,,,402.24399999776506,,response,,,4,E,,,,,Space,keypress(Space),,,,lyrical,----- -- ---- --- -- --- island's ------------ ---------- --<br>- ------- ------ --------- -- ------------ -- --- ---- -----<br>------ ---- ---- ------ ------ ------- --- ----- ---------<br>---- --- -------- -------- --- --- -- ------- --- --- -----<br>-- --- ------ ------- --- --- -------- ---- --------- --<br>---------- -- -------- ----------------,178066.79999999702,178066.09999999776,177647.185,177651.09999999776,177663.856,178080.628,,6,island's
screen,html.Screen,0_4_1_0_1_7,2021-11-04T13:16:56.437Z,,,,,,,,,,,,,,,,11,,,,,,,,,,,,,,481.2719999985129,,response,,,4,E,,,,,Space,keypress(Space),,,,lyrical,"----- -- ---- --- -- --- -------- inhabitants, ---------- --<br>- ------- ------ --------- -- ------------ -- --- ---- -----<br>------ ---- ---- ------ ------ ------- --- ----- ---------<br>---- --- -------- -------- --- --- -- ------- --- --- -----<br>-- --- ------ ------- --- --- -------- ---- --------- --<br>---------- -- -------- ----------------",178562.79999999702,178561.8999999985,178063.957,178067,178080.628,178563.944,,7,"inhabitants,"
screen,html.Screen,0_4_1_0_1_8,2021-11-04T13:16:57.149Z,,,,,,,,,,,,,,,,11,,,,,,,,,,,,,,710.0560000000114,,response,,,4,E,,,,,Space,keypress(Space),,,,lyrical,----- -- ---- --- -- --- -------- ------------ Rongorongo --<br>- ------- ------ --------- -- ------------ -- --- ---- -----<br>------ ---- ---- ------ ------ ------- --- ----- ---------<br>---- --- -------- -------- --- --- -- ------- --- --- -----<br>-- --- ------ ------- --- --- -------- ---- --------- --<br>---------- -- -------- ----------------,179274.79999999702,179274,178547.275,178563,178563.944,179281.033,,8,Rongorongo
screen,html.Screen,0_4_1_0_1_9,2021-11-04T13:16:57.565Z,,,,,,,,,,,,,,,,11,,,,,,,,,,,,,,408.8669999985141,,response,,,4,E,,,,,Space,keypress(Space),,,,lyrical,----- -- ---- --- -- --- -------- ------------ ---------- is<br>- ------- ------ --------- -- ------------ -- --- ---- -----<br>------ ---- ---- ------ ------ ------- --- ----- ---------<br>---- --- -------- -------- --- --- -- ------- --- --- -----<br>-- --- ------ ------- --- --- -------- ---- --------- --<br>---------- -- -------- ----------------,179690.69999999925,179689.8999999985,179264.361,179275,179281.033,179697.593,,9,is
screen,html.Screen,0_4_1_0_1_10,2021-11-04T13:16:57.957Z,,,,,,,,,,,,,,,,11,,,,,,,,,,,,,,384.3069999985164,,response,,,4,E,,,,,Space,keypress(Space),,,,lyrical,----- -- ---- --- -- --- -------- ------------ ---------- --<br>a ------- ------ --------- -- ------------ -- --- ---- -----<br>------ ---- ---- ------ ------ ------- --- ----- ---------<br>---- --- -------- -------- --- --- -- ------- --- --- -----<br>-- --- ------ ------- --- --- -------- ---- --------- --<br>---------- -- -------- ----------------,180082.59999999776,180081.8999999985,179680.924,179691,179697.593,180097.866,,10,a
screen,html.Screen,0_4_1_0_1_11,2021-11-04T13:16:58.341Z,,,,,,,,,,,,,,,,11,,,,,,,,,,,,,,368.1339999999909,,response,,,4,E,,,,,Space,keypress(Space),,,,lyrical,----- -- ---- --- -- --- -------- ------------ ---------- --<br>- writing ------ --------- -- ------------ -- --- ---- -----<br>------ ---- ---- ------ ------ ------- --- ----- ---------<br>---- --- -------- -------- --- --- -- ------- --- --- -----<br>-- --- ------ ------- --- --- -------- ---- --------- --<br>---------- -- -------- ----------------,180466.69999999925,180466,180081.195,180082.8999999985,180097.866,180481.106,,11,writing
screen,html.Screen,0_4_1_0_1_12,2021-11-04T13:16:58.701Z,,,,,,,,,,,,,,,,11,,,,,,,,,,,,,,344.7939999985101,,response,,,4,E,,,,,Space,keypress(Space),,,,lyrical,----- -- ---- --- -- --- -------- ------------ ---------- --<br>- ------- system --------- -- ------------ -- --- ---- -----<br>------ ---- ---- ------ ------ ------- --- ----- ---------<br>---- --- -------- -------- --- --- -- ------- --- --- -----<br>-- --- ------ ------- --- --- -------- ---- --------- --<br>---------- -- -------- ----------------,180826.69999999925,180825.8999999985,180464.438,180467,180481.106,180831.423,,12,system
screen,html.Screen,0_4_1_0_1_13,2021-11-04T13:16:59.053Z,,,,,,,,,,,,,,,,11,,,,,,,,,,,,,,346.4769999985001,,response,,,4,E,,,,,Space,keypress(Space),,,,lyrical,----- -- ---- --- -- --- -------- ------------ ---------- --<br>- ------- ------ comprised -- ------------ -- --- ---- -----<br>------ ---- ---- ------ ------ ------- --- ----- ---------<br>---- --- -------- -------- --- --- -- ------- --- --- -----<br>-- --- ------ ------- --- --- -------- ---- --------- --<br>---------- -- -------- ----------------,181178.69999999925,181177.8999999985,180814.751,180826.8999999985,180831.423,181181.457,,13,comprised
screen,html.Screen,0_4_1_0_1_14,2021-11-04T13:16:59.445Z,,,,,,,,,,,,,,,,11,,,,,,,,,,,,,,388.442999998515,,response,,,4,E,,,,,Space,keypress(Space),,,,lyrical,----- -- ---- --- -- --- -------- ------------ ---------- --<br>- ------- ------ --------- of ------------ -- --- ---- -----<br>------ ---- ---- ------ ------ ------- --- ----- ---------<br>---- --- -------- -------- --- --- -- ------- --- --- -----<br>-- --- ------ ------- --- --- -------- ---- --------- --<br>---------- -- -------- ----------------,181570.69999999925,181569.8999999985,181164.786,181178.8999999985,181181.457,181581.576,,14,of
screen,html.Screen,0_4_1_0_1_15,2021-11-04T13:16:59.845Z,,,,,,,,,,,,,,,,11,,,,,,,,,,,,,,388.22399999701884,,response,,,4,E,,,,,Space,keypress(Space),,,,lyrical,----- -- ---- --- -- --- -------- ------------ ---------- --<br>- ------- ------ --------- -- pictographs. -- --- ---- -----<br>------ ---- ---- ------ ------ ------- --- ----- ---------<br>---- --- -------- -------- --- --- -- ------- --- --- -----<br>-- --- ------ ------- --- --- -------- ---- --------- --<br>---------- -- -------- ----------------,181970.69999999925,181969.79999999702,181564.905,181570.8999999985,181581.576,181981.676,,15,pictographs.
screen,html.Screen,0_4_1_0_1_16,2021-11-04T13:17:00.269Z,,,,,,,,,,,,,,,,11,,,,,,,,,,,,,,412.123999997013,,response,,,4,E,,,,,Space,keypress(Space),,,,lyrical,----- -- ---- --- -- --- -------- ------------ ---------- --<br>- ------- ------ --------- -- ------------ It --- ---- -----<br>------ ---- ---- ------ ------ ------- --- ----- ---------<br>---- --- -------- -------- --- --- -- ------- --- --- -----<br>-- --- ------ ------- --- --- -------- ---- --------- --<br>---------- -- -------- ----------------,182394.69999999925,182393.79999999702,181965.005,181970.8999999985,181981.676,182398.456,,16,It
screen,html.Screen,0_4_1_0_1_17,2021-11-04T13:17:00.609Z,,,,,,,,,,,,,,,,11,,,,,,,,,,,,,,339.3439999970142,,response,,,4,E,,,,,Space,keypress(Space),,,,lyrical,----- -- ---- --- -- --- -------- ------------ ---------- --<br>- ------- ------ --------- -- ------------ -- has ---- -----<br>------ ---- ---- ------ ------ ------- --- ----- ---------<br>---- --- -------- -------- --- --- -- ------- --- --- -----<br>-- --- ------ ------- --- --- -------- ---- --------- --<br>---------- -- -------- ----------------,182738.69999999925,182737.79999999702,182381.785,182394.8999999985,182398.456,182748.505,,17,has
screen,html.Screen,0_4_1_0_1_18,2021-11-04T13:17:00.945Z,,,,,,,,,,,,,,,,11,,,,,,,,,,,,,,325.3949999985052,,response,,,4,E,,,,,Space,keypress(Space),,,,lyrical,----- -- ---- --- -- --- -------- ------------ ---------- --<br>- ------- ------ --------- -- ------------ -- --- been -----<br>------ ---- ---- ------ ------ ------- --- ----- ---------<br>---- --- -------- -------- --- --- -- ------- --- --- -----<br>-- --- ------ ------- --- --- -------- ---- --------- --<br>---------- -- -------- ----------------,183074.69999999925,183073.8999999985,182731.835,182738.8999999985,182748.505,183081.86,,18,been
screen,html.Screen,0_4_1_0_1_19,2021-11-04T13:17:01.313Z,,,,,,,,,,,,,,,,11,,,,,,,,,,,,,,359.93999999703374,,response,,,4,E,,,,,Space,keypress(Space),,,,lyrical,----- -- ---- --- -- --- -------- ------------ ---------- --<br>- ------- ------ --------- -- ------------ -- --- ---- found<br>------ ---- ---- ------ ------ ------- --- ----- ---------<br>---- --- -------- -------- --- --- -- ------- --- --- -----<br>-- --- ------ ------- --- --- -------- ---- --------- --<br>---------- -- -------- ----------------,183442.5,183441.79999999702,183065.191,183074.8999999985,183081.86,183448.816,,19,found
screen,html.Screen,0_4_1_0_1_20,2021-11-04T13:17:01.817Z,,,,,,,,,,,,,,,,11,,,,,,,,,,,,,,496.98399999702815,,response,,,4,E,,,,,Space,keypress(Space),,,,lyrical,----- -- ---- --- -- --- -------- ------------ ---------- --<br>- ------- ------ --------- -- ------------ -- --- ---- -----<br>carved ---- ---- ------ ------ ------- --- ----- ---------<br>---- --- -------- -------- --- --- -- ------- --- --- -----<br>-- --- ------ ------- --- --- -------- ---- --------- --<br>---------- -- -------- ----------------,183946.59999999776,183945.79999999702,183432.143,183442.79999999702,183448.816,183948.749,,20,carved
screen,html.Screen,0_4_1_0_1_21,2021-11-04T13:17:02.209Z,,,,,,,,,,,,,,,,11,,,,,,,,,,,,,,389.05099999700906,,response,,,4,E,,,,,Space,keypress(Space),,,,lyrical,----- -- ---- --- -- --- -------- ------------ ---------- --<br>- ------- ------ --------- -- ------------ -- --- ---- -----<br>------ into ---- ------ ------ ------- --- ----- ---------<br>---- --- -------- -------- --- --- -- ------- --- --- -----<br>-- --- ------ ------- --- --- -------- ---- --------- --<br>---------- -- -------- ----------------,184338.5,184337.79999999702,183932.08,183946.79999999702,183948.749,184348.892,,21,into
screen,html.Screen,0_4_1_0_1_22,2021-11-04T13:17:02.609Z,,,,,,,,,,,,,,,,11,,,,,,,,,,,,,,388.8079999992624,,response,,,4,E,,,,,Space,keypress(Space),,,,lyrical,----- -- ---- --- -- --- -------- ------------ ---------- --<br>- ------- ------ --------- -- ------------ -- --- ---- -----<br>------ ---- many ------ ------ ------- --- ----- ---------<br>---- --- -------- -------- --- --- -- ------- --- --- -----<br>-- --- ------ ------- --- --- -------- ---- --------- --<br>---------- -- -------- ----------------,184738.5,184737.69999999925,184332.222,184338.79999999702,184348.892,184749.04,,22,many
screen,html.Screen,0_4_1_0_1_23,2021-11-04T13:17:03.016Z,,,,,,,,,,,,,,,,11,,,,,,,,,,,,,,396.6599999992468,,response,,,4,E,,,,,Space,keypress(Space),,,,lyrical,----- -- ---- --- -- --- -------- ------------ ---------- --<br>- ------- ------ --------- -- ------------ -- --- ---- -----<br>------ ---- ---- oblong ------ ------- --- ----- ---------<br>---- --- -------- -------- --- --- -- ------- --- --- -----<br>-- --- ------ ------- --- --- -------- ---- --------- --<br>---------- -- -------- ----------------,185146.5,185145.69999999925,184732.369,184738.69999999925,184749.04,185149.302,,23,oblong
screen,html.Screen,0_4_1_0_1_24,2021-11-04T13:17:03.457Z,,,,,,,,,,,,,,,,11,,,,,,,,,,,,,,436.8979999992589,,response,,,4,E,,,,,Space,keypress(Space),,,,lyrical,----- -- ---- --- -- --- -------- ------------ ---------- --<br>- ------- ------ --------- -- ------------ -- --- ---- -----<br>------ ---- ---- ------ wooden ------- --- ----- ---------<br>---- --- -------- -------- --- --- -- ------- --- --- -----<br>-- --- ------ ------- --- --- -------- ---- --------- --<br>---------- -- -------- ----------------,185587,185586.19999999925,185132.629,185146.69999999925,185149.302,185599.281,,24,wooden
screen,html.Screen,0_4_1_0_1_25,2021-11-04T13:17:03.872Z,,,,,,,,,,,,,,,,11,,,,,,,,,,,,,,402.3189999977767,,response,,,4,E,,,,,Space,keypress(Space),,,,lyrical,----- -- ---- --- -- --- -------- ------------ ---------- --<br>- ------- ------ --------- -- ------------ -- --- ---- -----<br>------ ---- ---- ------ ------ tablets --- ----- ---------<br>---- --- -------- -------- --- --- -- ------- --- --- -----<br>-- --- ------ ------- --- --- -------- ---- --------- --<br>---------- -- -------- ----------------,186002.5,186001.59999999776,185582.611,185587.19999999925,185599.281,186016.057,,25,tablets
screen,html.Screen,0_4_1_0_1_26,2021-11-04T13:17:04.296Z,,,,,,,,,,,,,,,,11,,,,,,,,,,,,,,409.64299999925424,,response,,,4,E,,,,,Space,keypress(Space),,,,lyrical,----- -- ---- --- -- --- -------- ------------ ---------- --<br>- ------- ------ --------- -- ------------ -- --- ---- -----<br>------ ---- ---- ------ ------ ------- and ----- ---------<br>---- --- -------- -------- --- --- -- ------- --- --- -----<br>-- --- ------ ------- --- --- -------- ---- --------- --<br>---------- -- -------- ----------------,186426.5,186425.69999999925,185999.387,186002.69999999925,186016.057,186432.867,,26,and
screen,html.Screen,0_4_1_0_1_27,2021-11-04T13:17:04.856Z,,,,,,,,,,,,,,,,11,,,,,,,,,,,,,,552.8329999992566,,response,,,4,E,,,,,Space,keypress(Space),,,,lyrical,----- -- ---- --- -- --- -------- ------------ ---------- --<br>- ------- ------ --------- -- ------------ -- --- ---- -----<br>------ ---- ---- ------ ------ ------- --- other ---------<br>---- --- -------- -------- --- --- -- ------- --- --- -----<br>-- --- ------ ------- --- --- -------- ---- --------- --<br>---------- -- -------- ----------------,186986.3999999985,186985.69999999925,186416.196,186426.69999999925,186432.867,186999.703,,27,other
screen,html.Screen,0_4_1_0_1_28,2021-11-04T13:17:05.328Z,,,,,,,,,,,,,,,,11,,,,,,,,,,,,,,457.8969999977562,,response,,,4,E,,,,,Space,keypress(Space),,,,lyrical,----- -- ---- --- -- --- -------- ------------ ---------- --<br>- ------- ------ --------- -- ------------ -- --- ---- -----<br>------ ---- ---- ------ ------ ------- --- ----- artifacts<br>---- --- -------- -------- --- --- -- ------- --- --- -----<br>-- --- ------ ------- --- --- -------- ---- --------- --<br>---------- -- -------- ----------------,187458.3999999985,187457.59999999776,186983.032,186986.69999999925,186999.703,187466.425,,28,artifacts
screen,html.Screen,0_4_1_0_1_29,2021-11-04T13:17:05.784Z,,,,,,,,,,,,,,,,11,,,,,,,,,,,,,,447.17499999777647,,response,,,4,E,,,,,Space,keypress(Space),,,,lyrical,----- -- ---- --- -- --- -------- ------------ ---------- --<br>- ------- ------ --------- -- ------------ -- --- ---- -----<br>------ ---- ---- ------ ------ ------- --- ----- ---------<br>from --- -------- -------- --- --- -- ------- --- --- -----<br>-- --- ------ ------- --- --- -------- ---- --------- --<br>---------- -- -------- ----------------,187914.3999999985,187913.59999999776,187449.755,187458.69999999925,187466.425,187916.609,,29,from
screen,html.Screen,0_4_1_0_1_30,2021-11-04T13:17:06.240Z,,,,,,,,,,,,,,,,11,,,,,,,,,,,,,,452.9909999977681,,response,,,4,E,,,,,Space,keypress(Space),,,,lyrical,----- -- ---- --- -- --- -------- ------------ ---------- --<br>- ------- ------ --------- -- ------------ -- --- ---- -----<br>------ ---- ---- ------ ------ ------- --- ----- ---------<br>---- the -------- -------- --- --- -- ------- --- --- -----<br>-- --- ------ ------- --- --- -------- ---- --------- --<br>---------- -- -------- ----------------,188370.5,188369.59999999776,187899.938,187914.69999999925,187916.609,188383.393,,30,the
screen,html.Screen,0_4_1_0_1_31,2021-11-04T13:17:06.624Z,,,,,,,,,,,,,,,,11,,,,,,,,,,,,,,370.10699999998906,,response,,,4,E,,,,,Space,keypress(Space),,,,lyrical,----- -- ---- --- -- --- -------- ------------ ---------- --<br>- ------- ------ --------- -- ------------ -- --- ---- -----<br>------ ---- ---- ------ ------ ------- --- ----- ---------<br>---- --- island's -------- --- --- -- ------- --- --- -----<br>-- --- ------ ------- --- --- -------- ---- --------- --<br>---------- -- -------- ----------------,188754.29999999702,188753.5,188366.722,188370.69999999925,188383.393,188766.859,,31,island's
screen,html.Screen,0_4_1_0_1_32,2021-11-04T13:17:07.040Z,,,,,,,,,,,,,,,,11,,,,,,,,,,,,,,402.7409999977681,,response,,,4,E,,,,,Space,keypress(Space),,,,lyrical,----- -- ---- --- -- --- -------- ------------ ---------- --<br>- ------- ------ --------- -- ------------ -- --- ---- -----<br>------ ---- ---- ------ ------ ------- --- ----- ---------<br>---- --- -------- history. --- --- -- ------- --- --- -----<br>-- --- ------ ------- --- --- -------- ---- --------- --<br>---------- -- -------- ----------------,189170.29999999702,189169.59999999776,188750.188,188754.59999999776,188766.859,189183.446,,32,history.
screen,html.Screen,0_4_1_0_1_33,2021-11-04T13:17:07.456Z,,,,,,,,,,,,,,,,11,,,,,,,,,,,,,,402.0540000000037,,response,,,4,E,,,,,Space,keypress(Space),,,,lyrical,----- -- ---- --- -- --- -------- ------------ ---------- --<br>- ------- ------ --------- -- ------------ -- --- ---- -----<br>------ ---- ---- ------ ------ ------- --- ----- ---------<br>---- --- -------- -------- The --- -- ------- --- --- -----<br>-- --- ------ ------- --- --- -------- ---- --------- --<br>---------- -- -------- ----------------,189586.3999999985,189585.5,189166.778,189170.59999999776,189183.446,189600.493,,33,The
screen,html.Screen,0_4_1_0_1_34,2021-11-04T13:17:08.056Z,,,,,,,,,,,,,,,,11,,,,,,,,,,,,,,585.0070000000123,,response,,,4,E,,,,,Space,keypress(Space),,,,lyrical,----- -- ---- --- -- --- -------- ------------ ---------- --<br>- ------- ------ --------- -- ------------ -- --- ---- -----<br>------ ---- ---- ------ ------ ------- --- ----- ---------<br>---- --- -------- -------- --- art -- ------- --- --- -----<br>-- --- ------ ------- --- --- -------- ---- --------- --<br>---------- -- -------- ----------------,190186.29999999702,190185.5,189583.82,189586.59999999776,189600.493,190200.346,,34,art
screen,html.Screen,0_4_1_0_1_35,2021-11-04T13:17:08.456Z,,,,,,,,,,,,,,,,11,,,,,,,,,,,,,,385.15400000000955,,response,,,4,E,,,,,Space,keypress(Space),,,,lyrical,----- -- ---- --- -- --- -------- ------------ ---------- --<br>- ------- ------ --------- -- ------------ -- --- ---- -----<br>------ ---- ---- ------ ------ ------- --- ----- ---------<br>---- --- -------- -------- --- --- of ------- --- --- -----<br>-- --- ------ ------- --- --- -------- ---- --------- --<br>---------- -- -------- ----------------,190586.29999999702,190585.5,190183.678,190186.59999999776,190200.346,190600.705,,35,of
screen,html.Screen,0_4_1_0_1_36,2021-11-04T13:17:08.928Z,,,,,,,,,,,,,,,,11,,,,,,,,,,,,,,456.7950000000128,,response,,,4,E,,,,,Space,keypress(Space),,,,lyrical,----- -- ---- --- -- --- -------- ------------ ---------- --<br>- ------- ------ --------- -- ------------ -- --- ---- -----<br>------ ---- ---- ------ ------ ------- --- ----- ---------<br>---- --- -------- -------- --- --- -- writing --- --- -----<br>-- --- ------ ------- --- --- -------- ---- --------- --<br>---------- -- -------- ----------------,191058.29999999702,191057.5,190584.033,190586.59999999776,190600.705,191067.456,,36,writing
screen,html.Screen,0_4_1_0_1_37,2021-11-04T13:17:09.384Z,,,,,,,,,,,,,,,,11,,,,,,,,,,,,,,445.9439999985043,,response,,,4,E,,,,,Space,keypress(Space),,,,lyrical,----- -- ---- --- -- --- -------- ------------ ---------- --<br>- ------- ------ --------- -- ------------ -- --- ---- -----<br>------ ---- ---- ------ ------ ------- --- ----- ---------<br>---- --- -------- -------- --- --- -- ------- was --- -----<br>-- --- ------ ------- --- --- -------- ---- --------- --<br>---------- -- -------- ----------------,191514.29999999702,191513.3999999985,191050.785,191058.5,191067.456,191517.587,,37,was
screen,html.Screen,0_4_1_0_1_38,2021-11-04T13:17:09.848Z,,,,,,,,,,,,,,,,11,,,,,,,,,,,,,,459.81299999851035,,response,,,4,E,,,,,Space,keypress(Space),,,,lyrical,----- -- ---- --- -- --- -------- ------------ ---------- --<br>- ------- ------ --------- -- ------------ -- --- ---- -----<br>------ ---- ---- ------ ------ ------- --- ----- ---------<br>---- --- -------- -------- --- --- -- ------- --- not -----<br>-- --- ------ ------- --- --- -------- ---- --------- --<br>---------- -- -------- ----------------,191978.29999999702,191977.3999999985,191500.916,191514.5,191517.587,191984.331,,38,not
screen,html.Screen,0_4_1_0_1_39,2021-11-04T13:17:10.288Z,,,,,,,,,,,,,,,,11,,,,,,,,,,,,,,433.0689999985043,,response,,,4,E,,,,,Space,keypress(Space),,,,lyrical,----- -- ---- --- -- --- -------- ------------ ---------- --<br>- ------- ------ --------- -- ------------ -- --- ---- -----<br>------ ---- ---- ------ ------ ------- --- ----- ---------<br>---- --- -------- -------- --- --- -- ------- --- --- known<br>-- --- ------ ------- --- --- -------- ---- --------- --<br>---------- -- -------- ----------------,192418.29999999702,192417.3999999985,191967.661,191978.5,191984.331,192434.411,,39,known
screen,html.Screen,0_4_1_0_1_40,2021-11-04T13:17:10.720Z,,,,,,,,,,,,,,,,11,,,,,,,,,,,,,,414.888999997027,,response,,,4,E,,,,,Space,keypress(Space),,,,lyrical,----- -- ---- --- -- --- -------- ------------ ---------- --<br>- ------- ------ --------- -- ------------ -- --- ---- -----<br>------ ---- ---- ------ ------ ------- --- ----- ---------<br>---- --- -------- -------- --- --- -- ------- --- --- -----<br>in --- ------ ------- --- --- -------- ---- --------- --<br>---------- -- -------- ----------------,192850.19999999925,192849.29999999702,192417.741,192418.5,192434.411,192851.29,,40,in
screen,html.Screen,0_4_1_0_1_41,2021-11-04T13:17:11.176Z,,,,,,,,,,,,,,,,11,,,,,,,,,,,,,,454.0099999970116,,response,,,4,E,,,,,Space,keypress(Space),,,,lyrical,----- -- ---- --- -- --- -------- ------------ ---------- --<br>- ------- ------ --------- -- ------------ -- --- ---- -----<br>------ ---- ---- ------ ------ ------- --- ----- ---------<br>---- --- -------- -------- --- --- -- ------- --- --- -----<br>-- any ------ ------- --- --- -------- ---- --------- --<br>---------- -- -------- ----------------,193306.19999999925,193305.29999999702,192834.619,192850.3999999985,192851.29,193317.879,,41,any
screen,html.Screen,0_4_1_0_1_42,2021-11-04T13:17:11.624Z,,,,,,,,,,,,,,,,11,,,,,,,,,,,,,,435.4209999970335,,response,,,4,E,,,,,Space,keypress(Space),,,,lyrical,----- -- ---- --- -- --- -------- ------------ ---------- --<br>- ------- ------ --------- -- ------------ -- --- ---- -----<br>------ ---- ---- ------ ------ ------- --- ----- ---------<br>---- --- -------- -------- --- --- -- ------- --- --- -----<br>-- --- nearby ------- --- --- -------- ---- --------- --<br>---------- -- -------- ----------------,193754.09999999776,193753.29999999702,193301.211,193306.29999999702,193317.879,193768.248,,42,nearby
screen,html.Screen,0_4_1_0_1_43,2021-11-04T13:17:12.112Z,,,,,,,,,,,,,,,,11,,,,,,,,,,,,,,472.9519999992626,,response,,,4,E,,,,,Space,keypress(Space),,,,lyrical,----- -- ---- --- -- --- -------- ------------ ---------- --<br>- ------- ------ --------- -- ------------ -- --- ---- -----<br>------ ---- ---- ------ ------ ------- --- ----- ---------<br>---- --- -------- -------- --- --- -- ------- --- --- -----<br>-- --- ------ islands --- --- -------- ---- --------- --<br>---------- -- -------- ----------------,194242,194241.19999999925,193751.576,193754.3999999985,193768.248,194251.67,,43,islands
screen,html.Screen,0_4_1_0_1_44,2021-11-04T13:17:12.552Z,,,,,,,,,,,,,,,,11,,,,,,,,,,,,,,429.62999999700696,,response,,,4,E,,,,,Space,keypress(Space),,,,lyrical,----- -- ---- --- -- --- -------- ------------ ---------- --<br>- ------- ------ --------- -- ------------ -- --- ---- -----<br>------ ---- ---- ------ ------ ------- --- ----- ---------<br>---- --- -------- -------- --- --- -- ------- --- --- -----<br>-- --- ------ ------- and --- -------- ---- --------- --<br>---------- -- -------- ----------------,194682,194681.29999999702,194234.999,194242.29999999702,194251.67,194684.972,,44,and
screen,html.Screen,0_4_1_0_1_45,2021-11-04T13:17:12.936Z,,,,,,,,,,,,,,,,11,,,,,,,,,,,,,,380.3279999970109,,response,,,4,E,,,,,Space,keypress(Space),,,,lyrical,----- -- ---- --- -- --- -------- ------------ ---------- --<br>- ------- ------ --------- -- ------------ -- --- ---- -----<br>------ ---- ---- ------ ------ ------- --- ----- ---------<br>---- --- -------- -------- --- --- -- ------- --- --- -----<br>-- --- ------ ------- --- the -------- ---- --------- --<br>---------- -- -------- ----------------,195066,195065.29999999702,194668.303,194682.29999999702,194684.972,195068.55,,45,the
screen,html.Screen,0_4_1_0_1_46,2021-11-04T13:17:13.376Z,,,,,,,,,,,,,,,,11,,,,,,,,,,,,,,436.7499999970314,,response,,,4,E,,,,,Space,keypress(Space),,,,lyrical,----- -- ---- --- -- --- -------- ------------ ---------- --<br>- ------- ------ --------- -- ------------ -- --- ---- -----<br>------ ---- ---- ------ ------ ------- --- ----- ---------<br>---- --- -------- -------- --- --- -- ------- --- --- -----<br>-- --- ------ ------- --- --- script's ---- --------- --<br>---------- -- -------- ----------------,195506.09999999776,195505.29999999702,195051.879,195066.29999999702,195068.55,195518.663,,46,script's
screen,html.Screen,0_4_1_0_1_47,2021-11-04T13:17:13.752Z,,,,,,,,,,,,,,,,11,,,,,,,,,,,,,,362.93699999776436,,response,,,4,E,,,,,Space,keypress(Space),,,,lyrical,----- -- ---- --- -- --- -------- ------------ ---------- --<br>- ------- ------ --------- -- ------------ -- --- ---- -----<br>------ ---- ---- ------ ------ ------- --- ----- ---------<br>---- --- -------- -------- --- --- -- ------- --- --- -----<br>-- --- ------ ------- --- --- -------- mere --------- --<br>---------- -- -------- ----------------,195882.5,195881.59999999776,195501.992,195506.3999999985,195518.663,195885.26,,47,mere
screen,html.Screen,0_4_1_0_1_48,2021-11-04T13:17:14.224Z,,,,,,,,,,,,,,,,11,,,,,,,,,,,,,,467.93999999924563,,response,,,4,E,,,,,Space,keypress(Space),,,,lyrical,----- -- ---- --- -- --- -------- ------------ ---------- --<br>- ------- ------ --------- -- ------------ -- --- ---- -----<br>------ ---- ---- ------ ------ ------- --- ----- ---------<br>---- --- -------- -------- --- --- -- ------- --- --- -----<br>-- --- ------ ------- --- --- -------- ---- existence --<br>---------- -- -------- ----------------,196354,196353.19999999925,195868.592,195882.69999999925,195885.26,196368.925,,48,existence
screen,html.Screen,0_4_1_0_1_49,2021-11-04T13:17:14.656Z,,,,,,,,,,,,,,,,11,,,,,,,,,,,,,,416.3749999970314,,response,,,4,E,,,,,Space,keypress(Space),,,,lyrical,----- -- ---- --- -- --- -------- ------------ ---------- --<br>- ------- ------ --------- -- ------------ -- --- ---- -----<br>------ ---- ---- ------ ------ ------- --- ----- ---------<br>---- --- -------- -------- --- --- -- ------- --- --- -----<br>-- --- ------ ------- --- --- -------- ---- --------- is<br>---------- -- -------- ----------------,196786.09999999776,196785.29999999702,196352.253,196354.29999999702,196368.925,196802.196,,49,is
screen,html.Screen,0_4_1_0_1_50,2021-11-04T13:17:15.112Z,,,,,,,,,,,,,,,,11,,,,,,,,,,,,,,438.90399999776855,,response,,,4,E,,,,,Space,keypress(Space),,,,lyrical,----- -- ---- --- -- --- -------- ------------ ---------- --<br>- ------- ------ --------- -- ------------ -- --- ---- -----<br>------ ---- ---- ------ ------ ------- --- ----- ---------<br>---- --- -------- -------- --- --- -- ------- --- --- -----<br>-- --- ------ ------- --- --- -------- ---- --------- --<br>sufficient -- -------- ----------------,197242,197241.09999999776,196785.527,196786.29999999702,196802.196,197252.498,,50,sufficient
