sender,sender_type,sender_id,timestamp,meta,,Blues,Classical,Country,Dance,Electronic,Folk,Gospel,Hip-Hop,Jazz,Latin,Musical/Film,New-age,Pop,Provo_ID,R&B,Rap,Reggae,Religious,Rock,Soul,Swing,Traditional,age,artist_name,correct,correctResponse,distraction,duration,education,ended_on,familiarity,gender,item,list,music_frequency,offensiveness,pleasantness,preference,response,response_action,snippet_file,song_name,song_rating,sound,text,time_commit,time_end,time_render,time_run,time_show,time_switch,url,word,word_ID
Instructions,html.Page,0_0,2021-11-12T13:15:30.524Z,"{""labjs_version"":""20.2.3"",""labjs_build"":{""flavor"":""production"",""commit"":""7ea907d66ca8aeef8054924ca5d82ffbe11e34e5""},""location"":""https://run.pavlovia.org/mvasilev/lab_music_b/"",""userAgent"":""Mozilla/5.0 (Windows NT 6.1; Win64; x64) AppleWebKit/537.36 (KHTML, like Gecko) Chrome/95.0.4638.69 Safari/537.36"",""platform"":""Win32"",""language"":""en-US"",""locale"":""en-US"",""timeZone"":""Europe/London"",""timezoneOffset"":0,""screen_width"":1920,""screen_height"":1080,""scroll_width"":1920,""scroll_height"":959,""window_innerWidth"":1920,""window_innerHeight"":1007,""devicePixelRatio"":1}",,,,,,,,,,,,,,,,,,,,,,,,,,,,,17554.710999928473,,form submission,,,,,,,,,,,,,,,,25230.5,25229.699999928474,7641.645,7640.699999928474,7674.989,25229.715,{},,
Headphones,html.Page,0_1,2021-11-12T13:15:37.590Z,,,,,,,,,,,,,,,,,,,,,,,,,,,,,,7066.184999976158,,form submission,,,,,,,,,,,,,,,,32296.5,32295.899999976158,25213.044,25230.799999952316,25229.715,32314.949,,,
Holding screen,html.Screen,0_2_0_0,2021-11-12T13:15:47.600Z,,,,,,,,,,,,,,,,,,,,,,,,,,,,,,10002.457999999999,,timeout,,,,,,,,,,,,,,,,42306.199999928474,42300.738,32281.607,32297.199999928474,32314.949,42317.407,,,
screen,html.Screen,0_2_0_1_0,2021-11-12T13:15:49.022Z,,,,,,,,,,,,,,,,53,,,,,,,,,,,,,,1409.5930000000008,,response,,,99,,,,,,Space,keypress(Space),,,,,When -- ----- -- ------ - ------- --- ----------<br>------------- ------ ------ ---- ---- ------- ----- -- ----<br>-------- ------- -- ---------- --- - --- ----- ----- ----<br>---- --- --- ----- --- ---- ---- ------- ----- ---- -------<br>--- --- -- ----- -- --- ---- -- --- ---- -- ------ ------<br>--- ----- -- ----,43728.39999997616,43727,42300.738,42306.59999990463,42317.407,43734.757,,0,When
screen,html.Screen,0_2_0_1_1,2021-11-12T13:15:49.885Z,,,,,,,,,,,,,,,,53,,,,,,,,,,,,,,855.6429999761604,,response,,,99,,,,,,Space,keypress(Space),,,,,---- it ----- -- ------ - ------- --- ----------<br>------------- ------ ------ ---- ---- ------- ----- -- ----<br>-------- ------- -- ---------- --- - --- ----- ----- ----<br>---- --- --- ----- --- ---- ---- ------- ----- ---- -------<br>--- --- -- ----- -- --- ---- -- --- ---- -- ------ ------<br>--- ----- -- ----,44591.299999952316,44590.39999997616,43718.086,43728.799999952316,43734.757,44601.511,,1,it
screen,html.Screen,0_2_0_1_2,2021-11-12T13:15:50.645Z,,,,,,,,,,,,,,,,53,,,,,,,,,,,,,,748.7889999523177,,response,,,99,,,,,,Space,keypress(Space),,,,,---- -- comes -- ------ - ------- --- ----------<br>------------- ------ ------ ---- ---- ------- ----- -- ----<br>-------- ------- -- ---------- --- - --- ----- ----- ----<br>---- --- --- ----- --- ---- ---- ------- ----- ---- -------<br>--- --- -- ----- -- --- ---- -- --- ---- -- ------ ------<br>--- ----- -- ----,45351.299999952316,45350.299999952316,44584.841,44591.59999990463,44601.511,45368.498,,2,comes
screen,html.Screen,0_2_0_1_3,2021-11-12T13:15:51.405Z,,,,,,,,,,,,,,,,53,,,,,,,,,,,,,,741.7019999284748,,response,,,99,,,,,,Space,keypress(Space),,,,,---- -- ----- to ------ - ------- --- ----------<br>------------- ------ ------ ---- ---- ------- ----- -- ----<br>-------- ------- -- ---------- --- - --- ----- ----- ----<br>---- --- --- ----- --- ---- ---- ------- ----- ---- -------<br>--- --- -- ----- -- --- ---- -- --- ---- -- ------ ------<br>--- ----- -- ----,46111.199999928474,46110.199999928474,45351.827,45351.5,45368.498,46118.687,,3,to
screen,html.Screen,0_2_0_1_4,2021-11-12T13:15:52.109Z,,,,,,,,,,,,,,,,53,,,,,,,,,,,,,,695.5129999284763,,response,,,99,,,,,,Space,keypress(Space),,,,,---- -- ----- -- having - ------- --- ----------<br>------------- ------ ------ ---- ---- ------- ----- -- ----<br>-------- ------- -- ---------- --- - --- ----- ----- ----<br>---- --- --- ----- --- ---- ---- ------- ----- ---- -------<br>--- --- -- ----- -- --- ---- -- --- ---- -- ------ ------<br>--- ----- -- ----,46815.39999997616,46814.199999928474,46102.016,46111.699999928474,46118.687,46818.883,,4,having
screen,html.Screen,0_2_0_1_5,2021-11-12T13:15:52.709Z,,,,,,,,,,,,,,,,53,,,,,,,,,,,,,,595.3169999284728,,response,,,99,,,,,,Space,keypress(Space),,,,,---- -- ----- -- ------ a ------- --- ----------<br>------------- ------ ------ ---- ---- ------- ----- -- ----<br>-------- ------- -- ---------- --- - --- ----- ----- ----<br>---- --- --- ----- --- ---- ---- ------- ----- ---- -------<br>--- --- -- ----- -- --- ---- -- --- ---- -- ------ ------<br>--- ----- -- ----,47415.09999990463,47414.199999928474,46802.212,46815.799999952316,46818.883,47418.991,,5,a
screen,html.Screen,0_2_0_1_6,2021-11-12T13:15:53.317Z,,,,,,,,,,,,,,,,53,,,,,,,,,,,,,,603.2089999284726,,response,,,99,,,,,,Space,keypress(Space),,,,,---- -- ----- -- ------ - lasting --- ----------<br>------------- ------ ------ ---- ---- ------- ----- -- ----<br>-------- ------- -- ---------- --- - --- ----- ----- ----<br>---- --- --- ----- --- ---- ---- ------- ----- ---- -------<br>--- --- -- ----- -- --- ---- -- --- ---- -- ------ ------<br>--- ----- -- ----,48023.09999990463,48022.199999928474,47402.321,47415.59999990463,47418.991,48035.873,,6,lasting
screen,html.Screen,0_2_0_1_7,2021-11-12T13:15:53.837Z,,,,,,,,,,,,,,,,53,,,,,,,,,,,,,,506.32699992847483,,response,,,99,,,,,,Space,keypress(Space),,,,,---- -- ----- -- ------ - ------- and ----------<br>------------- ------ ------ ---- ---- ------- ----- -- ----<br>-------- ------- -- ---------- --- - --- ----- ----- ----<br>---- --- --- ----- --- ---- ---- ------- ----- ---- -------<br>--- --- -- ----- -- --- ---- -- --- ---- -- ------ ------<br>--- ----- -- ----,48543.09999990463,48542.199999928474,48019.202,48023.39999997616,48035.873,48552.628,,7,and
screen,html.Screen,0_2_0_1_8,2021-11-12T13:15:54.381Z,,,,,,,,,,,,,,,,53,,,,,,,,,,,,,,533.5719999284775,,response,,,99,,,,,,Space,keypress(Space),,,,,---- -- ----- -- ------ - ------- --- fulfilling<br>------------- ------ ------ ---- ---- ------- ----- -- ----<br>-------- ------- -- ---------- --- - --- ----- ----- ----<br>---- --- --- ----- --- ---- ---- ------- ----- ---- -------<br>--- --- -- ----- -- --- ---- -- --- ---- -- ------ ------<br>--- ----- -- ----,49087.299999952316,49086.199999928474,48535.958,48543.39999997616,48552.628,49102.841,,8,fulfilling
screen,html.Screen,0_2_0_1_9,2021-11-12T13:15:54.869Z,,,,,,,,,,,,,,,,53,,,,,,,,,,,,,,471.2589999046322,,response,,,99,,,,,,Space,keypress(Space),,,,,"---- -- ----- -- ------ - ------- --- ----------<br>relationship, ------ ------ ---- ---- ------- ----- -- ----<br>-------- ------- -- ---------- --- - --- ----- ----- ----<br>---- --- --- ----- --- ---- ---- ------- ----- ---- -------<br>--- --- -- ----- -- --- ---- -- --- ---- -- ------ ------<br>--- ----- -- ----",49575.09999990463,49574.09999990463,49086.17,49087.59999990463,49102.841,49586.296,,9,"relationship,"
screen,html.Screen,0_2_0_1_10,2021-11-12T13:15:55.333Z,,,,,,,,,,,,,,,,53,,,,,,,,,,,,,,451.90399992847233,,response,,,99,,,,,,Space,keypress(Space),,,,,---- -- ----- -- ------ - ------- --- ----------<br>------------- common ------ ---- ---- ------- ----- -- ----<br>-------- ------- -- ---------- --- - --- ----- ----- ----<br>---- --- --- ----- --- ---- ---- ------- ----- ---- -------<br>--- --- -- ----- -- --- ---- -- --- ---- -- ------ ------<br>--- ----- -- ----,50039.09999990463,50038.199999928474,49569.625,49575.299999952316,49586.296,50053.041,,10,common
screen,html.Screen,0_2_0_1_11,2021-11-12T13:15:55.861Z,,,,,,,,,,,,,,,,53,,,,,,,,,,,,,,512.9590000000026,,response,,,99,,,,,,Space,keypress(Space),,,,,---- -- ----- -- ------ - ------- --- ----------<br>------------- ------ wisdom ---- ---- ------- ----- -- ----<br>-------- ------- -- ---------- --- - --- ----- ----- ----<br>---- --- --- ----- --- ---- ---- ------- ----- ---- -------<br>--- --- -- ----- -- --- ---- -- --- ---- -- ------ ------<br>--- ----- -- ----,50566.89999997616,50566,50036.371,50039.299999952316,50053.041,50569.902,,11,wisdom
screen,html.Screen,0_2_0_1_12,2021-11-12T13:15:56.437Z,,,,,,,,,,,,,,,,53,,,,,,,,,,,,,,572.0979999999981,,response,,,99,,,,,,Space,keypress(Space),,,,,---- -- ----- -- ------ - ------- --- ----------<br>------------- ------ ------ says ---- ------- ----- -- ----<br>-------- ------- -- ---------- --- - --- ----- ----- ----<br>---- --- --- ----- --- ---- ---- ------- ----- ---- -------<br>--- --- -- ----- -- --- ---- -- --- ---- -- ------ ------<br>--- ----- -- ----,51142.89999997616,51142,50553.231,50567.199999928474,50569.902,51153.336,,12,says
screen,html.Screen,0_2_0_1_13,2021-11-12T13:15:56.900Z,,,,,,,,,,,,,,,,53,,,,,,,,,,,,,,452.5639999761552,,response,,,99,,,,,,Space,keypress(Space),,,,,---- -- ----- -- ------ - ------- --- ----------<br>------------- ------ ------ ---- that ------- ----- -- ----<br>-------- ------- -- ---------- --- - --- ----- ----- ----<br>---- --- --- ----- --- ---- ---- ------- ----- ---- -------<br>--- --- -- ----- -- --- ---- -- --- ---- -- ------ ------<br>--- ----- -- ----,51606.699999928474,51605.89999997616,51136.666,51143.09999990463,51153.336,51620.176,,13,that
screen,html.Screen,0_2_0_1_14,2021-11-12T13:15:57.373Z,,,,,,,,,,,,,,,,53,,,,,,,,,,,,,,457.8240000000005,,response,,,99,,,,,,Space,keypress(Space),,,,,---- -- ----- -- ------ - ------- --- ----------<br>------------- ------ ------ ---- ---- feeling ----- -- ----<br>-------- ------- -- ---------- --- - --- ----- ----- ----<br>---- --- --- ----- --- ---- ---- ------- ----- ---- -------<br>--- --- -- ----- -- --- ---- -- --- ---- -- ------ ------<br>--- ----- -- ----,52078.89999997616,52078,51603.505,51607,51620.176,52086.927,,14,feeling
screen,html.Screen,0_2_0_1_15,2021-11-12T13:15:57.892Z,,,,,,,,,,,,,,,,53,,,,,,,,,,,,,,510.9729999761548,,response,,,99,,,,,,Space,keypress(Space),,,,,---- -- ----- -- ------ - ------- --- ----------<br>------------- ------ ------ ---- ---- ------- close -- ----<br>-------- ------- -- ---------- --- - --- ----- ----- ----<br>---- --- --- ----- --- ---- ---- ------- ----- ---- -------<br>--- --- -- ----- -- --- ---- -- --- ---- -- ------ ------<br>--- ----- -- ----,52598.799999952316,52597.89999997616,52070.257,52079.199999928474,52086.927,52603.772,,15,close
screen,html.Screen,0_2_0_1_16,2021-11-12T13:15:58.332Z,,,,,,,,,,,,,,,,53,,,,,,,,,,,,,,434.12799997616094,,response,,,99,,,,,,Space,keypress(Space),,,,,---- -- ----- -- ------ - ------- --- ----------<br>------------- ------ ------ ---- ---- ------- ----- to ----<br>-------- ------- -- ---------- --- - --- ----- ----- ----<br>---- --- --- ----- --- ---- ---- ------- ----- ---- -------<br>--- --- -- ----- -- --- ---- -- --- ---- -- ------ ------<br>--- ----- -- ----,53038.699999928474,53037.89999997616,52587.101,52599,52603.772,53053.832,,16,to
screen,html.Screen,0_2_0_1_17,2021-11-12T13:15:58.836Z,,,,,,,,,,,,,,,,53,,,,,,,,,,,,,,488.067999976156,,response,,,99,,,,,,Space,keypress(Space),,,,,---- -- ----- -- ------ - ------- --- ----------<br>------------- ------ ------ ---- ---- ------- ----- -- your<br>-------- ------- -- ---------- --- - --- ----- ----- ----<br>---- --- --- ----- --- ---- ---- ------- ----- ---- -------<br>--- --- -- ----- -- --- ---- -- --- ---- -- ------ ------<br>--- ----- -- ----,53542.699999928474,53541.89999997616,53037.162,53039,53053.832,53554.025,,17,your
screen,html.Screen,0_2_0_1_18,2021-11-12T13:15:59.357Z,,,,,,,,,,,,,,,,53,,,,,,,,,,,,,,508.3749999761567,,response,,,99,,,,,,Space,keypress(Space),,,,,---- -- ----- -- ------ - ------- --- ----------<br>------------- ------ ------ ---- ---- ------- ----- -- ----<br>romantic ------- -- ---------- --- - --- ----- ----- ----<br>---- --- --- ----- --- ---- ---- ------- ----- ---- -------<br>--- --- -- ----- -- --- ---- -- --- ---- -- ------ ------<br>--- ----- -- ----,54063.199999928474,54062.39999997616,53537.354,53543,53554.025,54070.824,,18,romantic
screen,html.Screen,0_2_0_1_19,2021-11-12T13:15:59.836Z,,,,,,,,,,,,,,,,53,,,,,,,,,,,,,,471.0759999761576,,response,,,99,,,,,,Space,keypress(Space),,,,,---- -- ----- -- ------ - ------- --- ----------<br>------------- ------ ------ ---- ---- ------- ----- -- ----<br>-------- partner -- ---------- --- - --- ----- ----- ----<br>---- --- --- ----- --- ---- ---- ------- ----- ---- -------<br>--- --- -- ----- -- --- ---- -- --- ---- -- ------ ------<br>--- ----- -- ----,54542.699999928474,54541.89999997616,54054.153,54063.39999997616,54070.824,54554.289,,19,partner
screen,html.Screen,0_2_0_1_20,2021-11-12T13:16:00.308Z,,,,,,,,,,,,,,,,53,,,,,,,,,,,,,,459.6109999761611,,response,,,99,,,,,,Space,keypress(Space),,,,,---- -- ----- -- ------ - ------- --- ----------<br>------------- ------ ------ ---- ---- ------- ----- -- ----<br>-------- ------- is ---------- --- - --- ----- ----- ----<br>---- --- --- ----- --- ---- ---- ------- ----- ---- -------<br>--- --- -- ----- -- --- ---- -- --- ---- -- ------ ------<br>--- ----- -- ----,55014.699999928474,55013.89999997616,54537.618,54543,54554.289,55020.943,,20,is
screen,html.Screen,0_2_0_1_21,2021-11-12T13:16:00.812Z,,,,,,,,,,,,,,,,53,,,,,,,,,,,,,,496.95699997615884,,response,,,99,,,,,,Space,keypress(Space),,,,,---- -- ----- -- ------ - ------- --- ----------<br>------------- ------ ------ ---- ---- ------- ----- -- ----<br>-------- ------- -- paramount. --- - --- ----- ----- ----<br>---- --- --- ----- --- ---- ---- ------- ----- ---- -------<br>--- --- -- ----- -- --- ---- -- --- ---- -- ------ ------<br>--- ----- -- ----,55518.699999928474,55517.89999997616,55004.274,55014.89999997616,55020.943,55521.344,,21,paramount.
screen,html.Screen,0_2_0_1_22,2021-11-12T13:16:01.284Z,,,,,,,,,,,,,,,,53,,,,,,,,,,,,,,468.5559999761608,,response,,,99,,,,,,Space,keypress(Space),,,,,---- -- ----- -- ------ - ------- --- ----------<br>------------- ------ ------ ---- ---- ------- ----- -- ----<br>-------- ------- -- ---------- But - --- ----- ----- ----<br>---- --- --- ----- --- ---- ---- ------- ----- ---- -------<br>--- --- -- ----- -- --- ---- -- --- ---- -- ------ ------<br>--- ----- -- ----,55990.59999990463,55989.89999997616,55504.671,55519.199999928474,55521.344,56004.537,,22,But
screen,html.Screen,0_2_0_1_23,2021-11-12T13:16:01.812Z,,,,,,,,,,,,,,,,53,,,,,,,,,,,,,,513.2629999523197,,response,,,99,,,,,,Space,keypress(Space),,,,,---- -- ----- -- ------ - ------- --- ----------<br>------------- ------ ------ ---- ---- ------- ----- -- ----<br>-------- ------- -- ---------- --- a --- ----- ----- ----<br>---- --- --- ----- --- ---- ---- ------- ----- ---- -------<br>--- --- -- ----- -- --- ---- -- --- ---- -- ------ ------<br>--- ----- -- ----,56518.59999990463,56517.799999952316,55987.868,55990.799999952316,56004.537,56521.545,,23,a
screen,html.Screen,0_2_0_1_24,2021-11-12T13:16:02.308Z,,,,,,,,,,,,,,,,53,,,,,,,,,,,,,,492.25499995231803,,response,,,99,,,,,,Space,keypress(Space),,,,,---- -- ----- -- ------ - ------- --- ----------<br>------------- ------ ------ ---- ---- ------- ----- -- ----<br>-------- ------- -- ---------- --- - new ----- ----- ----<br>---- --- --- ----- --- ---- ---- ------- ----- ---- -------<br>--- --- -- ----- -- --- ---- -- --- ---- -- ------ ------<br>--- ----- -- ----,57014.59999990463,57013.799999952316,56504.873,56518.89999997616,56521.545,57021.571,,24,new
screen,html.Screen,0_2_0_1_25,2021-11-12T13:16:02.772Z,,,,,,,,,,,,,,,,53,,,,,,,,,,,,,,456.1289999284709,,response,,,99,,,,,,Space,keypress(Space),,,,,---- -- ----- -- ------ - ------- --- ----------<br>------------- ------ ------ ---- ---- ------- ----- -- ----<br>-------- ------- -- ---------- --- - --- study ----- ----<br>---- --- --- ----- --- ---- ---- ------- ----- ---- -------<br>--- --- -- ----- -- --- ---- -- --- ---- -- ------ ------<br>--- ----- -- ----,57478.59999990463,57477.699999928474,57004.901,57014.799999952316,57021.571,57488.435,,25,study
screen,html.Screen,0_2_0_1_26,2021-11-12T13:16:03.260Z,,,,,,,,,,,,,,,,53,,,,,,,,,,,,,,477.3649999523186,,response,,,99,,,,,,Space,keypress(Space),,,,,---- -- ----- -- ------ - ------- --- ----------<br>------------- ------ ------ ---- ---- ------- ----- -- ----<br>-------- ------- -- ---------- --- - --- ----- finds ----<br>---- --- --- ----- --- ---- ---- ------- ----- ---- -------<br>--- --- -- ----- -- --- ---- -- --- ---- -- ------ ------<br>--- ----- -- ----,57966.5,57965.799999952316,57471.764,57478.799999952316,57488.435,57971.883,,26,finds
screen,html.Screen,0_2_0_1_27,2021-11-12T13:16:03.732Z,,,,,,,,,,,,,,,,53,,,,,,,,,,,,,,465.91699995231465,,response,,,99,,,,,,Space,keypress(Space),,,,,---- -- ----- -- ------ - ------- --- ----------<br>------------- ------ ------ ---- ---- ------- ----- -- ----<br>-------- ------- -- ---------- --- - --- ----- ----- that<br>---- --- --- ----- --- ---- ---- ------- ----- ---- -------<br>--- --- -- ----- -- --- ---- -- --- ---- -- ------ ------<br>--- ----- -- ----,58438.59999990463,58437.799999952316,57955.212,57966.799999952316,57971.883,58455.301,,27,that
screen,html.Screen,0_2_0_1_28,2021-11-12T13:16:04.228Z,,,,,,,,,,,,,,,,53,,,,,,,,,,,,,,478.39899992847495,,response,,,99,,,,,,Space,keypress(Space),,,,,---- -- ----- -- ------ - ------- --- ----------<br>------------- ------ ------ ---- ---- ------- ----- -- ----<br>-------- ------- -- ---------- --- - --- ----- ----- ----<br>it's --- --- ----- --- ---- ---- ------- ----- ---- -------<br>--- --- -- ----- -- --- ---- -- --- ---- -- ------ ------<br>--- ----- -- ----,58934.5,58933.699999928474,58438.631,58438.799999952316,58455.301,58938.803,,28,it's
screen,html.Screen,0_2_0_1_29,2021-11-12T13:16:04.708Z,,,,,,,,,,,,,,,,53,,,,,,,,,,,,,,474.89699992847454,,response,,,99,,,,,,Space,keypress(Space),,,,,---- -- ----- -- ------ - ------- --- ----------<br>------------- ------ ------ ---- ---- ------- ----- -- ----<br>-------- ------- -- ---------- --- - --- ----- ----- ----<br>---- not --- ----- --- ---- ---- ------- ----- ---- -------<br>--- --- -- ----- -- --- ---- -- --- ---- -- ------ ------<br>--- ----- -- ----,59414.5,59413.699999928474,58922.132,58934.799999952316,58938.803,59422.283,,29,not
screen,html.Screen,0_2_0_1_30,2021-11-12T13:16:05.228Z,,,,,,,,,,,,,,,,53,,,,,,,,,,,,,,511.41699992847134,,response,,,99,,,,,,Space,keypress(Space),,,,,---- -- ----- -- ------ - ------- --- ----------<br>------------- ------ ------ ---- ---- ------- ----- -- ----<br>-------- ------- -- ---------- --- - --- ----- ----- ----<br>---- --- how ----- --- ---- ---- ------- ----- ---- -------<br>--- --- -- ----- -- --- ---- -- --- ---- -- ------ ------<br>--- ----- -- ----,59934.5,59933.699999928474,59405.612,59414.799999952316,59422.283,59939.036,,30,how
screen,html.Screen,0_2_0_1_31,2021-11-12T13:16:05.711Z,,,,,,,,,,,,,,,,53,,,,,,,,,,,,,,474.5639999046325,,response,,,99,,,,,,Space,keypress(Space),,,,,---- -- ----- -- ------ - ------- --- ----------<br>------------- ------ ------ ---- ---- ------- ----- -- ----<br>-------- ------- -- ---------- --- - --- ----- ----- ----<br>---- --- --- close --- ---- ---- ------- ----- ---- -------<br>--- --- -- ----- -- --- ---- -- --- ---- -- ------ ------<br>--- ----- -- ----,60414.5,60413.59999990463,59922.366,59934.799999952316,59939.036,60422.462,,31,close
screen,html.Screen,0_2_0_1_32,2021-11-12T13:16:06.207Z,,,,,,,,,,,,,,,,53,,,,,,,,,,,,,,487.13799990463303,,response,,,99,,,,,,Space,keypress(Space),,,,,---- -- ----- -- ------ - ------- --- ----------<br>------------- ------ ------ ---- ---- ------- ----- -- ----<br>-------- ------- -- ---------- --- - --- ----- ----- ----<br>---- --- --- ----- you ---- ---- ------- ----- ---- -------<br>--- --- -- ----- -- --- ---- -- --- ---- -- ------ ------<br>--- ----- -- ----,60910.39999997616,60909.59999990463,60405.792,60414.699999928474,60422.462,60922.605,,32,you
screen,html.Screen,0_2_0_1_33,2021-11-12T13:16:06.647Z,,,,,,,,,,,,,,,,53,,,,,,,,,,,,,,426.8949999999968,,response,,,99,,,,,,Space,keypress(Space),,,,,---- -- ----- -- ------ - ------- --- ----------<br>------------- ------ ------ ---- ---- ------- ----- -- ----<br>-------- ------- -- ---------- --- - --- ----- ----- ----<br>---- --- --- ----- --- feel ---- ------- ----- ---- -------<br>--- --- -- ----- -- --- ---- -- --- ---- -- ------ ------<br>--- ----- -- ----,61350.39999997616,61349.5,60905.935,60910.699999928474,60922.605,61356.147,,33,feel
screen,html.Screen,0_2_0_1_34,2021-11-12T13:16:07.167Z,,,,,,,,,,,,,,,,53,,,,,,,,,,,,,,513.4529999046354,,response,,,99,,,,,,Space,keypress(Space),,,,,---- -- ----- -- ------ - ------- --- ----------<br>------------- ------ ------ ---- ---- ------- ----- -- ----<br>-------- ------- -- ---------- --- - --- ----- ----- ----<br>---- --- --- ----- --- ---- that ------- ----- ---- -------<br>--- --- -- ----- -- --- ---- -- --- ---- -- ------ ------<br>--- ----- -- ----,61870.59999990463,61869.59999990463,61339.476,61350.699999928474,61356.147,61872.925,,34,that
screen,html.Screen,0_2_0_1_35,2021-11-12T13:16:07.615Z,,,,,,,,,,,,,,,,53,,,,,,,,,,,,,,444.5749999999971,,response,,,99,,,,,,Space,keypress(Space),,,,,---- -- ----- -- ------ - ------- --- ----------<br>------------- ------ ------ ---- ---- ------- ----- -- ----<br>-------- ------- -- ---------- --- - --- ----- ----- ----<br>---- --- --- ----- --- ---- ---- matters ----- ---- -------<br>--- --- -- ----- -- --- ---- -- --- ---- -- ------ ------<br>--- ----- -- ----,62318.299999952316,62317.5,61856.254,61870.89999997616,61872.925,62322.897,,35,matters
screen,html.Screen,0_2_0_1_36,2021-11-12T13:16:08.079Z,,,,,,,,,,,,,,,,53,,,,,,,,,,,,,,458.6030000000028,,response,,,99,,,,,,Space,keypress(Space),,,,,"---- -- ----- -- ------ - ------- --- ----------<br>------------- ------ ------ ---- ---- ------- ----- -- ----<br>-------- ------- -- ---------- --- - --- ----- ----- ----<br>---- --- --- ----- --- ---- ---- ------- most, ---- -------<br>--- --- -- ----- -- --- ---- -- --- ---- -- ------ ------<br>--- ----- -- ----",62782.5,62781.5,62306.228,62318.5,62322.897,62789.894,,36,"most,"
screen,html.Screen,0_2_0_1_37,2021-11-12T13:16:08.511Z,,,,,,,,,,,,,,,,53,,,,,,,,,,,,,,423.70599990463234,,response,,,99,,,,,,Space,keypress(Space),,,,,---- -- ----- -- ------ - ------- --- ----------<br>------------- ------ ------ ---- ---- ------- ----- -- ----<br>-------- ------- -- ---------- --- - --- ----- ----- ----<br>---- --- --- ----- --- ---- ---- ------- ----- it's -------<br>--- --- -- ----- -- --- ---- -- --- ---- -- ------ ------<br>--- ----- -- ----,63214.39999997616,63213.59999990463,62773.222,62782.799999952316,62789.894,63223.305,,37,it's
screen,html.Screen,0_2_0_1_38,2021-11-12T13:16:08.991Z,,,,,,,,,,,,,,,,53,,,,,,,,,,,,,,470.2949999046323,,response,,,99,,,,,,Space,keypress(Space),,,,,---- -- ----- -- ------ - ------- --- ----------<br>------------- ------ ------ ---- ---- ------- ----- -- ----<br>-------- ------- -- ---------- --- - --- ----- ----- ----<br>---- --- --- ----- --- ---- ---- ------- ----- ---- whether<br>--- --- -- ----- -- --- ---- -- --- ---- -- ------ ------<br>--- ----- -- ----,63694.199999928474,63693.59999990463,63206.634,63214.59999990463,63223.305,63706.699,,38,whether
screen,html.Screen,0_2_0_1_39,2021-11-12T13:16:09.480Z,,,,,,,,,,,,,,,,53,,,,,,,,,,,,,,475.2009999761576,,response,,,99,,,,,,Space,keypress(Space),,,,,---- -- ----- -- ------ - ------- --- ----------<br>------------- ------ ------ ---- ---- ------- ----- -- ----<br>-------- ------- -- ---------- --- - --- ----- ----- ----<br>---- --- --- ----- --- ---- ---- ------- ----- ---- -------<br>you --- -- ----- -- --- ---- -- --- ---- -- ------ ------<br>--- ----- -- ----,64182.699999928474,64181.89999997616,63690.029,63694.59999990463,63706.699,64190.235,,39,you
screen,html.Screen,0_2_0_1_40,2021-11-12T13:16:09.911Z,,,,,,,,,,,,,,,,53,,,,,,,,,,,,,,423.2649999999994,,response,,,99,,,,,,Space,keypress(Space),,,,,---- -- ----- -- ------ - ------- --- ----------<br>------------- ------ ------ ---- ---- ------- ----- -- ----<br>-------- ------- -- ---------- --- - --- ----- ----- ----<br>---- --- --- ----- --- ---- ---- ------- ----- ---- -------<br>--- are -- ----- -- --- ---- -- --- ---- -- ------ ------<br>--- ----- -- ----,64614.199999928474,64613.5,64173.564,64182.89999997616,64190.235,64623.626,,40,are
screen,html.Screen,0_2_0_1_41,2021-11-12T13:16:10.367Z,,,,,,,,,,,,,,,,53,,,,,,,,,,,,,,445.7739999761616,,response,,,99,,,,,,Space,keypress(Space),,,,,---- -- ----- -- ------ - ------- --- ----------<br>------------- ------ ------ ---- ---- ------- ----- -- ----<br>-------- ------- -- ---------- --- - --- ----- ----- ----<br>---- --- --- ----- --- ---- ---- ------- ----- ---- -------<br>--- --- as ----- -- --- ---- -- --- ---- -- ------ ------<br>--- ----- -- ----,65070.199999928474,65069.39999997616,64606.956,64614.5,64623.626,65073.782,,41,as
screen,html.Screen,0_2_0_1_42,2021-11-12T13:16:10.839Z,,,,,,,,,,,,,,,,53,,,,,,,,,,,,,,467.6179999761589,,response,,,99,,,,,,Space,keypress(Space),,,,,---- -- ----- -- ------ - ------- --- ----------<br>------------- ------ ------ ---- ---- ------- ----- -- ----<br>-------- ------- -- ---------- --- - --- ----- ----- ----<br>---- --- --- ----- --- ---- ---- ------- ----- ---- -------<br>--- --- -- close -- --- ---- -- --- ---- -- ------ ------<br>--- ----- -- ----,65542.09999990463,65541.39999997616,65057.111,65070.39999997616,65073.782,65557.258,,42,close
screen,html.Screen,0_2_0_1_43,2021-11-12T13:16:11.295Z,,,,,,,,,,,,,,,,53,,,,,,,,,,,,,,440.1419999761565,,response,,,99,,,,,,Space,keypress(Space),,,,,---- -- ----- -- ------ - ------- --- ----------<br>------------- ------ ------ ---- ---- ------- ----- -- ----<br>-------- ------- -- ---------- --- - --- ----- ----- ----<br>---- --- --- ----- --- ---- ---- ------- ----- ---- -------<br>--- --- -- ----- as --- ---- -- --- ---- -- ------ ------<br>--- ----- -- ----,65998.09999990463,65997.39999997616,65540.587,65542.39999997616,65557.258,66007.224,,43,as
screen,html.Screen,0_2_0_1_44,2021-11-12T13:16:11.735Z,,,,,,,,,,,,,,,,53,,,,,,,,,,,,,,430.17599997615616,,response,,,99,,,,,,Space,keypress(Space),,,,,---- -- ----- -- ------ - ------- --- ----------<br>------------- ------ ------ ---- ---- ------- ----- -- ----<br>-------- ------- -- ---------- --- - --- ----- ----- ----<br>---- --- --- ----- --- ---- ---- ------- ----- ---- -------<br>--- --- -- ----- -- you ---- -- --- ---- -- ------ ------<br>--- ----- -- ----,66438.09999990463,66437.39999997616,65990.555,65998.39999997616,66007.224,66440.899,,44,you
screen,html.Screen,0_2_0_1_45,2021-11-12T13:16:12.199Z,,,,,,,,,,,,,,,,53,,,,,,,,,,,,,,460.50099997615325,,response,,,99,,,,,,Space,keypress(Space),,,,,---- -- ----- -- ------ - ------- --- ----------<br>------------- ------ ------ ---- ---- ------- ----- -- ----<br>-------- ------- -- ---------- --- - --- ----- ----- ----<br>---- --- --- ----- --- ---- ---- ------- ----- ---- -------<br>--- --- -- ----- -- --- want -- --- ---- -- ------ ------<br>--- ----- -- ----,66902.09999990463,66901.39999997616,66424.227,66438.39999997616,66440.899,66907.617,,45,want
screen,html.Screen,0_2_0_1_46,2021-11-12T13:16:12.687Z,,,,,,,,,,,,,,,,53,,,,,,,,,,,,,,481.6829999523179,,response,,,99,,,,,,Space,keypress(Space),,,,,---- -- ----- -- ------ - ------- --- ----------<br>------------- ------ ------ ---- ---- ------- ----- -- ----<br>-------- ------- -- ---------- --- - --- ----- ----- ----<br>---- --- --- ----- --- ---- ---- ------- ----- ---- -------<br>--- --- -- ----- -- --- ---- to --- ---- -- ------ ------<br>--- ----- -- ----,67390.19999992847,67389.29999995232,66890.946,66902.39999997616,66907.617,67407.631,,46,to
screen,html.Screen,0_2_0_1_47,2021-11-12T13:16:13.119Z,,,,,,,,,,,,,,,,53,,,,,,,,,,,,,,413.7689999761642,,response,,,99,,,,,,Space,keypress(Space),,,,,"---- -- ----- -- ------ - ------- --- ----------<br>------------- ------ ------ ---- ---- ------- ----- -- ----<br>-------- ------- -- ---------- --- - --- ----- ----- ----<br>---- --- --- ----- --- ---- ---- ------- ----- ---- -------<br>--- --- -- ----- -- --- ---- -- be, ---- -- ------ ------<br>--- ----- -- ----",67822.09999990463,67821.39999997616,67390.962,67390.39999997616,67407.631,67824.589,,47,"be,"
screen,html.Screen,0_2_0_1_48,2021-11-12T13:16:13.623Z,,,,,,,,,,,,,,,,53,,,,,,,,,,,,,,500.8109999761509,,response,,,99,,,,,,Space,keypress(Space),,,,,---- -- ----- -- ------ - ------- --- ----------<br>------------- ------ ------ ---- ---- ------- ----- -- ----<br>-------- ------- -- ---------- --- - --- ----- ----- ----<br>---- --- --- ----- --- ---- ---- ------- ----- ---- -------<br>--- --- -- ----- -- --- ---- -- --- even -- ------ ------<br>--- ----- -- ----,68326.09999990463,68325.39999997616,67807.917,67822.29999995232,67824.589,68341.292,,48,even
screen,html.Screen,0_2_0_1_49,2021-11-12T13:16:14.055Z,,,,,,,,,,,,,,,,53,,,,,,,,,,,,,,416.007999952315,,response,,,99,,,,,,Space,keypress(Space),,,,,---- -- ----- -- ------ - ------- --- ----------<br>------------- ------ ------ ---- ---- ------- ----- -- ----<br>-------- ------- -- ---------- --- - --- ----- ----- ----<br>---- --- --- ----- --- ---- ---- ------- ----- ---- -------<br>--- --- -- ----- -- --- ---- -- --- ---- if ------ ------<br>--- ----- -- ----,68758,68757.29999995232,68324.622,68326.29999995232,68341.292,68774.782,,49,if
screen,html.Screen,0_2_0_1_50,2021-11-12T13:16:14.479Z,,,,,,,,,,,,,,,,53,,,,,,,,,,,,,,406.51799995230976,,response,,,99,,,,,,Space,keypress(Space),,,,,---- -- ----- -- ------ - ------- --- ----------<br>------------- ------ ------ ---- ---- ------- ----- -- ----<br>-------- ------- -- ---------- --- - --- ----- ----- ----<br>---- --- --- ----- --- ---- ---- ------- ----- ---- -------<br>--- --- -- ----- -- --- ---- -- --- ---- -- that's ------<br>--- ----- -- ----,69182.09999990463,69181.29999995232,68758.111,68758.29999995232,68774.782,69191.564,,50,that's
screen,html.Screen,0_2_0_1_51,2021-11-12T13:16:14.927Z,,,,,,,,,,,,,,,,53,,,,,,,,,,,,,,437.63599992847594,,response,,,99,,,,,,Space,keypress(Space),,,,,---- -- ----- -- ------ - ------- --- ----------<br>------------- ------ ------ ---- ---- ------- ----- -- ----<br>-------- ------- -- ---------- --- - --- ----- ----- ----<br>---- --- --- ----- --- ---- ---- ------- ----- ---- -------<br>--- --- -- ----- -- --- ---- -- --- ---- -- ------ really<br>--- ----- -- ----,69630,69629.19999992847,69174.893,69182.39999997616,69191.564,69641.685,,51,really
screen,html.Screen,0_2_0_1_52,2021-11-12T13:16:15.351Z,,,,,,,,,,,,,,,,53,,,,,,,,,,,,,,411.6149999523186,,response,,,99,,,,,,Space,keypress(Space),,,,,---- -- ----- -- ------ - ------- --- ----------<br>------------- ------ ------ ---- ---- ------- ----- -- ----<br>-------- ------- -- ---------- --- - --- ----- ----- ----<br>---- --- --- ----- --- ---- ---- ------- ----- ---- -------<br>--- --- -- ----- -- --- ---- -- --- ---- -- ------ ------<br>not ----- -- ----,70054,70053.29999995232,69625.014,69630.29999995232,69641.685,70058.41,,52,not
screen,html.Screen,0_2_0_1_53,2021-11-12T13:16:15.791Z,,,,,,,,,,,,,,,,53,,,,,,,,,,,,,,434.78999992847093,,response,,,99,,,,,,Space,keypress(Space),,,,,---- -- ----- -- ------ - ------- --- ----------<br>------------- ------ ------ ---- ---- ------- ----- -- ----<br>-------- ------- -- ---------- --- - --- ----- ----- ----<br>---- --- --- ----- --- ---- ---- ------- ----- ---- -------<br>--- --- -- ----- -- --- ---- -- --- ---- -- ------ ------<br>--- close -- ----,70494,70493.19999992847,70041.74,70054.19999992847,70058.41,70508.588,,53,close
screen,html.Screen,0_2_0_1_54,2021-11-12T13:16:16.223Z,,,,,,,,,,,,,,,,53,,,,,,,,,,,,,,416.61199992847105,,response,,,99,,,,,,Space,keypress(Space),,,,,---- -- ----- -- ------ - ------- --- ----------<br>------------- ------ ------ ---- ---- ------- ----- -- ----<br>-------- ------- -- ---------- --- - --- ----- ----- ----<br>---- --- --- ----- --- ---- ---- ------- ----- ---- -------<br>--- --- -- ----- -- --- ---- -- --- ---- -- ------ ------<br>--- ----- at ----,70926,70925.19999992847,70491.917,70494.19999992847,70508.588,70942.035,,54,at
screen,html.Screen,0_2_0_1_55,2021-11-12T13:16:17.047Z,,,,,,,,,,,,,,,,53,,,,,,,,,,,,,,807.0649999046291,,response,,,99,,,,,,Space,keypress(Space),,,,,---- -- ----- -- ------ - ------- --- ----------<br>------------- ------ ------ ---- ---- ------- ----- -- ----<br>-------- ------- -- ---------- --- - --- ----- ----- ----<br>---- --- --- ----- --- ---- ---- ------- ----- ---- -------<br>--- --- -- ----- -- --- ---- -- --- ---- -- ------ ------<br>--- ----- -- all.,71750,71749.09999990463,70925.364,70926.19999992847,70942.035,71758.825,,55,all.
Item 99,flow.Loop,0_2_0_1,2021-11-12T13:16:17.051Z,,,,,,,,,,,,,,,,,,,,,,,,,,,,,,29431.692999904633,,completion,,,,B,,,,,,,,,,silence,,71754.29999995232,71749.09999990463,42300.738,42306.5,42317.407,71758.825,,,
Question 1,html.Screen,0_2_0_2,2021-11-12T13:16:23.911Z,,,,,,,,,,,,,,,,,,,,,,,,,,,true,FALSE,,6853.7749999046355,,response,,,99,B,,,,,FALSE,click #choice-2,,,,silence,,78614.09999990463,78612.59999990463,71742.155,71754.5,71758.825,78627.429,,,
Question 2,html.Screen,0_2_0_3,2021-11-12T13:16:27.911Z,,,,,,,,,,,,,,,,,,,,,,,,,,,true,TRUE,,3984.9709999761544,,response,,,99,B,,,,,TRUE,click #choice-1,,,,silence,,82613.59999990463,82612.39999997616,78610.758,78614.5,78627.429,82628.505,,,
Item 99,flow.Sequence,0_2_0,2021-11-12T13:16:27.911Z,,,,,,,,,,,,,,,,,,,,,,,,,,,,,,50297.45099997616,,completion,,,,,,,,,,,,,,,,82614,82612.39999997616,32281.607,32297,32314.949,82628.505,,,
Holding screen,html.Screen,0_2_1_0,2021-11-12T13:16:37.913Z,,,,,,,,,,,,,,,,,,,,,,,,,,,,,,10002.61499999999,,timeout,,,,,,,,,,,,,,,,92615.89999997616,92614.449,82611.834,82614.29999995232,82628.505,92631.12,,,
screen,html.Screen,0_2_1_1_0,2021-11-12T13:16:38.895Z,,,,,,,,,,,,,,,,54,,,,,,,,,,,,,,965.6799999523209,,response,,,100,,,,,,Space,keypress(Space),,,,,At --- ---- --- ------ ----- ------- ---- -- --- ------- --<br>------- ---------- ------ -- ----- -- ----- -- ---- ------<br>--- ----- --- --- ------ -------- ----- --- ------ ----- --<br>----- ----- ---------- --- --- ------ ------ ---- -- ------<br>------- --- ------ ----- --- ---- ------- -- ---- --- --<br>------- ------,93597.69999992847,93596.79999995232,92614.449,92616.39999997616,92631.12,93598.16,,0,At
screen,html.Screen,0_2_1_1_1,2021-11-12T13:16:39.350Z,,,,,,,,,,,,,,,,54,,,,,,,,,,,,,,454.03999992847093,,response,,,100,,,,,,Space,keypress(Space),,,,,-- the ---- --- ------ ----- ------- ---- -- --- ------- --<br>------- ---------- ------ -- ----- -- ----- -- ---- ------<br>--- ----- --- --- ------ -------- ----- --- ------ ----- --<br>----- ----- ---------- --- --- ------ ------ ---- -- ------<br>------- --- ------ ----- --- ---- ------- -- ---- --- --<br>------- ------,94053,94052.19999992847,93581.489,93597.89999997616,93598.16,94064.912,,1,the
screen,html.Screen,0_2_1_1_2,2021-11-12T13:16:39.758Z,,,,,,,,,,,,,,,,54,,,,,,,,,,,,,,395.2879999284778,,response,,,100,,,,,,Space,keypress(Space),,,,,-- --- time --- ------ ----- ------- ---- -- --- ------- --<br>------- ---------- ------ -- ----- -- ----- -- ---- ------<br>--- ----- --- --- ------ -------- ----- --- ------ ----- --<br>----- ----- ---------- --- --- ------ ------ ---- -- ------<br>------- --- ------ ----- --- ---- ------- -- ---- --- --<br>------- ------,94460.89999997616,94460.19999992847,94048.241,94053.19999992847,94064.912,94464.983,,2,time
screen,html.Screen,0_2_1_1_3,2021-11-12T13:16:40.182Z,,,,,,,,,,,,,,,,54,,,,,,,,,,,,,,419.2169999284815,,response,,,100,,,,,,Space,keypress(Space),,,,,-- --- ---- the ------ ----- ------- ---- -- --- ------- --<br>------- ---------- ------ -- ----- -- ----- -- ---- ------<br>--- ----- --- --- ------ -------- ----- --- ------ ----- --<br>----- ----- ---------- --- --- ------ ------ ---- -- ------<br>------- --- ------ ----- --- ---- ------- -- ---- --- --<br>------- ------,94884.89999997616,94884.19999992847,94448.313,94461.19999992847,94464.983,94898.466,,3,the
screen,html.Screen,0_2_1_1_4,2021-11-12T13:16:40.630Z,,,,,,,,,,,,,,,,54,,,,,,,,,,,,,,433.7339999284741,,response,,,100,,,,,,Space,keypress(Space),,,,,-- --- ---- --- French ----- ------- ---- -- --- ------- --<br>------- ---------- ------ -- ----- -- ----- -- ---- ------<br>--- ----- --- --- ------ -------- ----- --- ------ ----- --<br>----- ----- ---------- --- --- ------ ------ ---- -- ------<br>------- --- ------ ----- --- ---- ------- -- ---- --- --<br>------- ------,95333,95332.19999992847,94881.795,94885.19999992847,94898.466,95348.59,,4,French
screen,html.Screen,0_2_1_1_5,2021-11-12T13:16:41.094Z,,,,,,,,,,,,,,,,54,,,,,,,,,,,,,,447.50999990463606,,response,,,100,,,,,,Space,keypress(Space),,,,,-- --- ---- --- ------ crown ------- ---- -- --- ------- --<br>------- ---------- ------ -- ----- -- ----- -- ---- ------<br>--- ----- --- --- ------ -------- ----- --- ------ ----- --<br>----- ----- ---------- --- --- ------ ------ ---- -- ------<br>------- --- ------ ----- --- ---- ------- -- ---- --- --<br>------- ------,95796.89999997616,95796.09999990463,95331.919,95333.19999992847,95348.59,95798.571,,5,crown
screen,html.Screen,0_2_1_1_6,2021-11-12T13:16:41.534Z,,,,,,,,,,,,,,,,54,,,,,,,,,,,,,,437.5289999046363,,response,,,100,,,,,,Space,keypress(Space),,,,,-- --- ---- --- ------ ----- secured ---- -- --- ------- --<br>------- ---------- ------ -- ----- -- ----- -- ---- ------<br>--- ----- --- --- ------ -------- ----- --- ------ ----- --<br>----- ----- ---------- --- --- ------ ------ ---- -- ------<br>------- --- ------ ----- --- ---- ------- -- ---- --- --<br>------- ------,96236.79999995232,96236.09999990463,95781.902,95797.09999990463,95798.571,96248.841,,6,secured
screen,html.Screen,0_2_1_1_7,2021-11-12T13:16:41.950Z,,,,,,,,,,,,,,,,54,,,,,,,,,,,,,,403.2589999046322,,response,,,100,,,,,,Space,keypress(Space),,,,,-- --- ---- --- ------ ----- ------- much -- --- ------- --<br>------- ---------- ------ -- ----- -- ----- -- ---- ------<br>--- ----- --- --- ------ -------- ----- --- ------ ----- --<br>----- ----- ---------- --- --- ------ ------ ---- -- ------<br>------- --- ------ ----- --- ---- ------- -- ---- --- --<br>------- ------,96652.79999995232,96652.09999990463,96232.17,96237.09999990463,96248.841,96665.625,,7,much
screen,html.Screen,0_2_1_1_8,2021-11-12T13:16:42.366Z,,,,,,,,,,,,,,,,54,,,,,,,,,,,,,,402.47499990463257,,response,,,100,,,,,,Space,keypress(Space),,,,,-- --- ---- --- ------ ----- ------- ---- of --- ------- --<br>------- ---------- ------ -- ----- -- ----- -- ---- ------<br>--- ----- --- --- ------ -------- ----- --- ------ ----- --<br>----- ----- ---------- --- --- ------ ------ ---- -- ------<br>------- --- ------ ----- --- ---- ------- -- ---- --- --<br>------- ------,97068.69999992847,97068.09999990463,96648.954,96653.09999990463,96665.625,97082.417,,8,of
screen,html.Screen,0_2_1_1_9,2021-11-12T13:16:42.766Z,,,,,,,,,,,,,,,,54,,,,,,,,,,,,,,385.5829999999987,,response,,,100,,,,,,Space,keypress(Space),,,,,-- --- ---- --- ------ ----- ------- ---- -- its ------- --<br>------- ---------- ------ -- ----- -- ----- -- ---- ------<br>--- ----- --- --- ------ -------- ----- --- ------ ----- --<br>----- ----- ---------- --- --- ------ ------ ---- -- ------<br>------- --- ------ ----- --- ---- ------- -- ---- --- --<br>------- ------,97468.79999995232,97468,97065.746,97069,97082.417,97482.379,,9,its
screen,html.Screen,0_2_1_1_10,2021-11-12T13:16:43.198Z,,,,,,,,,,,,,,,,54,,,,,,,,,,,,,,417.6209999999992,,response,,,100,,,,,,Space,keypress(Space),,,,,-- --- ---- --- ------ ----- ------- ---- -- --- revenue --<br>------- ---------- ------ -- ----- -- ----- -- ---- ------<br>--- ----- --- --- ------ -------- ----- --- ------ ----- --<br>----- ----- ---------- --- --- ------ ------ ---- -- ------<br>------- --- ------ ----- --- ---- ------- -- ---- --- --<br>------- ------,97900.69999992847,97900,97465.71,97469.09999990463,97482.379,97916.003,,10,revenue
screen,html.Screen,0_2_1_1_11,2021-11-12T13:16:43.718Z,,,,,,,,,,,,,,,,54,,,,,,,,,,,,,,503.89699997616117,,response,,,100,,,,,,Space,keypress(Space),,,,,-- --- ---- --- ------ ----- ------- ---- -- --- ------- by<br>------- ---------- ------ -- ----- -- ----- -- ---- ------<br>--- ----- --- --- ------ -------- ----- --- ------ ----- --<br>----- ----- ---------- --- --- ------ ------ ---- -- ------<br>------- --- ------ ----- --- ---- ------- -- ---- --- --<br>------- ------,98420.69999992847,98419.89999997616,97899.331,97901,97916.003,98432.755,,11,by
screen,html.Screen,0_2_1_1_12,2021-11-12T13:16:44.174Z,,,,,,,,,,,,,,,,54,,,,,,,,,,,,,,443.1449999761535,,response,,,100,,,,,,Space,keypress(Space),,,,,-- --- ---- --- ------ ----- ------- ---- -- --- ------- --<br>issuing ---------- ------ -- ----- -- ----- -- ---- ------<br>--- ----- --- --- ------ -------- ----- --- ------ ----- --<br>----- ----- ---------- --- --- ------ ------ ---- -- ------<br>------- --- ------ ----- --- ---- ------- -- ---- --- --<br>------- ------,98876.69999992847,98875.89999997616,98416.084,98421,98432.755,98882.875,,12,issuing
screen,html.Screen,0_2_1_1_13,2021-11-12T13:16:44.774Z,,,,,,,,,,,,,,,,54,,,,,,,,,,,,,,593.0249999761581,,response,,,100,,,,,,Space,keypress(Space),,,,,-- --- ---- --- ------ ----- ------- ---- -- --- ------- --<br>------- government ------ -- ----- -- ----- -- ---- ------<br>--- ----- --- --- ------ -------- ----- --- ------ ----- --<br>----- ----- ---------- --- --- ------ ------ ---- -- ------<br>------- --- ------ ----- --- ---- ------- -- ---- --- --<br>------- ------,99476.69999992847,99475.89999997616,98866.204,98876.89999997616,98882.875,99482.981,,13,government
screen,html.Screen,0_2_1_1_14,2021-11-12T13:16:45.310Z,,,,,,,,,,,,,,,,54,,,,,,,,,,,,,,528.9189999761584,,response,,,100,,,,,,Space,keypress(Space),,,,,-- --- ---- --- ------ ----- ------- ---- -- --- ------- --<br>------- ---------- bonds. -- ----- -- ----- -- ---- ------<br>--- ----- --- --- ------ -------- ----- --- ------ ----- --<br>----- ----- ---------- --- --- ------ ------ ---- -- ------<br>------- --- ------ ----- --- ---- ------- -- ---- --- --<br>------- ------,100012.69999992847,100011.89999997616,99466.311,99476.89999997616,99482.981,100016.523,,14,bonds.
screen,html.Screen,0_2_1_1_15,2021-11-12T13:16:45.798Z,,,,,,,,,,,,,,,,54,,,,,,,,,,,,,,483.3769999761571,,response,,,100,,,,,,Space,keypress(Space),,,,,-- --- ---- --- ------ ----- ------- ---- -- --- ------- --<br>------- ---------- ------ In ----- -- ----- -- ---- ------<br>--- ----- --- --- ------ -------- ----- --- ------ ----- --<br>----- ----- ---------- --- --- ------ ------ ---- -- ------<br>------- --- ------ ----- --- ---- ------- -- ---- --- --<br>------- ------,100500.79999995232,100499.89999997616,99999.852,100012.89999997616,100016.523,100516.511,,15,In
screen,html.Screen,0_2_1_1_16,2021-11-12T13:16:46.206Z,,,,,,,,,,,,,,,,54,,,,,,,,,,,,,,391.38899997615954,,response,,,100,,,,,,Space,keypress(Space),,,,,"-- --- ---- --- ------ ----- ------- ---- -- --- ------- --<br>------- ---------- ------ -- 1727, -- ----- -- ---- ------<br>--- ----- --- --- ------ -------- ----- --- ------ ----- --<br>----- ----- ---------- --- --- ------ ------ ---- -- ------<br>------- --- ------ ----- --- ---- ------- -- ---- --- --<br>------- ------",100908.69999992847,100907.89999997616,100499.842,100501,100516.511,100916.772,,16,"1727,"
screen,html.Screen,0_2_1_1_17,2021-11-12T13:16:47.270Z,,,,,,,,,,,,,,,,54,,,,,,,,,,,,,,1055.027999952319,,response,,,100,,,,,,Space,keypress(Space),,,,,-- --- ---- --- ------ ----- ------- ---- -- --- ------- --<br>------- ---------- ------ -- ----- in ----- -- ---- ------<br>--- ----- --- --- ------ -------- ----- --- ------ ----- --<br>----- ----- ---------- --- --- ------ ------ ---- -- ------<br>------- --- ------ ----- --- ---- ------- -- ---- --- --<br>------- ------,101972.59999990463,101971.79999995232,100900.101,100908.89999997616,100916.772,101983.7,,17,in
screen,html.Screen,0_2_1_1_18,2021-11-12T13:16:47.806Z,,,,,,,,,,,,,,,,54,,,,,,,,,,,,,,524.0999999523192,,response,,,100,,,,,,Space,keypress(Space),,,,,-- --- ---- --- ------ ----- ------- ---- -- --- ------- --<br>------- ---------- ------ -- ----- -- order -- ---- ------<br>--- ----- --- --- ------ -------- ----- --- ------ ----- --<br>----- ----- ---------- --- --- ------ ------ ---- -- ------<br>------- --- ------ ----- --- ---- ------- -- ---- --- --<br>------- ------,102508.59999990463,102507.79999995232,101967.029,101972.79999995232,101983.7,102517.203,,18,order
screen,html.Screen,0_2_1_1_19,2021-11-12T13:16:48.238Z,,,,,,,,,,,,,,,,54,,,,,,,,,,,,,,422.5969999523222,,response,,,100,,,,,,Space,keypress(Space),,,,,-- --- ---- --- ------ ----- ------- ---- -- --- ------- --<br>------- ---------- ------ -- ----- -- ----- to ---- ------<br>--- ----- --- --- ------ -------- ----- --- ------ ----- --<br>----- ----- ---------- --- --- ------ ------ ---- -- ------<br>------- --- ------ ----- --- ---- ------- -- ---- --- --<br>------- ------,102940.59999990463,102939.79999995232,102500.532,102508.79999995232,102517.203,102950.539,,19,to
screen,html.Screen,0_2_1_1_20,2021-11-12T13:16:48.645Z,,,,,,,,,,,,,,,,54,,,,,,,,,,,,,,397.260999952312,,response,,,100,,,,,,Space,keypress(Space),,,,,-- --- ---- --- ------ ----- ------- ---- -- --- ------- --<br>------- ---------- ------ -- ----- -- ----- -- save ------<br>--- ----- --- --- ------ -------- ----- --- ------ ----- --<br>----- ----- ---------- --- --- ------ ------ ---- -- ------<br>------- --- ------ ----- --- ---- ------- -- ---- --- --<br>------- ------,103348.59999990463,103347.79999995232,102933.869,102940.79999995232,102950.539,103350.755,,20,save
screen,html.Screen,0_2_1_1_21,2021-11-12T13:16:49.150Z,,,,,,,,,,,,,,,,54,,,,,,,,,,,,,,501.3449999046279,,response,,,100,,,,,,Space,keypress(Space),,,,,"-- --- ---- --- ------ ----- ------- ---- -- --- ------- --<br>------- ---------- ------ -- ----- -- ----- -- ---- money,<br>--- ----- --- --- ------ -------- ----- --- ------ ----- --<br>----- ----- ---------- --- --- ------ ------ ---- -- ------<br>------- --- ------ ----- --- ---- ------- -- ---- --- --<br>------- ------",103853,103852.09999990463,103334.084,103348.79999995232,103350.755,103867.565,,21,"money,"
screen,html.Screen,0_2_1_1_22,2021-11-12T13:16:49.653Z,,,,,,,,,,,,,,,,54,,,,,,,,,,,,,,488.1349999284721,,response,,,100,,,,,,Space,keypress(Space),,,,,-- --- ---- --- ------ ----- ------- ---- -- --- ------- --<br>------- ---------- ------ -- ----- -- ----- -- ---- ------<br>the ----- --- --- ------ -------- ----- --- ------ ----- --<br>----- ----- ---------- --- --- ------ ------ ---- -- ------<br>------- --- ------ ----- --- ---- ------- -- ---- --- --<br>------- ------,104356.5,104355.69999992847,103850.894,103853.19999992847,103867.565,104367.638,,22,the
screen,html.Screen,0_2_1_1_23,2021-11-12T13:16:50.181Z,,,,,,,,,,,,,,,,54,,,,,,,,,,,,,,516.0619999284681,,response,,,100,,,,,,Space,keypress(Space),,,,,-- --- ---- --- ------ ----- ------- ---- -- --- ------- --<br>------- ---------- ------ -- ----- -- ----- -- ---- ------<br>--- state --- --- ------ -------- ----- --- ------ ----- --<br>----- ----- ---------- --- --- ------ ------ ---- -- ------<br>------- --- ------ ----- --- ---- ------- -- ---- --- --<br>------- ------,104884.5,104883.69999992847,104350.968,104356.79999995232,104367.638,104901.158,,23,state
screen,html.Screen,0_2_1_1_24,2021-11-12T13:16:50.590Z,,,,,,,,,,,,,,,,54,,,,,,,,,,,,,,391.0419999284786,,response,,,100,,,,,,Space,keypress(Space),,,,,-- --- ---- --- ------ ----- ------- ---- -- --- ------- --<br>------- ---------- ------ -- ----- -- ----- -- ---- ------<br>--- ----- cut --- ------ -------- ----- --- ------ ----- --<br>----- ----- ---------- --- --- ------ ------ ---- -- ------<br>------- --- ------ ----- --- ---- ------- -- ---- --- --<br>------- ------,105292.89999997616,105292.19999992847,104884.487,104884.79999995232,104901.158,105301.266,,24,cut
screen,html.Screen,0_2_1_1_25,2021-11-12T13:16:51.053Z,,,,,,,,,,,,,,,,54,,,,,,,,,,,,,,454.43399992847117,,response,,,100,,,,,,Space,keypress(Space),,,,,-- --- ---- --- ------ ----- ------- ---- -- --- ------- --<br>------- ---------- ------ -- ----- -- ----- -- ---- ------<br>--- ----- --- the ------ -------- ----- --- ------ ----- --<br>----- ----- ---------- --- --- ------ ------ ---- -- ------<br>------- --- ------ ----- --- ---- ------- -- ---- --- --<br>------- ------,105756.5,105755.69999992847,105284.595,105293.19999992847,105301.266,105768.061,,25,the
screen,html.Screen,0_2_1_1_26,2021-11-12T13:16:51.509Z,,,,,,,,,,,,,,,,54,,,,,,,,,,,,,,443.6389999284729,,response,,,100,,,,,,Space,keypress(Space),,,,,-- --- ---- --- ------ ----- ------- ---- -- --- ------- --<br>------- ---------- ------ -- ----- -- ----- -- ---- ------<br>--- ----- --- --- bonds' -------- ----- --- ------ ----- --<br>----- ----- ---------- --- --- ------ ------ ---- -- ------<br>------- --- ------ ----- --- ---- ------- -- ---- --- --<br>------- ------,106212.5,106211.69999992847,105751.39,105756.69999992847,105768.061,106218.182,,26,bonds'
screen,html.Screen,0_2_1_1_27,2021-11-12T13:16:51.957Z,,,,,,,,,,,,,,,,54,,,,,,,,,,,,,,441.41799990463187,,response,,,100,,,,,,Space,keypress(Space),,,,,-- --- ---- --- ------ ----- ------- ---- -- --- ------- --<br>------- ---------- ------ -- ----- -- ----- -- ---- ------<br>--- ----- --- --- ------ interest ----- --- ------ ----- --<br>----- ----- ---------- --- --- ------ ------ ---- -- ------<br>------- --- ------ ----- --- ---- ------- -- ---- --- --<br>------- ------,106660.39999997616,106659.59999990463,106201.511,106212.69999992847,106218.182,106668.304,,27,interest
screen,html.Screen,0_2_1_1_28,2021-11-12T13:16:52.469Z,,,,,,,,,,,,,,,,54,,,,,,,,,,,,,,503.29599990462884,,response,,,100,,,,,,Space,keypress(Space),,,,,-- --- ---- --- ------ ----- ------- ---- -- --- ------- --<br>------- ---------- ------ -- ----- -- ----- -- ---- ------<br>--- ----- --- --- ------ -------- rate. --- ------ ----- --<br>----- ----- ---------- --- --- ------ ------ ---- -- ------<br>------- --- ------ ----- --- ---- ------- -- ---- --- --<br>------- ------,107172.39999997616,107171.59999990463,106651.633,106660.69999992847,106668.304,107185.032,,28,rate.
screen,html.Screen,0_2_1_1_29,2021-11-12T13:16:52.973Z,,,,,,,,,,,,,,,,54,,,,,,,,,,,,,,490.56799990462605,,response,,,100,,,,,,Space,keypress(Space),,,,,-- --- ---- --- ------ ----- ------- ---- -- --- ------- --<br>------- ---------- ------ -- ----- -- ----- -- ---- ------<br>--- ----- --- --- ------ -------- ----- The ------ ----- --<br>----- ----- ---------- --- --- ------ ------ ---- -- ------<br>------- --- ------ ----- --- ---- ------- -- ---- --- --<br>------- ------,107676.39999997616,107675.59999990463,107168.362,107172.59999990463,107185.032,107685.097,,29,The
screen,html.Screen,0_2_1_1_30,2021-11-12T13:16:53.365Z,,,,,,,,,,,,,,,,54,,,,,,,,,,,,,,382.4030000000057,,response,,,100,,,,,,Space,keypress(Space),,,,,-- --- ---- --- ------ ----- ------- ---- -- --- ------- --<br>------- ---------- ------ -- ----- -- ----- -- ---- ------<br>--- ----- --- --- ------ -------- ----- --- market ----- --<br>----- ----- ---------- --- --- ------ ------ ---- -- ------<br>------- --- ------ ----- --- ---- ------- -- ---- --- --<br>------- ------,108068.39999997616,108067.5,107668.428,107676.69999992847,107685.097,108085.408,,30,market
screen,html.Screen,0_2_1_1_31,2021-11-12T13:16:53.853Z,,,,,,,,,,,,,,,,54,,,,,,,,,,,,,,470.19199990463676,,response,,,100,,,,,,Space,keypress(Space),,,,,-- --- ---- --- ------ ----- ------- ---- -- --- ------- --<br>------- ---------- ------ -- ----- -- ----- -- ---- ------<br>--- ----- --- --- ------ -------- ----- --- ------ value --<br>----- ----- ---------- --- --- ------ ------ ---- -- ------<br>------- --- ------ ----- --- ---- ------- -- ---- --- --<br>------- ------,108556.39999997616,108555.59999990463,108068.736,108068.59999990463,108085.408,108568.82,,31,value
screen,html.Screen,0_2_1_1_32,2021-11-12T13:16:54.277Z,,,,,,,,,,,,,,,,54,,,,,,,,,,,,,,410.679999999993,,response,,,100,,,,,,Space,keypress(Space),,,,,-- --- ---- --- ------ ----- ------- ---- -- --- ------- --<br>------- ---------- ------ -- ----- -- ----- -- ---- ------<br>--- ----- --- --- ------ -------- ----- --- ------ ----- of<br>----- ----- ---------- --- --- ------ ------ ---- -- ------<br>------- --- ------ ----- --- ---- ------- -- ---- --- --<br>------- ------,108980.29999995232,108979.5,108552.149,108556.59999990463,108568.82,108985.554,,32,of
screen,html.Screen,0_2_1_1_33,2021-11-12T13:16:54.725Z,,,,,,,,,,,,,,,,54,,,,,,,,,,,,,,442.04599990462884,,response,,,100,,,,,,Space,keypress(Space),,,,,-- --- ---- --- ------ ----- ------- ---- -- --- ------- --<br>------- ---------- ------ -- ----- -- ----- -- ---- ------<br>--- ----- --- --- ------ -------- ----- --- ------ ----- --<br>these ----- ---------- --- --- ------ ------ ---- -- ------<br>------- --- ------ ----- --- ---- ------- -- ---- --- --<br>------- ------,109428.39999997616,109427.59999990463,108968.884,108980.59999990463,108985.554,109435.566,,33,these
screen,html.Screen,0_2_1_1_34,2021-11-12T13:16:55.157Z,,,,,,,,,,,,,,,,54,,,,,,,,,,,,,,423.93399999999383,,response,,,100,,,,,,Space,keypress(Space),,,,,-- --- ---- --- ------ ----- ------- ---- -- --- ------- --<br>------- ---------- ------ -- ----- -- ----- -- ---- ------<br>--- ----- --- --- ------ -------- ----- --- ------ ----- --<br>----- bonds ---------- --- --- ------ ------ ---- -- ------<br>------- --- ------ ----- --- ---- ------- -- ---- --- --<br>------- ------,109860.19999992847,109859.5,109418.897,109428.5,109435.566,109869.232,,34,bonds
screen,html.Screen,0_2_1_1_35,2021-11-12T13:16:55.581Z,,,,,,,,,,,,,,,,54,,,,,,,,,,,,,,414.2679999999964,,response,,,100,,,,,,Space,keypress(Space),,,,,"-- --- ---- --- ------ ----- ------- ---- -- --- ------- --<br>------- ---------- ------ -- ----- -- ----- -- ---- ------<br>--- ----- --- --- ------ -------- ----- --- ------ ----- --<br>----- ----- plummeted, --- --- ------ ------ ---- -- ------<br>------- --- ------ ----- --- ---- ------- -- ---- --- --<br>------- ------",110284.19999992847,110283.5,109852.56,109860.5,109869.232,110285.945,,35,"plummeted,"
screen,html.Screen,0_2_1_1_36,2021-11-12T13:16:56.045Z,,,,,,,,,,,,,,,,54,,,,,,,,,,,,,,461.554999999993,,response,,,100,,,,,,Space,keypress(Space),,,,,-- --- ---- --- ------ ----- ------- ---- -- --- ------- --<br>------- ---------- ------ -- ----- -- ----- -- ---- ------<br>--- ----- --- --- ------ -------- ----- --- ------ ----- --<br>----- ----- ---------- and --- ------ ------ ---- -- ------<br>------- --- ------ ----- --- ---- ------- -- ---- --- --<br>------- ------,110748.29999995232,110747.5,110269.274,110284.5,110285.945,110752.694,,36,and
screen,html.Screen,0_2_1_1_37,2021-11-12T13:16:56.477Z,,,,,,,,,,,,,,,,54,,,,,,,,,,,,,,426.80599999999686,,response,,,100,,,,,,Space,keypress(Space),,,,,-- --- ---- --- ------ ----- ------- ---- -- --- ------- --<br>------- ---------- ------ -- ----- -- ----- -- ---- ------<br>--- ----- --- --- ------ -------- ----- --- ------ ----- --<br>----- ----- ---------- --- the ------ ------ ---- -- ------<br>------- --- ------ ----- --- ---- ------- -- ---- --- --<br>------- ------,111180.19999992847,111179.5,110736.024,110748.5,110752.694,111186.193,,37,the
screen,html.Screen,0_2_1_1_38,2021-11-12T13:16:56.901Z,,,,,,,,,,,,,,,,54,,,,,,,,,,,,,,417.3070000000007,,response,,,100,,,,,,Space,keypress(Space),,,,,-- --- ---- --- ------ ----- ------- ---- -- --- ------- --<br>------- ---------- ------ -- ----- -- ----- -- ---- ------<br>--- ----- --- --- ------ -------- ----- --- ------ ----- --<br>----- ----- ---------- --- --- market ------ ---- -- ------<br>------- --- ------ ----- --- ---- ------- -- ---- --- --<br>------- ------,111604.19999992847,111603.5,111169.522,111180.5,111186.193,111619.584,,38,market
screen,html.Screen,0_2_1_1_39,2021-11-12T13:16:57.381Z,,,,,,,,,,,,,,,,54,,,,,,,,,,,,,,463.8159999761556,,response,,,100,,,,,,Space,keypress(Space),,,,,-- --- ---- --- ------ ----- ------- ---- -- --- ------- --<br>------- ---------- ------ -- ----- -- ----- -- ---- ------<br>--- ----- --- --- ------ -------- ----- --- ------ ----- --<br>----- ----- ---------- --- --- ------ became ---- -- ------<br>------- --- ------ ----- --- ---- ------- -- ---- --- --<br>------- ------,112084.19999992847,112083.39999997616,111602.914,111604.5,111619.584,112086.346,,39,became
screen,html.Screen,0_2_1_1_40,2021-11-12T13:16:57.813Z,,,,,,,,,,,,,,,,54,,,,,,,,,,,,,,428.9539999523113,,response,,,100,,,,,,Space,keypress(Space),,,,,-- --- ---- --- ------ ----- ------- ---- -- --- ------- --<br>------- ---------- ------ -- ----- -- ----- -- ---- ------<br>--- ----- --- --- ------ -------- ----- --- ------ ----- --<br>----- ----- ---------- --- --- ------ ------ wary -- ------<br>------- --- ------ ----- --- ---- ------- -- ---- --- --<br>------- ------,112516.19999992847,112515.29999995232,112069.676,112084.5,112086.346,112519.93,,40,wary
screen,html.Screen,0_2_1_1_41,2021-11-12T13:16:58.206Z,,,,,,,,,,,,,,,,54,,,,,,,,,,,,,,387.4699999761651,,response,,,100,,,,,,Space,keypress(Space),,,,,-- --- ---- --- ------ ----- ------- ---- -- --- ------- --<br>------- ---------- ------ -- ----- -- ----- -- ---- ------<br>--- ----- --- --- ------ -------- ----- --- ------ ----- --<br>----- ----- ---------- --- --- ------ ------ ---- of ------<br>------- --- ------ ----- --- ---- ------- -- ---- --- --<br>------- ------,112909.29999995232,112907.39999997616,112503.258,112516.39999997616,112519.93,112919.943,,41,of
screen,html.Screen,0_2_1_1_42,2021-11-12T13:16:58.709Z,,,,,,,,,,,,,,,,54,,,,,,,,,,,,,,491.356999952317,,response,,,100,,,,,,Space,keypress(Space),,,,,-- --- ---- --- ------ ----- ------- ---- -- --- ------- --<br>------- ---------- ------ -- ----- -- ----- -- ---- ------<br>--- ----- --- --- ------ -------- ----- --- ------ ----- --<br>----- ----- ---------- --- --- ------ ------ ---- -- French<br>------- --- ------ ----- --- ---- ------- -- ---- --- --<br>------- ------,113412.09999990463,113411.29999995232,112903.273,112909.69999992847,112919.943,113420.111,,42,French
screen,html.Screen,0_2_1_1_43,2021-11-12T13:16:59.181Z,,,,,,,,,,,,,,,,54,,,,,,,,,,,,,,463.58899992847,,response,,,100,,,,,,Space,keypress(Space),,,,,-- --- ---- --- ------ ----- ------- ---- -- --- ------- --<br>------- ---------- ------ -- ----- -- ----- -- ---- ------<br>--- ----- --- --- ------ -------- ----- --- ------ ----- --<br>----- ----- ---------- --- --- ------ ------ ---- -- ------<br>credit. --- ------ ----- --- ---- ------- -- ---- --- --<br>------- ------,113884.59999990463,113883.69999992847,113403.44,113412.39999997616,113420.111,113886.861,,43,credit.
screen,html.Screen,0_2_1_1_44,2021-11-12T13:16:59.629Z,,,,,,,,,,,,,,,,54,,,,,,,,,,,,,,444.43899995231186,,response,,,100,,,,,,Space,keypress(Space),,,,,-- --- ---- --- ------ ----- ------- ---- -- --- ------- --<br>------- ---------- ------ -- ----- -- ----- -- ---- ------<br>--- ----- --- --- ------ -------- ----- --- ------ ----- --<br>----- ----- ---------- --- --- ------ ------ ---- -- ------<br>------- The ------ ----- --- ---- ------- -- ---- --- --<br>------- ------,114332,114331.29999995232,113870.191,113884.69999992847,113886.861,114337.053,,44,The
screen,html.Screen,0_2_1_1_45,2021-11-12T13:17:00.117Z,,,,,,,,,,,,,,,,54,,,,,,,,,,,,,,482.14699992847454,,response,,,100,,,,,,Space,keypress(Space),,,,,-- --- ---- --- ------ ----- ------- ---- -- --- ------- --<br>------- ---------- ------ -- ----- -- ----- -- ---- ------<br>--- ----- --- --- ------ -------- ----- --- ------ ----- --<br>----- ----- ---------- --- --- ------ ------ ---- -- ------<br>------- --- French ----- --- ---- ------- -- ---- --- --<br>------- ------,114820,114819.19999992847,114320.382,114332.19999992847,114337.053,114837.111,,45,French
screen,html.Screen,0_2_1_1_46,2021-11-12T13:17:00.557Z,,,,,,,,,,,,,,,,54,,,,,,,,,,,,,,422.08899992847,,response,,,100,,,,,,Space,keypress(Space),,,,,-- --- ---- --- ------ ----- ------- ---- -- --- ------- --<br>------- ---------- ------ -- ----- -- ----- -- ---- ------<br>--- ----- --- --- ------ -------- ----- --- ------ ----- --<br>----- ----- ---------- --- --- ------ ------ ---- -- ------<br>------- --- ------ state --- ---- ------- -- ---- --- --<br>------- ------,115259.89999997616,115259.19999992847,114820.441,114820.29999995232,114837.111,115270.609,,46,state
screen,html.Screen,0_2_1_1_47,2021-11-12T13:17:00.989Z,,,,,,,,,,,,,,,,54,,,,,,,,,,,,,,420.5909999284777,,response,,,100,,,,,,Space,keypress(Space),,,,,-- --- ---- --- ------ ----- ------- ---- -- --- ------- --<br>------- ---------- ------ -- ----- -- ----- -- ---- ------<br>--- ----- --- --- ------ -------- ----- --- ------ ----- --<br>----- ----- ---------- --- --- ------ ------ ---- -- ------<br>------- --- ------ ----- was ---- ------- -- ---- --- --<br>------- ------,115692,115691.19999992847,115253.938,115260.19999992847,115270.609,115704.022,,47,was
screen,html.Screen,0_2_1_1_48,2021-11-12T13:17:01.405Z,,,,,,,,,,,,,,,,54,,,,,,,,,,,,,,403.2779999523191,,response,,,100,,,,,,Space,keypress(Space),,,,,-- --- ---- --- ------ ----- ------- ---- -- --- ------- --<br>------- ---------- ------ -- ----- -- ----- -- ---- ------<br>--- ----- --- --- ------ -------- ----- --- ------ ----- --<br>----- ----- ---------- --- --- ------ ------ ---- -- ------<br>------- --- ------ ----- --- left ------- -- ---- --- --<br>------- ------,116108,116107.29999995232,115687.352,115692.19999992847,115704.022,116120.835,,48,left
screen,html.Screen,0_2_1_1_49,2021-11-12T13:17:01.813Z,,,,,,,,,,,,,,,,54,,,,,,,,,,,,,,394.26499990462617,,response,,,100,,,,,,Space,keypress(Space),,,,,-- --- ---- --- ------ ----- ------- ---- -- --- ------- --<br>------- ---------- ------ -- ----- -- ----- -- ---- ------<br>--- ----- --- --- ------ -------- ----- --- ------ ----- --<br>----- ----- ---------- --- --- ------ ------ ---- -- ------<br>------- --- ------ ----- --- ---- without -- ---- --- --<br>------- ------,116515.89999997616,116515.09999990463,116104.164,116108.39999997616,116120.835,116520.941,,49,without
screen,html.Screen,0_2_1_1_50,2021-11-12T13:17:02.213Z,,,,,,,,,,,,,,,,54,,,,,,,,,,,,,,394.25899992846826,,response,,,100,,,,,,Space,keypress(Space),,,,,-- --- ---- --- ------ ----- ------- ---- -- --- ------- --<br>------- ---------- ------ -- ----- -- ----- -- ---- ------<br>--- ----- --- --- ------ -------- ----- --- ------ ----- --<br>----- ----- ---------- --- --- ------ ------ ---- -- ------<br>------- --- ------ ----- --- ---- ------- an ---- --- --<br>------- ------,116915.89999997616,116915.19999992847,116504.27,116516.19999992847,116520.941,116921.054,,50,an
screen,html.Screen,0_2_1_1_51,2021-11-12T13:17:02.669Z,,,,,,,,,,,,,,,,54,,,,,,,,,,,,,,450.04599990462884,,response,,,100,,,,,,Space,keypress(Space),,,,,-- --- ---- --- ------ ----- ------- ---- -- --- ------- --<br>------- ---------- ------ -- ----- -- ----- -- ---- ------<br>--- ----- --- --- ------ -------- ----- --- ------ ----- --<br>----- ----- ---------- --- --- ------ ------ ---- -- ------<br>------- --- ------ ----- --- ---- ------- -- easy --- --<br>------- ------,117372,117371.09999990463,116904.383,116916.19999992847,116921.054,117387.848,,51,easy
screen,html.Screen,0_2_1_1_52,2021-11-12T13:17:03.061Z,,,,,,,,,,,,,,,,54,,,,,,,,,,,,,,375.25199990463443,,response,,,100,,,,,,Space,keypress(Space),,,,,-- --- ---- --- ------ ----- ------- ---- -- --- ------- --<br>------- ---------- ------ -- ----- -- ----- -- ---- ------<br>--- ----- --- --- ------ -------- ----- --- ------ ----- --<br>----- ----- ---------- --- --- ------ ------ ---- -- ------<br>------- --- ------ ----- --- ---- ------- -- ---- way --<br>------- ------,117763.89999997616,117763.09999990463,117371.177,117372.19999992847,117387.848,117771.288,,52,way
screen,html.Screen,0_2_1_1_53,2021-11-12T13:17:03.421Z,,,,,,,,,,,,,,,,54,,,,,,,,,,,,,,351.91199992847396,,response,,,100,,,,,,Space,keypress(Space),,,,,-- --- ---- --- ------ ----- ------- ---- -- --- ------- --<br>------- ---------- ------ -- ----- -- ----- -- ---- ------<br>--- ----- --- --- ------ -------- ----- --- ------ ----- --<br>----- ----- ---------- --- --- ------ ------ ---- -- ------<br>------- --- ------ ----- --- ---- ------- -- ---- --- of<br>------- ------,118123.89999997616,118123.19999992847,117754.617,117764.09999990463,117771.288,118138.02,,53,of
screen,html.Screen,0_2_1_1_54,2021-11-12T13:17:03.813Z,,,,,,,,,,,,,,,,54,,,,,,,,,,,,,,377.0799999046285,,response,,,100,,,,,,Space,keypress(Space),,,,,-- --- ---- --- ------ ----- ------- ---- -- --- ------- --<br>------- ---------- ------ -- ----- -- ----- -- ---- ------<br>--- ----- --- --- ------ -------- ----- --- ------ ----- --<br>----- ----- ---------- --- --- ------ ------ ---- -- ------<br>------- --- ------ ----- --- ---- ------- -- ---- --- --<br>raising ------,118515.89999997616,118515.09999990463,118121.35,118124.19999992847,118138.02,118521.427,,54,raising
screen,html.Screen,0_2_1_1_55,2021-11-12T13:17:04.349Z,,,,,,,,,,,,,,,,54,,,,,,,,,,,,,,529.6729999046365,,response,,,100,,,,,,Space,keypress(Space),,,,,-- --- ---- --- ------ ----- ------- ---- -- --- ------- --<br>------- ---------- ------ -- ----- -- ----- -- ---- ------<br>--- ----- --- --- ------ -------- ----- --- ------ ----- --<br>----- ----- ---------- --- --- ------ ------ ---- -- ------<br>------- --- ------ ----- --- ---- ------- -- ---- --- --<br>------- money.,119051.89999997616,119051.09999990463,118504.757,118516.09999990463,118521.427,119054.959,,55,money.
Item 100,flow.Loop,0_2_1_1,2021-11-12T13:17:04.349Z,,,,,,,,,,,,,,,,,,,,,,,,,,,,,,26419.979999904637,,completion,,,,B,,,,,,,,,,silence,,119052.29999995232,119051.09999990463,92614.449,92616.19999992847,92631.12,119054.959,,,
Question 1,html.Screen,0_2_1_2,2021-11-12T13:17:06.791Z,,,,,,,,,,,,,,,,,,,,,,,,,,,true,TRUE,,2435.9409999761556,,response,,,100,B,,,,,TRUE,click #choice-1,,,,silence,,121492,121490.89999997616,119038.288,119052.59999990463,119054.959,121505.624,,,
Question 2,html.Screen,0_2_1_3,2021-11-12T13:17:09.255Z,,,,,,,,,,,,,,,,,,,,,,,,,,,true,FALSE,,2449.0759999284783,,response,,,100,B,,,,,FALSE,click #choice-2,,,,silence,,123955.89999997616,123954.69999992847,121488.953,121492.29999995232,121505.624,123956.282,,,
Item 100,flow.Sequence,0_2_1,2021-11-12T13:17:09.255Z,,,,,,,,,,,,,,,,,,,,,,,,,,,,,,41326.19499992847,,completion,,,,,,,,,,,,,,,,123956.19999992847,123954.69999992847,82611.834,82614.19999992847,82628.505,123956.282,,,
End of Practice,html.Page,0_2_2,2021-11-12T13:17:13.207Z,,,,,,,,,,,,,,,,,,,,,,,,,,,,,,3951.6179999761516,,form submission,,,,,,,,,,,,,,,,127908.39999997616,127907.89999997616,123939.611,123956.39999997616,123956.282,127923.771,,,
Practice,flow.Sequence,0_2,2021-11-12T13:17:13.208Z,,,,,,,,,,,,,,,,,,,,,,,,,,,,,,95592.95099997616,,completion,,,,,,,,,,,,,,,,127909.09999990463,127907.89999997616,32281.607,32297,32314.949,127923.771,,,
Trap_instruction,html.Page,0_3_0,2021-11-12T13:17:17.615Z,,,,,,,,,,,,,,,,,,,,,,,,,,,,,,4391.928999928481,,form submission,,,,,,,,,,,,,,,,132316.09999990463,132315.69999992847,127907.101,127909.39999997616,127923.771,132341.5,,,
trap_trial,html.Screen,0_3_1,2021-11-12T13:17:20.663Z,,,,,,,,,,,,,,,,,,,,,,,,,,,true,1,,3020.6999999284744,,response,,,,,,,,,1,click #choice-1,,,,,,135363.5,135362.19999992847,132308.16,132316.29999995232,132341.5,135375.764,,,
end of trap trial,html.Page,0_3_2,2021-11-12T13:17:23.111Z,,,,,,,,,,,,,,,,,,,,,,,,,,,,,,2435.835999904637,,form submission,,,,,,,,,,,,,,,,137812.09999990463,137811.59999990463,135359.094,135363.79999995232,135375.764,137826.637,,,
Trap 1,flow.Sequence,0_3,2021-11-12T13:17:23.112Z,,,,,,,,,,,,,,,,,,,,,,,,,,,,,,9887.82899990464,,completion,,,,,,,,,,,,,,,,137812.59999990463,137811.59999990463,127907.101,127909.39999997616,127923.771,137826.637,,,
Standby,html.Page,0_4_0,2021-11-12T13:17:31.112Z,,,,,,,,,,,,,,,,,,,,,,,,,,,,,,8001.5470000000205,,timeout,,,,,,,,,,,,,,,,145813.19999992847,145811.514,137809.966,137812.89999997616,137826.637,145828.184,,,
Holding screen,html.Screen,0_4_1_0_0,2021-11-12T13:17:38.115Z,,,,,,,,,,,,,,,,,,,,,,,,,,,,,,7002.387999999977,,timeout,,,,,,,,,,,,,,,,152815.69999992847,152813.902,145811.514,145813.59999990463,145828.184,152830.572,,,
screen,html.Screen,0_4_1_0_1_0,2021-11-12T13:17:40.198Z,,,,,,,,,,,,,,,,48,,,,,,,,,,,,,,2067.527999904647,,response,,,10,B,,,,,Space,keypress(Space),,,,lyrical,As -- --- ------ ------- --------- ----------- --------<br>--------- -------- --- ------- -- ------- ---- -- ------<br>-- --- -------- -------- ---------- ---- ---- ---- ------<br>-- --------- -- ---- -- --- -- --- ------- -- - -----<br>---------- -- -- -- ---- ----- -- ------ -- --- ------<br>-------,154899.19999992847,154898.09999990463,152813.902,152816.19999992847,152830.572,154914.385,,0,As
screen,html.Screen,0_4_1_0_1_1,2021-11-12T13:17:40.645Z,,,,,,,,,,,,,,,,48,,,,,,,,,,,,,,431.1149999999907,,response,,,10,B,,,,,Space,keypress(Space),,,,lyrical,-- in --- ------ ------- --------- ----------- --------<br>--------- -------- --- ------- -- ------- ---- -- ------<br>-- --- -------- -------- ---------- ---- ---- ---- ------<br>-- --------- -- ---- -- --- -- --- ------- -- - -----<br>---------- -- -- -- ---- ----- -- ------ -- --- ------<br>-------,155346.19999992847,155345.5,154897.715,154899.5,154914.385,155348.099,,1,in
screen,html.Screen,0_4_1_0_1_2,2021-11-12T13:17:41.061Z,,,,,,,,,,,,,,,,48,,,,,,,,,,,,,,413.3009999761707,,response,,,10,B,,,,,Space,keypress(Space),,,,lyrical,-- -- the ------ ------- --------- ----------- --------<br>--------- -------- --- ------- -- ------- ---- -- ------<br>-- --- -------- -------- ---------- ---- ---- ---- ------<br>-- --------- -- ---- -- --- -- --- ------- -- - -----<br>---------- -- -- -- ---- ----- -- ------ -- --- ------<br>-------,155762.19999992847,155761.39999997616,155331.428,155346.5,155348.099,155764.821,,2,the
screen,html.Screen,0_4_1_0_1_3,2021-11-12T13:17:41.421Z,,,,,,,,,,,,,,,,48,,,,,,,,,,,,,,356.6790000000037,,response,,,10,B,,,,,Space,keypress(Space),,,,lyrical,-- -- --- United ------- --------- ----------- --------<br>--------- -------- --- ------- -- ------- ---- -- ------<br>-- --- -------- -------- ---------- ---- ---- ---- ------<br>-- --------- -- ---- -- --- -- --- ------- -- - -----<br>---------- -- -- -- ---- ----- -- ------ -- --- ------<br>-------,156122.19999992847,156121.5,155748.15,155762.5,155764.821,156131.591,,3,United
screen,html.Screen,0_4_1_0_1_4,2021-11-12T13:17:41.877Z,,,,,,,,,,,,,,,,48,,,,,,,,,,,,,,445.9090000000142,,response,,,10,B,,,,,Space,keypress(Space),,,,lyrical,"-- -- --- ------ States, --------- ----------- --------<br>--------- -------- --- ------- -- ------- ---- -- ------<br>-- --- -------- -------- ---------- ---- ---- ---- ------<br>-- --------- -- ---- -- --- -- --- ------- -- - -----<br>---------- -- -- -- ---- ----- -- ------ -- --- ------<br>-------",156578.29999995232,156577.5,156114.92,156122.5,156131.591,156581.724,,4,"States,"
screen,html.Screen,0_4_1_0_1_5,2021-11-12T13:17:42.469Z,,,,,,,,,,,,,,,,48,,,,,,,,,,,,,,587.6759999761707,,response,,,10,B,,,,,Space,keypress(Space),,,,lyrical,-- -- --- ------ ------- Colombian ----------- --------<br>--------- -------- --- ------- -- ------- ---- -- ------<br>-- --- -------- -------- ---------- ---- ---- ---- ------<br>-- --------- -- ---- -- --- -- --- ------- -- - -----<br>---------- -- -- -- ---- ----- -- ------ -- --- ------<br>-------,157170.19999992847,157169.39999997616,156565.053,156578.59999990463,156581.724,157181.831,,5,Colombian
screen,html.Screen,0_4_1_0_1_6,2021-11-12T13:17:42.989Z,,,,,,,,,,,,,,,,48,,,,,,,,,,,,,,507.4689999523107,,response,,,10,B,,,,,Space,keypress(Space),,,,lyrical,-- -- --- ------ ------- --------- legislation --------<br>--------- -------- --- ------- -- ------- ---- -- ------<br>-- --- -------- -------- ---------- ---- ---- ---- ------<br>-- --------- -- ---- -- --- -- --- ------- -- - -----<br>---------- -- -- -- ---- ----- -- ------ -- --- ------<br>-------,157690.09999990463,157689.29999995232,157165.161,157170.39999997616,157181.831,157698.631,,6,legislation
screen,html.Screen,0_4_1_0_1_7,2021-11-12T13:17:43.533Z,,,,,,,,,,,,,,,,48,,,,,,,,,,,,,,534.6689999523223,,response,,,10,B,,,,,Space,keypress(Space),,,,lyrical,-- -- --- ------ ------- --------- ----------- requires<br>--------- -------- --- ------- -- ------- ---- -- ------<br>-- --- -------- -------- ---------- ---- ---- ---- ------<br>-- --------- -- ---- -- --- -- --- ------- -- - -----<br>---------- -- -- -- ---- ----- -- ------ -- --- ------<br>-------,158234,158233.29999995232,157681.961,157690.39999997616,157698.631,158248.823,,7,requires
screen,html.Screen,0_4_1_0_1_8,2021-11-12T13:17:44.005Z,,,,,,,,,,,,,,,,48,,,,,,,,,,,,,,456.37699992847047,,response,,,10,B,,,,,Space,keypress(Space),,,,lyrical,-- -- --- ------ ------- --------- ----------- --------<br>travelers -------- --- ------- -- ------- ---- -- ------<br>-- --- -------- -------- ---------- ---- ---- ---- ------<br>-- --------- -- ---- -- --- -- --- ------- -- - -----<br>---------- -- -- -- ---- ----- -- ------ -- --- ------<br>-------,158706.09999990463,158705.19999992847,158232.152,158234.29999995232,158248.823,158715.613,,8,travelers
screen,html.Screen,0_4_1_0_1_9,2021-11-12T13:17:44.525Z,,,,,,,,,,,,,,,,48,,,,,,,,,,,,,,509.6869999523042,,response,,,10,B,,,,,Space,keypress(Space),,,,lyrical,-- -- --- ------ ------- --------- ----------- --------<br>--------- entering --- ------- -- ------- ---- -- ------<br>-- --- -------- -------- ---------- ---- ---- ---- ------<br>-- --------- -- ---- -- --- -- --- ------- -- - -----<br>---------- -- -- -- ---- ----- -- ------ -- --- ------<br>-------,159226,159225.29999995232,158698.942,158706.29999995232,158715.613,159232.419,,9,entering
screen,html.Screen,0_4_1_0_1_10,2021-11-12T13:17:44.997Z,,,,,,,,,,,,,,,,48,,,,,,,,,,,,,,464.98099997616373,,response,,,10,B,,,,,Space,keypress(Space),,,,lyrical,-- -- --- ------ ------- --------- ----------- --------<br>--------- -------- the ------- -- ------- ---- -- ------<br>-- --- -------- -------- ---------- ---- ---- ---- ------<br>-- --------- -- ---- -- --- -- --- ------- -- - -----<br>---------- -- -- -- ---- ----- -- ------ -- --- ------<br>-------,159698.09999990463,159697.39999997616,159215.748,159226.29999995232,159232.419,159699.215,,10,the
screen,html.Screen,0_4_1_0_1_11,2021-11-12T13:17:45.501Z,,,,,,,,,,,,,,,,48,,,,,,,,,,,,,,502.0849999523198,,response,,,10,B,,,,,Space,keypress(Space),,,,lyrical,-- -- --- ------ ------- --------- ----------- --------<br>--------- -------- --- country -- ------- ---- -- ------<br>-- --- -------- -------- ---------- ---- ---- ---- ------<br>-- --------- -- ---- -- --- -- --- ------- -- - -----<br>---------- -- -- -- ---- ----- -- ------ -- --- ------<br>-------,160202.09999990463,160201.29999995232,159682.544,159698.29999995232,159699.215,160215.971,,11,country
screen,html.Screen,0_4_1_0_1_12,2021-11-12T13:17:45.861Z,,,,,,,,,,,,,,,,48,,,,,,,,,,,,,,345.32899995232583,,response,,,10,B,,,,,Space,keypress(Space),,,,lyrical,-- -- --- ------ ------- --------- ----------- --------<br>--------- -------- --- ------- to ------- ---- -- ------<br>-- --- -------- -------- ---------- ---- ---- ---- ------<br>-- --------- -- ---- -- --- -- --- ------- -- - -----<br>---------- -- -- -- ---- ----- -- ------ -- --- ------<br>-------,160562.09999990463,160561.29999995232,160199.301,160202.39999997616,160215.971,160565.994,,12,to
screen,html.Screen,0_4_1_0_1_13,2021-11-12T13:17:46.213Z,,,,,,,,,,,,,,,,48,,,,,,,,,,,,,,347.1059999046265,,response,,,10,B,,,,,Space,keypress(Space),,,,lyrical,-- -- --- ------ ------- --------- ----------- --------<br>--------- -------- --- ------- -- declare ---- -- ------<br>-- --- -------- -------- ---------- ---- ---- ---- ------<br>-- --------- -- ---- -- --- -- --- ------- -- - -----<br>---------- -- -- -- ---- ----- -- ------ -- --- ------<br>-------,160914,160913.09999990463,160549.325,160562.39999997616,160565.994,160916.164,,13,declare
screen,html.Screen,0_4_1_0_1_14,2021-11-12T13:17:46.605Z,,,,,,,,,,,,,,,,48,,,,,,,,,,,,,,388.9359999046428,,response,,,10,B,,,,,Space,keypress(Space),,,,lyrical,-- -- --- ------ ------- --------- ----------- --------<br>--------- -------- --- ------- -- ------- cash -- ------<br>-- --- -------- -------- ---------- ---- ---- ---- ------<br>-- --------- -- ---- -- --- -- --- ------- -- - -----<br>---------- -- -- -- ---- ----- -- ------ -- --- ------<br>-------,161306,161305.09999990463,160899.493,160914.39999997616,160916.164,161316.404,,14,cash
screen,html.Screen,0_4_1_0_1_15,2021-11-12T13:17:47.037Z,,,,,,,,,,,,,,,,48,,,,,,,,,,,,,,420.89599995230674,,response,,,10,B,,,,,Space,keypress(Space),,,,lyrical,-- -- --- ------ ------- --------- ----------- --------<br>--------- -------- --- ------- -- ------- ---- in ------<br>-- --- -------- -------- ---------- ---- ---- ---- ------<br>-- --------- -- ---- -- --- -- --- ------- -- - -----<br>---------- -- -- -- ---- ----- -- ------ -- --- ------<br>-------,161738,161737.29999995232,161299.731,161306.29999995232,161316.404,161749.66,,15,in
screen,html.Screen,0_4_1_0_1_16,2021-11-12T13:17:47.533Z,,,,,,,,,,,,,,,,48,,,,,,,,,,,,,,483.4399999046291,,response,,,10,B,,,,,Space,keypress(Space),,,,lyrical,-- -- --- ------ ------- --------- ----------- --------<br>--------- -------- --- ------- -- ------- ---- -- excess<br>-- --- -------- -------- ---------- ---- ---- ---- ------<br>-- --------- -- ---- -- --- -- --- ------- -- - -----<br>---------- -- -- -- ---- ----- -- ------ -- --- ------<br>-------,162233.89999997616,162233.09999990463,161732.991,161738.19999992847,161749.66,162249.757,,16,excess
screen,html.Screen,0_4_1_0_1_17,2021-11-12T13:17:47.981Z,,,,,,,,,,,,,,,,48,,,,,,,,,,,,,,431.4429999284621,,response,,,10,B,,,,,Space,keypress(Space),,,,lyrical,-- -- --- ------ ------- --------- ----------- --------<br>--------- -------- --- ------- -- ------- ---- -- ------<br>of --- -------- -------- ---------- ---- ---- ---- ------<br>-- --------- -- ---- -- --- -- --- ------- -- - -----<br>---------- -- -- -- ---- ----- -- ------ -- --- ------<br>-------,162682,162681.19999992847,162233.088,162234.09999990463,162249.757,162683.431,,17,of
screen,html.Screen,0_4_1_0_1_18,2021-11-12T13:17:48.589Z,,,,,,,,,,,,,,,,48,,,,,,,,,,,,,,605.6689999046212,,response,,,10,B,,,,,Space,keypress(Space),,,,lyrical,-- -- --- ------ ------- --------- ----------- --------<br>--------- -------- --- ------- -- ------- ---- -- ------<br>-- ten -------- -------- ---------- ---- ---- ---- ------<br>-- --------- -- ---- -- --- -- --- ------- -- - -----<br>---------- -- -- -- ---- ----- -- ------ -- --- ------<br>-------,163290,163289.09999990463,162666.759,162682.29999995232,162683.431,163300.018,,18,ten
screen,html.Screen,0_4_1_0_1_19,2021-11-12T13:17:49.117Z,,,,,,,,,,,,,,,,48,,,,,,,,,,,,,,517.1819999284635,,response,,,10,B,,,,,Space,keypress(Space),,,,lyrical,-- -- --- ------ ------- --------- ----------- --------<br>--------- -------- --- ------- -- ------- ---- -- ------<br>-- --- thousand -------- ---------- ---- ---- ---- ------<br>-- --------- -- ---- -- --- -- --- ------- -- - -----<br>---------- -- -- -- ---- ----- -- ------ -- --- ------<br>-------,163818,163817.19999992847,163283.349,163290.29999995232,163300.018,163833.739,,19,thousand
screen,html.Screen,0_4_1_0_1_20,2021-11-12T13:17:49.581Z,,,,,,,,,,,,,,,,48,,,,,,,,,,,,,,447.36099990463117,,response,,,10,B,,,,,Space,keypress(Space),,,,lyrical,-- -- --- ------ ------- --------- ----------- --------<br>--------- -------- --- ------- -- ------- ---- -- ------<br>-- --- -------- dollars. ---------- ---- ---- ---- ------<br>-- --------- -- ---- -- --- -- --- ------- -- - -----<br>---------- -- -- -- ---- ----- -- ------ -- --- ------<br>-------,164281.89999997616,164281.09999990463,163817.067,163818.19999992847,163833.739,164283.782,,20,dollars.
screen,html.Screen,0_4_1_0_1_21,2021-11-12T13:17:50.213Z,,,,,,,,,,,,,,,,48,,,,,,,,,,,,,,629.6179999761516,,response,,,10,B,,,,,Space,keypress(Space),,,,lyrical,-- -- --- ------ ------- --------- ----------- --------<br>--------- -------- --- ------- -- ------- ---- -- ------<br>-- --- -------- -------- Concealing ---- ---- ---- ------<br>-- --------- -- ---- -- --- -- --- ------- -- - -----<br>---------- -- -- -- ---- ----- -- ------ -- --- ------<br>-------,164914.19999992847,164913.39999997616,164267.111,164282.19999992847,164283.782,164917.3,,21,Concealing
screen,html.Screen,0_4_1_0_1_22,2021-11-12T13:17:50.573Z,,,,,,,,,,,,,,,,48,,,,,,,,,,,,,,355.70000000001164,,response,,,10,B,,,,,Space,keypress(Space),,,,lyrical,-- -- --- ------ ------- --------- ----------- --------<br>--------- -------- --- ------- -- ------- ---- -- ------<br>-- --- -------- -------- ---------- more ---- ---- ------<br>-- --------- -- ---- -- --- -- --- ------- -- - -----<br>---------- -- -- -- ---- ----- -- ------ -- --- ------<br>-------,165273.69999992847,165273,164900.629,164914.5,164917.3,165284.057,,22,more
screen,html.Screen,0_4_1_0_1_23,2021-11-12T13:17:51.029Z,,,,,,,,,,,,,,,,48,,,,,,,,,,,,,,445.04299990463187,,response,,,10,B,,,,,Space,keypress(Space),,,,lyrical,-- -- --- ------ ------- --------- ----------- --------<br>--------- -------- --- ------- -- ------- ---- -- ------<br>-- --- -------- -------- ---------- ---- than ---- ------<br>-- --------- -- ---- -- --- -- --- ------- -- - -----<br>---------- -- -- -- ---- ----- -- ------ -- --- ------<br>-------,165729.79999995232,165729.09999990463,165267.386,165274,165284.057,165734.132,,23,than
screen,html.Screen,0_4_1_0_1_24,2021-11-12T13:17:51.405Z,,,,,,,,,,,,,,,,48,,,,,,,,,,,,,,370.86799999998766,,response,,,10,B,,,,,Space,keypress(Space),,,,lyrical,-- -- --- ------ ------- --------- ----------- --------<br>--------- -------- --- ------- -- ------- ---- -- ------<br>-- --- -------- -------- ---------- ---- ---- that ------<br>-- --------- -- ---- -- --- -- --- ------- -- - -----<br>---------- -- -- -- ---- ----- -- ------ -- --- ------<br>-------,166105.69999992847,166105,165717.462,165730.19999992847,165734.132,166117.615,,24,that
screen,html.Screen,0_4_1_0_1_25,2021-11-12T13:17:51.933Z,,,,,,,,,,,,,,,,48,,,,,,,,,,,,,,515.2849999761675,,response,,,10,B,,,,,Space,keypress(Space),,,,lyrical,-- -- --- ------ ------- --------- ----------- --------<br>--------- -------- --- ------- -- ------- ---- -- ------<br>-- --- -------- -------- ---------- ---- ---- ---- amount<br>-- --------- -- ---- -- --- -- --- ------- -- - -----<br>---------- -- -- -- ---- ----- -- ------ -- --- ------<br>-------,166633.69999992847,166632.89999997616,166100.944,166106,166117.615,166651.036,,25,amount
screen,html.Screen,0_4_1_0_1_26,2021-11-12T13:17:52.389Z,,,,,,,,,,,,,,,,48,,,,,,,,,,,,,,437.9640000000072,,response,,,10,B,,,,,Space,keypress(Space),,,,lyrical,-- -- --- ------ ------- --------- ----------- --------<br>--------- -------- --- ------- -- ------- ---- -- ------<br>-- --- -------- -------- ---------- ---- ---- ---- ------<br>to --------- -- ---- -- --- -- --- ------- -- - -----<br>---------- -- -- -- ---- ----- -- ------ -- --- ------<br>-------,167089.79999995232,167089,166634.366,166634,166651.036,167101.226,,26,to
screen,html.Screen,0_4_1_0_1_27,2021-11-12T13:17:53.421Z,,,,,,,,,,,,,,,,48,,,,,,,,,,,,,,1019.7740000000049,,response,,,10,B,,,,,Space,keypress(Space),,,,lyrical,-- -- --- ------ ------- --------- ----------- --------<br>--------- -------- --- ------- -- ------- ---- -- ------<br>-- --- -------- -------- ---------- ---- ---- ---- ------<br>-- transport -- ---- -- --- -- --- ------- -- - -----<br>---------- -- -- -- ---- ----- -- ------ -- --- ------<br>-------,168121.69999992847,168121,167084.555,167090,167101.226,168134.818,,27,transport
screen,html.Screen,0_4_1_0_1_28,2021-11-12T13:17:53.797Z,,,,,,,,,,,,,,,,48,,,,,,,,,,,,,,362.08199997615884,,response,,,10,B,,,,,Space,keypress(Space),,,,lyrical,-- -- --- ------ ------- --------- ----------- --------<br>--------- -------- --- ------- -- ------- ---- -- ------<br>-- --- -------- -------- ---------- ---- ---- ---- ------<br>-- --------- it ---- -- --- -- --- ------- -- - -----<br>---------- -- -- -- ---- ----- -- ------ -- --- ------<br>-------,168497.79999995232,168496.89999997616,168118.147,168122,168134.818,168501.586,,28,it
screen,html.Screen,0_4_1_0_1_29,2021-11-12T13:17:54.149Z,,,,,,,,,,,,,,,,48,,,,,,,,,,,,,,347.3139999761479,,response,,,10,B,,,,,Space,keypress(Space),,,,lyrical,-- -- --- ------ ------- --------- ----------- --------<br>--------- -------- --- ------- -- ------- ---- -- ------<br>-- --- -------- -------- ---------- ---- ---- ---- ------<br>-- --------- -- into -- --- -- --- ------- -- - -----<br>---------- -- -- -- ---- ----- -- ------ -- --- ------<br>-------,168849.69999992847,168848.89999997616,168484.915,168498,168501.586,168851.642,,29,into
screen,html.Screen,0_4_1_0_1_30,2021-11-12T13:17:54.557Z,,,,,,,,,,,,,,,,48,,,,,,,,,,,,,,405.2579999761656,,response,,,10,B,,,,,Space,keypress(Space),,,,lyrical,-- -- --- ------ ------- --------- ----------- --------<br>--------- -------- --- ------- -- ------- ---- -- ------<br>-- --- -------- -------- ---------- ---- ---- ---- ------<br>-- --------- -- ---- or --- -- --- ------- -- - -----<br>---------- -- -- -- ---- ----- -- ------ -- --- ------<br>-------,169257.69999992847,169256.89999997616,168834.972,168849.89999997616,168851.642,169268.472,,30,or
screen,html.Screen,0_4_1_0_1_31,2021-11-12T13:17:54.909Z,,,,,,,,,,,,,,,,48,,,,,,,,,,,,,,340.4279999761493,,response,,,10,B,,,,,Space,keypress(Space),,,,lyrical,-- -- --- ------ ------- --------- ----------- --------<br>--------- -------- --- ------- -- ------- ---- -- ------<br>-- --- -------- -------- ---------- ---- ---- ---- ------<br>-- --------- -- ---- -- out -- --- ------- -- - -----<br>---------- -- -- -- ---- ----- -- ------ -- --- ------<br>-------,169609.59999990463,169608.89999997616,169251.801,169258,169268.472,169618.555,,31,out
screen,html.Screen,0_4_1_0_1_32,2021-11-12T13:17:55.245Z,,,,,,,,,,,,,,,,48,,,,,,,,,,,,,,326.24499995232327,,response,,,10,B,,,,,Space,keypress(Space),,,,lyrical,-- -- --- ------ ------- --------- ----------- --------<br>--------- -------- --- ------- -- ------- ---- -- ------<br>-- --- -------- -------- ---------- ---- ---- ---- ------<br>-- --------- -- ---- -- --- of --- ------- -- - -----<br>---------- -- -- -- ---- ----- -- ------ -- --- ------<br>-------,169945.69999992847,169944.79999995232,169601.884,169609.89999997616,169618.555,169951.982,,32,of
screen,html.Screen,0_4_1_0_1_33,2021-11-12T13:17:55.597Z,,,,,,,,,,,,,,,,48,,,,,,,,,,,,,,344.9179999761691,,response,,,10,B,,,,,Space,keypress(Space),,,,lyrical,-- -- --- ------ ------- --------- ----------- --------<br>--------- -------- --- ------- -- ------- ---- -- ------<br>-- --- -------- -------- ---------- ---- ---- ---- ------<br>-- --------- -- ---- -- --- -- the ------- -- - -----<br>---------- -- -- -- ---- ----- -- ------ -- --- ------<br>-------,170297.59999990463,170296.89999997616,169935.311,169945.89999997616,169951.982,170301.979,,33,the
screen,html.Screen,0_4_1_0_1_34,2021-11-12T13:17:56.117Z,,,,,,,,,,,,,,,,48,,,,,,,,,,,,,,514.8209999523242,,response,,,10,B,,,,,Space,keypress(Space),,,,lyrical,-- -- --- ------ ------- --------- ----------- --------<br>--------- -------- --- ------- -- ------- ---- -- ------<br>-- --- -------- -------- ---------- ---- ---- ---- ------<br>-- --------- -- ---- -- --- -- --- country -- - -----<br>---------- -- -- -- ---- ----- -- ------ -- --- ------<br>-------,170817.59999990463,170816.79999995232,170285.31,170297.89999997616,170301.979,170818.787,,34,country
screen,html.Screen,0_4_1_0_1_35,2021-11-12T13:17:56.525Z,,,,,,,,,,,,,,,,48,,,,,,,,,,,,,,406.0129999523051,,response,,,10,B,,,,,Space,keypress(Space),,,,lyrical,-- -- --- ------ ------- --------- ----------- --------<br>--------- -------- --- ------- -- ------- ---- -- ------<br>-- --- -------- -------- ---------- ---- ---- ---- ------<br>-- --------- -- ---- -- --- -- --- ------- is - -----<br>---------- -- -- -- ---- ----- -- ------ -- --- ------<br>-------,171225.59999990463,171224.79999995232,170802.117,170817.89999997616,170818.787,171235.729,,35,is
screen,html.Screen,0_4_1_0_1_36,2021-11-12T13:17:56.869Z,,,,,,,,,,,,,,,,48,,,,,,,,,,,,,,332.97099992848234,,response,,,10,B,,,,,Space,keypress(Space),,,,lyrical,-- -- --- ------ ------- --------- ----------- --------<br>--------- -------- --- ------- -- ------- ---- -- ------<br>-- --- -------- -------- ---------- ---- ---- ---- ------<br>-- --------- -- ---- -- --- -- --- ------- -- a -----<br>---------- -- -- -- ---- ----- -- ------ -- --- ------<br>-------,171569.59999990463,171568.69999992847,171219.057,171225.89999997616,171235.729,171585.624,,36,a
screen,html.Screen,0_4_1_0_1_37,2021-11-12T13:17:57.293Z,,,,,,,,,,,,,,,,48,,,,,,,,,,,,,,407.0759999284637,,response,,,10,B,,,,,Space,keypress(Space),,,,lyrical,-- -- --- ------ ------- --------- ----------- --------<br>--------- -------- --- ------- -- ------- ---- -- ------<br>-- --- -------- -------- ---------- ---- ---- ---- ------<br>-- --------- -- ---- -- --- -- --- ------- -- - crime<br>---------- -- -- -- ---- ----- -- ------ -- --- ------<br>-------,171993.59999990463,171992.69999992847,171568.955,171569.89999997616,171585.624,172002.478,,37,crime
screen,html.Screen,0_4_1_0_1_38,2021-11-12T13:17:57.644Z,,,,,,,,,,,,,,,,48,,,,,,,,,,,,,,342.22199992847163,,response,,,10,B,,,,,Space,keypress(Space),,,,lyrical,-- -- --- ------ ------- --------- ----------- --------<br>--------- -------- --- ------- -- ------- ---- -- ------<br>-- --- -------- -------- ---------- ---- ---- ---- ------<br>-- --------- -- ---- -- --- -- --- ------- -- - -----<br>punishable -- -- -- ---- ----- -- ------ -- --- ------<br>-------,172345.5,172344.69999992847,171985.807,171993.79999995232,172002.478,172352.571,,38,punishable
screen,html.Screen,0_4_1_0_1_39,2021-11-12T13:17:58.029Z,,,,,,,,,,,,,,,,48,,,,,,,,,,,,,,376.12899992847815,,response,,,10,B,,,,,Space,keypress(Space),,,,lyrical,-- -- --- ------ ------- --------- ----------- --------<br>--------- -------- --- ------- -- ------- ---- -- ------<br>-- --- -------- -------- ---------- ---- ---- ---- ------<br>-- --------- -- ---- -- --- -- --- ------- -- - -----<br>---------- by -- -- ---- ----- -- ------ -- --- ------<br>-------,172729.5,172728.69999992847,172335.9,172345.69999992847,172352.571,172736.026,,39,by
screen,html.Screen,0_4_1_0_1_40,2021-11-12T13:17:58.412Z,,,,,,,,,,,,,,,,48,,,,,,,,,,,,,,376.67399992846185,,response,,,10,B,,,,,Space,keypress(Space),,,,lyrical,-- -- --- ------ ------- --------- ----------- --------<br>--------- -------- --- ------- -- ------- ---- -- ------<br>-- --- -------- -------- ---------- ---- ---- ---- ------<br>-- --------- -- ---- -- --- -- --- ------- -- - -----<br>---------- -- up -- ---- ----- -- ------ -- --- ------<br>-------,173113.39999997616,173112.69999992847,172719.355,172729.69999992847,172736.026,173119.555,,40,up
screen,html.Screen,0_4_1_0_1_41,2021-11-12T13:17:58.797Z,,,,,,,,,,,,,,,,48,,,,,,,,,,,,,,377.1449999284814,,response,,,10,B,,,,,Space,keypress(Space),,,,lyrical,-- -- --- ------ ------- --------- ----------- --------<br>--------- -------- --- ------- -- ------- ---- -- ------<br>-- --- -------- -------- ---------- ---- ---- ---- ------<br>-- --------- -- ---- -- --- -- --- ------- -- - -----<br>---------- -- -- to ---- ----- -- ------ -- --- ------<br>-------,173497.59999990463,173496.69999992847,173102.883,173113.69999992847,173119.555,173502.886,,41,to
screen,html.Screen,0_4_1_0_1_42,2021-11-12T13:17:59.284Z,,,,,,,,,,,,,,,,48,,,,,,,,,,,,,,481.71399990463397,,response,,,10,B,,,,,Space,keypress(Space),,,,lyrical,-- -- --- ------ ------- --------- ----------- --------<br>--------- -------- --- ------- -- ------- ---- -- ------<br>-- --- -------- -------- ---------- ---- ---- ---- ------<br>-- --------- -- ---- -- --- -- --- ------- -- - -----<br>---------- -- -- -- five ----- -- ------ -- --- ------<br>-------,173985.5,173984.59999990463,173486.216,173497.79999995232,173502.886,174002.918,,42,five
screen,html.Screen,0_4_1_0_1_43,2021-11-12T13:17:59.756Z,,,,,,,,,,,,,,,,48,,,,,,,,,,,,,,453.68199990462745,,response,,,10,B,,,,,Space,keypress(Space),,,,lyrical,-- -- --- ------ ------- --------- ----------- --------<br>--------- -------- --- ------- -- ------- ---- -- ------<br>-- --- -------- -------- ---------- ---- ---- ---- ------<br>-- --------- -- ---- -- --- -- --- ------- -- - -----<br>---------- -- -- -- ---- years -- ------ -- --- ------<br>-------,174457.5,174456.59999990463,173986.249,173985.69999992847,174002.918,174469.923,,43,years
screen,html.Screen,0_4_1_0_1_44,2021-11-12T13:18:00.116Z,,,,,,,,,,,,,,,,48,,,,,,,,,,,,,,346.6769999046228,,response,,,10,B,,,,,Space,keypress(Space),,,,lyrical,-- -- --- ------ ------- --------- ----------- --------<br>--------- -------- --- ------- -- ------- ---- -- ------<br>-- --- -------- -------- ---------- ---- ---- ---- ------<br>-- --------- -- ---- -- --- -- --- ------- -- - -----<br>---------- -- -- -- ---- ----- in ------ -- --- ------<br>-------,174817.39999997616,174816.59999990463,174453.251,174457.69999992847,174469.923,174819.944,,44,in
screen,html.Screen,0_4_1_0_1_45,2021-11-12T13:18:00.605Z,,,,,,,,,,,,,,,,48,,,,,,,,,,,,,,485.0560000000114,,response,,,10,B,,,,,Space,keypress(Space),,,,lyrical,-- -- --- ------ ------- --------- ----------- --------<br>--------- -------- --- ------- -- ------- ---- -- ------<br>-- --- -------- -------- ---------- ---- ---- ---- ------<br>-- --------- -- ---- -- --- -- --- ------- -- - -----<br>---------- -- -- -- ---- ----- -- prison -- --- ------<br>-------,175305.79999995232,175305,174803.273,174817.69999992847,174819.944,175320.089,,45,prison
screen,html.Screen,0_4_1_0_1_46,2021-11-12T13:18:01.028Z,,,,,,,,,,,,,,,,48,,,,,,,,,,,,,,408.4109999999928,,response,,,10,B,,,,,Space,keypress(Space),,,,lyrical,-- -- --- ------ ------- --------- ----------- --------<br>--------- -------- --- ------- -- ------- ---- -- ------<br>-- --- -------- -------- ---------- ---- ---- ---- ------<br>-- --------- -- ---- -- --- -- --- ------- -- - -----<br>---------- -- -- -- ---- ----- -- ------ in --- ------<br>-------,175729.09999990463,175728.5,175303.418,175306.09999990463,175320.089,175736.791,,46,in
screen,html.Screen,0_4_1_0_1_47,2021-11-12T13:18:01.459Z,,,,,,,,,,,,,,,,48,,,,,,,,,,,,,,423.30899990463513,,response,,,10,B,,,,,Space,keypress(Space),,,,lyrical,-- -- --- ------ ------- --------- ----------- --------<br>--------- -------- --- ------- -- ------- ---- -- ------<br>-- --- -------- -------- ---------- ---- ---- ---- ------<br>-- --------- -- ---- -- --- -- --- ------- -- - -----<br>---------- -- -- -- ---- ----- -- ------ -- the ------<br>-------,176160.5,176160.09999990463,175720.121,175729.29999995232,175736.791,176170.164,,47,the
screen,html.Screen,0_4_1_0_1_48,2021-11-12T13:18:01.940Z,,,,,,,,,,,,,,,,48,,,,,,,,,,,,,,470.4359999046428,,response,,,10,B,,,,,Space,keypress(Space),,,,lyrical,-- -- --- ------ ------- --------- ----------- --------<br>--------- -------- --- ------- -- ------- ---- -- ------<br>-- --- -------- -------- ---------- ---- ---- ---- ------<br>-- --------- -- ---- -- --- -- --- ------- -- - -----<br>---------- -- -- -- ---- ----- -- ------ -- --- United<br>-------,176641.39999997616,176640.59999990463,176153.495,176160.5,176170.164,176653.713,,48,United
screen,html.Screen,0_4_1_0_1_49,2021-11-12T13:18:02.316Z,,,,,,,,,,,,,,,,48,,,,,,,,,,,,,,362.88699990464374,,response,,,10,B,,,,,Space,keypress(Space),,,,lyrical,-- -- --- ------ ------- --------- ----------- --------<br>--------- -------- --- ------- -- ------- ---- -- ------<br>-- --- -------- -------- ---------- ---- ---- ---- ------<br>-- --------- -- ---- -- --- -- --- ------- -- - -----<br>---------- -- -- -- ---- ----- -- ------ -- --- ------<br>States.,177017.39999997616,177016.59999990463,176637.042,176641.69999992847,176653.713,177020.48,,49,States.
Item 10,flow.Loop,0_4_1_0_1,2021-11-12T13:18:02.317Z,,,,,,,,,,,,,,,,,,,,,,,,,,,,,,24186.027999904647,,completion,,,,,,,,,,,,,,,,177017.69999992847,177016.59999990463,152813.902,152816.09999990463,152830.572,177020.48,,,
Question 1,html.Screen,0_4_1_0_2,2021-11-12T13:18:11.671Z,,,,,,,,,,,,,,,,,,,,,,,,,,,false,TRUE,,9347.419999976148,,response,,,10,B,,,,,FALSE,click #choice-2,,,,lyrical,,186369.09999990463,186367.89999997616,177003.809,177017.89999997616,177020.48,186373.044,,,
Question 2,html.Screen,0_4_1_0_3,2021-11-12T13:18:12.263Z,,,,,,,,,,,,,,,,,,,,,,,,,,,false,TRUE,,586.9560000000056,,response,,,10,B,,,,,FALSE,click #choice-2,,,,lyrical,,186961,186960,186356.373,186369.29999995232,186373.044,186973.207,,,
Item 10,flow.Sequence,0_4_1_0,2021-11-12T13:18:12.263Z,,,,,,,,,,,,,,,,,,,,,,,,,,,,,,41131.81599999999,,completion,,,,,,,,,,,,,,,,186961.5,186960,145811.514,145813.5,145828.184,186973.207,,,
Holding screen,html.Screen,0_4_1_1_0,2021-11-12T13:18:19.261Z,,,,,,,,,,,,,,,,,,,,,,,,,,,,,,7001.841000000015,,timeout,,,,,,,,,,,,,,,,193959.29999995232,193958.377,186956.536,186961.79999995232,186973.207,193975.048,,,
screen,html.Screen,0_4_1_1_1_0,2021-11-12T13:18:21.359Z,,,,,,,,,,,,,,,,15,,,,,,,,,,,,,,2081.2519999523065,,response,,,7,B,,,,,Space,keypress(Space),,,,lyrical,Greg --------- ---------- - --- ------- -- --- ------------<br>----- -- -------- ------- ---- ------ - -------- ---- -----<br>--- ------- ---- -- --- -------- --- - ----- ------ ---- --<br>-------- --- -------- -------- --- -------- ---- -- ----- -<br>-------- ---- --- ---------- --------- -- ------- ------ -<br>--------- ----- -----,196057.09999990463,196056.29999995232,193958.377,193960,193975.048,196058.951,,0,Greg
screen,html.Screen,0_4_1_1_1_1,2021-11-12T13:18:22.166Z,,,,,,,,,,,,,,,,15,,,,,,,,,,,,,,804.6489999046316,,response,,,7,B,,,,,Space,keypress(Space),,,,lyrical,"---- Anderson, ---------- - --- ------- -- --- ------------<br>----- -- -------- ------- ---- ------ - -------- ---- -----<br>--- ------- ---- -- --- -------- --- - ----- ------ ---- --<br>-------- --- -------- -------- --- -------- ---- -- ----- -<br>-------- ---- --- ---------- --------- -- ------- ------ -<br>--------- ----- -----",196864.5,196863.59999990463,196042.28,196057.39999997616,196058.951,196875.648,,1,"Anderson,"
screen,html.Screen,0_4_1_1_1_2,2021-11-12T13:18:22.774Z,,,,,,,,,,,,,,,,15,,,,,,,,,,,,,,595.9519999046461,,response,,,7,B,,,,,Space,keypress(Space),,,,lyrical,---- --------- considered - --- ------- -- --- ------------<br>----- -- -------- ------- ---- ------ - -------- ---- -----<br>--- ------- ---- -- --- -------- --- - ----- ------ ---- --<br>-------- --- -------- -------- --- -------- ---- -- ----- -<br>-------- ---- --- ---------- --------- -- ------- ------ -<br>--------- ----- -----,197472.39999997616,197471.59999990463,196858.978,196864.79999995232,196875.648,197476.02,,2,considered
screen,html.Screen,0_4_1_1_1_3,2021-11-12T13:18:23.198Z,,,,,,,,,,,,,,,,15,,,,,,,,,,,,,,419.6799999284849,,response,,,7,B,,,,,Space,keypress(Space),,,,lyrical,---- --------- ---------- a --- ------- -- --- ------------<br>----- -- -------- ------- ---- ------ - -------- ---- -----<br>--- ------- ---- -- --- -------- --- - ----- ------ ---- --<br>-------- --- -------- -------- --- -------- ---- -- ----- -<br>-------- ---- --- ---------- --------- -- ------- ------ -<br>--------- ----- -----,197896.5,197895.69999992847,197459.349,197472.69999992847,197476.02,197909.484,,3,a
