sender,sender_type,sender_id,timestamp,meta,,Blues,Classical,Country,Dance,Electronic,Folk,Gospel,Hip-Hop,Jazz,Latin,Musical/Film,New-age,Pop,Provo_ID,R&B,Rap,Reggae,Religious,Rock,Soul,Swing,Traditional,age,artist_name,correct,correctResponse,distraction,duration,education,ended_on,familiarity,gender,item,list,music_frequency,offensiveness,pleasantness,preference,response,response_action,snippet_file,song_name,song_rating,sound,text,time_commit,time_end,time_render,time_run,time_show,time_switch,url,word,word_ID
Instructions,html.Page,0_0,2021-11-04T12:04:19.255Z,"{""labjs_version"":""20.2.3"",""labjs_build"":{""flavor"":""production"",""commit"":""7ea907d66ca8aeef8054924ca5d82ffbe11e34e5""},""location"":""https://run.pavlovia.org/mvasilev/lab_music_c/"",""userAgent"":""Mozilla/5.0 (Windows NT 6.1; Win64; x64) AppleWebKit/537.36 (KHTML, like Gecko) Chrome/94.0.4606.81 Safari/537.36"",""platform"":""Win32"",""language"":""en-US"",""locale"":""en-US"",""timeZone"":""Europe/London"",""timezoneOffset"":0,""screen_width"":1920,""screen_height"":1080,""scroll_width"":1920,""scroll_height"":959,""window_innerWidth"":1920,""window_innerHeight"":1007,""devicePixelRatio"":1}",,,,,,,,,,,,,,,,,,,,,,,,,,,,,29272.523999999627,,form submission,,,,,,,,,,,,,,,,40049.59999999963,40048.59999999963,10742.852,10760.199999999255,10776.076,40056.412,{},,
Headphones,html.Page,0_1,2021-11-04T12:04:24.594Z,,,,,,,,,,,,,,,,,,,,,,,,,,,,,,5331.388000000748,,form submission,,,,,,,,,,,,,,,,45388.40000000037,45387.800000000745,40039.753,40050.199999999255,40056.412,45408.094,,,
Holding screen,html.Screen,0_2_0_0,2021-11-04T12:04:34.607Z,,,,,,,,,,,,,,,,,,,,,,,,,,,,,,10035.517,,timeout,,,,,,,,,,,,,,,,55401.199999999255,55393.604,45374.746,45389,45408.094,55443.611,,,
screen,html.Screen,0_2_0_1_0,2021-11-04T12:04:37.585Z,,,,,,,,,,,,,,,,53,,,,,,,,,,,,,,2934.389000000003,,response,,,99,,,,,,Space,keypress(Space),,,,,When -- ----- -- ------ - ------- --- ----------<br>------------- ------ ------ ---- ---- ------- ----- -- ----<br>-------- ------- -- ---------- --- - --- ----- ----- ----<br>---- --- --- ----- --- ---- ---- ------- ----- ---- -------<br>--- --- -- ----- -- --- ---- -- --- ---- -- ------ ------<br>--- ----- -- ----,58379.699999999255,58378,55393.604,55401.699999999255,55443.611,58394.621,,0,When
screen,html.Screen,0_2_0_1_1,2021-11-04T12:04:39.523Z,,,,,,,,,,,,,,,,53,,,,,,,,,,,,,,1918.7790000003733,,response,,,99,,,,,,Space,keypress(Space),,,,,---- it ----- -- ------ - ------- --- ----------<br>------------- ------ ------ ---- ---- ------- ----- -- ----<br>-------- ------- -- ---------- --- - --- ----- ----- ----<br>---- --- --- ----- --- ---- ---- ------- ----- ---- -------<br>--- --- -- ----- -- --- ---- -- --- ---- -- ------ ------<br>--- ----- -- ----,60314.40000000037,60313.40000000037,58377.95,58380.09999999963,58394.621,60328.421,,1,it
screen,html.Screen,0_2_0_1_2,2021-11-04T12:04:41.275Z,,,,,,,,,,,,,,,,53,,,,,,,,,,,,,,1736.879000000743,,response,,,99,,,,,,Space,keypress(Space),,,,,---- -- comes -- ------ - ------- --- ----------<br>------------- ------ ------ ---- ---- ------- ----- -- ----<br>-------- ------- -- ---------- --- - --- ----- ----- ----<br>---- --- --- ----- --- ---- ---- ------- ----- ---- -------<br>--- --- -- ----- -- --- ---- -- --- ---- -- ------ ------<br>--- ----- -- ----,62066.40000000037,62065.300000000745,60311.75,60314.699999999255,60328.421,62078.678,,2,comes
screen,html.Screen,0_2_0_1_3,2021-11-04T12:04:42.291Z,,,,,,,,,,,,,,,,53,,,,,,,,,,,,,,1002.5219999992551,,response,,,99,,,,,,Space,keypress(Space),,,,,---- -- ----- to ------ - ------- --- ----------<br>------------- ------ ------ ---- ---- ------- ----- -- ----<br>-------- ------- -- ---------- --- - --- ----- ----- ----<br>---- --- --- ----- --- ---- ---- ------- ----- ---- -------<br>--- --- -- ----- -- --- ---- -- --- ---- -- ------ ------<br>--- ----- -- ----,63082.09999999963,63081.199999999255,62062.008,62066.699999999255,62078.678,63095.809,,3,to
screen,html.Screen,0_2_0_1_4,2021-11-04T12:04:43.331Z,,,,,,,,,,,,,,,,53,,,,,,,,,,,,,,1025.2909999996264,,response,,,99,,,,,,Space,keypress(Space),,,,,---- -- ----- -- having - ------- --- ----------<br>------------- ------ ------ ---- ---- ------- ----- -- ----<br>-------- ------- -- ---------- --- - --- ----- ----- ----<br>---- --- --- ----- --- ---- ---- ------- ----- ---- -------<br>--- --- -- ----- -- --- ---- -- --- ---- -- ------ ------<br>--- ----- -- ----,64122.699999999255,64121.09999999963,63079.138,63082.699999999255,63095.809,64129.317,,4,having
screen,html.Screen,0_2_0_1_5,2021-11-04T12:04:44.315Z,,,,,,,,,,,,,,,,53,,,,,,,,,,,,,,975.7829999996247,,response,,,99,,,,,,Space,keypress(Space),,,,,---- -- ----- -- ------ a ------- --- ----------<br>------------- ------ ------ ---- ---- ------- ----- -- ----<br>-------- ------- -- ---------- --- - --- ----- ----- ----<br>---- --- --- ----- --- ---- ---- ------- ----- ---- -------<br>--- --- -- ----- -- --- ---- -- --- ---- -- ------ ------<br>--- ----- -- ----,65106,65105.09999999963,64112.647,64123.09999999963,64129.317,65112.989,,5,a
screen,html.Screen,0_2_0_1_6,2021-11-04T12:04:45.291Z,,,,,,,,,,,,,,,,53,,,,,,,,,,,,,,968.0109999999986,,response,,,99,,,,,,Space,keypress(Space),,,,,---- -- ----- -- ------ - lasting --- ----------<br>------------- ------ ------ ---- ---- ------- ----- -- ----<br>-------- ------- -- ---------- --- - --- ----- ----- ----<br>---- --- --- ----- --- ---- ---- ------- ----- ---- -------<br>--- --- -- ----- -- --- ---- -- --- ---- -- ------ ------<br>--- ----- -- ----,66081.90000000037,66081,65096.318,65106.5,65112.989,66096.452,,6,lasting
screen,html.Screen,0_2_0_1_7,2021-11-04T12:04:46.259Z,,,,,,,,,,,,,,,,53,,,,,,,,,,,,,,952.5479999999952,,response,,,99,,,,,,Space,keypress(Space),,,,,---- -- ----- -- ------ - ------- and ----------<br>------------- ------ ------ ---- ---- ------- ----- -- ----<br>-------- ------- -- ---------- --- - --- ----- ----- ----<br>---- --- --- ----- --- ---- ---- ------- ----- ---- -------<br>--- --- -- ----- -- --- ---- -- --- ---- -- ------ ------<br>--- ----- -- ----,67049.90000000037,67049,66079.782,66082.30000000075,66096.452,67063.464,,7,and
screen,html.Screen,0_2_0_1_8,2021-11-04T12:04:47.179Z,,,,,,,,,,,,,,,,53,,,,,,,,,,,,,,905.5359999999928,,response,,,99,,,,,,Space,keypress(Space),,,,,---- -- ----- -- ------ - ------- --- fulfilling<br>------------- ------ ------ ---- ---- ------- ----- -- ----<br>-------- ------- -- ---------- --- - --- ----- ----- ----<br>---- --- --- ----- --- ---- ---- ------- ----- ---- -------<br>--- --- -- ----- -- --- ---- -- --- ---- -- ------ ------<br>--- ----- -- ----,67970,67969,67046.793,67050.30000000075,67063.464,67980.238,,8,fulfilling
screen,html.Screen,0_2_0_1_9,2021-11-04T12:04:48.275Z,,,,,,,,,,,,,,,,53,,,,,,,,,,,,,,1085.0620000007475,,response,,,99,,,,,,Space,keypress(Space),,,,,"---- -- ----- -- ------ - ------- --- ----------<br>relationship, ------ ------ ---- ---- ------- ----- -- ----<br>-------- ------- -- ---------- --- - --- ----- ----- ----<br>---- --- --- ----- --- ---- ---- ------- ----- ---- -------<br>--- --- -- ----- -- --- ---- -- --- ---- -- ------ ------<br>--- ----- -- ----",69066.30000000075,69065.30000000075,67963.568,67970.30000000075,67980.238,69080.502,,9,"relationship,"
screen,html.Screen,0_2_0_1_10,2021-11-04T12:04:49.019Z,,,,,,,,,,,,,,,,53,,,,,,,,,,,,,,728.3980000003794,,response,,,99,,,,,,Space,keypress(Space),,,,,---- -- ----- -- ------ - ------- --- ----------<br>------------- common ------ ---- ---- ------- ----- -- ----<br>-------- ------- -- ---------- --- - --- ----- ----- ----<br>---- --- --- ----- --- ---- ---- ------- ----- ---- -------<br>--- --- -- ----- -- --- ---- -- --- ---- -- ------ ------<br>--- ----- -- ----,69810,69808.90000000037,69063.832,69066.59999999963,69080.502,69814.072,,10,common
screen,html.Screen,0_2_0_1_11,2021-11-04T12:04:49.890Z,,,,,,,,,,,,,,,,53,,,,,,,,,,,,,,866.6279999992548,,response,,,99,,,,,,Space,keypress(Space),,,,,---- -- ----- -- ------ - ------- --- ----------<br>------------- ------ wisdom ---- ---- ------- ----- -- ----<br>-------- ------- -- ---------- --- - --- ----- ----- ----<br>---- --- --- ----- --- ---- ---- ------- ----- ---- -------<br>--- --- -- ----- -- --- ---- -- --- ---- -- ------ ------<br>--- ----- -- ----,70681.69999999925,70680.69999999925,69797.402,69810.40000000037,69814.072,70697.698,,11,wisdom
screen,html.Screen,0_2_0_1_12,2021-11-04T12:04:50.690Z,,,,,,,,,,,,,,,,53,,,,,,,,,,,,,,782.9019999996235,,response,,,99,,,,,,Space,keypress(Space),,,,,---- -- ----- -- ------ - ------- --- ----------<br>------------- ------ ------ says ---- ------- ----- -- ----<br>-------- ------- -- ---------- --- - --- ----- ----- ----<br>---- --- --- ----- --- ---- ---- ------- ----- ---- -------<br>--- --- -- ----- -- --- ---- -- --- ---- -- ------ ------<br>--- ----- -- ----,71481.59999999963,71480.59999999963,70681.027,70682,70697.698,71497.84,,12,says
screen,html.Screen,0_2_0_1_13,2021-11-04T12:04:51.442Z,,,,,,,,,,,,,,,,53,,,,,,,,,,,,,,734.8599999992584,,response,,,99,,,,,,Space,keypress(Space),,,,,---- -- ----- -- ------ - ------- --- ----------<br>------------- ------ ------ ---- that ------- ----- -- ----<br>-------- ------- -- ---------- --- - --- ----- ----- ----<br>---- --- --- ----- --- ---- ---- ------- ----- ---- -------<br>--- --- -- ----- -- --- ---- -- --- ---- -- ------ ------<br>--- ----- -- ----,72233.5,72232.69999999925,71481.17,71481.80000000075,71497.84,72248.024,,13,that
screen,html.Screen,0_2_0_1_14,2021-11-04T12:04:52.426Z,,,,,,,,,,,,,,,,53,,,,,,,,,,,,,,968.67599999925,,response,,,99,,,,,,Space,keypress(Space),,,,,---- -- ----- -- ------ - ------- --- ----------<br>------------- ------ ------ ---- ---- feeling ----- -- ----<br>-------- ------- -- ---------- --- - --- ----- ----- ----<br>---- --- --- ----- --- ---- ---- ------- ----- ---- -------<br>--- --- -- ----- -- --- ---- -- --- ---- -- ------ ------<br>--- ----- -- ----,73217.5,73216.69999999925,72231.354,72233.69999999925,72248.024,73231.539,,14,feeling
screen,html.Screen,0_2_0_1_15,2021-11-04T12:04:53.306Z,,,,,,,,,,,,,,,,53,,,,,,,,,,,,,,864.9609999999957,,response,,,99,,,,,,Space,keypress(Space),,,,,---- -- ----- -- ------ - ------- --- ----------<br>------------- ------ ------ ---- ---- ------- close -- ----<br>-------- ------- -- ---------- --- - --- ----- ----- ----<br>---- --- --- ----- --- ---- ---- ------- ----- ---- -------<br>--- --- -- ----- -- --- ---- -- --- ---- -- ------ ------<br>--- ----- -- ----,74097.30000000075,74096.5,73214.869,73217.69999999925,73231.539,74098.537,,15,close
screen,html.Screen,0_2_0_1_16,2021-11-04T12:04:53.938Z,,,,,,,,,,,,,,,,53,,,,,,,,,,,,,,629.9630000000034,,response,,,99,,,,,,Space,keypress(Space),,,,,---- -- ----- -- ------ - ------- --- ----------<br>------------- ------ ------ ---- ---- ------- ----- to ----<br>-------- ------- -- ---------- --- - --- ----- ----- ----<br>---- --- --- ----- --- ---- ---- ------- ----- ---- -------<br>--- --- -- ----- -- --- ---- -- --- ---- -- ------ ------<br>--- ----- -- ----,74729.30000000075,74728.5,74081.866,74097.59999999963,74098.537,74731.978,,16,to
screen,html.Screen,0_2_0_1_17,2021-11-04T12:04:54.730Z,,,,,,,,,,,,,,,,53,,,,,,,,,,,,,,788.5219999999972,,response,,,99,,,,,,Space,keypress(Space),,,,,---- -- ----- -- ------ - ------- --- ----------<br>------------- ------ ------ ---- ---- ------- ----- -- your<br>-------- ------- -- ---------- --- - --- ----- ----- ----<br>---- --- --- ----- --- ---- ---- ------- ----- ---- -------<br>--- --- -- ----- -- --- ---- -- --- ---- -- ------ ------<br>--- ----- -- ----,75521.30000000075,75520.5,74715.308,74729.59999999963,74731.978,75532.14,,17,your
screen,html.Screen,0_2_0_1_18,2021-11-04T12:04:55.562Z,,,,,,,,,,,,,,,,53,,,,,,,,,,,,,,820.2600000003731,,response,,,99,,,,,,Space,keypress(Space),,,,,---- -- ----- -- ------ - ------- --- ----------<br>------------- ------ ------ ---- ---- ------- ----- -- ----<br>romantic ------- -- ---------- --- - --- ----- ----- ----<br>---- --- --- ----- --- ---- ---- ------- ----- ---- -------<br>--- --- -- ----- -- --- ---- -- --- ---- -- ------ ------<br>--- ----- -- ----,76353.30000000075,76352.40000000037,75515.47,75521.5,75532.14,76365.785,,18,romantic
screen,html.Screen,0_2_0_1_19,2021-11-04T12:04:56.506Z,,,,,,,,,,,,,,,,53,,,,,,,,,,,,,,930.615000000369,,response,,,99,,,,,,Space,keypress(Space),,,,,---- -- ----- -- ------ - ------- --- ----------<br>------------- ------ ------ ---- ---- ------- ----- -- ----<br>-------- partner -- ---------- --- - --- ----- ----- ----<br>---- --- --- ----- --- ---- ---- ------- ----- ---- -------<br>--- --- -- ----- -- --- ---- -- --- ---- -- ------ ------<br>--- ----- -- ----,77297.19999999925,77296.40000000037,76349.114,76353.59999999963,76365.785,77299.248,,19,partner
screen,html.Screen,0_2_0_1_20,2021-11-04T12:04:57.522Z,,,,,,,,,,,,,,,,53,,,,,,,,,,,,,,1013.0520000007382,,response,,,99,,,,,,Space,keypress(Space),,,,,---- -- ----- -- ------ - ------- --- ----------<br>------------- ------ ------ ---- ---- ------- ----- -- ----<br>-------- ------- is ---------- --- - --- ----- ----- ----<br>---- --- --- ----- --- ---- ---- ------- ----- ---- -------<br>--- --- -- ----- -- --- ---- -- --- ---- -- ------ ------<br>--- ----- -- ----,78313.09999999963,78312.30000000075,77282.578,77297.5,77299.248,78316.187,,20,is
screen,html.Screen,0_2_0_1_21,2021-11-04T12:04:58.538Z,,,,,,,,,,,,,,,,53,,,,,,,,,,,,,,1012.4129999996221,,response,,,99,,,,,,Space,keypress(Space),,,,,---- -- ----- -- ------ - ------- --- ----------<br>------------- ------ ------ ---- ---- ------- ----- -- ----<br>-------- ------- -- paramount. --- - --- ----- ----- ----<br>---- --- --- ----- --- ---- ---- ------- ----- ---- -------<br>--- --- -- ----- -- --- ---- -- --- ---- -- ------ ------<br>--- ----- -- ----,79329.30000000075,79328.59999999963,78299.517,78313.30000000075,78316.187,79333.081,,21,paramount.
screen,html.Screen,0_2_0_1_22,2021-11-04T12:04:59.218Z,,,,,,,,,,,,,,,,53,,,,,,,,,,,,,,675.1189999992494,,response,,,99,,,,,,Space,keypress(Space),,,,,---- -- ----- -- ------ - ------- --- ----------<br>------------- ------ ------ ---- ---- ------- ----- -- ----<br>-------- ------- -- ---------- But - --- ----- ----- ----<br>---- --- --- ----- --- ---- ---- ------- ----- ---- -------<br>--- --- -- ----- -- --- ---- -- --- ---- -- ------ ------<br>--- ----- -- ----,80009,80008.19999999925,79316.411,79329.80000000075,79333.081,80016.624,,22,But
screen,html.Screen,0_2_0_1_23,2021-11-04T12:04:59.778Z,,,,,,,,,,,,,,,,53,,,,,,,,,,,,,,551.4759999996313,,response,,,99,,,,,,Space,keypress(Space),,,,,---- -- ----- -- ------ - ------- --- ----------<br>------------- ------ ------ ---- ---- ------- ----- -- ----<br>-------- ------- -- ---------- --- a --- ----- ----- ----<br>---- --- --- ----- --- ---- ---- ------- ----- ---- -------<br>--- --- -- ----- -- --- ---- -- --- ---- -- ------ ------<br>--- ----- -- ----,80569,80568.09999999963,79999.954,80009.19999999925,80016.624,80583.406,,23,a
screen,html.Screen,0_2_0_1_24,2021-11-04T12:05:00.362Z,,,,,,,,,,,,,,,,53,,,,,,,,,,,,,,568.6939999996248,,response,,,99,,,,,,Space,keypress(Space),,,,,---- -- ----- -- ------ - ------- --- ----------<br>------------- ------ ------ ---- ---- ------- ----- -- ----<br>-------- ------- -- ---------- --- - new ----- ----- ----<br>---- --- --- ----- --- ---- ---- ------- ----- ---- -------<br>--- --- -- ----- -- --- ---- -- --- ---- -- ------ ------<br>--- ----- -- ----,81152.90000000037,81152.09999999963,80566.736,80569.30000000075,80583.406,81166.965,,24,new
screen,html.Screen,0_2_0_1_25,2021-11-04T12:05:01.057Z,,,,,,,,,,,,,,,,53,,,,,,,,,,,,,,681.0350000000035,,response,,,99,,,,,,Space,keypress(Space),,,,,---- -- ----- -- ------ - ------- --- ----------<br>------------- ------ ------ ---- ---- ------- ----- -- ----<br>-------- ------- -- ---------- --- - --- study ----- ----<br>---- --- --- ----- --- ---- ---- ------- ----- ---- -------<br>--- --- -- ----- -- --- ---- -- --- ---- -- ------ ------<br>--- ----- -- ----,81848.90000000037,81848,81150.294,81153.19999999925,81166.965,81850.379,,25,study
screen,html.Screen,0_2_0_1_26,2021-11-04T12:05:01.753Z,,,,,,,,,,,,,,,,53,,,,,,,,,,,,,,693.7209999996267,,response,,,99,,,,,,Space,keypress(Space),,,,,---- -- ----- -- ------ - ------- --- ----------<br>------------- ------ ------ ---- ---- ------- ----- -- ----<br>-------- ------- -- ---------- --- - --- ----- finds ----<br>---- --- --- ----- --- ---- ---- ------- ----- ---- -------<br>--- --- -- ----- -- --- ---- -- --- ---- -- ------ ------<br>--- ----- -- ----,82544.80000000075,82544.09999999963,81833.709,81849.09999999963,81850.379,82550.657,,26,finds
screen,html.Screen,0_2_0_1_27,2021-11-04T12:05:02.441Z,,,,,,,,,,,,,,,,53,,,,,,,,,,,,,,681.243000000366,,response,,,99,,,,,,Space,keypress(Space),,,,,---- -- ----- -- ------ - ------- --- ----------<br>------------- ------ ------ ---- ---- ------- ----- -- ----<br>-------- ------- -- ---------- --- - --- ----- ----- that<br>---- --- --- ----- --- ---- ---- ------- ----- ---- -------<br>--- --- -- ----- -- --- ---- -- --- ---- -- ------ ------<br>--- ----- -- ----,83232.69999999925,83231.90000000037,82533.986,82545.09999999963,82550.657,83234.076,,27,that
screen,html.Screen,0_2_0_1_28,2021-11-04T12:05:03.153Z,,,,,,,,,,,,,,,,53,,,,,,,,,,,,,,709.8240000003716,,response,,,99,,,,,,Space,keypress(Space),,,,,---- -- ----- -- ------ - ------- --- ----------<br>------------- ------ ------ ---- ---- ------- ----- -- ----<br>-------- ------- -- ---------- --- - --- ----- ----- ----<br>it's --- --- ----- --- ---- ---- ------- ----- ---- -------<br>--- --- -- ----- -- --- ---- -- --- ---- -- ------ ------<br>--- ----- -- ----,83944.80000000075,83943.90000000037,83217.406,83233,83234.076,83950.939,,28,it's
screen,html.Screen,0_2_0_1_29,2021-11-04T12:05:03.833Z,,,,,,,,,,,,,,,,53,,,,,,,,,,,,,,672.961000000374,,response,,,99,,,,,,Space,keypress(Space),,,,,---- -- ----- -- ------ - ------- --- ----------<br>------------- ------ ------ ---- ---- ------- ----- -- ----<br>-------- ------- -- ---------- --- - --- ----- ----- ----<br>---- not --- ----- --- ---- ---- ------- ----- ---- -------<br>--- --- -- ----- -- --- ---- -- --- ---- -- ------ ------<br>--- ----- -- ----,84624.59999999963,84623.90000000037,83934.269,83945.09999999963,83950.939,84634.441,,29,not
screen,html.Screen,0_2_0_1_30,2021-11-04T12:05:04.529Z,,,,,,,,,,,,,,,,53,,,,,,,,,,,,,,685.3590000007389,,response,,,99,,,,,,Space,keypress(Space),,,,,---- -- ----- -- ------ - ------- --- ----------<br>------------- ------ ------ ---- ---- ------- ----- -- ----<br>-------- ------- -- ---------- --- - --- ----- ----- ----<br>---- --- how ----- --- ---- ---- ------- ----- ---- -------<br>--- --- -- ----- -- --- ---- -- --- ---- -- ------ ------<br>--- ----- -- ----,85320.69999999925,85319.80000000075,84617.771,84624.90000000037,84634.441,85334.594,,30,how
screen,html.Screen,0_2_0_1_31,2021-11-04T12:05:05.193Z,,,,,,,,,,,,,,,,53,,,,,,,,,,,,,,649.2060000007477,,response,,,99,,,,,,Space,keypress(Space),,,,,---- -- ----- -- ------ - ------- --- ----------<br>------------- ------ ------ ---- ---- ------- ----- -- ----<br>-------- ------- -- ---------- --- - --- ----- ----- ----<br>---- --- --- close --- ---- ---- ------- ----- ---- -------<br>--- --- -- ----- -- --- ---- -- --- ---- -- ------ ------<br>--- ----- -- ----,85984.59999999963,85983.80000000075,85317.924,85320.90000000037,85334.594,86001.502,,31,close
screen,html.Screen,0_2_0_1_32,2021-11-04T12:05:05.849Z,,,,,,,,,,,,,,,,53,,,,,,,,,,,,,,638.2980000007519,,response,,,99,,,,,,Space,keypress(Space),,,,,---- -- ----- -- ------ - ------- --- ----------<br>------------- ------ ------ ---- ---- ------- ----- -- ----<br>-------- ------- -- ---------- --- - --- ----- ----- ----<br>---- --- --- ----- you ---- ---- ------- ----- ---- -------<br>--- --- -- ----- -- --- ---- -- --- ---- -- ------ ------<br>--- ----- -- ----,86640.5,86639.80000000075,85984.831,85984.90000000037,86001.502,86651.61,,32,you
screen,html.Screen,0_2_0_1_33,2021-11-04T12:05:06.449Z,,,,,,,,,,,,,,,,53,,,,,,,,,,,,,,588.0899999992544,,response,,,99,,,,,,Space,keypress(Space),,,,,---- -- ----- -- ------ - ------- --- ----------<br>------------- ------ ------ ---- ---- ------- ----- -- ----<br>-------- ------- -- ---------- --- - --- ----- ----- ----<br>---- --- --- ----- --- feel ---- ------- ----- ---- -------<br>--- --- -- ----- -- --- ---- -- --- ---- -- ------ ------<br>--- ----- -- ----,87240.40000000037,87239.69999999925,86634.94,86640.80000000075,86651.61,87251.742,,33,feel
screen,html.Screen,0_2_0_1_34,2021-11-04T12:05:07.145Z,,,,,,,,,,,,,,,,53,,,,,,,,,,,,,,683.8579999996291,,response,,,99,,,,,,Space,keypress(Space),,,,,---- -- ----- -- ------ - ------- --- ----------<br>------------- ------ ------ ---- ---- ------- ----- -- ----<br>-------- ------- -- ---------- --- - --- ----- ----- ----<br>---- --- --- ----- --- ---- that ------- ----- ---- -------<br>--- --- -- ----- -- --- ---- -- --- ---- -- ------ ------<br>--- ----- -- ----,87936.69999999925,87935.59999999963,87235.072,87243.19999999925,87251.742,87951.899,,34,that
screen,html.Screen,0_2_0_1_35,2021-11-04T12:05:07.817Z,,,,,,,,,,,,,,,,53,,,,,,,,,,,,,,655.6009999999951,,response,,,99,,,,,,Space,keypress(Space),,,,,---- -- ----- -- ------ - ------- --- ----------<br>------------- ------ ------ ---- ---- ------- ----- -- ----<br>-------- ------- -- ---------- --- - --- ----- ----- ----<br>---- --- --- ----- --- ---- ---- matters ----- ---- -------<br>--- --- -- ----- -- --- ---- -- --- ---- -- ------ ------<br>--- ----- -- ----,88608.40000000037,88607.5,87935.229,87936.90000000037,87951.899,88618.755,,35,matters
screen,html.Screen,0_2_0_1_36,2021-11-04T12:05:08.529Z,,,,,,,,,,,,,,,,53,,,,,,,,,,,,,,700.7449999999953,,response,,,99,,,,,,Space,keypress(Space),,,,,"---- -- ----- -- ------ - ------- --- ----------<br>------------- ------ ------ ---- ---- ------- ----- -- ----<br>-------- ------- -- ---------- --- - --- ----- ----- ----<br>---- --- --- ----- --- ---- ---- ------- most, ---- -------<br>--- --- -- ----- -- --- ---- -- --- ---- -- ------ ------<br>--- ----- -- ----",89320.69999999925,89319.5,88602.085,88608.59999999963,88618.755,89335.669,,36,"most,"
screen,html.Screen,0_2_0_1_37,2021-11-04T12:05:09.105Z,,,,,,,,,,,,,,,,53,,,,,,,,,,,,,,560.3310000000056,,response,,,99,,,,,,Space,keypress(Space),,,,,---- -- ----- -- ------ - ------- --- ----------<br>------------- ------ ------ ---- ---- ------- ----- -- ----<br>-------- ------- -- ---------- --- - --- ----- ----- ----<br>---- --- --- ----- --- ---- ---- ------- ----- it's -------<br>--- --- -- ----- -- --- ---- -- --- ---- -- ------ ------<br>--- ----- -- ----,89896.69999999925,89896,89318.998,89320.90000000037,89335.669,89902.378,,37,it's
screen,html.Screen,0_2_0_1_38,2021-11-04T12:05:09.777Z,,,,,,,,,,,,,,,,53,,,,,,,,,,,,,,665.122000000003,,response,,,99,,,,,,Space,keypress(Space),,,,,---- -- ----- -- ------ - ------- --- ----------<br>------------- ------ ------ ---- ---- ------- ----- -- ----<br>-------- ------- -- ---------- --- - --- ----- ----- ----<br>---- --- --- ----- --- ---- ---- ------- ----- ---- whether<br>--- --- -- ----- -- --- ---- -- --- ---- -- ------ ------<br>--- ----- -- ----,90568.19999999925,90567.5,89885.708,89896.90000000037,89902.378,90569.3,,38,whether
screen,html.Screen,0_2_0_1_39,2021-11-04T12:05:10.369Z,,,,,,,,,,,,,,,,53,,,,,,,,,,,,,,590.1999999999971,,response,,,99,,,,,,Space,keypress(Space),,,,,---- -- ----- -- ------ - ------- --- ----------<br>------------- ------ ------ ---- ---- ------- ----- -- ----<br>-------- ------- -- ---------- --- - --- ----- ----- ----<br>---- --- --- ----- --- ---- ---- ------- ----- ---- -------<br>you --- -- ----- -- --- ---- -- --- ---- -- ------ ------<br>--- ----- -- ----,91160.19999999925,91159.5,90552.629,90568.5,90569.3,91169.406,,39,you
screen,html.Screen,0_2_0_1_40,2021-11-04T12:05:10.945Z,,,,,,,,,,,,,,,,53,,,,,,,,,,,,,,565.9940000003699,,response,,,99,,,,,,Space,keypress(Space),,,,,---- -- ----- -- ------ - ------- --- ----------<br>------------- ------ ------ ---- ---- ------- ----- -- ----<br>-------- ------- -- ---------- --- - --- ----- ----- ----<br>---- --- --- ----- --- ---- ---- ------- ----- ---- -------<br>--- are -- ----- -- --- ---- -- --- ---- -- ------ ------<br>--- ----- -- ----,91736.19999999925,91735.40000000037,91152.736,91160.40000000037,91169.406,91752.854,,40,are
screen,html.Screen,0_2_0_1_41,2021-11-04T12:05:11.513Z,,,,,,,,,,,,,,,,53,,,,,,,,,,,,,,550.5460000003659,,response,,,99,,,,,,Space,keypress(Space),,,,,---- -- ----- -- ------ - ------- --- ----------<br>------------- ------ ------ ---- ---- ------- ----- -- ----<br>-------- ------- -- ---------- --- - --- ----- ----- ----<br>---- --- --- ----- --- ---- ---- ------- ----- ---- -------<br>--- --- as ----- -- --- ---- -- --- ---- -- ------ ------<br>--- ----- -- ----,92304.19999999925,92303.40000000037,91736.184,91736.40000000037,91752.854,92319.741,,41,as
screen,html.Screen,0_2_0_1_42,2021-11-04T12:05:12.105Z,,,,,,,,,,,,,,,,53,,,,,,,,,,,,,,575.5590000007505,,response,,,99,,,,,,Space,keypress(Space),,,,,---- -- ----- -- ------ - ------- --- ----------<br>------------- ------ ------ ---- ---- ------- ----- -- ----<br>-------- ------- -- ---------- --- - --- ----- ----- ----<br>---- --- --- ----- --- ---- ---- ------- ----- ---- -------<br>--- --- -- close -- --- ---- -- --- ---- -- ------ ------<br>--- ----- -- ----,92896.19999999925,92895.30000000075,92303.07,92304.40000000037,92319.741,92903.158,,42,close
screen,html.Screen,0_2_0_1_43,2021-11-04T12:05:12.649Z,,,,,,,,,,,,,,,,53,,,,,,,,,,,,,,536.1420000007492,,response,,,99,,,,,,Space,keypress(Space),,,,,---- -- ----- -- ------ - ------- --- ----------<br>------------- ------ ------ ---- ---- ------- ----- -- ----<br>-------- ------- -- ---------- --- - --- ----- ----- ----<br>---- --- --- ----- --- ---- ---- ------- ----- ---- -------<br>--- --- -- ----- as --- ---- -- --- ---- -- ------ ------<br>--- ----- -- ----,93440.09999999963,93439.30000000075,92886.488,92896.40000000037,92903.158,93453.28,,43,as
screen,html.Screen,0_2_0_1_44,2021-11-04T12:05:13.209Z,,,,,,,,,,,,,,,,53,,,,,,,,,,,,,,546.0200000007462,,response,,,99,,,,,,Space,keypress(Space),,,,,---- -- ----- -- ------ - ------- --- ----------<br>------------- ------ ------ ---- ---- ------- ----- -- ----<br>-------- ------- -- ---------- --- - --- ----- ----- ----<br>---- --- --- ----- --- ---- ---- ------- ----- ---- -------<br>--- --- -- ----- -- you ---- -- --- ---- -- ------ ------<br>--- ----- -- ----,94000,93999.30000000075,93436.61,93440.30000000075,93453.28,94003.447,,44,you
screen,html.Screen,0_2_0_1_45,2021-11-04T12:05:13.817Z,,,,,,,,,,,,,,,,53,,,,,,,,,,,,,,603.8530000007449,,response,,,99,,,,,,Space,keypress(Space),,,,,---- -- ----- -- ------ - ------- --- ----------<br>------------- ------ ------ ---- ---- ------- ----- -- ----<br>-------- ------- -- ---------- --- - --- ----- ----- ----<br>---- --- --- ----- --- ---- ---- ------- ----- ---- -------<br>--- --- -- ----- -- --- want -- --- ---- -- ------ ------<br>--- ----- -- ----,94608,94607.30000000075,93986.777,94000.19999999925,94003.447,94620.132,,45,want
screen,html.Screen,0_2_0_1_46,2021-11-04T12:05:14.337Z,,,,,,,,,,,,,,,,53,,,,,,,,,,,,,,507.06799999925715,,response,,,99,,,,,,Space,keypress(Space),,,,,---- -- ----- -- ------ - ------- --- ----------<br>------------- ------ ------ ---- ---- ------- ----- -- ----<br>-------- ------- -- ---------- --- - --- ----- ----- ----<br>---- --- --- ----- --- ---- ---- ------- ----- ---- -------<br>--- --- -- ----- -- --- ---- to --- ---- -- ------ ------<br>--- ----- -- ----,95128,95127.19999999925,94603.463,94608.30000000075,94620.132,95137.165,,46,to
screen,html.Screen,0_2_0_1_47,2021-11-04T12:05:14.913Z,,,,,,,,,,,,,,,,53,,,,,,,,,,,,,,565.9349999996339,,response,,,99,,,,,,Space,keypress(Space),,,,,"---- -- ----- -- ------ - ------- --- ----------<br>------------- ------ ------ ---- ---- ------- ----- -- ----<br>-------- ------- -- ---------- --- - --- ----- ----- ----<br>---- --- --- ----- --- ---- ---- ------- ----- ---- -------<br>--- --- -- ----- -- --- ---- -- be, ---- -- ------ ------<br>--- ----- -- ----",95703.90000000037,95703.09999999963,95120.493,95128.30000000075,95137.165,95720.404,,47,"be,"
screen,html.Screen,0_2_0_1_48,2021-11-04T12:05:15.521Z,,,,,,,,,,,,,,,,53,,,,,,,,,,,,,,590.79599999926,,response,,,99,,,,,,Space,keypress(Space),,,,,---- -- ----- -- ------ - ------- --- ----------<br>------------- ------ ------ ---- ---- ------- ----- -- ----<br>-------- ------- -- ---------- --- - --- ----- ----- ----<br>---- --- --- ----- --- ---- ---- ------- ----- ---- -------<br>--- --- -- ----- -- --- ---- -- --- even -- ------ ------<br>--- ----- -- ----,96311.90000000037,96311.19999999925,95703.735,95704.19999999925,95720.404,96320.806,,48,even
screen,html.Screen,0_2_0_1_49,2021-11-04T12:05:16.057Z,,,,,,,,,,,,,,,,53,,,,,,,,,,,,,,526.3939999992581,,response,,,99,,,,,,Space,keypress(Space),,,,,---- -- ----- -- ------ - ------- --- ----------<br>------------- ------ ------ ---- ---- ------- ----- -- ----<br>-------- ------- -- ---------- --- - --- ----- ----- ----<br>---- --- --- ----- --- ---- ---- ------- ----- ---- -------<br>--- --- -- ----- -- --- ---- -- --- ---- if ------ ------<br>--- ----- -- ----,96847.80000000075,96847.19999999925,96304.134,96312.09999999963,96320.806,96854.156,,49,if
screen,html.Screen,0_2_0_1_50,2021-11-04T12:05:16.608Z,,,,,,,,,,,,,,,,53,,,,,,,,,,,,,,544.9439999996248,,response,,,99,,,,,,Space,keypress(Space),,,,,---- -- ----- -- ------ - ------- --- ----------<br>------------- ------ ------ ---- ---- ------- ----- -- ----<br>-------- ------- -- ---------- --- - --- ----- ----- ----<br>---- --- --- ----- --- ---- ---- ------- ----- ---- -------<br>--- --- -- ----- -- --- ---- -- --- ---- -- that's ------<br>--- ----- -- ----,97399.80000000075,97399.09999999963,96837.486,96848.09999999963,96854.156,97404.29,,50,that's
screen,html.Screen,0_2_0_1_51,2021-11-04T12:05:17.224Z,,,,,,,,,,,,,,,,53,,,,,,,,,,,,,,610.7100000000064,,response,,,99,,,,,,Space,keypress(Space),,,,,---- -- ----- -- ------ - ------- --- ----------<br>------------- ------ ------ ---- ---- ------- ----- -- ----<br>-------- ------- -- ---------- --- - --- ----- ----- ----<br>---- --- --- ----- --- ---- ---- ------- ----- ---- -------<br>--- --- -- ----- -- --- ---- -- --- ---- -- ------ really<br>--- ----- -- ----,98015.80000000075,98015,97387.62,97400.09999999963,97404.29,98021.104,,51,really
screen,html.Screen,0_2_0_1_52,2021-11-04T12:05:17.824Z,,,,,,,,,,,,,,,,53,,,,,,,,,,,,,,593.8959999999934,,response,,,99,,,,,,Space,keypress(Space),,,,,---- -- ----- -- ------ - ------- --- ----------<br>------------- ------ ------ ---- ---- ------- ----- -- ----<br>-------- ------- -- ---------- --- - --- ----- ----- ----<br>---- --- --- ----- --- ---- ---- ------- ----- ---- -------<br>--- --- -- ----- -- --- ---- -- --- ---- -- ------ ------<br>not ----- -- ----,98615.69999999925,98615,98004.434,98016,98021.104,98621.307,,52,not
screen,html.Screen,0_2_0_1_53,2021-11-04T12:05:18.408Z,,,,,,,,,,,,,,,,53,,,,,,,,,,,,,,577.6929999999993,,response,,,99,,,,,,Space,keypress(Space),,,,,---- -- ----- -- ------ - ------- --- ----------<br>------------- ------ ------ ---- ---- ------- ----- -- ----<br>-------- ------- -- ---------- --- - --- ----- ----- ----<br>---- --- --- ----- --- ---- ---- ------- ----- ---- -------<br>--- --- -- ----- -- --- ---- -- --- ---- -- ------ ------<br>--- close -- ----,99199.80000000075,99199,98604.636,98616,98621.307,99204.725,,53,close
screen,html.Screen,0_2_0_1_54,2021-11-04T12:05:18.880Z,,,,,,,,,,,,,,,,53,,,,,,,,,,,,,,466.1750000003667,,response,,,99,,,,,,Space,keypress(Space),,,,,---- -- ----- -- ------ - ------- --- ----------<br>------------- ------ ------ ---- ---- ------- ----- -- ----<br>-------- ------- -- ---------- --- - --- ----- ----- ----<br>---- --- --- ----- --- ---- ---- ------- ----- ---- -------<br>--- --- -- ----- -- --- ---- -- --- ---- -- ------ ------<br>--- ----- at ----,99671.69999999925,99670.90000000037,99188.055,99199.90000000037,99204.725,99688.08,,54,at
screen,html.Screen,0_2_0_1_55,2021-11-04T12:05:20.329Z,,,,,,,,,,,,,,,,53,,,,,,,,,,,,,,1431.1199999992532,,response,,,99,,,,,,Space,keypress(Space),,,,,---- -- ----- -- ------ - ------- --- ----------<br>------------- ------ ------ ---- ---- ------- ----- -- ----<br>-------- ------- -- ---------- --- - --- ----- ----- ----<br>---- --- --- ----- --- ---- ---- ------- ----- ---- -------<br>--- --- -- ----- -- --- ---- -- --- ---- -- ------ ------<br>--- ----- -- all.,101120,101119.19999999925,99671.411,99672,99688.08,101138.622,,55,all.
Item 99,flow.Loop,0_2_0_1,2021-11-04T12:05:20.333Z,,,,,,,,,,,,,,,,,,,,,,,,,,,,,,45675.58899999926,,completion,,,,C,,,,,,,,,,silence,,101124.30000000075,101119.19999999925,55393.604,55401.59999999963,55443.611,101138.622,,,
Question 1,html.Screen,0_2_0_2,2021-11-04T12:05:25.344Z,,,,,,,,,,,,,,,,,,,,,,,,,,,true,FALSE,,4995.678000000742,,response,,,99,C,,,,,FALSE,click #choice-2,,,,silence,,106135.59999999963,106134.30000000075,101121.951,101124.59999999963,101138.622,106156.535,,,
Question 2,html.Screen,0_2_0_3,2021-11-04T12:05:33.432Z,,,,,,,,,,,,,,,,,,,,,,,,,,,false,TRUE,,8065.265000000742,,response,,,99,C,,,,,FALSE,click #choice-2,,,,silence,,114223,114221.80000000075,106139.733,106135.80000000075,106156.535,114225.114,,,
Item 99,flow.Sequence,0_2_0,2021-11-04T12:05:33.432Z,,,,,,,,,,,,,,,,,,,,,,,,,,,,,,68813.70600000075,,completion,,,,,,,,,,,,,,,,114223.5,114221.80000000075,45374.746,45388.800000000745,45408.094,114225.114,,,
Holding screen,html.Screen,0_2_1_0,2021-11-04T12:05:43.425Z,,,,,,,,,,,,,,,,,,,,,,,,,,,,,,10002.388999999996,,timeout,,,,,,,,,,,,,,,,124212.5,124210.833,114208.444,114224,114225.114,124227.503,,,
screen,html.Screen,0_2_1_1_0,2021-11-04T12:05:45.499Z,,,,,,,,,,,,,,,,54,,,,,,,,,,,,,,2058.196999999258,,response,,,100,,,,,,Space,keypress(Space),,,,,At --- ---- --- ------ ----- ------- ---- -- --- ------- --<br>------- ---------- ------ -- ----- -- ----- -- ---- ------<br>--- ----- --- --- ------ -------- ----- --- ------ ----- --<br>----- ----- ---------- --- --- ------ ------ ---- -- ------<br>------- --- ------ ----- --- ---- ------- -- ---- --- --<br>------- ------,126286.59999999963,126285.69999999925,124210.833,124212.90000000037,124227.503,126294.837,,0,At
screen,html.Screen,0_2_1_1_1,2021-11-04T12:05:46.203Z,,,,,,,,,,,,,,,,54,,,,,,,,,,,,,,694.3629999992554,,response,,,100,,,,,,Space,keypress(Space),,,,,-- the ---- --- ------ ----- ------- ---- -- --- ------- --<br>------- ---------- ------ -- ----- -- ----- -- ---- ------<br>--- ----- --- --- ------ -------- ----- --- ------ ----- --<br>----- ----- ---------- --- --- ------ ------ ---- -- ------<br>------- --- ------ ----- --- ---- ------- -- ---- --- --<br>------- ------,126990.09999999963,126989.19999999925,126278.166,126286.90000000037,126294.837,126994.99,,1,the
screen,html.Screen,0_2_1_1_2,2021-11-04T12:05:46.850Z,,,,,,,,,,,,,,,,54,,,,,,,,,,,,,,642.1099999996222,,response,,,100,,,,,,Space,keypress(Space),,,,,-- --- time --- ------ ----- ------- ---- -- --- ------- --<br>------- ---------- ------ -- ----- -- ----- -- ---- ------<br>--- ----- --- --- ------ -------- ----- --- ------ ----- --<br>----- ----- ---------- --- --- ------ ------ ---- -- ------<br>------- --- ------ ----- --- ---- ------- -- ---- --- --<br>------- ------,127637.90000000037,127637.09999999963,126978.319,126990.40000000037,126994.99,127645.045,,2,time
screen,html.Screen,0_2_1_1_3,2021-11-04T12:05:47.498Z,,,,,,,,,,,,,,,,54,,,,,,,,,,,,,,640.0549999996292,,response,,,100,,,,,,Space,keypress(Space),,,,,-- --- ---- the ------ ----- ------- ---- -- --- ------- --<br>------- ---------- ------ -- ----- -- ----- -- ---- ------<br>--- ----- --- --- ------ -------- ----- --- ------ ----- --<br>----- ----- ---------- --- --- ------ ------ ---- -- ------<br>------- --- ------ ----- --- ---- ------- -- ---- --- --<br>------- ------,128286,128285.09999999963,127628.375,127638.30000000075,127645.045,128295.444,,3,the
screen,html.Screen,0_2_1_1_4,2021-11-04T12:05:48.394Z,,,,,,,,,,,,,,,,54,,,,,,,,,,,,,,885.6559999996243,,response,,,100,,,,,,Space,keypress(Space),,,,,-- --- ---- --- French ----- ------- ---- -- --- ------- --<br>------- ---------- ------ -- ----- -- ----- -- ---- ------<br>--- ----- --- --- ------ -------- ----- --- ------ ----- --<br>----- ----- ---------- --- --- ------ ------ ---- -- ------<br>------- --- ------ ----- --- ---- ------- -- ---- --- --<br>------- ------,129181.80000000075,129181.09999999963,128278.772,128286.19999999925,128295.444,129195.586,,4,French
screen,html.Screen,0_2_1_1_5,2021-11-04T12:05:49.354Z,,,,,,,,,,,,,,,,54,,,,,,,,,,,,,,945.4140000000043,,response,,,100,,,,,,Space,keypress(Space),,,,,-- --- ---- --- ------ crown ------- ---- -- --- ------- --<br>------- ---------- ------ -- ----- -- ----- -- ---- ------<br>--- ----- --- --- ------ -------- ----- --- ------ ----- --<br>----- ----- ---------- --- --- ------ ------ ---- -- ------<br>------- --- ------ ----- --- ---- ------- -- ---- --- --<br>------- ------,130141.80000000075,130141,129178.915,129182.19999999925,129195.586,130145.7,,5,crown
screen,html.Screen,0_2_1_1_6,2021-11-04T12:05:50.258Z,,,,,,,,,,,,,,,,54,,,,,,,,,,,,,,899.2000000003754,,response,,,100,,,,,,Space,keypress(Space),,,,,-- --- ---- --- ------ ----- secured ---- -- --- ------- --<br>------- ---------- ------ -- ----- -- ----- -- ---- ------<br>--- ----- --- --- ------ -------- ----- --- ------ ----- --<br>----- ----- ---------- --- --- ------ ------ ---- -- ------<br>------- --- ------ ----- --- ---- ------- -- ---- --- --<br>------- ------,131045.69999999925,131044.90000000037,130129.03,130142.09999999963,130145.7,131062.559,,6,secured
screen,html.Screen,0_2_1_1_7,2021-11-04T12:05:51.602Z,,,,,,,,,,,,,,,,54,,,,,,,,,,,,,,1326.5409999996336,,response,,,100,,,,,,Space,keypress(Space),,,,,-- --- ---- --- ------ ----- ------- much -- --- ------- --<br>------- ---------- ------ -- ----- -- ----- -- ---- ------<br>--- ----- --- --- ------ -------- ----- --- ------ ----- --<br>----- ----- ---------- --- --- ------ ------ ---- -- ------<br>------- --- ------ ----- --- ---- ------- -- ---- --- --<br>------- ------,132389.90000000037,132389.09999999963,131045.889,131045.90000000037,131062.559,132396.409,,7,much
screen,html.Screen,0_2_1_1_8,2021-11-04T12:05:52.498Z,,,,,,,,,,,,,,,,54,,,,,,,,,,,,,,888.3910000007309,,response,,,100,,,,,,Space,keypress(Space),,,,,-- --- ---- --- ------ ----- ------- ---- of --- ------- --<br>------- ---------- ------ -- ----- -- ----- -- ---- ------<br>--- ----- --- --- ------ -------- ----- --- ------ ----- --<br>----- ----- ---------- --- --- ------ ------ ---- -- ------<br>------- --- ------ ----- --- ---- ------- -- ---- --- --<br>------- ------,133285.59999999963,133284.80000000075,132379.738,132390.09999999963,132396.409,133296.53,,8,of
screen,html.Screen,0_2_1_1_9,2021-11-04T12:05:53.154Z,,,,,,,,,,,,,,,,54,,,,,,,,,,,,,,644.2700000007462,,response,,,100,,,,,,Space,keypress(Space),,,,,-- --- ---- --- ------ ----- ------- ---- -- its ------- --<br>------- ---------- ------ -- ----- -- ----- -- ---- ------<br>--- ----- --- --- ------ -------- ----- --- ------ ----- --<br>----- ----- ---------- --- --- ------ ------ ---- -- ------<br>------- --- ------ ----- --- ---- ------- -- ---- --- --<br>------- ------,133941.69999999925,133940.80000000075,133279.86,133285.90000000037,133296.53,133946.625,,9,its
screen,html.Screen,0_2_1_1_10,2021-11-04T12:05:54.226Z,,,,,,,,,,,,,,,,54,,,,,,,,,,,,,,1066.074999999255,,response,,,100,,,,,,Space,keypress(Space),,,,,-- --- ---- --- ------ ----- ------- ---- -- --- revenue --<br>------- ---------- ------ -- ----- -- ----- -- ---- ------<br>--- ----- --- --- ------ -------- ----- --- ------ ----- --<br>----- ----- ---------- --- --- ------ ------ ---- -- ------<br>------- --- ------ ----- --- ---- ------- -- ---- --- --<br>------- ------,135013.59999999963,135012.69999999925,133929.955,133942,133946.625,135030.387,,10,revenue
screen,html.Screen,0_2_1_1_11,2021-11-04T12:05:55.050Z,,,,,,,,,,,,,,,,54,,,,,,,,,,,,,,806.2129999996396,,response,,,100,,,,,,Space,keypress(Space),,,,,-- --- ---- --- ------ ----- ------- ---- -- --- ------- by<br>------- ---------- ------ -- ----- -- ----- -- ---- ------<br>--- ----- --- --- ------ -------- ----- --- ------ ----- --<br>----- ----- ---------- --- --- ------ ------ ---- -- ------<br>------- --- ------ ----- --- ---- ------- -- ---- --- --<br>------- ------,135837.5,135836.59999999963,135013.716,135014,135030.387,135847.246,,11,by
screen,html.Screen,0_2_1_1_12,2021-11-04T12:05:56.026Z,,,,,,,,,,,,,,,,54,,,,,,,,,,,,,,965.6540000003588,,response,,,100,,,,,,Space,keypress(Space),,,,,-- --- ---- --- ------ ----- ------- ---- -- --- ------- --<br>issuing ---------- ------ -- ----- -- ----- -- ---- ------<br>--- ----- --- --- ------ -------- ----- --- ------ ----- --<br>----- ----- ---------- --- --- ------ ------ ---- -- ------<br>------- --- ------ ----- --- ---- ------- -- ---- --- --<br>------- ------,136813.80000000075,136812.90000000037,135830.575,135837.90000000037,135847.246,136830.722,,12,issuing
screen,html.Screen,0_2_1_1_13,2021-11-04T12:05:57.114Z,,,,,,,,,,,,,,,,54,,,,,,,,,,,,,,1069.7779999999912,,response,,,100,,,,,,Space,keypress(Space),,,,,-- --- ---- --- ------ ----- ------- ---- -- --- ------- --<br>------- government ------ -- ----- -- ----- -- ---- ------<br>--- ----- --- --- ------ -------- ----- --- ------ ----- --<br>----- ----- ---------- --- --- ------ ------ ---- -- ------<br>------- --- ------ ----- --- ---- ------- -- ---- --- --<br>------- ------,137901.30000000075,137900.5,136814.052,136814.09999999963,136830.722,137914.425,,13,government
screen,html.Screen,0_2_1_1_14,2021-11-04T12:05:59.090Z,,,,,,,,,,,,,,,,54,,,,,,,,,,,,,,1961.9750000003842,,response,,,100,,,,,,Space,keypress(Space),,,,,-- --- ---- --- ------ ----- ------- ---- -- --- ------- --<br>------- ---------- bonds. -- ----- -- ----- -- ---- ------<br>--- ----- --- --- ------ -------- ----- --- ------ ----- --<br>----- ----- ---------- --- --- ------ ------ ---- -- ------<br>------- --- ------ ----- --- ---- ------- -- ---- --- --<br>------- ------,139877.30000000075,139876.40000000037,137897.754,137901.59999999963,137914.425,139881.45,,14,bonds.
screen,html.Screen,0_2_1_1_15,2021-11-04T12:05:59.978Z,,,,,,,,,,,,,,,,54,,,,,,,,,,,,,,882.8500000007334,,response,,,100,,,,,,Space,keypress(Space),,,,,-- --- ---- --- ------ ----- ------- ---- -- --- ------- --<br>------- ---------- ------ In ----- -- ----- -- ---- ------<br>--- ----- --- --- ------ -------- ----- --- ------ ----- --<br>----- ----- ---------- --- --- ------ ------ ---- -- ------<br>------- --- ------ ----- --- ---- ------- -- ---- --- --<br>------- ------,140765.19999999925,140764.30000000075,139864.78,139877.59999999963,139881.45,140781.704,,15,In
screen,html.Screen,0_2_1_1_16,2021-11-04T12:06:01.722Z,,,,,,,,,,,,,,,,54,,,,,,,,,,,,,,1726.495999999257,,response,,,100,,,,,,Space,keypress(Space),,,,,"-- --- ---- --- ------ ----- ------- ---- -- --- ------- --<br>------- ---------- ------ -- 1727, -- ----- -- ---- ------<br>--- ----- --- --- ------ -------- ----- --- ------ ----- --<br>----- ----- ---------- --- --- ------ ------ ---- -- ------<br>------- --- ------ ----- --- ---- ------- -- ---- --- --<br>------- ------",142509.09999999963,142508.19999999925,140765.034,140765.40000000037,140781.704,142515.373,,16,"1727,"
screen,html.Screen,0_2_1_1_17,2021-11-04T12:06:02.473Z,,,,,,,,,,,,,,,,54,,,,,,,,,,,,,,744.8269999992626,,response,,,100,,,,,,Space,keypress(Space),,,,,-- --- ---- --- ------ ----- ------- ---- -- --- ------- --<br>------- ---------- ------ -- ----- in ----- -- ---- ------<br>--- ----- --- --- ------ -------- ----- --- ------ ----- --<br>----- ----- ---------- --- --- ------ ------ ---- -- ------<br>------- --- ------ ----- --- ---- ------- -- ---- --- --<br>------- ------,143260.90000000037,143260.19999999925,142498.703,142509.40000000037,142515.373,143265.814,,17,in
screen,html.Screen,0_2_1_1_18,2021-11-04T12:06:03.193Z,,,,,,,,,,,,,,,,54,,,,,,,,,,,,,,714.2859999996144,,response,,,100,,,,,,Space,keypress(Space),,,,,-- --- ---- --- ------ ----- ------- ---- -- --- ------- --<br>------- ---------- ------ -- ----- -- order -- ---- ------<br>--- ----- --- --- ------ -------- ----- --- ------ ----- --<br>----- ----- ---------- --- --- ------ ------ ---- -- ------<br>------- --- ------ ----- --- ---- ------- -- ---- --- --<br>------- ------,143981,143980.09999999963,143249.143,143261.19999999925,143265.814,143982.54,,18,order
screen,html.Screen,0_2_1_1_19,2021-11-04T12:06:03.753Z,,,,,,,,,,,,,,,,54,,,,,,,,,,,,,,557.4599999999919,,response,,,100,,,,,,Space,keypress(Space),,,,,-- --- ---- --- ------ ----- ------- ---- -- --- ------- --<br>------- ---------- ------ -- ----- -- ----- to ---- ------<br>--- ----- --- --- ------ -------- ----- --- ------ ----- --<br>----- ----- ---------- --- --- ------ ------ ---- -- ------<br>------- --- ------ ----- --- ---- ------- -- ---- --- --<br>------- ------,144540.90000000037,144540,143965.87,143981.30000000075,143982.54,144549.352,,19,to
screen,html.Screen,0_2_1_1_20,2021-11-04T12:06:04.409Z,,,,,,,,,,,,,,,,54,,,,,,,,,,,,,,646.6479999999865,,response,,,100,,,,,,Space,keypress(Space),,,,,-- --- ---- --- ------ ----- ------- ---- -- --- ------- --<br>------- ---------- ------ -- ----- -- ----- -- save ------<br>--- ----- --- --- ------ -------- ----- --- ------ ----- --<br>----- ----- ---------- --- --- ------ ------ ---- -- ------<br>------- --- ------ ----- --- ---- ------- -- ---- --- --<br>------- ------,145196.80000000075,145196,144532.682,144541.19999999925,144549.352,145199.479,,20,save
screen,html.Screen,0_2_1_1_21,2021-11-04T12:06:05.257Z,,,,,,,,,,,,,,,,54,,,,,,,,,,,,,,844.5210000000079,,response,,,100,,,,,,Space,keypress(Space),,,,,"-- --- ---- --- ------ ----- ------- ---- -- --- ------- --<br>------- ---------- ------ -- ----- -- ----- -- ---- money,<br>--- ----- --- --- ------ -------- ----- --- ------ ----- --<br>----- ----- ---------- --- --- ------ ------ ---- -- ------<br>------- --- ------ ----- --- ---- ------- -- ---- --- --<br>------- ------",146044.90000000037,146044,145182.809,145197.09999999963,145199.479,146049.701,,21,"money,"
screen,html.Screen,0_2_1_1_22,2021-11-04T12:06:05.929Z,,,,,,,,,,,,,,,,54,,,,,,,,,,,,,,666.2989999999991,,response,,,100,,,,,,Space,keypress(Space),,,,,-- --- ---- --- ------ ----- ------- ---- -- --- ------- --<br>------- ---------- ------ -- ----- -- ----- -- ---- ------<br>the ----- --- --- ------ -------- ----- --- ------ ----- --<br>----- ----- ---------- --- --- ------ ------ ---- -- ------<br>------- --- ------ ----- --- ---- ------- -- ---- --- --<br>------- ------,146716.69999999925,146716,146033.031,146045.09999999963,146049.701,146733.217,,22,the
screen,html.Screen,0_2_1_1_23,2021-11-04T12:06:06.562Z,,,,,,,,,,,,,,,,54,,,,,,,,,,,,,,615.0830000007409,,response,,,100,,,,,,Space,keypress(Space),,,,,-- --- ---- --- ------ ----- ------- ---- -- --- ------- --<br>------- ---------- ------ -- ----- -- ----- -- ---- ------<br>--- state --- --- ------ -------- ----- --- ------ ----- --<br>----- ----- ---------- --- --- ------ ------ ---- -- ------<br>------- --- ------ ----- --- ---- ------- -- ---- --- --<br>------- ------,147349.09999999963,147348.30000000075,146716.547,146716.90000000037,146733.217,147350.101,,23,state
screen,html.Screen,0_2_1_1_24,2021-11-04T12:06:07.241Z,,,,,,,,,,,,,,,,54,,,,,,,,,,,,,,677.69900000075,,response,,,100,,,,,,Space,keypress(Space),,,,,-- --- ---- --- ------ ----- ------- ---- -- --- ------- --<br>------- ---------- ------ -- ----- -- ----- -- ---- ------<br>--- ----- cut --- ------ -------- ----- --- ------ ----- --<br>----- ----- ---------- --- --- ------ ------ ---- -- ------<br>------- --- ------ ----- --- ---- ------- -- ---- --- --<br>------- ------,148028.59999999963,148027.80000000075,147333.43,147349.30000000075,147350.101,148033.532,,24,cut
screen,html.Screen,0_2_1_1_25,2021-11-04T12:06:07.905Z,,,,,,,,,,,,,,,,54,,,,,,,,,,,,,,658.2680000007385,,response,,,100,,,,,,Space,keypress(Space),,,,,-- --- ---- --- ------ ----- ------- ---- -- --- ------- --<br>------- ---------- ------ -- ----- -- ----- -- ---- ------<br>--- ----- --- the ------ -------- ----- --- ------ ----- --<br>----- ----- ---------- --- --- ------ ------ ---- -- ------<br>------- --- ------ ----- --- ---- ------- -- ---- --- --<br>------- ------,148692.59999999963,148691.80000000075,148016.862,148028.80000000075,148033.532,148700.439,,25,the
screen,html.Screen,0_2_1_1_26,2021-11-04T12:06:10.033Z,,,,,,,,,,,,,,,,54,,,,,,,,,,,,,,2119.260999999242,,response,,,100,,,,,,Space,keypress(Space),,,,,-- --- ---- --- ------ ----- ------- ---- -- --- ------- --<br>------- ---------- ------ -- ----- -- ----- -- ---- ------<br>--- ----- --- --- bonds' -------- ----- --- ------ ----- --<br>----- ----- ---------- --- --- ------ ------ ---- -- ------<br>------- --- ------ ----- --- ---- ------- -- ---- --- --<br>------- ------,150820.5,150819.69999999925,148683.768,148692.80000000075,148700.439,150834.14,,26,bonds'
screen,html.Screen,0_2_1_1_27,2021-11-04T12:06:10.961Z,,,,,,,,,,,,,,,,54,,,,,,,,,,,,,,913.4599999996135,,response,,,100,,,,,,Space,keypress(Space),,,,,-- --- ---- --- ------ ----- ------- ---- -- --- ------- --<br>------- ---------- ------ -- ----- -- ----- -- ---- ------<br>--- ----- --- --- ------ interest ----- --- ------ ----- --<br>----- ----- ---------- --- --- ------ ------ ---- -- ------<br>------- --- ------ ----- --- ---- ------- -- ---- --- --<br>------- ------,151748.40000000037,151747.59999999963,150817.47,150820.69999999925,150834.14,151751.1,,27,interest
screen,html.Screen,0_2_1_1_28,2021-11-04T12:06:12.689Z,,,,,,,,,,,,,,,,54,,,,,,,,,,,,,,1724.3999999999942,,response,,,100,,,,,,Space,keypress(Space),,,,,-- --- ---- --- ------ ----- ------- ---- -- --- ------- --<br>------- ---------- ------ -- ----- -- ----- -- ---- ------<br>--- ----- --- --- ------ -------- rate. --- ------ ----- --<br>----- ----- ---------- --- --- ------ ------ ---- -- ------<br>------- --- ------ ----- --- ---- ------- -- ---- --- --<br>------- ------,153476.30000000075,153475.5,151734.43,151748.80000000075,151751.1,153484.764,,28,rate.
screen,html.Screen,0_2_1_1_29,2021-11-04T12:06:13.297Z,,,,,,,,,,,,,,,,54,,,,,,,,,,,,,,598.636000000377,,response,,,100,,,,,,Space,keypress(Space),,,,,-- --- ---- --- ------ ----- ------- ---- -- --- ------- --<br>------- ---------- ------ -- ----- -- ----- -- ---- ------<br>--- ----- --- --- ------ -------- ----- The ------ ----- --<br>----- ----- ---------- --- --- ------ ------ ---- -- ------<br>------- --- ------ ----- --- ---- ------- -- ---- --- --<br>------- ------,154084.30000000075,154083.40000000037,153468.094,153476.5,153484.764,154101.844,,29,The
screen,html.Screen,0_2_1_1_30,2021-11-04T12:06:13.969Z,,,,,,,,,,,,,,,,54,,,,,,,,,,,,,,653.6559999999881,,response,,,100,,,,,,Space,keypress(Space),,,,,-- --- ---- --- ------ ----- ------- ---- -- --- ------- --<br>------- ---------- ------ -- ----- -- ----- -- ---- ------<br>--- ----- --- --- ------ -------- ----- --- market ----- --<br>----- ----- ---------- --- --- ------ ------ ---- -- ------<br>------- --- ------ ----- --- ---- ------- -- ---- --- --<br>------- ------,154756.30000000075,154755.5,154085.173,154084.59999999963,154101.844,154768.491,,30,market
screen,html.Screen,0_2_1_1_31,2021-11-04T12:06:14.641Z,,,,,,,,,,,,,,,,54,,,,,,,,,,,,,,658.809000000736,,response,,,100,,,,,,Space,keypress(Space),,,,,-- --- ---- --- ------ ----- ------- ---- -- --- ------- --<br>------- ---------- ------ -- ----- -- ----- -- ---- ------<br>--- ----- --- --- ------ -------- ----- --- ------ value --<br>----- ----- ---------- --- --- ------ ------ ---- -- ------<br>------- --- ------ ----- --- ---- ------- -- ---- --- --<br>------- ------,155428.19999999925,155427.30000000075,154751.821,154756.59999999963,154768.491,155435.531,,31,value
screen,html.Screen,0_2_1_1_32,2021-11-04T12:06:15.209Z,,,,,,,,,,,,,,,,54,,,,,,,,,,,,,,559.8690000003844,,response,,,100,,,,,,Space,keypress(Space),,,,,-- --- ---- --- ------ ----- ------- ---- -- --- ------- --<br>------- ---------- ------ -- ----- -- ----- -- ---- ------<br>--- ----- --- --- ------ -------- ----- --- ------ ----- of<br>----- ----- ---------- --- --- ------ ------ ---- -- ------<br>------- --- ------ ----- --- ---- ------- -- ---- --- --<br>------- ------,155996.19999999925,155995.40000000037,155418.859,155428.5,155435.531,156002.053,,32,of
screen,html.Screen,0_2_1_1_33,2021-11-04T12:06:15.809Z,,,,,,,,,,,,,,,,54,,,,,,,,,,,,,,593.2470000007306,,response,,,100,,,,,,Space,keypress(Space),,,,,-- --- ---- --- ------ ----- ------- ---- -- --- ------- --<br>------- ---------- ------ -- ----- -- ----- -- ---- ------<br>--- ----- --- --- ------ -------- ----- --- ------ ----- --<br>these ----- ---------- --- --- ------ ------ ---- -- ------<br>------- --- ------ ----- --- ---- ------- -- ---- --- --<br>------- ------,156596.09999999963,156595.30000000075,155985.384,155996.40000000037,156002.053,156602.428,,33,these
screen,html.Screen,0_2_1_1_34,2021-11-04T12:06:16.561Z,,,,,,,,,,,,,,,,54,,,,,,,,,,,,,,744.7719999992405,,response,,,100,,,,,,Space,keypress(Space),,,,,-- --- ---- --- ------ ----- ------- ---- -- --- ------- --<br>------- ---------- ------ -- ----- -- ----- -- ---- ------<br>--- ----- --- --- ------ -------- ----- --- ------ ----- --<br>----- bonds ---------- --- --- ------ ------ ---- -- ------<br>------- --- ------ ----- --- ---- ------- -- ---- --- --<br>------- ------,157348.30000000075,157347.19999999925,156585.757,156596.5,156602.428,157352.516,,34,bonds
screen,html.Screen,0_2_1_1_35,2021-11-04T12:06:17.401Z,,,,,,,,,,,,,,,,54,,,,,,,,,,,,,,835.0839999996242,,response,,,100,,,,,,Space,keypress(Space),,,,,"-- --- ---- --- ------ ----- ------- ---- -- --- ------- --<br>------- ---------- ------ -- ----- -- ----- -- ---- ------<br>--- ----- --- --- ------ -------- ----- --- ------ ----- --<br>----- ----- plummeted, --- --- ------ ------ ---- -- ------<br>------- --- ------ ----- --- ---- ------- -- ---- --- --<br>------- ------",158188.5,158187.59999999963,157335.846,157348.59999999963,157352.516,158202.587,,35,"plummeted,"
screen,html.Screen,0_2_1_1_36,2021-11-04T12:06:18.048Z,,,,,,,,,,,,,,,,54,,,,,,,,,,,,,,632.5129999996279,,response,,,100,,,,,,Space,keypress(Space),,,,,-- --- ---- --- ------ ----- ------- ---- -- --- ------- --<br>------- ---------- ------ -- ----- -- ----- -- ---- ------<br>--- ----- --- --- ------ -------- ----- --- ------ ----- --<br>----- ----- ---------- and --- ------ ------ ---- -- ------<br>------- --- ------ ----- --- ---- ------- -- ---- --- --<br>------- ------,158835.90000000037,158835.09999999963,158185.918,158188.90000000037,158202.587,158852.859,,36,and
screen,html.Screen,0_2_1_1_37,2021-11-04T12:06:18.656Z,,,,,,,,,,,,,,,,54,,,,,,,,,,,,,,590.2409999996307,,response,,,100,,,,,,Space,keypress(Space),,,,,-- --- ---- --- ------ ----- ------- ---- -- --- ------- --<br>------- ---------- ------ -- ----- -- ----- -- ---- ------<br>--- ----- --- --- ------ -------- ----- --- ------ ----- --<br>----- ----- ---------- --- the ------ ------ ---- -- ------<br>------- --- ------ ----- --- ---- ------- -- ---- --- --<br>------- ------,159443.90000000037,159443.09999999963,158836.189,158836.19999999925,158852.859,159453.121,,37,the
screen,html.Screen,0_2_1_1_38,2021-11-04T12:06:19.336Z,,,,,,,,,,,,,,,,54,,,,,,,,,,,,,,669.9789999996137,,response,,,100,,,,,,Space,keypress(Space),,,,,-- --- ---- --- ------ ----- ------- ---- -- --- ------- --<br>------- ---------- ------ -- ----- -- ----- -- ---- ------<br>--- ----- --- --- ------ -------- ----- --- ------ ----- --<br>----- ----- ---------- --- --- market ------ ---- -- ------<br>------- --- ------ ----- --- ---- ------- -- ---- --- --<br>------- ------,160124,160123.09999999963,159436.45,159444.09999999963,159453.121,160136.618,,38,market
screen,html.Screen,0_2_1_1_39,2021-11-04T12:06:20.025Z,,,,,,,,,,,,,,,,54,,,,,,,,,,,,,,674.7820000003849,,response,,,100,,,,,,Space,keypress(Space),,,,,-- --- ---- --- ------ ----- ------- ---- -- --- ------- --<br>------- ---------- ------ -- ----- -- ----- -- ---- ------<br>--- ----- --- --- ------ -------- ----- --- ------ ----- --<br>----- ----- ---------- --- --- ------ became ---- -- ------<br>------- --- ------ ----- --- ---- ------- -- ---- --- --<br>------- ------,160812.09999999963,160811.40000000037,160119.947,160124.30000000075,160136.618,160819.921,,39,became
screen,html.Screen,0_2_1_1_40,2021-11-04T12:06:20.880Z,,,,,,,,,,,,,,,,54,,,,,,,,,,,,,,847.0789999999979,,response,,,100,,,,,,Space,keypress(Space),,,,,-- --- ---- --- ------ ----- ------- ---- -- --- ------- --<br>------- ---------- ------ -- ----- -- ----- -- ---- ------<br>--- ----- --- --- ------ -------- ----- --- ------ ----- --<br>----- ----- ---------- --- --- ------ ------ wary -- ------<br>------- --- ------ ----- --- ---- ------- -- ---- --- --<br>------- ------,161667.69999999925,161667,160803.252,160812.40000000037,160819.921,161670.33,,40,wary
screen,html.Screen,0_2_1_1_41,2021-11-04T12:06:21.504Z,,,,,,,,,,,,,,,,54,,,,,,,,,,,,,,620.5700000003853,,response,,,100,,,,,,Space,keypress(Space),,,,,-- --- ---- --- ------ ----- ------- ---- -- --- ------- --<br>------- ---------- ------ -- ----- -- ----- -- ---- ------<br>--- ----- --- --- ------ -------- ----- --- ------ ----- --<br>----- ----- ---------- --- --- ------ ------ ---- of ------<br>------- --- ------ ----- --- ---- ------- -- ---- --- --<br>------- ------,162291.69999999925,162290.90000000037,161653.659,161667.90000000037,161670.33,162303.771,,41,of
screen,html.Screen,0_2_1_1_42,2021-11-04T12:06:22.448Z,,,,,,,,,,,,,,,,54,,,,,,,,,,,,,,931.1290000003646,,response,,,100,,,,,,Space,keypress(Space),,,,,-- --- ---- --- ------ ----- ------- ---- -- --- ------- --<br>------- ---------- ------ -- ----- -- ----- -- ---- ------<br>--- ----- --- --- ------ -------- ----- --- ------ ----- --<br>----- ----- ---------- --- --- ------ ------ ---- -- French<br>------- --- ------ ----- --- ---- ------- -- ---- --- --<br>------- ------,163235.69999999925,163234.90000000037,162287.101,162291.90000000037,162303.771,163237.194,,42,French
screen,html.Screen,0_2_1_1_43,2021-11-04T12:06:24.536Z,,,,,,,,,,,,,,,,54,,,,,,,,,,,,,,2085.6060000007565,,response,,,100,,,,,,Space,keypress(Space),,,,,-- --- ---- --- ------ ----- ------- ---- -- --- ------- --<br>------- ---------- ------ -- ----- -- ----- -- ---- ------<br>--- ----- --- --- ------ -------- ----- --- ------ ----- --<br>----- ----- ---------- --- --- ------ ------ ---- -- ------<br>credit. --- ------ ----- --- ---- ------- -- ---- --- --<br>------- ------,165323.5,165322.80000000075,163220.525,163235.90000000037,163237.194,165337.954,,43,credit.
screen,html.Screen,0_2_1_1_44,2021-11-04T12:06:25.128Z,,,,,,,,,,,,,,,,54,,,,,,,,,,,,,,576.745999999257,,response,,,100,,,,,,Space,keypress(Space),,,,,-- --- ---- --- ------ ----- ------- ---- -- --- ------- --<br>------- ---------- ------ -- ----- -- ----- -- ---- ------<br>--- ----- --- --- ------ -------- ----- --- ------ ----- --<br>----- ----- ---------- --- --- ------ ------ ---- -- ------<br>------- The ------ ----- --- ---- ------- -- ---- --- --<br>------- ------,165915.5,165914.69999999925,165321.283,165323.80000000075,165337.954,165921.137,,44,The
screen,html.Screen,0_2_1_1_45,2021-11-04T12:06:25.736Z,,,,,,,,,,,,,,,,54,,,,,,,,,,,,,,601.562999999267,,response,,,100,,,,,,Space,keypress(Space),,,,,-- --- ---- --- ------ ----- ------- ---- -- --- ------- --<br>------- ---------- ------ -- ----- -- ----- -- ---- ------<br>--- ----- --- --- ------ -------- ----- --- ------ ----- --<br>----- ----- ---------- --- --- ------ ------ ---- -- ------<br>------- --- French ----- --- ---- ------- -- ---- --- --<br>------- ------,166523.40000000037,166522.69999999925,165904.468,165915.80000000075,165921.137,166538.208,,45,French
screen,html.Screen,0_2_1_1_46,2021-11-04T12:06:26.544Z,,,,,,,,,,,,,,,,54,,,,,,,,,,,,,,792.3919999996142,,response,,,100,,,,,,Space,keypress(Space),,,,,-- --- ---- --- ------ ----- ------- ---- -- --- ------- --<br>------- ---------- ------ -- ----- -- ----- -- ---- ------<br>--- ----- --- --- ------ -------- ----- --- ------ ----- --<br>----- ----- ---------- --- --- ------ ------ ---- -- ------<br>------- --- ------ state --- ---- ------- -- ---- --- --<br>------- ------,167331.30000000075,167330.59999999963,166521.537,166523.59999999963,166538.208,167338.198,,46,state
screen,html.Screen,0_2_1_1_47,2021-11-04T12:06:27.256Z,,,,,,,,,,,,,,,,54,,,,,,,,,,,,,,704.4019999996235,,response,,,100,,,,,,Space,keypress(Space),,,,,-- --- ---- --- ------ ----- ------- ---- -- --- ------- --<br>------- ---------- ------ -- ----- -- ----- -- ---- ------<br>--- ----- --- --- ------ -------- ----- --- ------ ----- --<br>----- ----- ---------- --- --- ------ ------ ---- -- ------<br>------- --- ------ ----- was ---- ------- -- ---- --- --<br>------- ------,168043.40000000037,168042.59999999963,167321.529,167331.69999999925,167338.198,168055.291,,47,was
screen,html.Screen,0_2_1_1_48,2021-11-04T12:06:28.000Z,,,,,,,,,,,,,,,,54,,,,,,,,,,,,,,731.5090000007476,,response,,,100,,,,,,Space,keypress(Space),,,,,-- --- ---- --- ------ ----- ------- ---- -- --- ------- --<br>------- ---------- ------ -- ----- -- ----- -- ---- ------<br>--- ----- --- --- ------ -------- ----- --- ------ ----- --<br>----- ----- ---------- --- --- ------ ------ ---- -- ------<br>------- --- ------ ----- --- left ------- -- ---- --- --<br>------- ------,168787.69999999925,168786.80000000075,168038.62,168043.69999999925,168055.291,168805.252,,48,left
screen,html.Screen,0_2_1_1_49,2021-11-04T12:06:28.656Z,,,,,,,,,,,,,,,,54,,,,,,,,,,,,,,637.2479999999923,,response,,,100,,,,,,Space,keypress(Space),,,,,-- --- ---- --- ------ ----- ------- ---- -- --- ------- --<br>------- ---------- ------ -- ----- -- ----- -- ---- ------<br>--- ----- --- --- ------ -------- ----- --- ------ ----- --<br>----- ----- ---------- --- --- ------ ------ ---- -- ------<br>------- --- ------ ----- --- ---- without -- ---- --- --<br>------- ------,169443.30000000075,169442.5,168788.583,168787.90000000037,168805.252,169455.62,,49,without
screen,html.Screen,0_2_1_1_50,2021-11-04T12:06:29.344Z,,,,,,,,,,,,,,,,54,,,,,,,,,,,,,,674.7800000003772,,response,,,100,,,,,,Space,keypress(Space),,,,,-- --- ---- --- ------ ----- ------- ---- -- --- ------- --<br>------- ---------- ------ -- ----- -- ----- -- ---- ------<br>--- ----- --- --- ------ -------- ----- --- ------ ----- --<br>----- ----- ---------- --- --- ------ ------ ---- -- ------<br>------- --- ------ ----- --- ---- ------- an ---- --- --<br>------- ------,170131.09999999963,170130.40000000037,169438.949,169443.59999999963,169455.62,170139.051,,50,an
screen,html.Screen,0_2_1_1_51,2021-11-04T12:06:30.056Z,,,,,,,,,,,,,,,,54,,,,,,,,,,,,,,703.4489999999932,,response,,,100,,,,,,Space,keypress(Space),,,,,-- --- ---- --- ------ ----- ------- ---- -- --- ------- --<br>------- ---------- ------ -- ----- -- ----- -- ---- ------<br>--- ----- --- --- ------ -------- ----- --- ------ ----- --<br>----- ----- ---------- --- --- ------ ------ ---- -- ------<br>------- --- ------ ----- --- ---- ------- -- easy --- --<br>------- ------,170843.19999999925,170842.5,170122.381,170131.5,170139.051,170855.859,,51,easy
screen,html.Screen,0_2_1_1_52,2021-11-04T12:06:30.648Z,,,,,,,,,,,,,,,,54,,,,,,,,,,,,,,578.5410000003758,,response,,,100,,,,,,Space,keypress(Space),,,,,-- --- ---- --- ------ ----- ------- ---- -- --- ------- --<br>------- ---------- ------ -- ----- -- ----- -- ---- ------<br>--- ----- --- --- ------ -------- ----- --- ------ ----- --<br>----- ----- ---------- --- --- ------ ------ ---- -- ------<br>------- --- ------ ----- --- ---- ------- -- ---- way --<br>------- ------,171435.19999999925,171434.40000000037,170839.189,170843.59999999963,170855.859,171439.368,,52,way
screen,html.Screen,0_2_1_1_53,2021-11-04T12:06:31.296Z,,,,,,,,,,,,,,,,54,,,,,,,,,,,,,,642.9320000007574,,response,,,100,,,,,,Space,keypress(Space),,,,,-- --- ---- --- ------ ----- ------- ---- -- --- ------- --<br>------- ---------- ------ -- ----- -- ----- -- ---- ------<br>--- ----- --- --- ------ -------- ----- --- ------ ----- --<br>----- ----- ---------- --- --- ------ ------ ---- -- ------<br>------- --- ------ ----- --- ---- ------- -- ---- --- of<br>------- ------,172083.09999999963,172082.30000000075,171422.698,171435.40000000037,171439.368,172089.419,,53,of
screen,html.Screen,0_2_1_1_54,2021-11-04T12:06:31.983Z,,,,,,,,,,,,,,,,54,,,,,,,,,,,,,,680.7809999992605,,response,,,100,,,,,,Space,keypress(Space),,,,,-- --- ---- --- ------ ----- ------- ---- -- --- ------- --<br>------- ---------- ------ -- ----- -- ----- -- ---- ------<br>--- ----- --- --- ------ -------- ----- --- ------ ----- --<br>----- ----- ---------- --- --- ------ ------ ---- -- ------<br>------- --- ------ ----- --- ---- ------- -- ---- --- --<br>raising ------,172771,172770.19999999925,172072.75,172083.40000000037,172089.419,172773.055,,54,raising
screen,html.Screen,0_2_1_1_55,2021-11-04T12:06:33.343Z,,,,,,,,,,,,,,,,54,,,,,,,,,,,,,,1357.0449999996345,,response,,,100,,,,,,Space,keypress(Space),,,,,-- --- ---- --- ------ ----- ------- ---- -- --- ------- --<br>------- ---------- ------ -- ----- -- ----- -- ---- ------<br>--- ----- --- --- ------ -------- ----- --- ------ ----- --<br>----- ----- ---------- --- --- ------ ------ ---- -- ------<br>------- --- ------ ----- --- ---- ------- -- ---- --- --<br>------- money.,174130.90000000037,174130.09999999963,172756.384,172771.30000000075,172773.055,174140.127,,55,money.
Item 100,flow.Loop,0_2_1_1,2021-11-04T12:06:33.344Z,,,,,,,,,,,,,,,,,,,,,,,,,,,,,,49902.59699999963,,completion,,,,C,,,,,,,,,,silence,,174131.5,174130.09999999963,124210.833,124212.80000000075,124227.503,174140.127,,,
Question 1,html.Screen,0_2_1_2,2021-11-04T12:06:43.100Z,,,,,,,,,,,,,,,,,,,,,,,,,,,true,TRUE,,9741.173000000737,,response,,,100,C,,,,,TRUE,click #choice-1,,,,silence,,183882.69999999925,183881.30000000075,174123.456,174131.59999999963,174140.127,183892.525,,,
Question 2,html.Screen,0_2_1_3,2021-11-04T12:06:47.778Z,,,,,,,,,,,,,,,,,,,,,,,,,,,true,FALSE,,4668.375000000378,,response,,,100,C,,,,,FALSE,click #choice-2,,,,silence,,188561.40000000037,188560.90000000037,183875.854,183882.90000000037,183892.525,188577.183,,,
Item 100,flow.Sequence,0_2_1,2021-11-04T12:06:47.779Z,,,,,,,,,,,,,,,,,,,,,,,,,,,,,,74335.78600000037,,completion,,,,,,,,,,,,,,,,188561.69999999925,188560.90000000037,114208.444,114223.80000000075,114225.114,188577.183,,,
End of Practice,html.Page,0_2_2,2021-11-04T12:07:07.283Z,,,,,,,,,,,,,,,,,,,,,,,,,,,,,,19488.217000000383,,form submission,,,,,,,,,,,,,,,,208066.09999999963,208065.40000000037,188560.507,188561.69999999925,188577.183,208065.126,,,
Practice,flow.Sequence,0_2,2021-11-04T12:07:07.284Z,,,,,,,,,,,,,,,,,,,,,,,,,,,,,,162657.3060000004,,completion,,,,,,,,,,,,,,,,208066.59999999963,208065.40000000037,45374.746,45388.699999999255,45408.094,208065.126,,,
Trap_instruction,html.Page,0_3_0,2021-11-04T12:07:19.666Z,,,,,,,,,,,,,,,,,,,,,,,,,,,,,,12383.473999999638,,form submission,,,,,,,,,,,,,,,,220449.19999999925,220448.59999999963,208048.455,208066.90000000037,208065.126,220501.476,,,
trap_trial,html.Screen,0_3_1,2021-11-04T12:07:23.297Z,,,,,,,,,,,,,,,,,,,,,,,,,,,true,1,,3577.32400000075,,response,,,,,,,,,1,click #choice-1,,,,,,224079.90000000037,224078.80000000075,220434.796,220449.40000000037,220501.476,224085.829,,,
end of trap trial,html.Page,0_3_2,2021-11-04T12:07:26.634Z,,,,,,,,,,,,,,,,,,,,,,,,,,,,,,3330.2709999996296,,form submission,,,,,,,,,,,,,,,,227416.59999999963,227416.09999999963,224069.158,224080.19999999925,224085.829,227420.025,,,
Trap 1,flow.Sequence,0_3,2021-11-04T12:07:26.634Z,,,,,,,,,,,,,,,,,,,,,,,,,,,,,,19350.97399999964,,completion,,,,,,,,,,,,,,,,227417,227416.09999999963,208048.455,208066.80000000075,208065.126,227420.025,,,
Standby,html.Page,0_4_0,2021-11-04T12:07:34.624Z,,,,,,,,,,,,,,,,,,,,,,,,,,,,,,8001.577000000019,,timeout,,,,,,,,,,,,,,,,235406.59999999963,235404.932,227403.354,227417.19999999925,227420.025,235421.602,,,
Holding screen,html.Screen,0_4_1_0_0,2021-11-04T12:07:41.628Z,,,,,,,,,,,,,,,,,,,,,,,,,,,,,,7002.02899999998,,timeout,,,,,,,,,,,,,,,,242408.19999999925,242406.961,235404.932,235407.09999999963,235421.602,242423.631,,,
screen,html.Screen,0_4_1_0_1_0,2021-11-04T12:07:44.514Z,,,,,,,,,,,,,,,,51,,,,,,,,,,,,,,2870.4689999996335,,response,,,13,C,,,,,Space,keypress(Space),,,,instrumental,American -------- --- --- ---- --- --- ------ -- --------<br>---- --------- --- ------- ------------ ---------- ---------<br>--- ---------- ------- ---------- ------- -- -------- ----<br>---- --- ------ ----- ------ -- ---- --- ----- -- - -------<br>-------- -- --- --- -- ----- ----------- ----- -----------<br>---- --- ---------- --- ---- --- -- ----------,245295.09999999963,245294.09999999963,242406.961,242408.69999999925,242423.631,245307.588,,0,American
screen,html.Screen,0_4_1_0_1_1,2021-11-04T12:07:45.842Z,,,,,,,,,,,,,,,,51,,,,,,,,,,,,,,1314.0119999996386,,response,,,13,C,,,,,Space,keypress(Space),,,,instrumental,-------- industry --- --- ---- --- --- ------ -- --------<br>---- --------- --- ------- ------------ ---------- ---------<br>--- ---------- ------- ---------- ------- -- -------- ----<br>---- --- ------ ----- ------ -- ---- --- ----- -- - -------<br>-------- -- --- --- -- ----- ----------- ----- -----------<br>---- --- ---------- --- ---- --- -- ----------,246622.40000000037,246621.59999999963,245290.918,245295.5,245307.588,246624.693,,1,industry
screen,html.Screen,0_4_1_0_1_2,2021-11-04T12:07:46.962Z,,,,,,,,,,,,,,,,51,,,,,,,,,,,,,,1116.9069999996282,,response,,,13,C,,,,,Space,keypress(Space),,,,instrumental,-------- -------- may --- ---- --- --- ------ -- --------<br>---- --------- --- ------- ------------ ---------- ---------<br>--- ---------- ------- ---------- ------- -- -------- ----<br>---- --- ------ ----- ------ -- ---- --- ----- -- - -------<br>-------- -- --- --- -- ----- ----------- ----- -----------<br>---- --- ---------- --- ---- --- -- ----------,247742.5,247741.59999999963,246608.023,246622.69999999925,246624.693,247758.335,,2,may
screen,html.Screen,0_4_1_0_1_3,2021-11-04T12:07:47.730Z,,,,,,,,,,,,,,,,51,,,,,,,,,,,,,,751.1650000000081,,response,,,13,C,,,,,Space,keypress(Space),,,,instrumental,-------- -------- --- not ---- --- --- ------ -- --------<br>---- --------- --- ------- ------------ ---------- ---------<br>--- ---------- ------- ---------- ------- -- -------- ----<br>---- --- ------ ----- ------ -- ---- --- ----- -- - -------<br>-------- -- --- --- -- ----- ----------- ----- -----------<br>---- --- ---------- --- ---- --- -- ----------,248510.19999999925,248509.5,247741.665,247742.69999999925,247758.335,248525.162,,3,not
screen,html.Screen,0_4_1_0_1_4,2021-11-04T12:07:48.482Z,,,,,,,,,,,,,,,,51,,,,,,,,,,,,,,736.2380000003614,,response,,,13,C,,,,,Space,keypress(Space),,,,instrumental,-------- -------- --- --- know --- --- ------ -- --------<br>---- --------- --- ------- ------------ ---------- ---------<br>--- ---------- ------- ---------- ------- -- -------- ----<br>---- --- ------ ----- ------ -- ---- --- ----- -- - -------<br>-------- -- --- --- -- ----- ----------- ----- -----------<br>---- --- ---------- --- ---- --- -- ----------,249262.19999999925,249261.40000000037,248508.492,248510.5,248525.162,249275.364,,4,know
screen,html.Screen,0_4_1_0_1_5,2021-11-04T12:07:49.721Z,,,,,,,,,,,,,,,,51,,,,,,,,,,,,,,1225.9360000007437,,response,,,13,C,,,,,Space,keypress(Space),,,,instrumental,"-------- -------- --- --- ---- it, --- ------ -- --------<br>---- --------- --- ------- ------------ ---------- ---------<br>--- ---------- ------- ---------- ------- -- -------- ----<br>---- --- ------ ----- ------ -- ---- --- ----- -- - -------<br>-------- -- --- --- -- ----- ----------- ----- -----------<br>---- --- ---------- --- ---- --- -- ----------",250502.09999999963,250501.30000000075,249258.694,249262.5,249275.364,250508.957,,5,"it,"
screen,html.Screen,0_4_1_0_1_6,2021-11-04T12:07:50.441Z,,,,,,,,,,,,,,,,51,,,,,,,,,,,,,,712.2429999992601,,response,,,13,C,,,,,Space,keypress(Space),,,,instrumental,-------- -------- --- --- ---- --- but ------ -- --------<br>---- --------- --- ------- ------------ ---------- ---------<br>--- ---------- ------- ---------- ------- -- -------- ----<br>---- --- ------ ----- ------ -- ---- --- ----- -- - -------<br>-------- -- --- --- -- ----- ----------- ----- -----------<br>---- --- ---------- --- ---- --- -- ----------,251222.09999999963,251221.19999999925,250492.287,250502.30000000075,250508.957,251225.837,,6,but
screen,html.Screen,0_4_1_0_1_7,2021-11-04T12:07:51.345Z,,,,,,,,,,,,,,,,51,,,,,,,,,,,,,,899.4630000007455,,response,,,13,C,,,,,Space,keypress(Space),,,,instrumental,-------- -------- --- --- ---- --- --- debate -- --------<br>---- --------- --- ------- ------------ ---------- ---------<br>--- ---------- ------- ---------- ------- -- -------- ----<br>---- --- ------ ----- ------ -- ---- --- ----- -- - -------<br>-------- -- --- --- -- ----- ----------- ----- -----------<br>---- --- ---------- --- ---- --- -- ----------,252126,252125.30000000075,251209.167,251222.30000000075,251225.837,252142.725,,7,debate
screen,html.Screen,0_4_1_0_1_8,2021-11-04T12:07:52.001Z,,,,,,,,,,,,,,,,51,,,,,,,,,,,,,,638.4749999992491,,response,,,13,C,,,,,Space,keypress(Space),,,,instrumental,-------- -------- --- --- ---- --- --- ------ in --------<br>---- --------- --- ------- ------------ ---------- ---------<br>--- ---------- ------- ---------- ------- -- -------- ----<br>---- --- ------ ----- ------ -- ---- --- ----- -- - -------<br>-------- -- --- --- -- ----- ----------- ----- -----------<br>---- --- ---------- --- ---- --- -- ----------,252782.19999999925,252781.19999999925,252126.055,252126.30000000075,252142.725,252793.022,,8,in
screen,html.Screen,0_4_1_0_1_9,2021-11-04T12:07:53.417Z,,,,,,,,,,,,,,,,51,,,,,,,,,,,,,,1404.0779999996303,,response,,,13,C,,,,,Space,keypress(Space),,,,instrumental,-------- -------- --- --- ---- --- --- ------ -- Congress<br>---- --------- --- ------- ------------ ---------- ---------<br>--- ---------- ------- ---------- ------- -- -------- ----<br>---- --- ------ ----- ------ -- ---- --- ----- -- - -------<br>-------- -- --- --- -- ----- ----------- ----- -----------<br>---- --- ---------- --- ---- --- -- ----------,254198,254197.09999999963,252776.351,252782.40000000037,252793.022,254209.9,,9,Congress
screen,html.Screen,0_4_1_0_1_10,2021-11-04T12:07:54.177Z,,,,,,,,,,,,,,,,51,,,,,,,,,,,,,,747.1000000000058,,response,,,13,C,,,,,Space,keypress(Space),,,,instrumental,-------- -------- --- --- ---- --- --- ------ -- --------<br>over --------- --- ------- ------------ ---------- ---------<br>--- ---------- ------- ---------- ------- -- -------- ----<br>---- --- ------ ----- ------ -- ---- --- ----- -- - -------<br>-------- -- --- --- -- ----- ----------- ----- -----------<br>---- --- ---------- --- ---- --- -- ----------,254957.90000000037,254957,254193.23,254198.19999999925,254209.9,254960.111,,10,over
screen,html.Screen,0_4_1_0_1_11,2021-11-04T12:07:55.778Z,,,,,,,,,,,,,,,,51,,,,,,,,,,,,,,1597.1890000007406,,response,,,13,C,,,,,Space,keypress(Space),,,,instrumental,-------- -------- --- --- ---- --- --- ------ -- --------<br>---- reforming --- ------- ------------ ---------- ---------<br>--- ---------- ------- ---------- ------- -- -------- ----<br>---- --- ------ ----- ------ -- ---- --- ----- -- - -------<br>-------- -- --- --- -- ----- ----------- ----- -----------<br>---- --- ---------- --- ---- --- -- ----------,256558.19999999925,256557.30000000075,254943.441,254958.19999999925,254960.111,256560.452,,11,reforming
screen,html.Screen,0_4_1_0_1_12,2021-11-04T12:07:56.513Z,,,,,,,,,,,,,,,,51,,,,,,,,,,,,,,732.4480000003823,,response,,,13,C,,,,,Space,keypress(Space),,,,instrumental,-------- -------- --- --- ---- --- --- ------ -- --------<br>---- --------- the ------- ------------ ---------- ---------<br>--- ---------- ------- ---------- ------- -- -------- ----<br>---- --- ------ ----- ------ -- ---- --- ----- -- - -------<br>-------- -- --- --- -- ----- ----------- ----- -----------<br>---- --- ---------- --- ---- --- -- ----------,257293.59999999963,257292.90000000037,256543.782,256558.59999999963,256560.452,257310.722,,12,the
screen,html.Screen,0_4_1_0_1_13,2021-11-04T12:07:57.849Z,,,,,,,,,,,,,,,,51,,,,,,,,,,,,,,1318.0780000007362,,response,,,13,C,,,,,Space,keypress(Space),,,,instrumental,-------- -------- --- --- ---- --- --- ------ -- --------<br>---- --------- --- federal ------------ ---------- ---------<br>--- ---------- ------- ---------- ------- -- -------- ----<br>---- --- ------ ----- ------ -- ---- --- ----- -- - -------<br>-------- -- --- --- -- ----- ----------- ----- -----------<br>---- --- ---------- --- ---- --- -- ----------,258629.69999999925,258628.80000000075,257294.051,257293.80000000075,257310.722,258644.29,,13,federal
screen,html.Screen,0_4_1_0_1_14,2021-11-04T12:07:58.785Z,,,,,,,,,,,,,,,,51,,,,,,,,,,,,,,920.5100000007369,,response,,,13,C,,,,,Space,keypress(Space),,,,instrumental,-------- -------- --- --- ---- --- --- ------ -- --------<br>---- --------- --- ------- government's ---------- ---------<br>--- ---------- ------- ---------- ------- -- -------- ----<br>---- --- ------ ----- ------ -- ---- --- ----- -- - -------<br>-------- -- --- --- -- ----- ----------- ----- -----------<br>---- --- ---------- --- ---- --- -- ----------,259565.59999999963,259564.80000000075,258627.62,258630,258644.29,259578.04,,14,government's
screen,html.Screen,0_4_1_0_1_15,2021-11-04T12:08:00.377Z,,,,,,,,,,,,,,,,51,,,,,,,,,,,,,,1578.5599999996193,,response,,,13,C,,,,,Space,keypress(Space),,,,instrumental,-------- -------- --- --- ---- --- --- ------ -- --------<br>---- --------- --- ------- ------------ regulatory ---------<br>--- ---------- ------- ---------- ------- -- -------- ----<br>---- --- ------ ----- ------ -- ---- --- ----- -- - -------<br>-------- -- --- --- -- ----- ----------- ----- -----------<br>---- --- ---------- --- ---- --- -- ----------,261157.5,261156.59999999963,259561.368,259566,259578.04,261161.451,,15,regulatory
screen,html.Screen,0_4_1_0_1_16,2021-11-04T12:08:02.345Z,,,,,,,,,,,,,,,,51,,,,,,,,,,,,,,1963.048999999999,,response,,,13,C,,,,,Space,keypress(Space),,,,instrumental,-------- -------- --- --- ---- --- --- ------ -- --------<br>---- --------- --- ------- ------------ ---------- apparatus<br>--- ---------- ------- ---------- ------- -- -------- ----<br>---- --- ------ ----- ------ -- ---- --- ----- -- - -------<br>-------- -- --- --- -- ----- ----------- ----- -----------<br>---- --- ---------- --- ---- --- -- ----------,263125.5999999996,263124.5,261144.782,261157.80000000075,261161.451,263128.873,,16,apparatus
screen,html.Screen,0_4_1_0_1_17,2021-11-04T12:08:03.385Z,,,,,,,,,,,,,,,,51,,,,,,,,,,,,,,1035.6269999999786,,response,,,13,C,,,,,Space,keypress(Space),,,,instrumental,-------- -------- --- --- ---- --- --- ------ -- --------<br>---- --------- --- ------- ------------ ---------- ---------<br>may ---------- ------- ---------- ------- -- -------- ----<br>---- --- ------ ----- ------ -- ---- --- ----- -- - -------<br>-------- -- --- --- -- ----- ----------- ----- -----------<br>---- --- ---------- --- ---- --- -- ----------,264165.30000000075,264164.5,263112.202,263125.9000000004,263128.873,264178.953,,17,may
screen,html.Screen,0_4_1_0_1_18,2021-11-04T12:08:05.017Z,,,,,,,,,,,,,,,,51,,,,,,,,,,,,,,1617.3470000007655,,response,,,13,C,,,,,Space,keypress(Space),,,,instrumental,-------- -------- --- --- ---- --- --- ------ -- --------<br>---- --------- --- ------- ------------ ---------- ---------<br>--- profoundly ------- ---------- ------- -- -------- ----<br>---- --- ------ ----- ------ -- ---- --- ----- -- - -------<br>-------- -- --- --- -- ----- ----------- ----- -----------<br>---- --- ---------- --- ---- --- -- ----------,265797.4000000004,265796.30000000075,264162.283,264165.69999999925,264178.953,265812.746,,18,profoundly
screen,html.Screen,0_4_1_0_1_19,2021-11-04T12:08:05.801Z,,,,,,,,,,,,,,,,51,,,,,,,,,,,,,,767.9539999992703,,response,,,13,C,,,,,Space,keypress(Space),,,,instrumental,-------- -------- --- --- ---- --- --- ------ -- --------<br>---- --------- --- ------- ------------ ---------- ---------<br>--- ---------- improve ---------- ------- -- -------- ----<br>---- --- ------ ----- ------ -- ---- --- ----- -- - -------<br>-------- -- --- --- -- ----- ----------- ----- -----------<br>---- --- ---------- --- ---- --- -- ----------,266581.5999999996,266580.69999999925,265796.076,265797.5999999996,265812.746,266596.412,,19,improve
screen,html.Screen,0_4_1_0_1_20,2021-11-04T12:08:07.048Z,,,,,,,,,,,,,,,,51,,,,,,,,,,,,,,1231.7879999992438,,response,,,13,C,,,,,Space,keypress(Space),,,,instrumental,-------- -------- --- --- ---- --- --- ------ -- --------<br>---- --------- --- ------- ------------ ---------- ---------<br>--- ---------- ------- companies' ------- -- -------- ----<br>---- --- ------ ----- ------ -- ---- --- ----- -- - -------<br>-------- -- --- --- -- ----- ----------- ----- -----------<br>---- --- ---------- --- ---- --- -- ----------,267829.0999999996,267828.19999999925,266579.741,266581.9000000004,266596.412,267846.581,,20,companies'
screen,html.Screen,0_4_1_0_1_21,2021-11-04T12:08:07.832Z,,,,,,,,,,,,,,,,51,,,,,,,,,,,,,,765.5189999996219,,response,,,13,C,,,,,Space,keypress(Space),,,,instrumental,-------- -------- --- --- ---- --- --- ------ -- --------<br>---- --------- --- ------- ------------ ---------- ---------<br>--- ---------- ------- ---------- ability -- -------- ----<br>---- --- ------ ----- ------ -- ---- --- ----- -- - -------<br>-------- -- --- --- -- ----- ----------- ----- -----------<br>---- --- ---------- --- ---- --- -- ----------,268612.9000000004,268612.0999999996,267829.911,267829.4000000004,267846.581,268630.334,,21,ability
screen,html.Screen,0_4_1_0_1_22,2021-11-04T12:08:08.568Z,,,,,,,,,,,,,,,,51,,,,,,,,,,,,,,717.8659999992815,,response,,,13,C,,,,,Space,keypress(Space),,,,instrumental,-------- -------- --- --- ---- --- --- ------ -- --------<br>---- --------- --- ------- ------------ ---------- ---------<br>--- ---------- ------- ---------- ------- to -------- ----<br>---- --- ------ ----- ------ -- ---- --- ----- -- - -------<br>-------- -- --- --- -- ----- ----------- ----- -----------<br>---- --- ---------- --- ---- --- -- ----------,269349,269348.19999999925,268613.663,268613.19999999925,268630.334,269363.731,,22,to
screen,html.Screen,0_4_1_0_1_23,2021-11-04T12:08:11.504Z,,,,,,,,,,,,,,,,51,,,,,,,,,,,,,,2920.268999999971,,response,,,13,C,,,,,Space,keypress(Space),,,,instrumental,-------- -------- --- --- ---- --- --- ------ -- --------<br>---- --------- --- ------- ------------ ---------- ---------<br>--- ---------- ------- ---------- ------- -- survive. ----<br>---- --- ------ ----- ------ -- ---- --- ----- -- - -------<br>-------- -- --- --- -- ----- ----------- ----- -----------<br>---- --- ---------- --- ---- --- -- ----------,272284.9000000004,272284,269347.061,269349.19999999925,269363.731,272297.661,,23,survive.
screen,html.Screen,0_4_1_0_1_24,2021-11-04T12:08:12.280Z,,,,,,,,,,,,,,,,51,,,,,,,,,,,,,,762.2390000003506,,response,,,13,C,,,,,Space,keypress(Space),,,,instrumental,-------- -------- --- --- ---- --- --- ------ -- --------<br>---- --------- --- ------- ------------ ---------- ---------<br>--- ---------- ------- ---------- ------- -- -------- This<br>---- --- ------ ----- ------ -- ---- --- ----- -- - -------<br>-------- -- --- --- -- ----- ----------- ----- -----------<br>---- --- ---------- --- ---- --- -- ----------,273060.80000000075,273059.9000000004,272280.991,272285.19999999925,272297.661,273064.394,,24,This
screen,html.Screen,0_4_1_0_1_25,2021-11-04T12:08:13.080Z,,,,,,,,,,,,,,,,51,,,,,,,,,,,,,,795.4060000007739,,response,,,13,C,,,,,Space,keypress(Space),,,,instrumental,-------- -------- --- --- ---- --- --- ------ -- --------<br>---- --------- --- ------- ------------ ---------- ---------<br>--- ---------- ------- ---------- ------- -- -------- ----<br>week --- ------ ----- ------ -- ---- --- ----- -- - -------<br>-------- -- --- --- -- ----- ----------- ----- -----------<br>---- --- ---------- --- ---- --- -- ----------,273860.5999999996,273859.80000000075,273047.725,273061.0999999996,273064.394,273864.794,,25,week
screen,html.Screen,0_4_1_0_1_26,2021-11-04T12:08:13.720Z,,,,,,,,,,,,,,,,51,,,,,,,,,,,,,,635.0060000007506,,response,,,13,C,,,,,Space,keypress(Space),,,,instrumental,-------- -------- --- --- ---- --- --- ------ -- --------<br>---- --------- --- ------- ------------ ---------- ---------<br>--- ---------- ------- ---------- ------- -- -------- ----<br>---- the ------ ----- ------ -- ---- --- ----- -- - -------<br>-------- -- --- --- -- ----- ----------- ----- -----------<br>---- --- ---------- --- ---- --- -- ----------,274500.80000000075,274499.80000000075,273848.124,273861,273864.794,274515.162,,26,the
screen,html.Screen,0_4_1_0_1_27,2021-11-04T12:08:14.472Z,,,,,,,,,,,,,,,,51,,,,,,,,,,,,,,736.4379999996163,,response,,,13,C,,,,,Space,keypress(Space),,,,instrumental,-------- -------- --- --- ---- --- --- ------ -- --------<br>---- --------- --- ------- ------------ ---------- ---------<br>--- ---------- ------- ---------- ------- -- -------- ----<br>---- --- Senate ----- ------ -- ---- --- ----- -- - -------<br>-------- -- --- --- -- ----- ----------- ----- -----------<br>---- --- ---------- --- ---- --- -- ----------,275252.5,275251.5999999996,274498.49,274501.0999999996,274515.162,275265.182,,27,Senate
screen,html.Screen,0_4_1_0_1_28,2021-11-04T12:08:15.200Z,,,,,,,,,,,,,,,,51,,,,,,,,,,,,,,714.5179999992833,,response,,,13,C,,,,,Space,keypress(Space),,,,instrumental,-------- -------- --- --- ---- --- --- ------ -- --------<br>---- --------- --- ------- ------------ ---------- ---------<br>--- ---------- ------- ---------- ------- -- -------- ----<br>---- --- ------ seems ------ -- ---- --- ----- -- - -------<br>-------- -- --- --- -- ----- ----------- ----- -----------<br>---- --- ---------- --- ---- --- -- ----------,275980.5999999996,275979.69999999925,275248.512,275252.80000000075,275265.182,275981.926,,28,seems
screen,html.Screen,0_4_1_0_1_29,2021-11-04T12:08:16.008Z,,,,,,,,,,,,,,,,51,,,,,,,,,,,,,,806.0740000000224,,response,,,13,C,,,,,Space,keypress(Space),,,,instrumental,-------- -------- --- --- ---- --- --- ------ -- --------<br>---- --------- --- ------- ------------ ---------- ---------<br>--- ---------- ------- ---------- ------- -- -------- ----<br>---- --- ------ ----- poised -- ---- --- ----- -- - -------<br>-------- -- --- --- -- ----- ----------- ----- -----------<br>---- --- ---------- --- ---- --- -- ----------,276788.9000000004,276788,275965.257,275980.9000000004,275981.926,276798.996,,29,poised
screen,html.Screen,0_4_1_0_1_30,2021-11-04T12:08:16.608Z,,,,,,,,,,,,,,,,51,,,,,,,,,,,,,,588.6039999996428,,response,,,13,C,,,,,Space,keypress(Space),,,,instrumental,-------- -------- --- --- ---- --- --- ------ -- --------<br>---- --------- --- ------- ------------ ---------- ---------<br>--- ---------- ------- ---------- ------- -- -------- ----<br>---- --- ------ ----- ------ to ---- --- ----- -- - -------<br>-------- -- --- --- -- ----- ----------- ----- -----------<br>---- --- ---------- --- ---- --- -- ----------,277388.4000000004,277387.5999999996,276782.325,276789.19999999925,276798.996,277398.907,,30,to
screen,html.Screen,0_4_1_0_1_31,2021-11-04T12:08:17.360Z,,,,,,,,,,,,,,,,51,,,,,,,,,,,,,,740.5929999999935,,response,,,13,C,,,,,Space,keypress(Space),,,,instrumental,-------- -------- --- --- ---- --- --- ------ -- --------<br>---- --------- --- ------- ------------ ---------- ---------<br>--- ---------- ------- ---------- ------- -- -------- ----<br>---- --- ------ ----- ------ -- join --- ----- -- - -------<br>-------- -- --- --- -- ----- ----------- ----- -----------<br>---- --- ---------- --- ---- --- -- ----------,278140.4000000004,278139.5,277382.238,277388.80000000075,277398.907,278149.293,,31,join
screen,html.Screen,0_4_1_0_1_32,2021-11-04T12:08:18.016Z,,,,,,,,,,,,,,,,51,,,,,,,,,,,,,,646.3069999996223,,response,,,13,C,,,,,Space,keypress(Space),,,,instrumental,-------- -------- --- --- ---- --- --- ------ -- --------<br>---- --------- --- ------- ------------ ---------- ---------<br>--- ---------- ------- ---------- ------- -- -------- ----<br>---- --- ------ ----- ------ -- ---- the ----- -- - -------<br>-------- -- --- --- -- ----- ----------- ----- -----------<br>---- --- ---------- --- ---- --- -- ----------,278796.4000000004,278795.5999999996,278132.622,278140.5999999996,278149.293,278799.458,,32,the
screen,html.Screen,0_4_1_0_1_33,2021-11-04T12:08:18.800Z,,,,,,,,,,,,,,,,51,,,,,,,,,,,,,,780.0420000000158,,response,,,13,C,,,,,Space,keypress(Space),,,,instrumental,-------- -------- --- --- ---- --- --- ------ -- --------<br>---- --------- --- ------- ------------ ---------- ---------<br>--- ---------- ------- ---------- ------- -- -------- ----<br>---- --- ------ ----- ------ -- ---- --- House -- - -------<br>-------- -- --- --- -- ----- ----------- ----- -----------<br>---- --- ---------- --- ---- --- -- ----------,279580.4000000004,279579.5,278782.787,278796.5,278799.458,279582.905,,33,House
screen,html.Screen,0_4_1_0_1_34,2021-11-04T12:08:19.456Z,,,,,,,,,,,,,,,,51,,,,,,,,,,,,,,653.0949999999721,,response,,,13,C,,,,,Space,keypress(Space),,,,instrumental,-------- -------- --- --- ---- --- --- ------ -- --------<br>---- --------- --- ------- ------------ ---------- ---------<br>--- ---------- ------- ---------- ------- -- -------- ----<br>---- --- ------ ----- ------ -- ---- --- ----- in - -------<br>-------- -- --- --- -- ----- ----------- ----- -----------<br>---- --- ---------- --- ---- --- -- ----------,280236.80000000075,280236,279566.235,279580.5999999996,279582.905,280249.777,,34,in
screen,html.Screen,0_4_1_0_1_35,2021-11-04T12:08:19.991Z,,,,,,,,,,,,,,,,51,,,,,,,,,,,,,,521.5230000007432,,response,,,13,C,,,,,Space,keypress(Space),,,,instrumental,-------- -------- --- --- ---- --- --- ------ -- --------<br>---- --------- --- ------- ------------ ---------- ---------<br>--- ---------- ------- ---------- ------- -- -------- ----<br>---- --- ------ ----- ------ -- ---- --- ----- -- a -------<br>-------- -- --- --- -- ----- ----------- ----- -----------<br>---- --- ---------- --- ---- --- -- ----------,280772.0999999996,280771.30000000075,280233.107,280237.0999999996,280249.777,280783.245,,35,a
screen,html.Screen,0_4_1_0_1_36,2021-11-04T12:08:21.055Z,,,,,,,,,,,,,,,,51,,,,,,,,,,,,,,1052.1550000003772,,response,,,13,C,,,,,Space,keypress(Space),,,,instrumental,-------- -------- --- --- ---- --- --- ------ -- --------<br>---- --------- --- ------- ------------ ---------- ---------<br>--- ---------- ------- ---------- ------- -- -------- ----<br>---- --- ------ ----- ------ -- ---- --- ----- -- - massive<br>-------- -- --- --- -- ----- ----------- ----- -----------<br>---- --- ---------- --- ---- --- -- ----------,281836.19999999925,281835.4000000004,280766.575,280772.30000000075,280783.245,281850.153,,36,massive
screen,html.Screen,0_4_1_0_1_37,2021-11-04T12:08:22.215Z,,,,,,,,,,,,,,,,51,,,,,,,,,,,,,,1145.147000000754,,response,,,13,C,,,,,Space,keypress(Space),,,,instrumental,-------- -------- --- --- ---- --- --- ------ -- --------<br>---- --------- --- ------- ------------ ---------- ---------<br>--- ---------- ------- ---------- ------- -- -------- ----<br>---- --- ------ ----- ------ -- ---- --- ----- -- - -------<br>overhaul -- --- --- -- ----- ----------- ----- -----------<br>---- --- ---------- --- ---- --- -- ----------,282996,282995.30000000075,281833.483,281836.4000000004,281850.153,283000.228,,37,overhaul
screen,html.Screen,0_4_1_0_1_38,2021-11-04T12:08:22.824Z,,,,,,,,,,,,,,,,51,,,,,,,,,,,,,,603.4719999992521,,response,,,13,C,,,,,Space,keypress(Space),,,,instrumental,-------- -------- --- --- ---- --- --- ------ -- --------<br>---- --------- --- ------- ------------ ---------- ---------<br>--- ---------- ------- ---------- ------- -- -------- ----<br>---- --- ------ ----- ------ -- ---- --- ----- -- - -------<br>-------- of --- --- -- ----- ----------- ----- -----------<br>---- --- ---------- --- ---- --- -- ----------,283604.5,283603.69999999925,282983.559,282996.19999999925,283000.228,283617.353,,38,of
screen,html.Screen,0_4_1_0_1_39,2021-11-04T12:08:23.335Z,,,,,,,,,,,,,,,,51,,,,,,,,,,,,,,497.7469999996247,,response,,,13,C,,,,,Space,keypress(Space),,,,instrumental,-------- -------- --- --- ---- --- --- ------ -- --------<br>---- --------- --- ------- ------------ ---------- ---------<br>--- ---------- ------- ---------- ------- -- -------- ----<br>---- --- ------ ----- ------ -- ---- --- ----- -- - -------<br>-------- -- the --- -- ----- ----------- ----- -----------<br>---- --- ---------- --- ---- --- -- ----------,284115.9000000004,284115.0999999996,283600.682,283604.69999999925,283617.353,284117.465,,39,the
screen,html.Screen,0_4_1_0_1_40,2021-11-04T12:08:23.951Z,,,,,,,,,,,,,,,,51,,,,,,,,,,,,,,613.5349999999744,,response,,,13,C,,,,,Space,keypress(Space),,,,instrumental,-------- -------- --- --- ---- --- --- ------ -- --------<br>---- --------- --- ------- ------------ ---------- ---------<br>--- ---------- ------- ---------- ------- -- -------- ----<br>---- --- ------ ----- ------ -- ---- --- ----- -- - -------<br>-------- -- --- way -- ----- ----------- ----- -----------<br>---- --- ---------- --- ---- --- -- ----------,284732,284731,284100.794,284116.0999999996,284117.465,284734.153,,40,way
screen,html.Screen,0_4_1_0_1_41,2021-11-04T12:08:24.487Z,,,,,,,,,,,,,,,,51,,,,,,,,,,,,,,532.9469999996363,,response,,,13,C,,,,,Space,keypress(Space),,,,instrumental,-------- -------- --- --- ---- --- --- ------ -- --------<br>---- --------- --- ------- ------------ ---------- ---------<br>--- ---------- ------- ---------- ------- -- -------- ----<br>---- --- ------ ----- ------ -- ---- --- ----- -- - -------<br>-------- -- --- --- in ----- ----------- ----- -----------<br>---- --- ---------- --- ---- --- -- ----------,285267.9000000004,285267.0999999996,284717.484,284732.30000000075,284734.153,285284.411,,41,in
screen,html.Screen,0_4_1_0_1_42,2021-11-04T12:08:25.023Z,,,,,,,,,,,,,,,,51,,,,,,,,,,,,,,518.6889999996056,,response,,,13,C,,,,,Space,keypress(Space),,,,instrumental,-------- -------- --- --- ---- --- --- ------ -- --------<br>---- --------- --- ------- ------------ ---------- ---------<br>--- ---------- ------- ---------- ------- -- -------- ----<br>---- --- ------ ----- ------ -- ---- --- ----- -- - -------<br>-------- -- --- --- -- which ----------- ----- -----------<br>---- --- ---------- --- ---- --- -- ----------,285804.0999999996,285803.0999999996,285267.74,285268.0999999996,285284.411,285817.833,,42,which
screen,html.Screen,0_4_1_0_1_43,2021-11-04T12:08:25.703Z,,,,,,,,,,,,,,,,51,,,,,,,,,,,,,,665.1670000000158,,response,,,13,C,,,,,Space,keypress(Space),,,,instrumental,-------- -------- --- --- ---- --- --- ------ -- --------<br>---- --------- --- ------- ------------ ---------- ---------<br>--- ---------- ------- ---------- ------- -- -------- ----<br>---- --- ------ ----- ------ -- ---- --- ----- -- - -------<br>-------- -- --- --- -- ----- bureaucrats ----- -----------<br>---- --- ---------- --- ---- --- -- ----------,286483.80000000075,286483,285801.163,285804.19999999925,285817.833,286484.662,,43,bureaucrats
screen,html.Screen,0_4_1_0_1_44,2021-11-04T12:08:26.368Z,,,,,,,,,,,,,,,,51,,,,,,,,,,,,,,662.6380000007339,,response,,,13,C,,,,,Space,keypress(Space),,,,instrumental,-------- -------- --- --- ---- --- --- ------ -- --------<br>---- --------- --- ------- ------------ ---------- ---------<br>--- ---------- ------- ---------- ------- -- -------- ----<br>---- --- ------ ----- ------ -- ---- --- ----- -- - -------<br>-------- -- --- --- -- ----- ----------- enact -----------<br>---- --- ---------- --- ---- --- -- ----------,287148.0999999996,287147.30000000075,286467.992,286484.0999999996,286484.662,287151.478,,44,enact
screen,html.Screen,0_4_1_0_1_45,2021-11-04T12:08:27.183Z,,,,,,,,,,,,,,,,51,,,,,,,,,,,,,,811.7219999992521,,response,,,13,C,,,,,Space,keypress(Space),,,,instrumental,-------- -------- --- --- ---- --- --- ------ -- --------<br>---- --------- --- ------- ------------ ---------- ---------<br>--- ---------- ------- ---------- ------- -- -------- ----<br>---- --- ------ ----- ------ -- ---- --- ----- -- - -------<br>-------- -- --- --- -- ----- ----------- ----- regulations<br>---- --- ---------- --- ---- --- -- ----------,287963.9000000004,287963.19999999925,287134.808,287148.5,287151.478,287968.35,,45,regulations
screen,html.Screen,0_4_1_0_1_46,2021-11-04T12:08:27.815Z,,,,,,,,,,,,,,,,51,,,,,,,,,,,,,,626.5500000003958,,response,,,13,C,,,,,Space,keypress(Space),,,,instrumental,-------- -------- --- --- ---- --- --- ------ -- --------<br>---- --------- --- ------- ------------ ---------- ---------<br>--- ---------- ------- ---------- ------- -- -------- ----<br>---- --- ------ ----- ------ -- ---- --- ----- -- - -------<br>-------- -- --- --- -- ----- ----------- ----- -----------<br>that --- ---------- --- ---- --- -- ----------,288595.69999999925,288594.9000000004,287951.68,287964.30000000075,287968.35,288601.85,,46,that
screen,html.Screen,0_4_1_0_1_47,2021-11-04T12:08:28.367Z,,,,,,,,,,,,,,,,51,,,,,,,,,,,,,,544.9500000007683,,response,,,13,C,,,,,Space,keypress(Space),,,,instrumental,-------- -------- --- --- ---- --- --- ------ -- --------<br>---- --------- --- ------- ------------ ---------- ---------<br>--- ---------- ------- ---------- ------- -- -------- ----<br>---- --- ------ ----- ------ -- ---- --- ----- -- - -------<br>-------- -- --- --- -- ----- ----------- ----- -----------<br>---- are ---------- --- ---- --- -- ----------,289147.5999999996,289146.80000000075,288585.18,288595.9000000004,288601.85,289151.96,,47,are
screen,html.Screen,0_4_1_0_1_48,2021-11-04T12:08:29.527Z,,,,,,,,,,,,,,,,51,,,,,,,,,,,,,,1154.840000000724,,response,,,13,C,,,,,Space,keypress(Space),,,,instrumental,-------- -------- --- --- ---- --- --- ------ -- --------<br>---- --------- --- ------- ------------ ---------- ---------<br>--- ---------- ------- ---------- ------- -- -------- ----<br>---- --- ------ ----- ------ -- ---- --- ----- -- - -------<br>-------- -- --- --- -- ----- ----------- ----- -----------<br>---- --- strangling --- ---- --- -- ----------,290307.5999999996,290306.80000000075,289135.29,289147.9000000004,289151.96,290319.001,,48,strangling
screen,html.Screen,0_4_1_0_1_49,2021-11-04T12:08:30.063Z,,,,,,,,,,,,,,,,51,,,,,,,,,,,,,,523.7990000007558,,response,,,13,C,,,,,Space,keypress(Space),,,,instrumental,-------- -------- --- --- ---- --- --- ------ -- --------<br>---- --------- --- ------- ------------ ---------- ---------<br>--- ---------- ------- ---------- ------- -- -------- ----<br>---- --- ------ ----- ------ -- ---- --- ----- -- - -------<br>-------- -- --- --- -- ----- ----------- ----- -----------<br>---- --- ---------- the ---- --- -- ----------,290843.5999999996,290842.80000000075,290302.33,290307.80000000075,290319.001,290852.416,,49,the
