sender,sender_type,sender_id,timestamp,meta,,Blues,Classical,Country,Dance,Electronic,Folk,Gospel,Hip-Hop,Jazz,Latin,Musical/Film,New-age,Pop,Provo_ID,R&B,Rap,Reggae,Religious,Rock,Soul,Swing,Traditional,age,artist_name,correct,correctResponse,distraction,duration,education,ended_on,familiarity,gender,item,list,music_frequency,offensiveness,pleasantness,preference,response,response_action,snippet_file,song_name,song_rating,sound,text,time_commit,time_end,time_render,time_run,time_show,time_switch,url,word,word_ID
Instructions,html.Page,0_0,2021-11-25T16:34:09.745Z,"{""labjs_version"":""20.2.3"",""labjs_build"":{""flavor"":""production"",""commit"":""7ea907d66ca8aeef8054924ca5d82ffbe11e34e5""},""location"":""https://run.pavlovia.org/mvasilev/lab_music_e/"",""userAgent"":""Mozilla/5.0 (Windows NT 6.1; Win64; x64) AppleWebKit/537.36 (KHTML, like Gecko) Chrome/96.0.4664.45 Safari/537.36"",""platform"":""Win32"",""language"":""en-US"",""locale"":""en-US"",""timeZone"":""Europe/London"",""timezoneOffset"":0,""screen_width"":1920,""screen_height"":1080,""scroll_width"":1920,""scroll_height"":959,""window_innerWidth"":1920,""window_innerHeight"":1007,""devicePixelRatio"":1}",,,,,,,,,,,,,,,,,,,,,,,,,,,,,7314.606,,form submission,,,,,,,,,,,,,,,,23096.299999952316,23095.5,15764.229,15774.899999856949,15780.894,23098.661,{},,
Headphones,html.Page,0_1,2021-11-25T16:34:15.976Z,,,,,,,,,,,,,,,,,,,,,,,,,,,,,,6228.839,,form submission,,,,,,,,,,,,,,,,29327.89999985695,29327.5,23081.967,23096.799999952316,23098.661,29330.606,,,
Holding screen,html.Screen,0_2_0_0,2021-11-25T16:34:25.965Z,,,,,,,,,,,,,,,,,,,,,,,,,,,,,,9999.269,,timeout,,,,,,,,,,,,,,,,39317.09999990463,39313.21,29313.936,29328.299999952316,29330.606,39329.875,,,
screen,html.Screen,0_2_0_1_0,2021-11-25T16:34:26.765Z,,,,,,,,,,,,,,,,53,,,,,,,,,,,,,,785.9249999523163,,response,,,99,,,,,,Space,keypress(Space),,,,,When -- ----- -- ------ - ------- --- ----------<br>------------- ------ ------ ---- ---- ------- ----- -- ----<br>-------- ------- -- ---------- --- - --- ----- ----- ----<br>---- --- --- ----- --- ---- ---- ------- ----- ---- -------<br>--- --- -- ----- -- --- ---- -- --- ---- -- ------ ------<br>--- ----- -- ----,40116.89999985695,40115.799999952316,39313.21,39317.299999952316,39329.875,40129.835,,0,When
screen,html.Screen,0_2_0_1_1,2021-11-25T16:34:26.964Z,,,,,,,,,,,,,,,,53,,,,,,,,,,,,,,185.66500000000087,,response,,,99,,,,,,Space,keypress(Space),,,,,---- it ----- -- ------ - ------- --- ----------<br>------------- ------ ------ ---- ---- ------- ----- -- ----<br>-------- ------- -- ---------- --- - --- ----- ----- ----<br>---- --- --- ----- --- ---- ---- ------- ----- ---- -------<br>--- --- -- ----- -- --- ---- -- --- ---- -- ------ ------<br>--- ----- -- ----,40316.09999990463,40315.5,40113.17,40117.200000047684,40129.835,40329.896,,1,it
screen,html.Screen,0_2_0_1_2,2021-11-25T16:34:27.484Z,,,,,,,,,,,,,,,,53,,,,,,,,,,,,,,505.60399999999936,,response,,,99,,,,,,Space,keypress(Space),,,,,---- -- comes -- ------ - ------- --- ----------<br>------------- ------ ------ ---- ---- ------- ----- -- ----<br>-------- ------- -- ---------- --- - --- ----- ----- ----<br>---- --- --- ----- --- ---- ---- ------- ----- ---- -------<br>--- --- -- ----- -- --- ---- -- --- ---- -- ------ ------<br>--- ----- -- ----,40836.09999990463,40835.5,40313.23,40316.299999952316,40329.896,40846.445,,2,comes
screen,html.Screen,0_2_0_1_3,2021-11-25T16:34:27.789Z,,,,,,,,,,,,,,,,53,,,,,,,,,,,,,,293.0550000000003,,response,,,99,,,,,,Space,keypress(Space),,,,,---- -- ----- to ------ - ------- --- ----------<br>------------- ------ ------ ---- ---- ------- ----- -- ----<br>-------- ------- -- ---------- --- - --- ----- ----- ----<br>---- --- --- ----- --- ---- ---- ------- ----- ---- -------<br>--- --- -- ----- -- --- ---- -- --- ---- -- ------ ------<br>--- ----- -- ----,41140.200000047684,41139.5,40829.781,40836.39999985695,40846.445,41146.466,,3,to
screen,html.Screen,0_2_0_1_4,2021-11-25T16:34:28.149Z,,,,,,,,,,,,,,,,53,,,,,,,,,,,,,,353.03399999999965,,response,,,99,,,,,,Space,keypress(Space),,,,,---- -- ----- -- having - ------- --- ----------<br>------------- ------ ------ ---- ---- ------- ----- -- ----<br>-------- ------- -- ---------- --- - --- ----- ----- ----<br>---- --- --- ----- --- ---- ---- ------- ----- ---- -------<br>--- --- -- ----- -- --- ---- -- --- ---- -- ------ ------<br>--- ----- -- ----,41500.299999952316,41499.5,41129.801,41140.5,41146.466,41513.053,,4,having
screen,html.Screen,0_2_0_1_5,2021-11-25T16:34:28.444Z,,,,,,,,,,,,,,,,53,,,,,,,,,,,,,,282.34699985694897,,response,,,99,,,,,,Space,keypress(Space),,,,,---- -- ----- -- ------ a ------- --- ----------<br>------------- ------ ------ ---- ---- ------- ----- -- ----<br>-------- ------- -- ---------- --- - --- ----- ----- ----<br>---- --- --- ----- --- ---- ---- ------- ----- ---- -------<br>--- --- -- ----- -- --- ---- -- --- ---- -- ------ ------<br>--- ----- -- ----,41796.09999990463,41795.39999985695,41496.389,41500.5,41513.053,41813.107,,5,a
screen,html.Screen,0_2_0_1_6,2021-11-25T16:34:28.804Z,,,,,,,,,,,,,,,,53,,,,,,,,,,,,,,342.3929999999964,,response,,,99,,,,,,Space,keypress(Space),,,,,---- -- ----- -- ------ - lasting --- ----------<br>------------- ------ ------ ---- ---- ------- ----- -- ----<br>-------- ------- -- ---------- --- - --- ----- ----- ----<br>---- --- --- ----- --- ---- ---- ------- ----- ---- -------<br>--- --- -- ----- -- --- ---- -- --- ---- -- ------ ------<br>--- ----- -- ----,42156.200000047684,42155.5,41796.441,41796.39999985695,41813.107,42163.094,,6,lasting
screen,html.Screen,0_2_0_1_7,2021-11-25T16:34:29.108Z,,,,,,,,,,,,,,,,53,,,,,,,,,,,,,,296.30599985695153,,response,,,99,,,,,,Space,keypress(Space),,,,,---- -- ----- -- ------ - ------- and ----------<br>------------- ------ ------ ---- ---- ------- ----- -- ----<br>-------- ------- -- ---------- --- - --- ----- ----- ----<br>---- --- --- ----- --- ---- ---- ------- ----- ---- -------<br>--- --- -- ----- -- --- ---- -- --- ---- -- ------ ------<br>--- ----- -- ----,42460.09999990463,42459.39999985695,42146.428,42156.39999985695,42163.094,42463.045,,7,and
screen,html.Screen,0_2_0_1_8,2021-11-25T16:34:29.484Z,,,,,,,,,,,,,,,,53,,,,,,,,,,,,,,372.3549998569506,,response,,,99,,,,,,Space,keypress(Space),,,,,---- -- ----- -- ------ - ------- --- fulfilling<br>------------- ------ ------ ---- ---- ------- ----- -- ----<br>-------- ------- -- ---------- --- - --- ----- ----- ----<br>---- --- --- ----- --- ---- ---- ------- ----- ---- -------<br>--- --- -- ----- -- --- ---- -- --- ---- -- ------ ------<br>--- ----- -- ----,42836.200000047684,42835.39999985695,42446.38,42460.299999952316,42463.045,42846.361,,8,fulfilling
screen,html.Screen,0_2_0_1_9,2021-11-25T16:34:29.964Z,,,,,,,,,,,,,,,,53,,,,,,,,,,,,,,468.93899995231914,,response,,,99,,,,,,Space,keypress(Space),,,,,"---- -- ----- -- ------ - ------- --- ----------<br>relationship, ------ ------ ---- ---- ------- ----- -- ----<br>-------- ------- -- ---------- --- - --- ----- ----- ----<br>---- --- --- ----- --- ---- ---- ------- ----- ---- -------<br>--- --- -- ----- -- --- ---- -- --- ---- -- ------ ------<br>--- ----- -- ----",43315.799999952316,43315.299999952316,42829.696,42836.299999952316,42846.361,43329.653,,9,"relationship,"
screen,html.Screen,0_2_0_1_10,2021-11-25T16:34:30.252Z,,,,,,,,,,,,,,,,53,,,,,,,,,,,,,,273.64699995231786,,response,,,99,,,,,,Space,keypress(Space),,,,,---- -- ----- -- ------ - ------- --- ----------<br>------------- common ------ ---- ---- ------- ----- -- ----<br>-------- ------- -- ---------- --- - --- ----- ----- ----<br>---- --- --- ----- --- ---- ---- ------- ----- ---- -------<br>--- --- -- ----- -- --- ---- -- --- ---- -- ------ ------<br>--- ----- -- ----,43604,43603.299999952316,43312.988,43315.89999985695,43329.653,43613.019,,10,common
screen,html.Screen,0_2_0_1_11,2021-11-25T16:34:30.652Z,,,,,,,,,,,,,,,,53,,,,,,,,,,,,,,390.28099995231605,,response,,,99,,,,,,Space,keypress(Space),,,,,---- -- ----- -- ------ - ------- --- ----------<br>------------- ------ wisdom ---- ---- ------- ----- -- ----<br>-------- ------- -- ---------- --- - --- ----- ----- ----<br>---- --- --- ----- --- ---- ---- ------- ----- ---- -------<br>--- --- -- ----- -- --- ---- -- --- ---- -- ------ ------<br>--- ----- -- ----,44003.89999985695,44003.299999952316,43596.353,43604.200000047684,43613.019,44012.845,,11,wisdom
screen,html.Screen,0_2_0_1_12,2021-11-25T16:34:31.004Z,,,,,,,,,,,,,,,,53,,,,,,,,,,,,,,342.4549999523151,,response,,,99,,,,,,Space,keypress(Space),,,,,---- -- ----- -- ------ - ------- --- ----------<br>------------- ------ ------ says ---- ------- ----- -- ----<br>-------- ------- -- ---------- --- - --- ----- ----- ----<br>---- --- --- ----- --- ---- ---- ------- ----- ---- -------<br>--- --- -- ----- -- --- ---- -- --- ---- -- ------ ------<br>--- ----- -- ----,44355.89999985695,44355.299999952316,43996.182,44004.09999990463,44012.845,44362.982,,12,says
screen,html.Screen,0_2_0_1_13,2021-11-25T16:34:31.868Z,,,,,,,,,,,,,,,,53,,,,,,,,,,,,,,856.2180000476801,,response,,,99,,,,,,Space,keypress(Space),,,,,---- -- ----- -- ------ - ------- --- ----------<br>------------- ------ ------ ---- that ------- ----- -- ----<br>-------- ------- -- ---------- --- - --- ----- ----- ----<br>---- --- --- ----- --- ---- ---- ------- ----- ---- -------<br>--- --- -- ----- -- --- ---- -- --- ---- -- ------ ------<br>--- ----- -- ----,45219.89999985695,45219.200000047684,44346.316,44356,44362.982,45229.521,,13,that
screen,html.Screen,0_2_0_1_14,2021-11-25T16:34:32.396Z,,,,,,,,,,,,,,,,53,,,,,,,,,,,,,,517.7789999523156,,response,,,99,,,,,,Space,keypress(Space),,,,,---- -- ----- -- ------ - ------- --- ----------<br>------------- ------ ------ ---- ---- feeling ----- -- ----<br>-------- ------- -- ---------- --- - --- ----- ----- ----<br>---- --- --- ----- --- ---- ---- ------- ----- ---- -------<br>--- --- -- ----- -- --- ---- -- --- ---- -- ------ ------<br>--- ----- -- ----,45747.799999952316,45747.299999952316,45212.856,45220,45229.521,45762.844,,14,feeling
screen,html.Screen,0_2_0_1_15,2021-11-25T16:34:32.812Z,,,,,,,,,,,,,,,,53,,,,,,,,,,,,,,400.45599995231896,,response,,,99,,,,,,Space,keypress(Space),,,,,---- -- ----- -- ------ - ------- --- ----------<br>------------- ------ ------ ---- ---- ------- close -- ----<br>-------- ------- -- ---------- --- - --- ----- ----- ----<br>---- --- --- ----- --- ---- ---- ------- ----- ---- -------<br>--- --- -- ----- -- --- ---- -- --- ---- -- ------ ------<br>--- ----- -- ----,46163.89999985695,46163.299999952316,45746.179,45748,45762.844,46179.473,,15,close
screen,html.Screen,0_2_0_1_16,2021-11-25T16:34:33.204Z,,,,,,,,,,,,,,,,53,,,,,,,,,,,,,,375.7270000476856,,response,,,99,,,,,,Space,keypress(Space),,,,,---- -- ----- -- ------ - ------- --- ----------<br>------------- ------ ------ ---- ---- ------- ----- to ----<br>-------- ------- -- ---------- --- - --- ----- ----- ----<br>---- --- --- ----- --- ---- ---- ------- ----- ---- -------<br>--- --- -- ----- -- --- ---- -- --- ---- -- ------ ------<br>--- ----- -- ----,46555.799999952316,46555.200000047684,46162.808,46164,46179.473,46562.797,,16,to
screen,html.Screen,0_2_0_1_17,2021-11-25T16:34:33.532Z,,,,,,,,,,,,,,,,53,,,,,,,,,,,,,,320.40300004768505,,response,,,99,,,,,,Space,keypress(Space),,,,,---- -- ----- -- ------ - ------- --- ----------<br>------------- ------ ------ ---- ---- ------- ----- -- your<br>-------- ------- -- ---------- --- - --- ----- ----- ----<br>---- --- --- ----- --- ---- ---- ------- ----- ---- -------<br>--- --- -- ----- -- --- ---- -- --- ---- -- ------ ------<br>--- ----- -- ----,46883.89999985695,46883.200000047684,46546.132,46556,46562.797,46896.087,,17,your
screen,html.Screen,0_2_0_1_18,2021-11-25T16:34:33.876Z,,,,,,,,,,,,,,,,53,,,,,,,,,,,,,,331.1130000476842,,response,,,99,,,,,,Space,keypress(Space),,,,,---- -- ----- -- ------ - ------- --- ----------<br>------------- ------ ------ ---- ---- ------- ----- -- ----<br>romantic ------- -- ---------- --- - --- ----- ----- ----<br>---- --- --- ----- --- ---- ---- ------- ----- ---- -------<br>--- --- -- ----- -- --- ---- -- --- ---- -- ------ ------<br>--- ----- -- ----,47227.799999952316,47227.200000047684,46879.422,46884,46896.087,47229.45,,18,romantic
screen,html.Screen,0_2_0_1_19,2021-11-25T16:34:34.164Z,,,,,,,,,,,,,,,,53,,,,,,,,,,,,,,285.6499999046355,,response,,,99,,,,,,Space,keypress(Space),,,,,---- -- ----- -- ------ - ------- --- ----------<br>------------- ------ ------ ---- ---- ------- ----- -- ----<br>-------- partner -- ---------- --- - --- ----- ----- ----<br>---- --- --- ----- --- ---- ---- ------- ----- ---- -------<br>--- --- -- ----- -- --- ---- -- --- ---- -- ------ ------<br>--- ----- -- ----,47515.799999952316,47515.09999990463,47212.784,47228,47229.45,47529.465,,19,partner
screen,html.Screen,0_2_0_1_20,2021-11-25T16:34:34.508Z,,,,,,,,,,,,,,,,53,,,,,,,,,,,,,,329.63499990463606,,response,,,99,,,,,,Space,keypress(Space),,,,,---- -- ----- -- ------ - ------- --- ----------<br>------------- ------ ------ ---- ---- ------- ----- -- ----<br>-------- ------- is ---------- --- - --- ----- ----- ----<br>---- --- --- ----- --- ---- ---- ------- ----- ---- -------<br>--- --- -- ----- -- --- ---- -- --- ---- -- ------ ------<br>--- ----- -- ----,47859.700000047684,47859.09999990463,47512.799,47515.89999985695,47529.465,47862.783,,20,is
screen,html.Screen,0_2_0_1_21,2021-11-25T16:34:34.932Z,,,,,,,,,,,,,,,,53,,,,,,,,,,,,,,420.3169999046295,,response,,,99,,,,,,Space,keypress(Space),,,,,---- -- ----- -- ------ - ------- --- ----------<br>------------- ------ ------ ---- ---- ------- ----- -- ----<br>-------- ------- -- paramount. --- - --- ----- ----- ----<br>---- --- --- ----- --- ---- ---- ------- ----- ---- -------<br>--- --- -- ----- -- --- ---- -- --- ---- -- ------ ------<br>--- ----- -- ----,48283.59999990463,48283.09999990463,47846.117,47859.89999985695,47862.783,48295.947,,21,paramount.
screen,html.Screen,0_2_0_1_22,2021-11-25T16:34:35.788Z,,,,,,,,,,,,,,,,53,,,,,,,,,,,,,,843.0529999999999,,response,,,99,,,,,,Space,keypress(Space),,,,,---- -- ----- -- ------ - ------- --- ----------<br>------------- ------ ------ ---- ---- ------- ----- -- ----<br>-------- ------- -- ---------- But - --- ----- ----- ----<br>---- --- --- ----- --- ---- ---- ------- ----- ---- -------<br>--- --- -- ----- -- --- ---- -- --- ---- -- ------ ------<br>--- ----- -- ----,49139.59999990463,49139,48279.284,48284,48295.947,49145.94,,22,But
screen,html.Screen,0_2_0_1_23,2021-11-25T16:34:36.164Z,,,,,,,,,,,,,,,,53,,,,,,,,,,,,,,369.0599999999977,,response,,,99,,,,,,Space,keypress(Space),,,,,---- -- ----- -- ------ - ------- --- ----------<br>------------- ------ ------ ---- ---- ------- ----- -- ----<br>-------- ------- -- ---------- --- a --- ----- ----- ----<br>---- --- --- ----- --- ---- ---- ------- ----- ---- -------<br>--- --- -- ----- -- --- ---- -- --- ---- -- ------ ------<br>--- ----- -- ----,49515.5,49515,49129.275,49139.799999952316,49145.94,49529.354,,23,a
screen,html.Screen,0_2_0_1_24,2021-11-25T16:34:36.460Z,,,,,,,,,,,,,,,,53,,,,,,,,,,,,,,281.64600000000064,,response,,,99,,,,,,Space,keypress(Space),,,,,---- -- ----- -- ------ - ------- --- ----------<br>------------- ------ ------ ---- ---- ------- ----- -- ----<br>-------- ------- -- ---------- --- - new ----- ----- ----<br>---- --- --- ----- --- ---- ---- ------- ----- ---- -------<br>--- --- -- ----- -- --- ---- -- --- ---- -- ------ ------<br>--- ----- -- ----,49811.5,49811,49512.688,49515.700000047684,49529.354,49812.626,,24,new
screen,html.Screen,0_2_0_1_25,2021-11-25T16:34:36.764Z,,,,,,,,,,,,,,,,53,,,,,,,,,,,,,,302.2739998569523,,response,,,99,,,,,,Space,keypress(Space),,,,,---- -- ----- -- ------ - ------- --- ----------<br>------------- ------ ------ ---- ---- ------- ----- -- ----<br>-------- ------- -- ---------- --- - --- study ----- ----<br>---- --- --- ----- --- ---- ---- ------- ----- ---- -------<br>--- --- -- ----- -- --- ---- -- --- ---- -- ------ ------<br>--- ----- -- ----,50115.5,50114.89999985695,49795.961,49811.59999990463,49812.626,50129.217,,25,study
screen,html.Screen,0_2_0_1_26,2021-11-25T16:34:37.100Z,,,,,,,,,,,,,,,,53,,,,,,,,,,,,,,321.88299990463565,,response,,,99,,,,,,Space,keypress(Space),,,,,---- -- ----- -- ------ - ------- --- ----------<br>------------- ------ ------ ---- ---- ------- ----- -- ----<br>-------- ------- -- ---------- --- - --- ----- finds ----<br>---- --- --- ----- --- ---- ---- ------- ----- ---- -------<br>--- --- -- ----- -- --- ---- -- --- ---- -- ------ ------<br>--- ----- -- ----,50451.700000047684,50451.09999990463,50112.553,50115.700000047684,50129.217,50462.601,,26,finds
screen,html.Screen,0_2_0_1_27,2021-11-25T16:34:37.364Z,,,,,,,,,,,,,,,,53,,,,,,,,,,,,,,252.29899985694647,,response,,,99,,,,,,Space,keypress(Space),,,,,---- -- ----- -- ------ - ------- --- ----------<br>------------- ------ ------ ---- ---- ------- ----- -- ----<br>-------- ------- -- ---------- --- - --- ----- ----- that<br>---- --- --- ----- --- ---- ---- ------- ----- ---- -------<br>--- --- -- ----- -- --- ---- -- --- ---- -- ------ ------<br>--- ----- -- ----,50715.39999985695,50714.89999985695,50445.935,50451.89999985695,50462.601,50729.211,,27,that
screen,html.Screen,0_2_0_1_28,2021-11-25T16:34:37.724Z,,,,,,,,,,,,,,,,53,,,,,,,,,,,,,,345.5889999523133,,response,,,99,,,,,,Space,keypress(Space),,,,,---- -- ----- -- ------ - ------- --- ----------<br>------------- ------ ------ ---- ---- ------- ----- -- ----<br>-------- ------- -- ---------- --- - --- ----- ----- ----<br>it's --- --- ----- --- ---- ---- ------- ----- ---- -------<br>--- --- -- ----- -- --- ---- -- --- ---- -- ------ ------<br>--- ----- -- ----,51075.39999985695,51074.799999952316,50712.546,50715.59999990463,50729.211,51079.18,,28,it's
screen,html.Screen,0_2_0_1_29,2021-11-25T16:34:38.140Z,,,,,,,,,,,,,,,,53,,,,,,,,,,,,,,411.619999952316,,response,,,99,,,,,,Space,keypress(Space),,,,,---- -- ----- -- ------ - ------- --- ----------<br>------------- ------ ------ ---- ---- ------- ----- -- ----<br>-------- ------- -- ---------- --- - --- ----- ----- ----<br>---- not --- ----- --- ---- ---- ------- ----- ---- -------<br>--- --- -- ----- -- --- ---- -- --- ---- -- ------ ------<br>--- ----- -- ----,51491.5,51490.799999952316,51062.515,51075.59999990463,51079.18,51495.834,,29,not
screen,html.Screen,0_2_0_1_30,2021-11-25T16:34:38.444Z,,,,,,,,,,,,,,,,53,,,,,,,,,,,,,,298.9659999523137,,response,,,99,,,,,,Space,keypress(Space),,,,,---- -- ----- -- ------ - ------- --- ----------<br>------------- ------ ------ ---- ---- ------- ----- -- ----<br>-------- ------- -- ---------- --- - --- ----- ----- ----<br>---- --- how ----- --- ---- ---- ------- ----- ---- -------<br>--- --- -- ----- -- --- ---- -- --- ---- -- ------ ------<br>--- ----- -- ----,51795.39999985695,51794.799999952316,51479.169,51491.700000047684,51495.834,51812.561,,30,how
screen,html.Screen,0_2_0_1_31,2021-11-25T16:34:38.724Z,,,,,,,,,,,,,,,,53,,,,,,,,,,,,,,262.33899985694734,,response,,,99,,,,,,Space,keypress(Space),,,,,---- -- ----- -- ------ - ------- --- ----------<br>------------- ------ ------ ---- ---- ------- ----- -- ----<br>-------- ------- -- ---------- --- - --- ----- ----- ----<br>---- --- --- close --- ---- ---- ------- ----- ---- -------<br>--- --- -- ----- -- --- ---- -- --- ---- -- ------ ------<br>--- ----- -- ----,52075.5,52074.89999985695,51795.895,51795.59999990463,51812.561,52079.111,,31,close
screen,html.Screen,0_2_0_1_32,2021-11-25T16:34:39.076Z,,,,,,,,,,,,,,,,53,,,,,,,,,,,,,,347.68899995231914,,response,,,99,,,,,,Space,keypress(Space),,,,,---- -- ----- -- ------ - ------- --- ----------<br>------------- ------ ------ ---- ---- ------- ----- -- ----<br>-------- ------- -- ---------- --- - --- ----- ----- ----<br>---- --- --- ----- you ---- ---- ------- ----- ---- -------<br>--- --- -- ----- -- --- ---- -- --- ---- -- ------ ------<br>--- ----- -- ----,52427.5,52426.799999952316,52062.447,52075.59999990463,52079.111,52429.145,,32,you
screen,html.Screen,0_2_0_1_33,2021-11-25T16:34:39.508Z,,,,,,,,,,,,,,,,53,,,,,,,,,,,,,,429.6549999523195,,response,,,99,,,,,,Space,keypress(Space),,,,,---- -- ----- -- ------ - ------- --- ----------<br>------------- ------ ------ ---- ---- ------- ----- -- ----<br>-------- ------- -- ---------- --- - --- ----- ----- ----<br>---- --- --- ----- --- feel ---- ------- ----- ---- -------<br>--- --- -- ----- -- --- ---- -- --- ---- -- ------ ------<br>--- ----- -- ----,52859.299999952316,52858.799999952316,52412.479,52427.59999990463,52429.145,52862.375,,33,feel
screen,html.Screen,0_2_0_1_34,2021-11-25T16:34:39.884Z,,,,,,,,,,,,,,,,53,,,,,,,,,,,,,,372.4249999523163,,response,,,99,,,,,,Space,keypress(Space),,,,,---- -- ----- -- ------ - ------- --- ----------<br>------------- ------ ------ ---- ---- ------- ----- -- ----<br>-------- ------- -- ---------- --- - --- ----- ----- ----<br>---- --- --- ----- --- ---- that ------- ----- ---- -------<br>--- --- -- ----- -- --- ---- -- --- ---- -- ------ ------<br>--- ----- -- ----,53235.39999985695,53234.799999952316,52845.711,52859.5,52862.375,53245.72,,34,that
screen,html.Screen,0_2_0_1_35,2021-11-25T16:34:40.324Z,,,,,,,,,,,,,,,,53,,,,,,,,,,,,,,429.0799999523151,,response,,,99,,,,,,Space,keypress(Space),,,,,---- -- ----- -- ------ - ------- --- ----------<br>------------- ------ ------ ---- ---- ------- ----- -- ----<br>-------- ------- -- ---------- --- - --- ----- ----- ----<br>---- --- --- ----- --- ---- ---- matters ----- ---- -------<br>--- --- -- ----- -- --- ---- -- --- ---- -- ------ ------<br>--- ----- -- ----,53675.39999985695,53674.799999952316,53229.055,53235.5,53245.72,53679.012,,35,matters
screen,html.Screen,0_2_0_1_36,2021-11-25T16:34:40.588Z,,,,,,,,,,,,,,,,53,,,,,,,,,,,,,,259.68800004768127,,response,,,99,,,,,,Space,keypress(Space),,,,,"---- -- ----- -- ------ - ------- --- ----------<br>------------- ------ ------ ---- ---- ------- ----- -- ----<br>-------- ------- -- ---------- --- - --- ----- ----- ----<br>---- --- --- ----- --- ---- ---- ------- most, ---- -------<br>--- --- -- ----- -- --- ---- -- --- ---- -- ------ ------<br>--- ----- -- ----",53939.299999952316,53938.700000047684,53662.347,53675.5,53679.012,53945.745,,36,"most,"
screen,html.Screen,0_2_0_1_37,2021-11-25T16:34:41.764Z,,,,,,,,,,,,,,,,53,,,,,,,,,,,,,,1168.955000047681,,response,,,99,,,,,,Space,keypress(Space),,,,,---- -- ----- -- ------ - ------- --- ----------<br>------------- ------ ------ ---- ---- ------- ----- -- ----<br>-------- ------- -- ---------- --- - --- ----- ----- ----<br>---- --- --- ----- --- ---- ---- ------- ----- it's -------<br>--- --- -- ----- -- --- ---- -- --- ---- -- ------ ------<br>--- ----- -- ----,55115.39999985695,55114.700000047684,53929.079,53939.5,53945.745,55128.83,,37,it's
screen,html.Screen,0_2_0_1_38,2021-11-25T16:34:42.251Z,,,,,,,,,,,,,,,,53,,,,,,,,,,,,,,473.7699999046308,,response,,,99,,,,,,Space,keypress(Space),,,,,---- -- ----- -- ------ - ------- --- ----------<br>------------- ------ ------ ---- ---- ------- ----- -- ----<br>-------- ------- -- ---------- --- - --- ----- ----- ----<br>---- --- --- ----- --- ---- ---- ------- ----- ---- whether<br>--- --- -- ----- -- --- ---- -- --- ---- -- ------ ------<br>--- ----- -- ----,55603.200000047684,55602.59999990463,55112.166,55115.5,55128.83,55612.316,,38,whether
screen,html.Screen,0_2_0_1_39,2021-11-25T16:34:42.611Z,,,,,,,,,,,,,,,,53,,,,,,,,,,,,,,350.2839999046337,,response,,,99,,,,,,Space,keypress(Space),,,,,---- -- ----- -- ------ - ------- --- ----------<br>------------- ------ ------ ---- ---- ------- ----- -- ----<br>-------- ------- -- ---------- --- - --- ----- ----- ----<br>---- --- --- ----- --- ---- ---- ------- ----- ---- -------<br>you --- -- ----- -- --- ---- -- --- ---- -- ------ ------<br>--- ----- -- ----,55963.09999990463,55962.59999990463,55595.65,55603.39999985695,55612.316,55978.888,,39,you
screen,html.Screen,0_2_0_1_40,2021-11-25T16:34:42.899Z,,,,,,,,,,,,,,,,53,,,,,,,,,,,,,,271.612000000001,,response,,,99,,,,,,Space,keypress(Space),,,,,---- -- ----- -- ------ - ------- --- ----------<br>------------- ------ ------ ---- ---- ------- ----- -- ----<br>-------- ------- -- ---------- --- - --- ----- ----- ----<br>---- --- --- ----- --- ---- ---- ------- ----- ---- -------<br>--- are -- ----- -- --- ---- -- --- ---- -- ------ ------<br>--- ----- -- ----,56251.09999990463,56250.5,55962.223,55963.200000047684,55978.888,56262.193,,40,are
screen,html.Screen,0_2_0_1_41,2021-11-25T16:34:43.252Z,,,,,,,,,,,,,,,,53,,,,,,,,,,,,,,340.40699990463327,,response,,,99,,,,,,Space,keypress(Space),,,,,---- -- ----- -- ------ - ------- --- ----------<br>------------- ------ ------ ---- ---- ------- ----- -- ----<br>-------- ------- -- ---------- --- - --- ----- ----- ----<br>---- --- --- ----- --- ---- ---- ------- ----- ---- -------<br>--- --- as ----- -- --- ---- -- --- ---- -- ------ ------<br>--- ----- -- ----,56603.200000047684,56602.59999990463,56245.528,56251.299999952316,56262.193,56612.243,,41,as
screen,html.Screen,0_2_0_1_42,2021-11-25T16:34:44.195Z,,,,,,,,,,,,,,,,53,,,,,,,,,,,,,,934.3569999046304,,response,,,99,,,,,,Space,keypress(Space),,,,,---- -- ----- -- ------ - ------- --- ----------<br>------------- ------ ------ ---- ---- ------- ----- -- ----<br>-------- ------- -- ---------- --- - --- ----- ----- ----<br>---- --- --- ----- --- ---- ---- ------- ----- ---- -------<br>--- --- -- close -- --- ---- -- --- ---- -- ------ ------<br>--- ----- -- ----,57547.200000047684,57546.59999990463,56595.577,56603.299999952316,56612.243,57561.951,,42,close
screen,html.Screen,0_2_0_1_43,2021-11-25T16:34:44.555Z,,,,,,,,,,,,,,,,53,,,,,,,,,,,,,,344.4489998569479,,response,,,99,,,,,,Space,keypress(Space),,,,,---- -- ----- -- ------ - ------- --- ----------<br>------------- ------ ------ ---- ---- ------- ----- -- ----<br>-------- ------- -- ---------- --- - --- ----- ----- ----<br>---- --- --- ----- --- ---- ---- ------- ----- ---- -------<br>--- --- -- ----- as --- ---- -- --- ---- -- ------ ------<br>--- ----- -- ----,57907,57906.39999985695,57545.288,57547.299999952316,57561.951,57912.086,,43,as
screen,html.Screen,0_2_0_1_44,2021-11-25T16:34:44.867Z,,,,,,,,,,,,,,,,53,,,,,,,,,,,,,,306.3139998569459,,response,,,99,,,,,,Space,keypress(Space),,,,,---- -- ----- -- ------ - ------- --- ----------<br>------------- ------ ------ ---- ---- ------- ----- -- ----<br>-------- ------- -- ---------- --- - --- ----- ----- ----<br>---- --- --- ----- --- ---- ---- ------- ----- ---- -------<br>--- --- -- ----- -- you ---- -- --- ---- -- ------ ------<br>--- ----- -- ----,58219,58218.39999985695,57895.421,57907.09999990463,57912.086,58228.745,,44,you
screen,html.Screen,0_2_0_1_45,2021-11-25T16:34:45.235Z,,,,,,,,,,,,,,,,53,,,,,,,,,,,,,,357.65499985694623,,response,,,99,,,,,,Space,keypress(Space),,,,,---- -- ----- -- ------ - ------- --- ----------<br>------------- ------ ------ ---- ---- ------- ----- -- ----<br>-------- ------- -- ---------- --- - --- ----- ----- ----<br>---- --- --- ----- --- ---- ---- ------- ----- ---- -------<br>--- --- -- ----- -- --- want -- --- ---- -- ------ ------<br>--- ----- -- ----,58587,58586.39999985695,58212.08,58219.200000047684,58228.745,58595.395,,45,want
screen,html.Screen,0_2_0_1_46,2021-11-25T16:34:45.587Z,,,,,,,,,,,,,,,,53,,,,,,,,,,,,,,343.00499985695205,,response,,,99,,,,,,Space,keypress(Space),,,,,---- -- ----- -- ------ - ------- --- ----------<br>------------- ------ ------ ---- ---- ------- ----- -- ----<br>-------- ------- -- ---------- --- - --- ----- ----- ----<br>---- --- --- ----- --- ---- ---- ------- ----- ---- -------<br>--- --- -- ----- -- --- ---- to --- ---- -- ------ ------<br>--- ----- -- ----,58938.89999985695,58938.39999985695,58578.73,58587.200000047684,58595.395,58945.38,,46,to
screen,html.Screen,0_2_0_1_47,2021-11-25T16:34:45.923Z,,,,,,,,,,,,,,,,53,,,,,,,,,,,,,,329.0199998569515,,response,,,99,,,,,,Space,keypress(Space),,,,,"---- -- ----- -- ------ - ------- --- ----------<br>------------- ------ ------ ---- ---- ------- ----- -- ----<br>-------- ------- -- ---------- --- - --- ----- ----- ----<br>---- --- --- ----- --- ---- ---- ------- ----- ---- -------<br>--- --- -- ----- -- --- ---- -- be, ---- -- ------ ------<br>--- ----- -- ----",59275,59274.39999985695,58928.715,58939.09999990463,58945.38,59278.757,,47,"be,"
screen,html.Screen,0_2_0_1_48,2021-11-25T16:34:46.307Z,,,,,,,,,,,,,,,,53,,,,,,,,,,,,,,379.5429999523185,,response,,,99,,,,,,Space,keypress(Space),,,,,---- -- ----- -- ------ - ------- --- ----------<br>------------- ------ ------ ---- ---- ------- ----- -- ----<br>-------- ------- -- ---------- --- - --- ----- ----- ----<br>---- --- --- ----- --- ---- ---- ------- ----- ---- -------<br>--- --- -- ----- -- --- ---- -- --- even -- ------ ------<br>--- ----- -- ----,59658.89999985695,59658.299999952316,59262.091,59275.09999990463,59278.757,59662.018,,48,even
screen,html.Screen,0_2_0_1_49,2021-11-25T16:34:46.679Z,,,,,,,,,,,,,,,,53,,,,,,,,,,,,,,364.2819999523199,,response,,,99,,,,,,Space,keypress(Space),,,,,---- -- ----- -- ------ - ------- --- ----------<br>------------- ------ ------ ---- ---- ------- ----- -- ----<br>-------- ------- -- ---------- --- - --- ----- ----- ----<br>---- --- --- ----- --- ---- ---- ------- ----- ---- -------<br>--- --- -- ----- -- --- ---- -- --- ---- if ------ ------<br>--- ----- -- ----,60026.89999985695,60026.299999952316,59645.353,59659.09999990463,59662.018,60028.659,,49,if
screen,html.Screen,0_2_0_1_50,2021-11-25T16:34:47.136Z,,,,,,,,,,,,,,,,53,,,,,,,,,,,,,,453.9409999046329,,response,,,99,,,,,,Space,keypress(Space),,,,,---- -- ----- -- ------ - ------- --- ----------<br>------------- ------ ------ ---- ---- ------- ----- -- ----<br>-------- ------- -- ---------- --- - --- ----- ----- ----<br>---- --- --- ----- --- ---- ---- ------- ----- ---- -------<br>--- --- -- ----- -- --- ---- -- --- ---- -- that's ------<br>--- ----- -- ----,60483.200000047684,60482.59999990463,60011.994,60027.09999990463,60028.659,60495.221,,50,that's
screen,html.Screen,0_2_0_1_51,2021-11-25T16:34:47.591Z,,,,,,,,,,,,,,,,53,,,,,,,,,,,,,,443.07899995231855,,response,,,99,,,,,,Space,keypress(Space),,,,,---- -- ----- -- ------ - ------- --- ----------<br>------------- ------ ------ ---- ---- ------- ----- -- ----<br>-------- ------- -- ---------- --- - --- ----- ----- ----<br>---- --- --- ----- --- ---- ---- ------- ----- ---- -------<br>--- --- -- ----- -- --- ---- -- --- ---- -- ------ really<br>--- ----- -- ----,60938.799999952316,60938.299999952316,60478.557,60483.299999952316,60495.221,60945.178,,51,really
screen,html.Screen,0_2_0_1_52,2021-11-25T16:34:47.983Z,,,,,,,,,,,,,,,,53,,,,,,,,,,,,,,385.1219999523164,,response,,,99,,,,,,Space,keypress(Space),,,,,---- -- ----- -- ------ - ------- --- ----------<br>------------- ------ ------ ---- ---- ------- ----- -- ----<br>-------- ------- -- ---------- --- - --- ----- ----- ----<br>---- --- --- ----- --- ---- ---- ------- ----- ---- -------<br>--- --- -- ----- -- --- ---- -- --- ---- -- ------ ------<br>not ----- -- ----,61330.89999985695,61330.299999952316,60928.514,60938.89999985695,60945.178,61345.284,,52,not
screen,html.Screen,0_2_0_1_53,2021-11-25T16:34:48.375Z,,,,,,,,,,,,,,,,53,,,,,,,,,,,,,,376.91600004768407,,response,,,99,,,,,,Space,keypress(Space),,,,,---- -- ----- -- ------ - ------- --- ----------<br>------------- ------ ------ ---- ---- ------- ----- -- ----<br>-------- ------- -- ---------- --- - --- ----- ----- ----<br>---- --- --- ----- --- ---- ---- ------- ----- ---- -------<br>--- --- -- ----- -- --- ---- -- --- ---- -- ------ ------<br>--- close -- ----,61722.799999952316,61722.200000047684,61328.618,61331.09999990463,61345.284,61728.601,,53,close
screen,html.Screen,0_2_0_1_54,2021-11-25T16:34:48.751Z,,,,,,,,,,,,,,,,53,,,,,,,,,,,,,,369.59900004768133,,response,,,99,,,,,,Space,keypress(Space),,,,,---- -- ----- -- ------ - ------- --- ----------<br>------------- ------ ------ ---- ---- ------- ----- -- ----<br>-------- ------- -- ---------- --- - --- ----- ----- ----<br>---- --- --- ----- --- ---- ---- ------- ----- ---- -------<br>--- --- -- ----- -- --- ---- -- --- ---- -- ------ ------<br>--- ----- at ----,62099,62098.200000047684,61711.935,61722.89999985695,61728.601,62111.868,,54,at
screen,html.Screen,0_2_0_1_55,2021-11-25T16:34:49.023Z,,,,,,,,,,,,,,,,53,,,,,,,,,,,,,,258.3320000476815,,response,,,99,,,,,,Space,keypress(Space),,,,,---- -- ----- -- ------ - ------- --- ----------<br>------------- ------ ------ ---- ---- ------- ----- -- ----<br>-------- ------- -- ---------- --- - --- ----- ----- ----<br>---- --- --- ----- --- ---- ---- ------- ----- ---- -------<br>--- --- -- ----- -- --- ---- -- --- ---- -- ------ ------<br>--- ----- -- all.,62370.799999952316,62370.200000047684,62095.203,62099.09999990463,62111.868,62378.464,,55,all.
Item 99,flow.Loop,0_2_0_1,2021-11-25T16:34:49.026Z,,,,,,,,,,,,,,,,,,,,,,,,,,,,,,23040.325000047684,,completion,,,,E,,,,,,,,,,silence,,62373.59999990463,62370.200000047684,39313.21,39317.200000047684,39329.875,62378.464,,,
Question 1,html.Screen,0_2_0_2,2021-11-25T16:34:52.976Z,,,,,,,,,,,,,,,,,,,,,,,,,,,false,FALSE,,3944.3359999523163,,response,,,99,E,,,,,TRUE,click #choice-1,,,,silence,,66323.79999995232,66322.79999995232,62361.8,62373.799999952316,62378.464,66328.229,,,
Question 2,html.Screen,0_2_0_3,2021-11-25T16:34:58.740Z,,,,,,,,,,,,,,,,,,,,,,,,,,,true,TRUE,,5758.471000047677,,response,,,99,E,,,,,TRUE,click #choice-1,,,,silence,,72087.59999990463,72086.70000004768,66311.564,66324,66328.229,72094.443,,,
Item 99,flow.Sequence,0_2_0,2021-11-25T16:34:58.740Z,,,,,,,,,,,,,,,,,,,,,,,,,,,,,,42756.094000047684,,completion,,,,,,,,,,,,,,,,72087.89999985695,72086.70000004768,29313.936,29328.200000047684,29330.606,72094.443,,,
Holding screen,html.Screen,0_2_1_0,2021-11-25T16:35:08.731Z,,,,,,,,,,,,,,,,,,,,,,,,,,,,,,9999.498000000007,,timeout,,,,,,,,,,,,,,,,82078.59999990463,82077.276,72077.779,72088.20000004768,72094.443,82093.941,,,
screen,html.Screen,0_2_1_1_0,2021-11-25T16:35:09.886Z,,,,,,,,,,,,,,,,54,,,,,,,,,,,,,,1139.2590000476775,,response,,,100,,,,,,Space,keypress(Space),,,,,At --- ---- --- ------ ----- ------- ---- -- --- ------- --<br>------- ---------- ------ -- ----- -- ----- -- ---- ------<br>--- ----- --- --- ------ -------- ----- --- ------ ----- --<br>----- ----- ---------- --- --- ------ ------ ---- -- ------<br>------- --- ------ ----- --- ---- ------- -- ---- --- --<br>------- ------,83233.79999995232,83233.20000004768,82077.276,82078.79999995232,82093.941,83243.865,,0,At
screen,html.Screen,0_2_1_1_1,2021-11-25T16:35:10.198Z,,,,,,,,,,,,,,,,54,,,,,,,,,,,,,,301.0349998569436,,response,,,100,,,,,,Space,keypress(Space),,,,,-- the ---- --- ------ ----- ------- ---- -- --- ------- --<br>------- ---------- ------ -- ----- -- ----- -- ---- ------<br>--- ----- --- --- ------ -------- ----- --- ------ ----- --<br>----- ----- ---------- --- --- ------ ------ ---- -- ------<br>------- --- ------ ----- --- ---- ------- -- ---- --- --<br>------- ------,83545.5,83544.89999985695,83227.2,83234,83243.865,83560.541,,1,the
screen,html.Screen,0_2_1_1_2,2021-11-25T16:35:10.614Z,,,,,,,,,,,,,,,,54,,,,,,,,,,,,,,400.3589998569514,,response,,,100,,,,,,Space,keypress(Space),,,,,-- --- time --- ------ ----- ------- ---- -- --- ------- --<br>------- ---------- ------ -- ----- -- ----- -- ---- ------<br>--- ----- --- --- ------ -------- ----- --- ------ ----- --<br>----- ----- ---------- --- --- ------ ------ ---- -- ------<br>------- --- ------ ----- --- ---- ------- -- ---- --- --<br>------- ------,83961.39999985695,83960.89999985695,83543.876,83545.59999990463,83560.541,83977.19,,2,time
screen,html.Screen,0_2_1_1_3,2021-11-25T16:35:10.974Z,,,,,,,,,,,,,,,,54,,,,,,,,,,,,,,343.7099998569465,,response,,,100,,,,,,Space,keypress(Space),,,,,-- --- ---- the ------ ----- ------- ---- -- --- ------- --<br>------- ---------- ------ -- ----- -- ----- -- ---- ------<br>--- ----- --- --- ------ -------- ----- --- ------ ----- --<br>----- ----- ---------- --- --- ------ ------ ---- -- ------<br>------- --- ------ ----- --- ---- ------- -- ---- --- --<br>------- ------,84321.5,84320.89999985695,83960.525,83961.59999990463,83977.19,84327.092,,3,the
screen,html.Screen,0_2_1_1_4,2021-11-25T16:35:11.654Z,,,,,,,,,,,,,,,,54,,,,,,,,,,,,,,673.7079999523121,,response,,,100,,,,,,Space,keypress(Space),,,,,-- --- ---- --- French ----- ------- ---- -- --- ------- --<br>------- ---------- ------ -- ----- -- ----- -- ---- ------<br>--- ----- --- --- ------ -------- ----- --- ------ ----- --<br>----- ----- ---------- --- --- ------ ------ ---- -- ------<br>------- --- ------ ----- --- ---- ------- -- ---- --- --<br>------- ------,85001.39999985695,85000.79999995232,84310.428,84321.70000004768,84327.092,85010.435,,4,French
screen,html.Screen,0_2_1_1_5,2021-11-25T16:35:12.038Z,,,,,,,,,,,,,,,,54,,,,,,,,,,,,,,374.3649999523186,,response,,,100,,,,,,Space,keypress(Space),,,,,-- --- ---- --- ------ crown ------- ---- -- --- ------- --<br>------- ---------- ------ -- ----- -- ----- -- ---- ------<br>--- ----- --- --- ------ -------- ----- --- ------ ----- --<br>----- ----- ---------- --- --- ------ ------ ---- -- ------<br>------- --- ------ ----- --- ---- ------- -- ---- --- --<br>------- ------,85385.39999985695,85384.79999995232,84993.77,85001.59999990463,85010.435,85393.683,,5,crown
screen,html.Screen,0_2_1_1_6,2021-11-25T16:35:12.430Z,,,,,,,,,,,,,,,,54,,,,,,,,,,,,,,383.0170000476792,,response,,,100,,,,,,Space,keypress(Space),,,,,-- --- ---- --- ------ ----- secured ---- -- --- ------- --<br>------- ---------- ------ -- ----- -- ----- -- ---- ------<br>--- ----- --- --- ------ -------- ----- --- ------ ----- --<br>----- ----- ---------- --- --- ------ ------ ---- -- ------<br>------- --- ------ ----- --- ---- ------- -- ---- --- --<br>------- ------,85777.39999985695,85776.70000004768,85377.019,85385.59999990463,85393.683,85793.722,,6,secured
screen,html.Screen,0_2_1_1_7,2021-11-25T16:35:12.806Z,,,,,,,,,,,,,,,,54,,,,,,,,,,,,,,358.9780000476894,,response,,,100,,,,,,Space,keypress(Space),,,,,-- --- ---- --- ------ ----- ------- much -- --- ------- --<br>------- ---------- ------ -- ----- -- ----- -- ---- ------<br>--- ----- --- --- ------ -------- ----- --- ------ ----- --<br>----- ----- ---------- --- --- ------ ------ ---- -- ------<br>------- --- ------ ----- --- ---- ------- -- ---- --- --<br>------- ------,86153.29999995232,86152.70000004768,85777.057,85777.5,85793.722,86160.437,,7,much
screen,html.Screen,0_2_1_1_8,2021-11-25T16:35:13.190Z,,,,,,,,,,,,,,,,54,,,,,,,,,,,,,,376.36299995231093,,response,,,100,,,,,,Space,keypress(Space),,,,,-- --- ---- --- ------ ----- ------- ---- of --- ------- --<br>------- ---------- ------ -- ----- -- ----- -- ---- ------<br>--- ----- --- --- ------ -------- ----- --- ------ ----- --<br>----- ----- ---------- --- --- ------ ------ ---- -- ------<br>------- --- ------ ----- --- ---- ------- -- ---- --- --<br>------- ------,86537.29999995232,86536.79999995232,86143.771,86153.39999985695,86160.437,86543.698,,8,of
screen,html.Screen,0_2_1_1_9,2021-11-25T16:35:13.518Z,,,,,,,,,,,,,,,,54,,,,,,,,,,,,,,321.1019999523123,,response,,,100,,,,,,Space,keypress(Space),,,,,-- --- ---- --- ------ ----- ------- ---- -- its ------- --<br>------- ---------- ------ -- ----- -- ----- -- ---- ------<br>--- ----- --- --- ------ -------- ----- --- ------ ----- --<br>----- ----- ---------- --- --- ------ ------ ---- -- ------<br>------- --- ------ ----- --- ---- ------- -- ---- --- --<br>------- ------,86865.39999985695,86864.79999995232,86527.033,86537.5,86543.698,86876.939,,9,its
screen,html.Screen,0_2_1_1_10,2021-11-25T16:35:13.846Z,,,,,,,,,,,,,,,,54,,,,,,,,,,,,,,315.76100004768523,,response,,,100,,,,,,Space,keypress(Space),,,,,-- --- ---- --- ------ ----- ------- ---- -- --- revenue --<br>------- ---------- ------ -- ----- -- ----- -- ---- ------<br>--- ----- --- --- ------ -------- ----- --- ------ ----- --<br>----- ----- ---------- --- --- ------ ------ ---- -- ------<br>------- --- ------ ----- --- ---- ------- -- ---- --- --<br>------- ------,87193.29999995232,87192.70000004768,86860.275,86865.5,86876.939,87210.294,,10,revenue
screen,html.Screen,0_2_1_1_11,2021-11-25T16:35:14.374Z,,,,,,,,,,,,,,,,54,,,,,,,,,,,,,,510.4060000476893,,response,,,100,,,,,,Space,keypress(Space),,,,,-- --- ---- --- ------ ----- ------- ---- -- --- ------- by<br>------- ---------- ------ -- ----- -- ----- -- ---- ------<br>--- ----- --- --- ------ -------- ----- --- ------ ----- --<br>----- ----- ---------- --- --- ------ ------ ---- -- ------<br>------- --- ------ ----- --- ---- ------- -- ---- --- --<br>------- ------,87721.20000004768,87720.70000004768,87193.629,87193.39999985695,87210.294,87726.976,,11,by
screen,html.Screen,0_2_1_1_12,2021-11-25T16:35:14.981Z,,,,,,,,,,,,,,,,54,,,,,,,,,,,,,,601.5240000000049,,response,,,100,,,,,,Space,keypress(Space),,,,,-- --- ---- --- ------ ----- ------- ---- -- --- ------- --<br>issuing ---------- ------ -- ----- -- ----- -- ---- ------<br>--- ----- --- --- ------ -------- ----- --- ------ ----- --<br>----- ----- ---------- --- --- ------ ------ ---- -- ------<br>------- --- ------ ----- --- ---- ------- -- ---- --- --<br>------- ------,88328.89999985695,88328.5,87710.31,87721.5,87726.976,88343.556,,12,issuing
screen,html.Screen,0_2_1_1_13,2021-11-25T16:35:15.326Z,,,,,,,,,,,,,,,,54,,,,,,,,,,,,,,329.14400004768686,,response,,,100,,,,,,Space,keypress(Space),,,,,-- --- ---- --- ------ ----- ------- ---- -- --- ------- --<br>------- government ------ -- ----- -- ----- -- ---- ------<br>--- ----- --- --- ------ -------- ----- --- ------ ----- --<br>----- ----- ---------- --- --- ------ ------ ---- -- ------<br>------- --- ------ ----- --- ---- ------- -- ---- --- --<br>------- ------,88673.20000004768,88672.70000004768,88326.891,88329.09999990463,88343.556,88676.852,,13,government
screen,html.Screen,0_2_1_1_14,2021-11-25T16:35:15.693Z,,,,,,,,,,,,,,,,54,,,,,,,,,,,,,,363.7479999046336,,response,,,100,,,,,,Space,keypress(Space),,,,,-- --- ---- --- ------ ----- ------- ---- -- --- ------- --<br>------- ---------- bonds. -- ----- -- ----- -- ---- ------<br>--- ----- --- --- ------ -------- ----- --- ------ ----- --<br>----- ----- ---------- --- --- ------ ------ ---- -- ------<br>------- --- ------ ----- --- ---- ------- -- ---- --- --<br>------- ------,89041.09999990463,89040.59999990463,88660.187,88673.39999985695,88676.852,89043.511,,14,bonds.
screen,html.Screen,0_2_1_1_15,2021-11-25T16:35:16.677Z,,,,,,,,,,,,,,,,54,,,,,,,,,,,,,,980.9890000000014,,response,,,100,,,,,,Space,keypress(Space),,,,,-- --- ---- --- ------ ----- ------- ---- -- --- ------- --<br>------- ---------- ------ In ----- -- ----- -- ---- ------<br>--- ----- --- --- ------ -------- ----- --- ------ ----- --<br>----- ----- ---------- --- --- ------ ------ ---- -- ------<br>------- --- ------ ----- --- ---- ------- -- ---- --- --<br>------- ------,90025.09999990463,90024.5,89026.846,89041.20000004768,89043.511,90026.845,,15,In
screen,html.Screen,0_2_1_1_16,2021-11-25T16:35:16.989Z,,,,,,,,,,,,,,,,54,,,,,,,,,,,,,,309.65499999999884,,response,,,100,,,,,,Space,keypress(Space),,,,,"-- --- ---- --- ------ ----- ------- ---- -- --- ------- --<br>------- ---------- ------ -- 1727, -- ----- -- ---- ------<br>--- ----- --- --- ------ -------- ----- --- ------ ----- --<br>----- ----- ---------- --- --- ------ ------ ---- -- ------<br>------- --- ------ ----- --- ---- ------- -- ---- --- --<br>------- ------",90337.09999990463,90336.5,90010.179,90025.29999995232,90026.845,90343.512,,16,"1727,"
screen,html.Screen,0_2_1_1_17,2021-11-25T16:35:17.685Z,,,,,,,,,,,,,,,,54,,,,,,,,,,,,,,688.9879999999976,,response,,,100,,,,,,Space,keypress(Space),,,,,-- --- ---- --- ------ ----- ------- ---- -- --- ------- --<br>------- ---------- ------ -- ----- in ----- -- ---- ------<br>--- ----- --- --- ------ -------- ----- --- ------ ----- --<br>----- ----- ---------- --- --- ------ ------ ---- -- ------<br>------- --- ------ ----- --- ---- ------- -- ---- --- --<br>------- ------,91033,91032.5,90326.846,90337.20000004768,90343.512,91043.322,,17,in
screen,html.Screen,0_2_1_1_18,2021-11-25T16:35:18.261Z,,,,,,,,,,,,,,,,54,,,,,,,,,,,,,,565.0779998569487,,response,,,100,,,,,,Space,keypress(Space),,,,,-- --- ---- --- ------ ----- ------- ---- -- --- ------- --<br>------- ---------- ------ -- ----- -- order -- ---- ------<br>--- ----- --- --- ------ -------- ----- --- ------ ----- --<br>----- ----- ---------- --- --- ------ ------ ---- -- ------<br>------- --- ------ ----- --- ---- ------- -- ---- --- --<br>------- ------,91609,91608.39999985695,91026.658,91033.20000004768,91043.322,91610.166,,18,order
screen,html.Screen,0_2_1_1_19,2021-11-25T16:35:19.309Z,,,,,,,,,,,,,,,,54,,,,,,,,,,,,,,1046.2339998569514,,response,,,100,,,,,,Space,keypress(Space),,,,,-- --- ---- --- ------ ----- ------- ---- -- --- ------- --<br>------- ---------- ------ -- ----- -- ----- to ---- ------<br>--- ----- --- --- ------ -------- ----- --- ------ ----- --<br>----- ----- ---------- --- --- ------ ------ ---- -- ------<br>------- --- ------ ----- --- ---- ------- -- ---- --- --<br>------- ------,92657,92656.39999985695,91593.499,91609.20000004768,91610.166,92659.963,,19,to
screen,html.Screen,0_2_1_1_20,2021-11-25T16:35:19.557Z,,,,,,,,,,,,,,,,54,,,,,,,,,,,,,,244.3369999523129,,response,,,100,,,,,,Space,keypress(Space),,,,,-- --- ---- --- ------ ----- ------- ---- -- --- ------- --<br>------- ---------- ------ -- ----- -- ----- -- save ------<br>--- ----- --- --- ------ -------- ----- --- ------ ----- --<br>----- ----- ---------- --- --- ------ ------ ---- -- ------<br>------- --- ------ ----- --- ---- ------- -- ---- --- --<br>------- ------,92904.89999985695,92904.29999995232,92643.298,92657.20000004768,92659.963,92909.833,,20,save
screen,html.Screen,0_2_1_1_21,2021-11-25T16:35:19.958Z,,,,,,,,,,,,,,,,54,,,,,,,,,,,,,,394.6670000000013,,response,,,100,,,,,,Space,keypress(Space),,,,,"-- --- ---- --- ------ ----- ------- ---- -- --- ------- --<br>------- ---------- ------ -- ----- -- ----- -- ---- money,<br>--- ----- --- --- ------ -------- ----- --- ------ ----- --<br>----- ----- ---------- --- --- ------ ------ ---- -- ------<br>------- --- ------ ----- --- ---- ------- -- ---- --- --<br>------- ------",93305.09999990463,93304.5,92893.169,92905,92909.833,93309.929,,21,"money,"
screen,html.Screen,0_2_1_1_22,2021-11-25T16:35:20.349Z,,,,,,,,,,,,,,,,54,,,,,,,,,,,,,,386.37099995231256,,response,,,100,,,,,,Space,keypress(Space),,,,,-- --- ---- --- ------ ----- ------- ---- -- --- ------- --<br>------- ---------- ------ -- ----- -- ----- -- ---- ------<br>the ----- --- --- ------ -------- ----- --- ------ ----- --<br>----- ----- ---------- --- --- ------ ------ ---- -- ------<br>------- --- ------ ----- --- ---- ------- -- ---- --- --<br>------- ------,93696.89999985695,93696.29999995232,93293.264,93305.29999995232,93309.929,93709.896,,22,the
screen,html.Screen,0_2_1_1_23,2021-11-25T16:35:20.725Z,,,,,,,,,,,,,,,,54,,,,,,,,,,,,,,362.30400004769035,,response,,,100,,,,,,Space,keypress(Space),,,,,-- --- ---- --- ------ ----- ------- ---- -- --- ------- --<br>------- ---------- ------ -- ----- -- ----- -- ---- ------<br>--- state --- --- ------ -------- ----- --- ------ ----- --<br>----- ----- ---------- --- --- ------ ------ ---- -- ------<br>------- --- ------ ----- --- ---- ------- -- ---- --- --<br>------- ------,94072.79999995232,94072.20000004768,93693.231,93697.09999990463,93709.896,94076.542,,23,state
screen,html.Screen,0_2_1_1_24,2021-11-25T16:35:21.205Z,,,,,,,,,,,,,,,,54,,,,,,,,,,,,,,475.757999952315,,response,,,100,,,,,,Space,keypress(Space),,,,,-- --- ---- --- ------ ----- ------- ---- -- --- ------- --<br>------- ---------- ------ -- ----- -- ----- -- ---- ------<br>--- ----- cut --- ------ -------- ----- --- ------ ----- --<br>----- ----- ---------- --- --- ------ ------ ---- -- ------<br>------- --- ------ ----- --- ---- ------- -- ---- --- --<br>------- ------,94552.79999995232,94552.29999995232,94059.877,94073,94076.542,94559.84,,24,cut
screen,html.Screen,0_2_1_1_25,2021-11-25T16:35:21.549Z,,,,,,,,,,,,,,,,54,,,,,,,,,,,,,,336.3600000476872,,response,,,100,,,,,,Space,keypress(Space),,,,,-- --- ---- --- ------ ----- ------- ---- -- --- ------- --<br>------- ---------- ------ -- ----- -- ----- -- ---- ------<br>--- ----- --- the ------ -------- ----- --- ------ ----- --<br>----- ----- ---------- --- --- ------ ------ ---- -- ------<br>------- --- ------ ----- --- ---- ------- -- ---- --- --<br>------- ------,94896.70000004768,94896.20000004768,94543.175,94553,94559.84,94909.948,,25,the
screen,html.Screen,0_2_1_1_26,2021-11-25T16:35:21.917Z,,,,,,,,,,,,,,,,54,,,,,,,,,,,,,,354.25200004767976,,response,,,100,,,,,,Space,keypress(Space),,,,,-- --- ---- --- ------ ----- ------- ---- -- --- ------- --<br>------- ---------- ------ -- ----- -- ----- -- ---- ------<br>--- ----- --- --- bonds' -------- ----- --- ------ ----- --<br>----- ----- ---------- --- --- ------ ------ ---- -- ------<br>------- --- ------ ----- --- ---- ------- -- ---- --- --<br>------- ------,95264.70000004768,95264.20000004768,94893.281,94896.89999985695,94909.948,95276.424,,26,bonds'
screen,html.Screen,0_2_1_1_27,2021-11-25T16:35:22.389Z,,,,,,,,,,,,,,,,54,,,,,,,,,,,,,,459.77600004768465,,response,,,100,,,,,,Space,keypress(Space),,,,,-- --- ---- --- ------ ----- ------- ---- -- --- ------- --<br>------- ---------- ------ -- ----- -- ----- -- ---- ------<br>--- ----- --- --- ------ interest ----- --- ------ ----- --<br>----- ----- ---------- --- --- ------ ------ ---- -- ------<br>------- --- ------ ----- --- ---- ------- -- ---- --- --<br>------- ------,95736.79999995232,95736.20000004768,95259.76,95264.89999985695,95276.424,95743.102,,27,interest
screen,html.Screen,0_2_1_1_28,2021-11-25T16:35:22.749Z,,,,,,,,,,,,,,,,54,,,,,,,,,,,,,,352.89800000000105,,response,,,100,,,,,,Space,keypress(Space),,,,,-- --- ---- --- ------ ----- ------- ---- -- --- ------- --<br>------- ---------- ------ -- ----- -- ----- -- ---- ------<br>--- ----- --- --- ------ -------- rate. --- ------ ----- --<br>----- ----- ---------- --- --- ------ ------ ---- -- ------<br>------- --- ------ ----- --- ---- ------- -- ---- --- --<br>------- ------,96096.70000004768,96096,95726.437,95736.89999985695,95743.102,96109.847,,28,rate.
screen,html.Screen,0_2_1_1_29,2021-11-25T16:35:23.533Z,,,,,,,,,,,,,,,,54,,,,,,,,,,,,,,770.2529999046383,,response,,,100,,,,,,Space,keypress(Space),,,,,-- --- ---- --- ------ ----- ------- ---- -- --- ------- --<br>------- ---------- ------ -- ----- -- ----- -- ---- ------<br>--- ----- --- --- ------ -------- ----- The ------ ----- --<br>----- ----- ---------- --- --- ------ ------ ---- -- ------<br>------- --- ------ ----- --- ---- ------- -- ---- --- --<br>------- ------,96880.70000004768,96880.09999990463,96093.18,96096.79999995232,96109.847,96893.051,,29,The
screen,html.Screen,0_2_1_1_30,2021-11-25T16:35:23.893Z,,,,,,,,,,,,,,,,54,,,,,,,,,,,,,,347.0489999046258,,response,,,100,,,,,,Space,keypress(Space),,,,,-- --- ---- --- ------ ----- ------- ---- -- --- ------- --<br>------- ---------- ------ -- ----- -- ----- -- ---- ------<br>--- ----- --- --- ------ -------- ----- --- market ----- --<br>----- ----- ---------- --- --- ------ ------ ---- -- ------<br>------- --- ------ ----- --- ---- ------- -- ---- --- --<br>------- ------,97240.70000004768,97240.09999990463,96876.386,96880.89999985695,96893.051,97242.952,,30,market
screen,html.Screen,0_2_1_1_31,2021-11-25T16:35:24.373Z,,,,,,,,,,,,,,,,54,,,,,,,,,,,,,,477.0479999999952,,response,,,100,,,,,,Space,keypress(Space),,,,,-- --- ---- --- ------ ----- ------- ---- -- --- ------- --<br>------- ---------- ------ -- ----- -- ----- -- ---- ------<br>--- ----- --- --- ------ -------- ----- --- ------ value --<br>----- ----- ---------- --- --- ------ ------ ---- -- ------<br>------- --- ------ ----- --- ---- ------- -- ---- --- --<br>------- ------,97720.5,97720,97226.288,97240.89999985695,97242.952,97726.384,,31,value
screen,html.Screen,0_2_1_1_32,2021-11-25T16:35:24.741Z,,,,,,,,,,,,,,,,54,,,,,,,,,,,,,,361.61599999999453,,response,,,100,,,,,,Space,keypress(Space),,,,,-- --- ---- --- ------ ----- ------- ---- -- --- ------- --<br>------- ---------- ------ -- ----- -- ----- -- ---- ------<br>--- ----- --- --- ------ -------- ----- --- ------ ----- of<br>----- ----- ---------- --- --- ------ ------ ---- -- ------<br>------- --- ------ ----- --- ---- ------- -- ---- --- --<br>------- ------,98088.5,98088,97709.718,97720.79999995232,97726.384,98092.989,,32,of
screen,html.Screen,0_2_1_1_33,2021-11-25T16:35:25.045Z,,,,,,,,,,,,,,,,54,,,,,,,,,,,,,,299.0109999999986,,response,,,100,,,,,,Space,keypress(Space),,,,,-- --- ---- --- ------ ----- ------- ---- -- --- ------- --<br>------- ---------- ------ -- ----- -- ----- -- ---- ------<br>--- ----- --- --- ------ -------- ----- --- ------ ----- --<br>these ----- ---------- --- --- ------ ------ ---- -- ------<br>------- --- ------ ----- --- ---- ------- -- ---- --- --<br>------- ------,98392.59999990463,98392,98076.324,98088.70000004768,98092.989,98409.588,,33,these
screen,html.Screen,0_2_1_1_34,2021-11-25T16:35:25.325Z,,,,,,,,,,,,,,,,54,,,,,,,,,,,,,,262.3119998569455,,response,,,100,,,,,,Space,keypress(Space),,,,,-- --- ---- --- ------ ----- ------- ---- -- --- ------- --<br>------- ---------- ------ -- ----- -- ----- -- ---- ------<br>--- ----- --- --- ------ -------- ----- --- ------ ----- --<br>----- bonds ---------- --- --- ------ ------ ---- -- ------<br>------- --- ------ ----- --- ---- ------- -- ---- --- --<br>------- ------,98672.5,98671.89999985695,98392.924,98392.79999995232,98409.588,98676.322,,34,bonds
screen,html.Screen,0_2_1_1_35,2021-11-25T16:35:25.709Z,,,,,,,,,,,,,,,,54,,,,,,,,,,,,,,379.57799985694874,,response,,,100,,,,,,Space,keypress(Space),,,,,"-- --- ---- --- ------ ----- ------- ---- -- --- ------- --<br>------- ---------- ------ -- ----- -- ----- -- ---- ------<br>--- ----- --- --- ------ -------- ----- --- ------ ----- --<br>----- ----- plummeted, --- --- ------ ------ ---- -- ------<br>------- --- ------ ----- --- ---- ------- -- ---- --- --<br>------- ------",99056.5,99055.89999985695,98659.656,98672.59999990463,98676.322,99059.551,,35,"plummeted,"
screen,html.Screen,0_2_1_1_36,2021-11-25T16:35:26.141Z,,,,,,,,,,,,,,,,54,,,,,,,,,,,,,,428.3489998569421,,response,,,100,,,,,,Space,keypress(Space),,,,,-- --- ---- --- ------ ----- ------- ---- -- --- ------- --<br>------- ---------- ------ -- ----- -- ----- -- ---- ------<br>--- ----- --- --- ------ -------- ----- --- ------ ----- --<br>----- ----- ---------- and --- ------ ------ ---- -- ------<br>------- --- ------ ----- --- ---- ------- -- ---- --- --<br>------- ------,99488.59999990463,99487.89999985695,99042.887,99056.79999995232,99059.551,99492.882,,36,and
screen,html.Screen,0_2_1_1_37,2021-11-25T16:35:26.621Z,,,,,,,,,,,,,,,,54,,,,,,,,,,,,,,475.01799985695106,,response,,,100,,,,,,Space,keypress(Space),,,,,-- --- ---- --- ------ ----- ------- ---- -- --- ------- --<br>------- ---------- ------ -- ----- -- ----- -- ---- ------<br>--- ----- --- --- ------ -------- ----- --- ------ ----- --<br>----- ----- ---------- --- the ------ ------ ---- -- ------<br>------- --- ------ ----- --- ---- ------- -- ---- --- --<br>------- ------,99968.59999990463,99967.89999985695,99476.217,99488.79999995232,99492.882,99976.169,,37,the
screen,html.Screen,0_2_1_1_38,2021-11-25T16:35:27.045Z,,,,,,,,,,,,,,,,54,,,,,,,,,,,,,,415.73099985695444,,response,,,100,,,,,,Space,keypress(Space),,,,,-- --- ---- --- ------ ----- ------- ---- -- --- ------- --<br>------- ---------- ------ -- ----- -- ----- -- ---- ------<br>--- ----- --- --- ------ -------- ----- --- ------ ----- --<br>----- ----- ---------- --- --- market ------ ---- -- ------<br>------- --- ------ ----- --- ---- ------- -- ---- --- --<br>------- ------,100392.70000004768,100391.89999985695,99959.504,99968.70000004768,99976.169,100409.5,,38,market
screen,html.Screen,0_2_1_1_39,2021-11-25T16:35:27.485Z,,,,,,,,,,,,,,,,54,,,,,,,,,,,,,,422.2999999523163,,response,,,100,,,,,,Space,keypress(Space),,,,,-- --- ---- --- ------ ----- ------- ---- -- --- ------- --<br>------- ---------- ------ -- ----- -- ----- -- ---- ------<br>--- ----- --- --- ------ -------- ----- --- ------ ----- --<br>----- ----- ---------- --- --- ------ became ---- -- ------<br>------- --- ------ ----- --- ---- ------- -- ---- --- --<br>------- ------,100832.39999985695,100831.79999995232,100392.835,100392.79999995232,100409.5,100842.856,,39,became
screen,html.Screen,0_2_1_1_40,2021-11-25T16:35:27.805Z,,,,,,,,,,,,,,,,54,,,,,,,,,,,,,,308.9439999523165,,response,,,100,,,,,,Space,keypress(Space),,,,,-- --- ---- --- ------ ----- ------- ---- -- --- ------- --<br>------- ---------- ------ -- ----- -- ----- -- ---- ------<br>--- ----- --- --- ------ -------- ----- --- ------ ----- --<br>----- ----- ---------- --- --- ------ ------ wary -- ------<br>------- --- ------ ----- --- ---- ------- -- ---- --- --<br>------- ------,101152.39999985695,101151.79999995232,100826.19,100832.59999990463,100842.856,101159.398,,40,wary
screen,html.Screen,0_2_1_1_41,2021-11-25T16:35:28.293Z,,,,,,,,,,,,,,,,54,,,,,,,,,,,,,,480.40199995231524,,response,,,100,,,,,,Space,keypress(Space),,,,,-- --- ---- --- ------ ----- ------- ---- -- --- ------- --<br>------- ---------- ------ -- ----- -- ----- -- ---- ------<br>--- ----- --- --- ------ -------- ----- --- ------ ----- --<br>----- ----- ---------- --- --- ------ ------ ---- of ------<br>------- --- ------ ----- --- ---- ------- -- ---- --- --<br>------- ------,101640.39999985695,101639.79999995232,101142.734,101152.59999990463,101159.398,101642.816,,41,of
screen,html.Screen,0_2_1_1_42,2021-11-25T16:35:28.805Z,,,,,,,,,,,,,,,,54,,,,,,,,,,,,,,508.9839999523101,,response,,,100,,,,,,Space,keypress(Space),,,,,-- --- ---- --- ------ ----- ------- ---- -- --- ------- --<br>------- ---------- ------ -- ----- -- ----- -- ---- ------<br>--- ----- --- --- ------ -------- ----- --- ------ ----- --<br>----- ----- ---------- --- --- ------ ------ ---- -- French<br>------- --- ------ ----- --- ---- ------- -- ---- --- --<br>------- ------,102152.39999985695,102151.79999995232,101626.15,101640.5,101642.816,102159.307,,42,French
screen,html.Screen,0_2_1_1_43,2021-11-25T16:35:29.357Z,,,,,,,,,,,,,,,,54,,,,,,,,,,,,,,544.393000047683,,response,,,100,,,,,,Space,keypress(Space),,,,,-- --- ---- --- ------ ----- ------- ---- -- --- ------- --<br>------- ---------- ------ -- ----- -- ----- -- ---- ------<br>--- ----- --- --- ------ -------- ----- --- ------ ----- --<br>----- ----- ---------- --- --- ------ ------ ---- -- ------<br>credit. --- ------ ----- --- ---- ------- -- ---- --- --<br>------- ------,102704.29999995232,102703.70000004768,102142.643,102152.59999990463,102159.307,102709.399,,43,credit.
screen,html.Screen,0_2_1_1_44,2021-11-25T16:35:30.021Z,,,,,,,,,,,,,,,,54,,,,,,,,,,,,,,658.6009999999951,,response,,,100,,,,,,Space,keypress(Space),,,,,-- --- ---- --- ------ ----- ------- ---- -- --- ------- --<br>------- ---------- ------ -- ----- -- ----- -- ---- ------<br>--- ----- --- --- ------ -------- ----- --- ------ ----- --<br>----- ----- ---------- --- --- ------ ------ ---- -- ------<br>------- The ------ ----- --- ---- ------- -- ---- --- --<br>------- ------,103368.70000004768,103368,102692.733,102704.5,102709.399,103375.898,,44,The
screen,html.Screen,0_2_1_1_45,2021-11-25T16:35:30.357Z,,,,,,,,,,,,,,,,54,,,,,,,,,,,,,,327.7019999046315,,response,,,100,,,,,,Space,keypress(Space),,,,,-- --- ---- --- ------ ----- ------- ---- -- --- ------- --<br>------- ---------- ------ -- ----- -- ----- -- ---- ------<br>--- ----- --- --- ------ -------- ----- --- ------ ----- --<br>----- ----- ---------- --- --- ------ ------ ---- -- ------<br>------- --- French ----- --- ---- ------- -- ---- --- --<br>------- ------,103704.20000004768,103703.59999990463,103359.234,103368.79999995232,103375.898,103709.281,,45,French
screen,html.Screen,0_2_1_1_46,2021-11-25T16:35:30.965Z,,,,,,,,,,,,,,,,54,,,,,,,,,,,,,,602.3189999046299,,response,,,100,,,,,,Space,keypress(Space),,,,,-- --- ---- --- ------ ----- ------- ---- -- --- ------- --<br>------- ---------- ------ -- ----- -- ----- -- ---- ------<br>--- ----- --- --- ------ -------- ----- --- ------ ----- --<br>----- ----- ---------- --- --- ------ ------ ---- -- ------<br>------- --- ------ state --- ---- ------- -- ---- --- --<br>------- ------,104312.20000004768,104311.59999990463,103692.616,103704.5,103709.281,104325.917,,46,state
screen,html.Screen,0_2_1_1_47,2021-11-25T16:35:31.413Z,,,,,,,,,,,,,,,,54,,,,,,,,,,,,,,433.5829999999987,,response,,,100,,,,,,Space,keypress(Space),,,,,-- --- ---- --- ------ ----- ------- ---- -- --- ------- --<br>------- ---------- ------ -- ----- -- ----- -- ---- ------<br>--- ----- --- --- ------ -------- ----- --- ------ ----- --<br>----- ----- ---------- --- --- ------ ------ ---- -- ------<br>------- --- ------ ----- was ---- ------- -- ---- --- --<br>------- ------,104760.09999990463,104759.5,104309.252,104312.5,104325.917,104775.868,,47,was
screen,html.Screen,0_2_1_1_48,2021-11-25T16:35:31.764Z,,,,,,,,,,,,,,,,54,,,,,,,,,,,,,,335.6319999999978,,response,,,100,,,,,,Space,keypress(Space),,,,,-- --- ---- --- ------ ----- ------- ---- -- --- ------- --<br>------- ---------- ------ -- ----- -- ----- -- ---- ------<br>--- ----- --- --- ------ -------- ----- --- ------ ----- --<br>----- ----- ---------- --- --- ------ ------ ---- -- ------<br>------- --- ------ ----- --- left ------- -- ---- --- --<br>------- ------,105112.09999990463,105111.5,104759.203,104760.29999995232,104775.868,105125.858,,48,left
screen,html.Screen,0_2_1_1_49,2021-11-25T16:35:32.093Z,,,,,,,,,,,,,,,,54,,,,,,,,,,,,,,313.74199990463967,,response,,,100,,,,,,Space,keypress(Space),,,,,-- --- ---- --- ------ ----- ------- ---- -- --- ------- --<br>------- ---------- ------ -- ----- -- ----- -- ---- ------<br>--- ----- --- --- ------ -------- ----- --- ------ ----- --<br>----- ----- ---------- --- --- ------ ------ ---- -- ------<br>------- --- ------ ----- --- ---- without -- ---- --- --<br>------- ------,105440.20000004768,105439.59999990463,105109.193,105112.20000004768,105125.858,105442.583,,49,without
screen,html.Screen,0_2_1_1_50,2021-11-25T16:35:32.397Z,,,,,,,,,,,,,,,,54,,,,,,,,,,,,,,300.9170000000013,,response,,,100,,,,,,Space,keypress(Space),,,,,-- --- ---- --- ------ ----- ------- ---- -- --- ------- --<br>------- ---------- ------ -- ----- -- ----- -- ---- ------<br>--- ----- --- --- ------ -------- ----- --- ------ ----- --<br>----- ----- ---------- --- --- ------ ------ ---- -- ------<br>------- --- ------ ----- --- ---- ------- an ---- --- --<br>------- ------,105744.09999990463,105743.5,105425.917,105440.29999995232,105442.583,105759.186,,50,an
screen,html.Screen,0_2_1_1_51,2021-11-25T16:35:32.756Z,,,,,,,,,,,,,,,,54,,,,,,,,,,,,,,344.3139999999985,,response,,,100,,,,,,Space,keypress(Space),,,,,-- --- ---- --- ------ ----- ------- ---- -- --- ------- --<br>------- ---------- ------ -- ----- -- ----- -- ---- ------<br>--- ----- --- --- ------ -------- ----- --- ------ ----- --<br>----- ----- ---------- --- --- ------ ------ ---- -- ------<br>------- --- ------ ----- --- ---- ------- -- easy --- --<br>------- ------,106104,106103.5,105742.521,105744.29999995232,105759.186,106109.173,,51,easy
screen,html.Screen,0_2_1_1_52,2021-11-25T16:35:33.044Z,,,,,,,,,,,,,,,,54,,,,,,,,,,,,,,282.3270000000048,,response,,,100,,,,,,Space,keypress(Space),,,,,-- --- ---- --- ------ ----- ------- ---- -- --- ------- --<br>------- ---------- ------ -- ----- -- ----- -- ---- ------<br>--- ----- --- --- ------ -------- ----- --- ------ ----- --<br>----- ----- ---------- --- --- ------ ------ ---- -- ------<br>------- --- ------ ----- --- ---- ------- -- ---- way --<br>------- ------,106392.09999990463,106391.5,106092.508,106104.20000004768,106109.173,106409.056,,52,way
screen,html.Screen,0_2_1_1_53,2021-11-25T16:35:33.404Z,,,,,,,,,,,,,,,,54,,,,,,,,,,,,,,342.343999856952,,response,,,100,,,,,,Space,keypress(Space),,,,,-- --- ---- --- ------ ----- ------- ---- -- --- ------- --<br>------- ---------- ------ -- ----- -- ----- -- ---- ------<br>--- ----- --- --- ------ -------- ----- --- ------ ----- --<br>----- ----- ---------- --- --- ------ ------ ---- -- ------<br>------- --- ------ ----- --- ---- ------- -- ---- --- of<br>------- ------,106752,106751.39999985695,106392.393,106392.29999995232,106409.056,106759.098,,53,of
screen,html.Screen,0_2_1_1_54,2021-11-25T16:35:33.900Z,,,,,,,,,,,,,,,,54,,,,,,,,,,,,,,488.3019998569507,,response,,,100,,,,,,Space,keypress(Space),,,,,-- --- ---- --- ------ ----- ------- ---- -- --- ------- --<br>------- ---------- ------ -- ----- -- ----- -- ---- ------<br>--- ----- --- --- ------ -------- ----- --- ------ ----- --<br>----- ----- ---------- --- --- ------ ------ ---- -- ------<br>------- --- ------ ----- --- ---- ------- -- ---- --- --<br>raising ------,107248.09999990463,107247.39999985695,106742.433,106752.09999990463,106759.098,107259.186,,54,raising
screen,html.Screen,0_2_1_1_55,2021-11-25T16:35:34.580Z,,,,,,,,,,,,,,,,54,,,,,,,,,,,,,,668.2139998569473,,response,,,100,,,,,,Space,keypress(Space),,,,,-- --- ---- --- ------ ----- ------- ---- -- --- ------- --<br>------- ---------- ------ -- ----- -- ----- -- ---- ------<br>--- ----- --- --- ------ -------- ----- --- ------ ----- --<br>----- ----- ---------- --- --- ------ ------ ---- -- ------<br>------- --- ------ ----- --- ---- ------- -- ---- --- --<br>------- money.,107927.89999985695,107927.39999985695,107242.519,107248.20000004768,107259.186,107942.268,,55,money.
Item 100,flow.Loop,0_2_1_1,2021-11-25T16:35:34.581Z,,,,,,,,,,,,,,,,,,,,,,,,,,,,,,25833.458999856943,,completion,,,,E,,,,,,,,,,silence,,107928.29999995232,107927.39999985695,82077.276,82078.70000004768,82093.941,107942.268,,,
Question 1,html.Screen,0_2_1_2,2021-11-25T16:35:37.336Z,,,,,,,,,,,,,,,,,,,,,,,,,,,true,TRUE,,2740.1319998569525,,response,,,100,E,,,,,TRUE,click #choice-1,,,,silence,,110683.20000004768,110682.39999985695,107925.604,107928.39999985695,107942.268,110692.147,,,
Question 2,html.Screen,0_2_1_3,2021-11-25T16:35:39.920Z,,,,,,,,,,,,,,,,,,,,,,,,,,,true,FALSE,,2574.9529999046354,,response,,,100,E,,,,,FALSE,click #choice-2,,,,silence,,113267.79999995232,113267.09999990463,110675.483,110683.39999985695,110692.147,113275.367,,,
Item 100,flow.Sequence,0_2_1,2021-11-25T16:35:39.920Z,,,,,,,,,,,,,,,,,,,,,,,,,,,,,,41172.65699990463,,completion,,,,,,,,,,,,,,,,113268.09999990463,113267.09999990463,72077.779,72088.09999990463,72094.443,113275.367,,,
End of Practice,html.Page,0_2_2,2021-11-25T16:35:45.990Z,,,,,,,,,,,,,,,,,,,,,,,,,,,,,,6061.833000047685,,form submission,,,,,,,,,,,,,,,,119337.70000004768,119337.20000004768,113258.702,113268.09999990463,113275.367,119341.689,,,
Practice,flow.Sequence,0_2,2021-11-25T16:35:45.990Z,,,,,,,,,,,,,,,,,,,,,,,,,,,,,,90006.59400004768,,completion,,,,,,,,,,,,,,,,119337.79999995232,119337.20000004768,29313.936,29328.099999904633,29330.606,119341.689,,,
Trap_instruction,html.Page,0_3_0,2021-11-25T16:35:55.715Z,,,,,,,,,,,,,,,,,,,,,,,,,,,,,,9717.910999904634,,form submission,,,,,,,,,,,,,,,,129059.89999985695,129059.59999990463,119325.023,119338.09999990463,119341.689,129073.176,,,
trap_trial,html.Screen,0_3_1,2021-11-25T16:35:58.174Z,,,,,,,,,,,,,,,,,,,,,,,,,,,true,1,,2444.8239999999932,,response,,,,,,,,,1,click #choice-1,,,,,,131518.79999995232,131518,129056.513,129060.09999990463,129073.176,131523.59,,,
end of trap trial,html.Page,0_3_2,2021-11-25T16:36:00.387Z,,,,,,,,,,,,,,,,,,,,,,,,,,,,,,2208.20999995232,,form submission,,,,,,,,,,,,,,,,133732.20000004768,133731.79999995232,131506.929,131518.89999985695,131523.59,133740.778,,,
Trap 1,flow.Sequence,0_3,2021-11-25T16:36:00.387Z,,,,,,,,,,,,,,,,,,,,,,,,,,,,,,14390.110999952318,,completion,,,,,,,,,,,,,,,,133732.39999985695,133731.79999995232,119325.023,119338.09999990463,119341.689,133740.778,,,
Standby,html.Page,0_4_0,2021-11-25T16:36:08.380Z,,,,,,,,,,,,,,,,,,,,,,,,,,,,,,7999.189000000013,,timeout,,,,,,,,,,,,,,,,141724.79999995232,141723.302,133724.113,133732.70000004768,133740.778,141739.967,,,
Holding screen,html.Screen,0_4_1_0_0,2021-11-25T16:36:15.380Z,,,,,,,,,,,,,,,,,,,,,,,,,,,,,,6999.861999999994,,timeout,,,,,,,,,,,,,,,,148724.70000004768,148723.164,141723.302,141725,141739.967,148739.829,,,
screen,html.Screen,0_4_1_0_1_0,2021-11-25T16:36:16.197Z,,,,,,,,,,,,,,,,2,,,,,,,,,,,,,,801.2709999046347,,response,,,1,E,,,,,Space,keypress(Space),,,,lyrical,Two ---- ------ --- ------- ---------- ------- ----------<br>--- --------- --- ----------- ------- ----- ------- ---<br>--------- ---- -- --- ---- -- --------- -- ---- -------<br>-- --------- ------ --- ----- ------ ---- --- --------- --<br>------ - ---- -- --- ----------- ------- ---- ----- -----<br>--- -------- - ------ ---- -- ----- ---- --- --- -----------<br>-- -------,149541.89999985695,149541.09999990463,148723.164,148725,148739.829,149556.451,,0,Two
screen,html.Screen,0_4_1_0_1_1,2021-11-25T16:36:16.612Z,,,,,,,,,,,,,,,,2,,,,,,,,,,,,,,400.34899995231535,,response,,,1,E,,,,,Space,keypress(Space),,,,lyrical,--- days ------ --- ------- ---------- ------- ----------<br>--- --------- --- ----------- ------- ----- ------- ---<br>--------- ---- -- --- ---- -- --------- -- ---- -------<br>-- --------- ------ --- ----- ------ ---- --- --------- --<br>------ - ---- -- --- ----------- ------- ---- ----- -----<br>--- -------- - ------ ---- -- ----- ---- --- --- -----------<br>-- -------,149957.39999985695,149956.79999995232,149539.786,149542.09999990463,149556.451,149973.11,,1,days
screen,html.Screen,0_4_1_0_1_2,2021-11-25T16:36:17.076Z,,,,,,,,,,,,,,,,2,,,,,,,,,,,,,,447.68999995233025,,response,,,1,E,,,,,Space,keypress(Space),,,,lyrical,"--- ---- later, --- ------- ---------- ------- ----------<br>--- --------- --- ----------- ------- ----- ------- ---<br>--------- ---- -- --- ---- -- --------- -- ---- -------<br>-- --------- ------ --- ----- ------ ---- --- --------- --<br>------ - ---- -- --- ----------- ------- ---- ----- -----<br>--- -------- - ------ ---- -- ----- ---- --- --- -----------<br>-- -------",150421.5,150420.79999995232,149956.445,149957.70000004768,149973.11,150423.08,,2,"later,"
screen,html.Screen,0_4_1_0_1_3,2021-11-25T16:36:17.492Z,,,,,,,,,,,,,,,,2,,,,,,,,,,,,,,413.7199999523291,,response,,,1,E,,,,,Space,keypress(Space),,,,lyrical,--- ---- ------ the ------- ---------- ------- ----------<br>--- --------- --- ----------- ------- ----- ------- ---<br>--------- ---- -- --- ---- -- --------- -- ---- -------<br>-- --------- ------ --- ----- ------ ---- --- --------- --<br>------ - ---- -- --- ----------- ------- ---- ----- -----<br>--- -------- - ------ ---- -- ----- ---- --- --- -----------<br>-- -------,150837.39999985695,150836.79999995232,150406.415,150421.59999990463,150423.08,150839.736,,3,the
screen,html.Screen,0_4_1_0_1_4,2021-11-25T16:36:17.852Z,,,,,,,,,,,,,,,,2,,,,,,,,,,,,,,356.9640000476793,,response,,,1,E,,,,,Space,keypress(Space),,,,lyrical,--- ---- ------ --- British ---------- ------- ----------<br>--- --------- --- ----------- ------- ----- ------- ---<br>--------- ---- -- --- ---- -- --------- -- ---- -------<br>-- --------- ------ --- ----- ------ ---- --- --------- --<br>------ - ---- -- --- ----------- ------- ---- ----- -----<br>--- -------- - ------ ---- -- ----- ---- --- --- -----------<br>-- -------,151197.29999995232,151196.70000004768,150823.071,150837.5,150839.736,151206.39,,4,British
screen,html.Screen,0_4_1_0_1_5,2021-11-25T16:36:18.676Z,,,,,,,,,,,,,,,,2,,,,,,,,,,,,,,814.4099999523023,,response,,,1,E,,,,,Space,keypress(Space),,,,lyrical,--- ---- ------ --- ------- astronomer ------- ----------<br>--- --------- --- ----------- ------- ----- ------- ---<br>--------- ---- -- --- ---- -- --------- -- ---- -------<br>-- --------- ------ --- ----- ------ ---- --- --------- --<br>------ - ---- -- --- ----------- ------- ---- ----- -----<br>--- -------- - ------ ---- -- ----- ---- --- --- -----------<br>-- -------,152021.39999985695,152020.79999995232,151189.725,151197.5,151206.39,152022.982,,5,astronomer
screen,html.Screen,0_4_1_0_1_6,2021-11-25T16:36:19.148Z,,,,,,,,,,,,,,,,2,,,,,,,,,,,,,,469.6179999046435,,response,,,1,E,,,,,Space,keypress(Space),,,,lyrical,--- ---- ------ --- ------- ---------- Richard ----------<br>--- --------- --- ----------- ------- ----- ------- ---<br>--------- ---- -- --- ---- -- --------- -- ---- -------<br>-- --------- ------ --- ----- ------ ---- --- --------- --<br>------ - ---- -- --- ----------- ------- ---- ----- -----<br>--- -------- - ------ ---- -- ----- ---- --- --- -----------<br>-- -------,152493.29999995232,152492.59999990463,152006.317,152021.59999990463,152022.982,152506.197,,6,Richard
screen,html.Screen,0_4_1_0_1_7,2021-11-25T16:36:19.620Z,,,,,,,,,,,,,,,,2,,,,,,,,,,,,,,458.402999904647,,response,,,1,E,,,,,Space,keypress(Space),,,,lyrical,--- ---- ------ --- ------- ---------- ------- Carrington<br>--- --------- --- ----------- ------- ----- ------- ---<br>--------- ---- -- --- ---- -- --------- -- ---- -------<br>-- --------- ------ --- ----- ------ ---- --- --------- --<br>------ - ---- -- --- ----------- ------- ---- ----- -----<br>--- -------- - ------ ---- -- ----- ---- --- --- -----------<br>-- -------,152965.20000004768,152964.59999990463,152489.533,152493.5,152506.197,152972.914,,7,Carrington
screen,html.Screen,0_4_1_0_1_8,2021-11-25T16:36:20.092Z,,,,,,,,,,,,,,,,2,,,,,,,,,,,,,,463.78600004769396,,response,,,1,E,,,,,Space,keypress(Space),,,,lyrical,--- ---- ------ --- ------- ---------- ------- ----------<br>was --------- --- ----------- ------- ----- ------- ---<br>--------- ---- -- --- ---- -- --------- -- ---- -------<br>-- --------- ------ --- ----- ------ ---- --- --------- --<br>------ - ---- -- --- ----------- ------- ---- ----- -----<br>--- -------- - ------ ---- -- ----- ---- --- --- -----------<br>-- -------,153437.20000004768,153436.70000004768,152956.249,152965.29999995232,152972.914,153439.568,,8,was
screen,html.Screen,0_4_1_0_1_9,2021-11-25T16:36:20.620Z,,,,,,,,,,,,,,,,2,,,,,,,,,,,,,,525.0319999046333,,response,,,1,E,,,,,Space,keypress(Space),,,,lyrical,--- ---- ------ --- ------- ---------- ------- ----------<br>--- observing --- ----------- ------- ----- ------- ---<br>--------- ---- -- --- ---- -- --------- -- ---- -------<br>-- --------- ------ --- ----- ------ ---- --- --------- --<br>------ - ---- -- --- ----------- ------- ---- ----- -----<br>--- -------- - ------ ---- -- ----- ---- --- --- -----------<br>-- -------,153965.20000004768,153964.59999990463,153422.903,153437.39999985695,153439.568,153972.92,,9,observing
screen,html.Screen,0_4_1_0_1_10,2021-11-25T16:36:20.988Z,,,,,,,,,,,,,,,,2,,,,,,,,,,,,,,359.5799999999872,,response,,,1,E,,,,,Space,keypress(Space),,,,lyrical,--- ---- ------ --- ------- ---------- ------- ----------<br>--- --------- the ----------- ------- ----- ------- ---<br>--------- ---- -- --- ---- -- --------- -- ---- -------<br>-- --------- ------ --- ----- ------ ---- --- --------- --<br>------ - ---- -- --- ----------- ------- ---- ----- -----<br>--- -------- - ------ ---- -- ----- ---- --- --- -----------<br>-- -------,154333.09999990463,154332.5,153956.254,153965.39999985695,153972.92,154339.521,,10,the
screen,html.Screen,0_4_1_0_1_11,2021-11-25T16:36:21.620Z,,,,,,,,,,,,,,,,2,,,,,,,,,,,,,,624.9789999999921,,response,,,1,E,,,,,Space,keypress(Space),,,,lyrical,--- ---- ------ --- ------- ---------- ------- ----------<br>--- --------- --- interesting ------- ----- ------- ---<br>--------- ---- -- --- ---- -- --------- -- ---- -------<br>-- --------- ------ --- ----- ------ ---- --- --------- --<br>------ - ---- -- --- ----------- ------- ---- ----- -----<br>--- -------- - ------ ---- -- ----- ---- --- --- -----------<br>-- -------,154965.09999990463,154964.5,154322.856,154333.29999995232,154339.521,154972.788,,11,interesting
screen,html.Screen,0_4_1_0_1_12,2021-11-25T16:36:22.164Z,,,,,,,,,,,,,,,,2,,,,,,,,,,,,,,535.7119999999995,,response,,,1,E,,,,,Space,keypress(Space),,,,lyrical,--- ---- ------ --- ------- ---------- ------- ----------<br>--- --------- --- ----------- sunspot ----- ------- ---<br>--------- ---- -- --- ---- -- --------- -- ---- -------<br>-- --------- ------ --- ----- ------ ---- --- --------- --<br>------ - ---- -- --- ----------- ------- ---- ----- -----<br>--- -------- - ------ ---- -- ----- ---- --- --- -----------<br>-- -------,155509.20000004768,155508.5,154956.123,154965.29999995232,154972.788,155522.83,,12,sunspot
screen,html.Screen,0_4_1_0_1_13,2021-11-25T16:36:23.308Z,,,,,,,,,,,,,,,,2,,,,,,,,,,,,,,1129.6700000000128,,response,,,1,E,,,,,Space,keypress(Space),,,,lyrical,--- ---- ------ --- ------- ---------- ------- ----------<br>--- --------- --- ----------- ------- group ------- ---<br>--------- ---- -- --- ---- -- --------- -- ---- -------<br>-- --------- ------ --- ----- ------ ---- --- --------- --<br>------ - ---- -- --- ----------- ------- ---- ----- -----<br>--- -------- - ------ ---- -- ----- ---- --- --- -----------<br>-- -------,156653.09999990463,156652.5,155506.164,155509.5,155522.83,156656.031,,13,group
screen,html.Screen,0_4_1_0_1_14,2021-11-25T16:36:23.892Z,,,,,,,,,,,,,,,,2,,,,,,,,,,,,,,580.3689998569607,,response,,,1,E,,,,,Space,keypress(Space),,,,lyrical,--- ---- ------ --- ------- ---------- ------- ----------<br>--- --------- --- ----------- ------- ----- through ---<br>--------- ---- -- --- ---- -- --------- -- ---- -------<br>-- --------- ------ --- ----- ------ ---- --- --------- --<br>------ - ---- -- --- ----------- ------- ---- ----- -----<br>--- -------- - ------ ---- -- ----- ---- --- --- -----------<br>-- -------,157237,157236.39999985695,156639.366,156653.29999995232,156656.031,157239.232,,14,through
screen,html.Screen,0_4_1_0_1_15,2021-11-25T16:36:24.284Z,,,,,,,,,,,,,,,,2,,,,,,,,,,,,,,389.0679999523272,,response,,,1,E,,,,,Space,keypress(Space),,,,lyrical,--- ---- ------ --- ------- ---------- ------- ----------<br>--- --------- --- ----------- ------- ----- ------- his<br>--------- ---- -- --- ---- -- --------- -- ---- -------<br>-- --------- ------ --- ----- ------ ---- --- --------- --<br>------ - ---- -- --- ----------- ------- ---- ----- -----<br>--- -------- - ------ ---- -- ----- ---- --- --- -----------<br>-- -------,157628.89999985695,157628.29999995232,157222.568,157237.20000004768,157239.232,157639.32,,15,his
screen,html.Screen,0_4_1_0_1_16,2021-11-25T16:36:24.740Z,,,,,,,,,,,,,,,,2,,,,,,,,,,,,,,444.9799999523093,,response,,,1,E,,,,,Space,keypress(Space),,,,lyrical,--- ---- ------ --- ------- ---------- ------- ----------<br>--- --------- --- ----------- ------- ----- ------- ---<br>telescope ---- -- --- ---- -- --------- -- ---- -------<br>-- --------- ------ --- ----- ------ ---- --- --------- --<br>------ - ---- -- --- ----------- ------- ---- ----- -----<br>--- -------- - ------ ---- -- ----- ---- --- --- -----------<br>-- -------,158085,158084.29999995232,157622.655,157629.09999990463,157639.32,158089.277,,16,telescope
screen,html.Screen,0_4_1_0_1_17,2021-11-25T16:36:25.092Z,,,,,,,,,,,,,,,,2,,,,,,,,,,,,,,347.0229999523144,,response,,,1,E,,,,,Space,keypress(Space),,,,lyrical,--- ---- ------ --- ------- ---------- ------- ----------<br>--- --------- --- ----------- ------- ----- ------- ---<br>--------- when -- --- ---- -- --------- -- ---- -------<br>-- --------- ------ --- ----- ------ ---- --- --------- --<br>------ - ---- -- --- ----------- ------- ---- ----- -----<br>--- -------- - ------ ---- -- ----- ---- --- --- -----------<br>-- -------,158436.89999985695,158436.29999995232,158072.612,158085.20000004768,158089.277,158439.268,,17,when
screen,html.Screen,0_4_1_0_1_18,2021-11-25T16:36:25.396Z,,,,,,,,,,,,,,,,2,,,,,,,,,,,,,,300.9320000476728,,response,,,1,E,,,,,Space,keypress(Space),,,,lyrical,--- ---- ------ --- ------- ---------- ------- ----------<br>--- --------- --- ----------- ------- ----- ------- ---<br>--------- ---- he --- ---- -- --------- -- ---- -------<br>-- --------- ------ --- ----- ------ ---- --- --------- --<br>------ - ---- -- --- ----------- ------- ---- ----- -----<br>--- -------- - ------ ---- -- ----- ---- --- --- -----------<br>-- -------,158740.79999995232,158740.20000004768,158422.603,158437,158439.268,158755.953,,18,he
screen,html.Screen,0_4_1_0_1_19,2021-11-25T16:36:25.804Z,,,,,,,,,,,,,,,,2,,,,,,,,,,,,,,392.34699995230767,,response,,,1,E,,,,,Space,keypress(Space),,,,lyrical,--- ---- ------ --- ------- ---------- ------- ----------<br>--- --------- --- ----------- ------- ----- ------- ---<br>--------- ---- -- saw ---- -- --------- -- ---- -------<br>-- --------- ------ --- ----- ------ ---- --- --------- --<br>------ - ---- -- --- ----------- ------- ---- ----- -----<br>--- -------- - ------ ---- -- ----- ---- --- --- -----------<br>-- -------,159148.89999985695,159148.29999995232,158739.287,158741,158755.953,159155.785,,19,saw
screen,html.Screen,0_4_1_0_1_20,2021-11-25T16:36:26.372Z,,,,,,,,,,,,,,,,2,,,,,,,,,,,,,,560.6149998569454,,response,,,1,E,,,,,Space,keypress(Space),,,,lyrical,--- ---- ------ --- ------- ---------- ------- ----------<br>--- --------- --- ----------- ------- ----- ------- ---<br>--------- ---- -- --- what -- --------- -- ---- -------<br>-- --------- ------ --- ----- ------ ---- --- --------- --<br>------ - ---- -- --- ----------- ------- ---- ----- -----<br>--- -------- - ------ ---- -- ----- ---- --- --- -----------<br>-- -------,159717.09999990463,159716.39999985695,159139.122,159149,159155.785,159722.581,,20,what
screen,html.Screen,0_4_1_0_1_21,2021-11-25T16:36:26.716Z,,,,,,,,,,,,,,,,2,,,,,,,,,,,,,,337.6190000476781,,response,,,1,E,,,,,Space,keypress(Space),,,,lyrical,--- ---- ------ --- ------- ---------- ------- ----------<br>--- --------- --- ----------- ------- ----- ------- ---<br>--------- ---- -- --- ---- he --------- -- ---- -------<br>-- --------- ------ --- ----- ------ ---- --- --------- --<br>------ - ---- -- --- ----------- ------- ---- ----- -----<br>--- -------- - ------ ---- -- ----- ---- --- --- -----------<br>-- -------,160060.79999995232,160060.20000004768,159705.915,159717.29999995232,159722.581,160072.423,,21,he
screen,html.Screen,0_4_1_0_1_22,2021-11-25T16:36:27.332Z,,,,,,,,,,,,,,,,2,,,,,,,,,,,,,,603.6769999046228,,response,,,1,E,,,,,Space,keypress(Space),,,,lyrical,--- ---- ------ --- ------- ---------- ------- ----------<br>--- --------- --- ----------- ------- ----- ------- ---<br>--------- ---- -- --- ---- -- described -- ---- -------<br>-- --------- ------ --- ----- ------ ---- --- --------- --<br>------ - ---- -- --- ----------- ------- ---- ----- -----<br>--- -------- - ------ ---- -- ----- ---- --- --- -----------<br>-- -------,160676.79999995232,160676.09999990463,160055.759,160061,160072.423,160689.11,,22,described
screen,html.Screen,0_4_1_0_1_23,2021-11-25T16:36:27.908Z,,,,,,,,,,,,,,,,2,,,,,,,,,,,,,,563.0900000476977,,response,,,1,E,,,,,Space,keypress(Space),,,,lyrical,--- ---- ------ --- ------- ---------- ------- ----------<br>--- --------- --- ----------- ------- ----- ------- ---<br>--------- ---- -- --- ---- -- --------- as ---- -------<br>-- --------- ------ --- ----- ------ ---- --- --------- --<br>------ - ---- -- --- ----------- ------- ---- ----- -----<br>--- -------- - ------ ---- -- ----- ---- --- --- -----------<br>-- -------,161252.79999995232,161252.20000004768,160672.445,160676.89999985695,160689.11,161255.818,,23,as
screen,html.Screen,0_4_1_0_1_24,2021-11-25T16:36:28.252Z,,,,,,,,,,,,,,,,2,,,,,,,,,,,,,,340.28199990463327,,response,,,1,E,,,,,Space,keypress(Space),,,,lyrical,"--- ---- ------ --- ------- ---------- ------- ----------<br>--- --------- --- ----------- ------- ----- ------- ---<br>--------- ---- -- --- ---- -- --------- -- ""two -------<br>-- --------- ------ --- ----- ------ ---- --- --------- --<br>------ - ---- -- --- ----------- ------- ---- ----- -----<br>--- -------- - ------ ---- -- ----- ---- --- --- -----------<br>-- -------",161596.70000004768,161596.09999990463,161239.152,161253,161255.818,161605.735,,24,"""two"
screen,html.Screen,0_4_1_0_1_25,2021-11-25T16:36:28.820Z,,,,,,,,,,,,,,,,2,,,,,,,,,,,,,,558.4650000476977,,response,,,1,E,,,,,Space,keypress(Space),,,,lyrical,--- ---- ------ --- ------- ---------- ------- ----------<br>--- --------- --- ----------- ------- ----- ------- ---<br>--------- ---- -- --- ---- -- --------- -- ---- patches<br>-- --------- ------ --- ----- ------ ---- --- --------- --<br>------ - ---- -- --- ----------- ------- ---- ----- -----<br>--- -------- - ------ ---- -- ----- ---- --- --- -----------<br>-- -------,162164.70000004768,162164.20000004768,161589.07,161596.79999995232,161605.735,162172.295,,25,patches
screen,html.Screen,0_4_1_0_1_26,2021-11-25T16:36:29.396Z,,,,,,,,,,,,,,,,2,,,,,,,,,,,,,,567.7049999999872,,response,,,1,E,,,,,Space,keypress(Space),,,,lyrical,--- ---- ------ --- ------- ---------- ------- ----------<br>--- --------- --- ----------- ------- ----- ------- ---<br>--------- ---- -- --- ---- -- --------- -- ---- -------<br>of --------- ------ --- ----- ------ ---- --- --------- --<br>------ - ---- -- --- ----------- ------- ---- ----- -----<br>--- -------- - ------ ---- -- ----- ---- --- --- -----------<br>-- -------,162740.70000004768,162740,162155.631,162164.89999985695,162172.295,162755.702,,26,of
screen,html.Screen,0_4_1_0_1_27,2021-11-25T16:36:29.852Z,,,,,,,,,,,,,,,,2,,,,,,,,,,,,,,440.39799990464235,,response,,,1,E,,,,,Space,keypress(Space),,,,lyrical,--- ---- ------ --- ------- ---------- ------- ----------<br>--- --------- --- ----------- ------- ----- ------- ---<br>--------- ---- -- --- ---- -- --------- -- ---- -------<br>-- intensely ------ --- ----- ------ ---- --- --------- --<br>------ - ---- -- --- ----------- ------- ---- ----- -----<br>--- -------- - ------ ---- -- ----- ---- --- --- -----------<br>-- -------,163196.70000004768,163196.09999990463,162739.036,162740.79999995232,162755.702,163205.646,,27,intensely
screen,html.Screen,0_4_1_0_1_28,2021-11-25T16:36:30.291Z,,,,,,,,,,,,,,,,2,,,,,,,,,,,,,,430.3539999999921,,response,,,1,E,,,,,Space,keypress(Space),,,,lyrical,--- ---- ------ --- ------- ---------- ------- ----------<br>--- --------- --- ----------- ------- ----- ------- ---<br>--------- ---- -- --- ---- -- --------- -- ---- -------<br>-- --------- bright --- ----- ------ ---- --- --------- --<br>------ - ---- -- --- ----------- ------- ---- ----- -----<br>--- -------- - ------ ---- -- ----- ---- --- --- -----------<br>-- -------,163636.59999990463,163636,163188.981,163196.89999985695,163205.646,163638.927,,28,bright
screen,html.Screen,0_4_1_0_1_29,2021-11-25T16:36:30.739Z,,,,,,,,,,,,,,,,2,,,,,,,,,,,,,,445.07300000000396,,response,,,1,E,,,,,Space,keypress(Space),,,,lyrical,--- ---- ------ --- ------- ---------- ------- ----------<br>--- --------- --- ----------- ------- ----- ------- ---<br>--------- ---- -- --- ---- -- --------- -- ---- -------<br>-- --------- ------ and ----- ------ ---- --- --------- --<br>------ - ---- -- --- ----------- ------- ---- ----- -----<br>--- -------- - ------ ---- -- ----- ---- --- --- -----------<br>-- -------,164084.59999990463,164084,163622.262,163636.70000004768,163638.927,164088.906,,29,and
screen,html.Screen,0_4_1_0_1_30,2021-11-25T16:36:31.115Z,,,,,,,,,,,,,,,,2,,,,,,,,,,,,,,371.0940000000119,,response,,,1,E,,,,,Space,keypress(Space),,,,lyrical,--- ---- ------ --- ------- ---------- ------- ----------<br>--- --------- --- ----------- ------- ----- ------- ---<br>--------- ---- -- --- ---- -- --------- -- ---- -------<br>-- --------- ------ --- white ------ ---- --- --------- --<br>------ - ---- -- --- ----------- ------- ---- ----- -----<br>--- -------- - ------ ---- -- ----- ---- --- --- -----------<br>-- -------,164460.59999990463,164460,164072.241,164084.79999995232,164088.906,164472.229,,30,white
screen,html.Screen,0_4_1_0_1_31,2021-11-25T16:36:31.515Z,,,,,,,,,,,,,,,,2,,,,,,,,,,,,,,387.67099985695677,,response,,,1,E,,,,,Space,keypress(Space),,,,lyrical,"--- ---- ------ --- ------- ---------- ------- ----------<br>--- --------- --- ----------- ------- ----- ------- ---<br>--------- ---- -- --- ---- -- --------- -- ---- -------<br>-- --------- ------ --- ----- light"" ---- --- --------- --<br>------ - ---- -- --- ----------- ------- ---- ----- -----<br>--- -------- - ------ ---- -- ----- ---- --- --- -----------<br>-- -------",164860.39999985695,164859.89999985695,164455.564,164460.79999995232,164472.229,164872.205,,31,"light"""
screen,html.Screen,0_4_1_0_1_32,2021-11-25T16:36:31.891Z,,,,,,,,,,,,,,,,2,,,,,,,,,,,,,,363.69499985696166,,response,,,1,E,,,,,Space,keypress(Space),,,,lyrical,--- ---- ------ --- ------- ---------- ------- ----------<br>--- --------- --- ----------- ------- ----- ------- ---<br>--------- ---- -- --- ---- -- --------- -- ---- -------<br>-- --------- ------ --- ----- ------ over --- --------- --<br>------ - ---- -- --- ----------- ------- ---- ----- -----<br>--- -------- - ------ ---- -- ----- ---- --- --- -----------<br>-- -------,165236.5,165235.89999985695,164855.54,164860.59999990463,164872.205,165238.855,,32,over
screen,html.Screen,0_4_1_0_1_33,2021-11-25T16:36:32.307Z,,,,,,,,,,,,,,,,2,,,,,,,,,,,,,,413.0449998569384,,response,,,1,E,,,,,Space,keypress(Space),,,,lyrical,--- ---- ------ --- ------- ---------- ------- ----------<br>--- --------- --- ----------- ------- ----- ------- ---<br>--------- ---- -- --- ---- -- --------- -- ---- -------<br>-- --------- ------ --- ----- ------ ---- the --------- --<br>------ - ---- -- --- ----------- ------- ---- ----- -----<br>--- -------- - ------ ---- -- ----- ---- --- --- -----------<br>-- -------,165652.5,165651.89999985695,165222.19,165236.59999990463,165238.855,165655.496,,33,the
screen,html.Screen,0_4_1_0_1_34,2021-11-25T16:36:32.587Z,,,,,,,,,,,,,,,,2,,,,,,,,,,,,,,276.30399995230255,,response,,,1,E,,,,,Space,keypress(Space),,,,lyrical,--- ---- ------ --- ------- ---------- ------- ----------<br>--- --------- --- ----------- ------- ----- ------- ---<br>--------- ---- -- --- ---- -- --------- -- ---- -------<br>-- --------- ------ --- ----- ------ ---- --- sunspots. --<br>------ - ---- -- --- ----------- ------- ---- ----- -----<br>--- -------- - ------ ---- -- ----- ---- --- --- -----------<br>-- -------,165932.39999985695,165931.79999995232,165638.831,165652.70000004768,165655.496,165938.796,,34,sunspots.
screen,html.Screen,0_4_1_0_1_35,2021-11-25T16:36:33.595Z,,,,,,,,,,,,,,,,2,,,,,,,,,,,,,,1001.0039999523142,,response,,,1,E,,,,,Space,keypress(Space),,,,lyrical,--- ---- ------ --- ------- ---------- ------- ----------<br>--- --------- --- ----------- ------- ----- ------- ---<br>--------- ---- -- --- ---- -- --------- -- ---- -------<br>-- --------- ------ --- ----- ------ ---- --- --------- He<br>------ - ---- -- --- ----------- ------- ---- ----- -----<br>--- -------- - ------ ---- -- ----- ---- --- --- -----------<br>-- -------,166940.39999985695,166939.79999995232,165922.131,165932.59999990463,165938.796,166955.39,,35,He
screen,html.Screen,0_4_1_0_1_36,2021-11-25T16:36:34.451Z,,,,,,,,,,,,,,,,2,,,,,,,,,,,,,,840.3100000476697,,response,,,1,E,,,,,Space,keypress(Space),,,,lyrical,--- ---- ------ --- ------- ---------- ------- ----------<br>--- --------- --- ----------- ------- ----- ------- ---<br>--------- ---- -- --- ---- -- --------- -- ---- -------<br>-- --------- ------ --- ----- ------ ---- --- --------- --<br>jotted - ---- -- --- ----------- ------- ---- ----- -----<br>--- -------- - ------ ---- -- ----- ---- --- --- -----------<br>-- -------,167796.29999995232,167795.70000004768,166938.725,166940.59999990463,166955.39,167805.107,,36,jotted
screen,html.Screen,0_4_1_0_1_37,2021-11-25T16:36:34.891Z,,,,,,,,,,,,,,,,2,,,,,,,,,,,,,,430.59300004769466,,response,,,1,E,,,,,Space,keypress(Space),,,,lyrical,--- ---- ------ --- ------- ---------- ------- ----------<br>--- --------- --- ----------- ------- ----- ------- ---<br>--------- ---- -- --- ---- -- --------- -- ---- -------<br>-- --------- ------ --- ----- ------ ---- --- --------- --<br>------ a ---- -- --- ----------- ------- ---- ----- -----<br>--- -------- - ------ ---- -- ----- ---- --- --- -----------<br>-- -------,168236.39999985695,168235.70000004768,167788.444,167796.5,167805.107,168238.629,,37,a
screen,html.Screen,0_4_1_0_1_38,2021-11-25T16:36:35.611Z,,,,,,,,,,,,,,,,2,,,,,,,,,,,,,,716.9709999046463,,response,,,1,E,,,,,Space,keypress(Space),,,,lyrical,--- ---- ------ --- ------- ---------- ------- ----------<br>--- --------- --- ----------- ------- ----- ------- ---<br>--------- ---- -- --- ---- -- --------- -- ---- -------<br>-- --------- ------ --- ----- ------ ---- --- --------- --<br>------ - note -- --- ----------- ------- ---- ----- -----<br>--- -------- - ------ ---- -- ----- ---- --- --- -----------<br>-- -------,168956.29999995232,168955.59999990463,168221.964,168236.5,168238.629,168971.938,,38,note
screen,html.Screen,0_4_1_0_1_39,2021-11-25T16:36:36.003Z,,,,,,,,,,,,,,,,2,,,,,,,,,,,,,,375.76200004768907,,response,,,1,E,,,,,Space,keypress(Space),,,,lyrical,--- ---- ------ --- ------- ---------- ------- ----------<br>--- --------- --- ----------- ------- ----- ------- ---<br>--------- ---- -- --- ---- -- --------- -- ---- -------<br>-- --------- ------ --- ----- ------ ---- --- --------- --<br>------ - ---- in --- ----------- ------- ---- ----- -----<br>--- -------- - ------ ---- -- ----- ---- --- --- -----------<br>-- -------,169348.20000004768,169347.70000004768,168955.273,168956.5,168971.938,169355.249,,39,in
screen,html.Screen,0_4_1_0_1_40,2021-11-25T16:36:36.371Z,,,,,,,,,,,,,,,,2,,,,,,,,,,,,,,360.35099990462186,,response,,,1,E,,,,,Space,keypress(Space),,,,lyrical,--- ---- ------ --- ------- ---------- ------- ----------<br>--- --------- --- ----------- ------- ----- ------- ---<br>--------- ---- -- --- ---- -- --------- -- ---- -------<br>-- --------- ------ --- ----- ------ ---- --- --------- --<br>------ - ---- -- his ----------- ------- ---- ----- -----<br>--- -------- - ------ ---- -- ----- ---- --- --- -----------<br>-- -------,169716.09999990463,169715.59999990463,169338.584,169348.39999985695,169355.249,169721.958,,40,his
screen,html.Screen,0_4_1_0_1_41,2021-11-25T16:36:36.731Z,,,,,,,,,,,,,,,,2,,,,,,,,,,,,,,353.841999952303,,response,,,1,E,,,,,Space,keypress(Space),,,,lyrical,--- ---- ------ --- ------- ---------- ------- ----------<br>--- --------- --- ----------- ------- ----- ------- ---<br>--------- ---- -- --- ---- -- --------- -- ---- -------<br>-- --------- ------ --- ----- ------ ---- --- --------- --<br>------ - ---- -- --- painstaking ------- ---- ----- -----<br>--- -------- - ------ ---- -- ----- ---- --- --- -----------<br>-- -------,170076.39999985695,170075.79999995232,169705.292,169716.20000004768,169721.958,170088.453,,41,painstaking
screen,html.Screen,0_4_1_0_1_42,2021-11-25T16:36:37.371Z,,,,,,,,,,,,,,,,2,,,,,,,,,,,,,,627.146999904624,,response,,,1,E,,,,,Space,keypress(Space),,,,lyrical,--- ---- ------ --- ------- ---------- ------- ----------<br>--- --------- --- ----------- ------- ----- ------- ---<br>--------- ---- -- --- ---- -- --------- -- ---- -------<br>-- --------- ------ --- ----- ------ ---- --- --------- --<br>------ - ---- -- --- ----------- record. ---- ----- -----<br>--- -------- - ------ ---- -- ----- ---- --- --- -----------<br>-- -------,170716.20000004768,170715.59999990463,170071.79,170076.59999990463,170088.453,170721.887,,42,record.
screen,html.Screen,0_4_1_0_1_43,2021-11-25T16:36:37.771Z,,,,,,,,,,,,,,,,2,,,,,,,,,,,,,,393.6130000000121,,response,,,1,E,,,,,Space,keypress(Space),,,,lyrical,--- ---- ------ --- ------- ---------- ------- ----------<br>--- --------- --- ----------- ------- ----- ------- ---<br>--------- ---- -- --- ---- -- --------- -- ---- -------<br>-- --------- ------ --- ----- ------ ---- --- --------- --<br>------ - ---- -- --- ----------- ------- That ----- -----<br>--- -------- - ------ ---- -- ----- ---- --- --- -----------<br>-- -------,171116.09999990463,171115.5,170705.221,170716.39999985695,170721.887,171121.88,,43,That
screen,html.Screen,0_4_1_0_1_44,2021-11-25T16:36:38.099Z,,,,,,,,,,,,,,,,2,,,,,,,,,,,,,,321.7199999046279,,response,,,1,E,,,,,Space,keypress(Space),,,,lyrical,--- ---- ------ --- ------- ---------- ------- ----------<br>--- --------- --- ----------- ------- ----- ------- ---<br>--------- ---- -- --- ---- -- --------- -- ---- -------<br>-- --------- ------ --- ----- ------ ---- --- --------- --<br>------ - ---- -- --- ----------- ------- ---- night -----<br>--- -------- - ------ ---- -- ----- ---- --- --- -----------<br>-- -------,171444.09999990463,171443.59999990463,171105.214,171116.29999995232,171121.88,171455.082,,44,night
screen,html.Screen,0_4_1_0_1_45,2021-11-25T16:36:38.435Z,,,,,,,,,,,,,,,,2,,,,,,,,,,,,,,324.4180000000051,,response,,,1,E,,,,,Space,keypress(Space),,,,lyrical,--- ---- ------ --- ------- ---------- ------- ----------<br>--- --------- --- ----------- ------- ----- ------- ---<br>--------- ---- -- --- ---- -- --------- -- ---- -------<br>-- --------- ------ --- ----- ------ ---- --- --------- --<br>------ - ---- -- --- ----------- ------- ---- ----- there<br>--- -------- - ------ ---- -- ----- ---- --- --- -----------<br>-- -------,171780.09999990463,171779.5,171438.418,171444.29999995232,171455.082,171788.436,,45,there
screen,html.Screen,0_4_1_0_1_46,2021-11-25T16:36:38.811Z,,,,,,,,,,,,,,,,2,,,,,,,,,,,,,,367.1639999046456,,response,,,1,E,,,,,Space,keypress(Space),,,,lyrical,--- ---- ------ --- ------- ---------- ------- ----------<br>--- --------- --- ----------- ------- ----- ------- ---<br>--------- ---- -- --- ---- -- --------- -- ---- -------<br>-- --------- ------ --- ----- ------ ---- --- --------- --<br>------ - ---- -- --- ----------- ------- ---- ----- -----<br>was -------- - ------ ---- -- ----- ---- --- --- -----------<br>-- -------,172156.20000004768,172155.59999990463,171771.771,171780.39999985695,171788.436,172171.756,,46,was
screen,html.Screen,0_4_1_0_1_47,2021-11-25T16:36:39.195Z,,,,,,,,,,,,,,,,2,,,,,,,,,,,,,,367.6439998569549,,response,,,1,E,,,,,Space,keypress(Space),,,,lyrical,--- ---- ------ --- ------- ---------- ------- ----------<br>--- --------- --- ----------- ------- ----- ------- ---<br>--------- ---- -- --- ---- -- --------- -- ---- -------<br>-- --------- ------ --- ----- ------ ---- --- --------- --<br>------ - ---- -- --- ----------- ------- ---- ----- -----<br>--- scarcely - ------ ---- -- ----- ---- --- --- -----------<br>-- -------,172540.09999990463,172539.39999985695,172155.091,172156.39999985695,172171.756,172555.143,,47,scarcely
screen,html.Screen,0_4_1_0_1_48,2021-11-25T16:36:40.219Z,,,,,,,,,,,,,,,,2,,,,,,,,,,,,,,1008.3569999999891,,response,,,1,E,,,,,Space,keypress(Space),,,,lyrical,--- ---- ------ --- ------- ---------- ------- ----------<br>--- --------- --- ----------- ------- ----- ------- ---<br>--------- ---- -- --- ---- -- --------- -- ---- -------<br>-- --------- ------ --- ----- ------ ---- --- --------- --<br>------ - ---- -- --- ----------- ------- ---- ----- -----<br>--- -------- a ------ ---- -- ----- ---- --- --- -----------<br>-- -------,173564.09999990463,173563.5,172538.477,172540.39999985695,172555.143,173571.575,,48,a
screen,html.Screen,0_4_1_0_1_49,2021-11-25T16:36:40.547Z,,,,,,,,,,,,,,,,2,,,,,,,,,,,,,,319.72499995230464,,response,,,1,E,,,,,Space,keypress(Space),,,,lyrical,--- ---- ------ --- ------- ---------- ------- ----------<br>--- --------- --- ----------- ------- ----- ------- ---<br>--------- ---- -- --- ---- -- --------- -- ---- -------<br>-- --------- ------ --- ----- ------ ---- --- --------- --<br>------ - ---- -- --- ----------- ------- ---- ----- -----<br>--- -------- - square ---- -- ----- ---- --- --- -----------<br>-- -------,173892,173891.29999995232,173554.911,173564.39999985695,173571.575,173904.974,,49,square
