sender,sender_type,sender_id,timestamp,meta,,Blues,Classical,Country,Dance,Electronic,Folk,Gospel,Hip-Hop,Jazz,Latin,Musical/Film,New-age,Pop,Provo_ID,R&B,Rap,Reggae,Religious,Rock,Soul,Swing,Traditional,age,artist_name,correct,correctResponse,distraction,duration,education,ended_on,familiarity,gender,item,list,music_frequency,offensiveness,pleasantness,preference,response,response_action,snippet_file,song_name,song_rating,sound,text,time_commit,time_end,time_render,time_run,time_show,time_switch,url,word,word_ID
Instructions,html.Page,0_0,2021-11-05T12:21:30.045Z,"{""labjs_version"":""20.2.3"",""labjs_build"":{""flavor"":""production"",""commit"":""7ea907d66ca8aeef8054924ca5d82ffbe11e34e5""},""location"":""https://run.pavlovia.org/mvasilev/lab_music_f/"",""userAgent"":""Mozilla/5.0 (Windows NT 6.1; Win64; x64) AppleWebKit/537.36 (KHTML, like Gecko) Chrome/95.0.4638.69 Safari/537.36"",""platform"":""Win32"",""language"":""en-US"",""locale"":""en-US"",""timeZone"":""Europe/London"",""timezoneOffset"":0,""screen_width"":1920,""screen_height"":1080,""scroll_width"":1920,""scroll_height"":959,""window_innerWidth"":1920,""window_innerHeight"":1007,""devicePixelRatio"":1}",,,,,,,,,,,,,,,,,,,,,,,,,,,,,26857.85000000596,,form submission,,,,,,,,,,,,,,,,37425.09999999404,37423.90000000596,10532.708,10553.79999999702,10566.05,37428.546,{},,
Headphones,html.Page,0_1,2021-11-05T12:21:32.975Z,,,,,,,,,,,,,,,,,,,,,,,,,,,,,,2925.8540000059584,,form submission,,,,,,,,,,,,,,,,40355,40354.40000000596,37411.896,37425.90000000596,37428.546,40357.481,,,
Holding screen,html.Screen,0_2_0_0,2021-11-05T12:21:42.970Z,,,,,,,,,,,,,,,,,,,,,,,,,,,,,,10002.398999999998,,timeout,,,,,,,,,,,,,,,,50350.29999999702,50343.211,40340.81,40355.5,40357.481,50359.88,,,
screen,html.Screen,0_2_0_1_0,2021-11-05T12:21:44.623Z,,,,,,,,,,,,,,,,53,,,,,,,,,,,,,,1641.3200000029829,,response,,,99,,,,,,Space,keypress(Space),,,,,When -- ----- -- ------ - ------- --- ----------<br>------------- ------ ------ ---- ---- ------- ----- -- ----<br>-------- ------- -- ---------- --- - --- ----- ----- ----<br>---- --- --- ----- --- ---- ---- ------- ----- ---- -------<br>--- --- -- ----- -- --- ---- -- --- ---- -- ------ ------<br>--- ----- -- ----,52002.59999999404,52001.20000000298,50343.211,50350.70000000298,50359.88,52010.673,,0,When
screen,html.Screen,0_2_0_1_1,2021-11-05T12:21:45.085Z,,,,,,,,,,,,,,,,53,,,,,,,,,,,,,,454.02700000297773,,response,,,99,,,,,,Space,keypress(Space),,,,,---- it ----- -- ------ - ------- --- ----------<br>------------- ------ ------ ---- ---- ------- ----- -- ----<br>-------- ------- -- ---------- --- - --- ----- ----- ----<br>---- --- --- ----- --- ---- ---- ------- ----- ---- -------<br>--- --- -- ----- -- --- ---- -- --- ---- -- ------ ------<br>--- ----- -- ----,52465.59999999404,52464.70000000298,51994.002,52003,52010.673,52477.353,,1,it
screen,html.Screen,0_2_0_1_2,2021-11-05T12:21:45.518Z,,,,,,,,,,,,,,,,53,,,,,,,,,,,,,,419.34700000297744,,response,,,99,,,,,,Space,keypress(Space),,,,,---- -- comes -- ------ - ------- --- ----------<br>------------- ------ ------ ---- ---- ------- ----- -- ----<br>-------- ------- -- ---------- --- - --- ----- ----- ----<br>---- --- --- ----- --- ---- ---- ------- ----- ---- -------<br>--- --- -- ----- -- --- ---- -- --- ---- -- ------ ------<br>--- ----- -- ----,52897.59999999404,52896.70000000298,52460.683,52465.79999999702,52477.353,52910.895,,2,comes
screen,html.Screen,0_2_0_1_3,2021-11-05T12:21:45.966Z,,,,,,,,,,,,,,,,53,,,,,,,,,,,,,,433.80500000298343,,response,,,99,,,,,,Space,keypress(Space),,,,,---- -- ----- to ------ - ------- --- ----------<br>------------- ------ ------ ---- ---- ------- ----- -- ----<br>-------- ------- -- ---------- --- - --- ----- ----- ----<br>---- --- --- ----- --- ---- ---- ------- ----- ---- -------<br>--- --- -- ----- -- --- ---- -- --- ---- -- ------ ------<br>--- ----- -- ----,53345.70000000298,53344.70000000298,52894.224,52897.90000000596,52910.895,53360.823,,3,to
screen,html.Screen,0_2_0_1_4,2021-11-05T12:21:46.358Z,,,,,,,,,,,,,,,,53,,,,,,,,,,,,,,375.87700000298355,,response,,,99,,,,,,Space,keypress(Space),,,,,---- -- ----- -- having - ------- --- ----------<br>------------- ------ ------ ---- ---- ------- ----- -- ----<br>-------- ------- -- ---------- --- - --- ----- ----- ----<br>---- --- --- ----- --- ---- ---- ------- ----- ---- -------<br>--- --- -- ----- -- --- ---- -- --- ---- -- ------ ------<br>--- ----- -- ----,53737.90000000596,53736.70000000298,53344.155,53346.20000000298,53360.823,53744.491,,4,having
screen,html.Screen,0_2_0_1_5,2021-11-05T12:21:46.702Z,,,,,,,,,,,,,,,,53,,,,,,,,,,,,,,336.2090000029784,,response,,,99,,,,,,Space,keypress(Space),,,,,---- -- ----- -- ------ a ------- --- ----------<br>------------- ------ ------ ---- ---- ------- ----- -- ----<br>-------- ------- -- ---------- --- - --- ----- ----- ----<br>---- --- --- ----- --- ---- ---- ------- ----- ---- -------<br>--- --- -- ----- -- --- ---- -- --- ---- -- ------ ------<br>--- ----- -- ----,54081.59999999404,54080.70000000298,53727.819,53738.20000000298,53744.491,54094.399,,5,a
screen,html.Screen,0_2_0_1_6,2021-11-05T12:21:47.022Z,,,,,,,,,,,,,,,,53,,,,,,,,,,,,,,306.2009999940419,,response,,,99,,,,,,Space,keypress(Space),,,,,---- -- ----- -- ------ - lasting --- ----------<br>------------- ------ ------ ---- ---- ------- ----- -- ----<br>-------- ------- -- ---------- --- - --- ----- ----- ----<br>---- --- --- ----- --- ---- ---- ------- ----- ---- -------<br>--- --- -- ----- -- --- ---- -- --- ---- -- ------ ------<br>--- ----- -- ----,54401.59999999404,54400.59999999404,54077.73,54082.09999999404,54094.399,54411.358,,6,lasting
screen,html.Screen,0_2_0_1_7,2021-11-05T12:21:47.414Z,,,,,,,,,,,,,,,,53,,,,,,,,,,,,,,381.34200000298006,,response,,,99,,,,,,Space,keypress(Space),,,,,---- -- ----- -- ------ - ------- and ----------<br>------------- ------ ------ ---- ---- ------- ----- -- ----<br>-------- ------- -- ---------- --- - --- ----- ----- ----<br>---- --- --- ----- --- ---- ---- ------- ----- ---- -------<br>--- --- -- ----- -- --- ---- -- --- ---- -- ------ ------<br>--- ----- -- ----,54793.70000000298,54792.70000000298,54394.685,54401.90000000596,54411.358,54794.663,,7,and
screen,html.Screen,0_2_0_1_8,2021-11-05T12:21:47.870Z,,,,,,,,,,,,,,,,53,,,,,,,,,,,,,,453.93699999403907,,response,,,99,,,,,,Space,keypress(Space),,,,,---- -- ----- -- ------ - ------- --- fulfilling<br>------------- ------ ------ ---- ---- ------- ----- -- ----<br>-------- ------- -- ---------- --- - --- ----- ----- ----<br>---- --- --- ----- --- ---- ---- ------- ----- ---- -------<br>--- --- -- ----- -- --- ---- -- --- ---- -- ------ ------<br>--- ----- -- ----,55249.79999999702,55248.59999999404,54777.993,54793.90000000596,54794.663,55261.531,,8,fulfilling
screen,html.Screen,0_2_0_1_9,2021-11-05T12:21:48.309Z,,,,,,,,,,,,,,,,53,,,,,,,,,,,,,,427.06899999403686,,response,,,99,,,,,,Space,keypress(Space),,,,,"---- -- ----- -- ------ - ------- --- ----------<br>relationship, ------ ------ ---- ---- ------- ----- -- ----<br>-------- ------- -- ---------- --- - --- ----- ----- ----<br>---- --- --- ----- --- ---- ---- ------- ----- ---- -------<br>--- --- -- ----- -- --- ---- -- --- ---- -- ------ ------<br>--- ----- -- ----",55689.5,55688.59999999404,55244.86,55250,55261.531,55694.977,,9,"relationship,"
screen,html.Screen,0_2_0_1_10,2021-11-05T12:21:48.725Z,,,,,,,,,,,,,,,,53,,,,,,,,,,,,,,409.6229999940406,,response,,,99,,,,,,Space,keypress(Space),,,,,---- -- ----- -- ------ - ------- --- ----------<br>------------- common ------ ---- ---- ------- ----- -- ----<br>-------- ------- -- ---------- --- - --- ----- ----- ----<br>---- --- --- ----- --- ---- ---- ------- ----- ---- -------<br>--- --- -- ----- -- --- ---- -- --- ---- -- ------ ------<br>--- ----- -- ----,56105.5,56104.59999999404,55678.306,55689.79999999702,55694.977,56111.606,,10,common
screen,html.Screen,0_2_0_1_11,2021-11-05T12:21:49.053Z,,,,,,,,,,,,,,,,53,,,,,,,,,,,,,,320.99399999403977,,response,,,99,,,,,,Space,keypress(Space),,,,,---- -- ----- -- ------ - ------- --- ----------<br>------------- ------ wisdom ---- ---- ------- ----- -- ----<br>-------- ------- -- ---------- --- - --- ----- ----- ----<br>---- --- --- ----- --- ---- ---- ------- ----- ---- -------<br>--- --- -- ----- -- --- ---- -- --- ---- -- ------ ------<br>--- ----- -- ----,56433.5,56432.59999999404,56094.937,56105.90000000596,56111.606,56445.078,,11,wisdom
screen,html.Screen,0_2_0_1_12,2021-11-05T12:21:49.453Z,,,,,,,,,,,,,,,,53,,,,,,,,,,,,,,387.5219999940382,,response,,,99,,,,,,Space,keypress(Space),,,,,---- -- ----- -- ------ - ------- --- ----------<br>------------- ------ ------ says ---- ------- ----- -- ----<br>-------- ------- -- ---------- --- - --- ----- ----- ----<br>---- --- --- ----- --- ---- ---- ------- ----- ---- -------<br>--- --- -- ----- -- --- ---- -- --- ---- -- ------ ------<br>--- ----- -- ----,56833.40000000596,56832.59999999404,56428.408,56433.79999999702,56445.078,56845.357,,12,says
screen,html.Screen,0_2_0_1_13,2021-11-05T12:21:49.869Z,,,,,,,,,,,,,,,,53,,,,,,,,,,,,,,403.2429999940359,,response,,,99,,,,,,Space,keypress(Space),,,,,---- -- ----- -- ------ - ------- --- ----------<br>------------- ------ ------ ---- that ------- ----- -- ----<br>-------- ------- -- ---------- --- - --- ----- ----- ----<br>---- --- --- ----- --- ---- ---- ------- ----- ---- -------<br>--- --- -- ----- -- --- ---- -- --- ---- -- ------ ------<br>--- ----- -- ----,57249.40000000596,57248.59999999404,56828.684,56833.70000000298,56845.357,57262,,13,that
screen,html.Screen,0_2_0_1_14,2021-11-05T12:21:50.357Z,,,,,,,,,,,,,,,,53,,,,,,,,,,,,,,474.5,,response,,,99,,,,,,Space,keypress(Space),,,,,---- -- ----- -- ------ - ------- --- ----------<br>------------- ------ ------ ---- ---- feeling ----- -- ----<br>-------- ------- -- ---------- --- - --- ----- ----- ----<br>---- --- --- ----- --- ---- ---- ------- ----- ---- -------<br>--- --- -- ----- -- --- ---- -- --- ---- -- ------ ------<br>--- ----- -- ----,57737.29999999702,57736.5,57245.33,57249.70000000298,57262,57745.516,,14,feeling
screen,html.Screen,0_2_0_1_15,2021-11-05T12:21:50.789Z,,,,,,,,,,,,,,,,53,,,,,,,,,,,,,,422.8840000059572,,response,,,99,,,,,,Space,keypress(Space),,,,,---- -- ----- -- ------ - ------- --- ----------<br>------------- ------ ------ ---- ---- ------- close -- ----<br>-------- ------- -- ---------- --- - --- ----- ----- ----<br>---- --- --- ----- --- ---- ---- ------- ----- ---- -------<br>--- --- -- ----- -- --- ---- -- --- ---- -- ------ ------<br>--- ----- -- ----,58169.29999999702,58168.40000000596,57728.845,57737.59999999404,57745.516,58178.899,,15,close
screen,html.Screen,0_2_0_1_16,2021-11-05T12:21:51.189Z,,,,,,,,,,,,,,,,53,,,,,,,,,,,,,,389.6010000000024,,response,,,99,,,,,,Space,keypress(Space),,,,,---- -- ----- -- ------ - ------- --- ----------<br>------------- ------ ------ ---- ---- ------- ----- to ----<br>-------- ------- -- ---------- --- - --- ----- ----- ----<br>---- --- --- ----- --- ---- ---- ------- ----- ---- -------<br>--- --- -- ----- -- --- ---- -- --- ---- -- ------ ------<br>--- ----- -- ----,58569.29999999702,58568.5,58162.229,58169.59999999404,58178.899,58579.078,,16,to
screen,html.Screen,0_2_0_1_17,2021-11-05T12:21:51.581Z,,,,,,,,,,,,,,,,53,,,,,,,,,,,,,,381.3220000059591,,response,,,99,,,,,,Space,keypress(Space),,,,,---- -- ----- -- ------ - ------- --- ----------<br>------------- ------ ------ ---- ---- ------- ----- -- your<br>-------- ------- -- ---------- --- - --- ----- ----- ----<br>---- --- --- ----- --- ---- ---- ------- ----- ---- -------<br>--- --- -- ----- -- --- ---- -- --- ---- -- ------ ------<br>--- ----- -- ----,58961.20000000298,58960.40000000596,58562.407,58569.5,58579.078,58962.47,,17,your
screen,html.Screen,0_2_0_1_18,2021-11-05T12:21:51.997Z,,,,,,,,,,,,,,,,53,,,,,,,,,,,,,,413.8299999970186,,response,,,99,,,,,,Space,keypress(Space),,,,,---- -- ----- -- ------ - ------- --- ----------<br>------------- ------ ------ ---- ---- ------- ----- -- ----<br>romantic ------- -- ---------- --- - --- ----- ----- ----<br>---- --- --- ----- --- ---- ---- ------- ----- ---- -------<br>--- --- -- ----- -- --- ---- -- --- ---- -- ------ ------<br>--- ----- -- ----,59377.09999999404,59376.29999999702,58945.8,58961.5,58962.47,59379.278,,18,romantic
screen,html.Screen,0_2_0_1_19,2021-11-05T12:21:52.397Z,,,,,,,,,,,,,,,,53,,,,,,,,,,,,,,397.12200000596204,,response,,,99,,,,,,Space,keypress(Space),,,,,---- -- ----- -- ------ - ------- --- ----------<br>------------- ------ ------ ---- ---- ------- ----- -- ----<br>-------- partner -- ---------- --- - --- ----- ----- ----<br>---- --- --- ----- --- ---- ---- ------- ----- ---- -------<br>--- --- -- ----- -- --- ---- -- --- ---- -- ------ ------<br>--- ----- -- ----,59777.29999999702,59776.40000000596,59362.607,59377.40000000596,59379.278,59779.399,,19,partner
screen,html.Screen,0_2_0_1_20,2021-11-05T12:21:52.776Z,,,,,,,,,,,,,,,,53,,,,,,,,,,,,,,373.00100000596285,,response,,,99,,,,,,Space,keypress(Space),,,,,---- -- ----- -- ------ - ------- --- ----------<br>------------- ------ ------ ---- ---- ------- ----- -- ----<br>-------- ------- is ---------- --- - --- ----- ----- ----<br>---- --- --- ----- --- ---- ---- ------- ----- ---- -------<br>--- --- -- ----- -- --- ---- -- --- ---- -- ------ ------<br>--- ----- -- ----,60153.29999999702,60152.40000000596,59762.728,59777.59999999404,59779.399,60162.782,,20,is
screen,html.Screen,0_2_0_1_21,2021-11-05T12:21:53.208Z,,,,,,,,,,,,,,,,53,,,,,,,,,,,,,,421.6180000059612,,response,,,99,,,,,,Space,keypress(Space),,,,,---- -- ----- -- ------ - ------- --- ----------<br>------------- ------ ------ ---- ---- ------- ----- -- ----<br>-------- ------- -- paramount. --- - --- ----- ----- ----<br>---- --- --- ----- --- ---- ---- ------- ----- ---- -------<br>--- --- -- ----- -- --- ---- -- --- ---- -- ------ ------<br>--- ----- -- ----,60585.20000000298,60584.40000000596,60146.112,60153.5,60162.782,60596.271,,21,paramount.
screen,html.Screen,0_2_0_1_22,2021-11-05T12:21:53.624Z,,,,,,,,,,,,,,,,53,,,,,,,,,,,,,,404.1290000059598,,response,,,99,,,,,,Space,keypress(Space),,,,,---- -- ----- -- ------ - ------- --- ----------<br>------------- ------ ------ ---- ---- ------- ----- -- ----<br>-------- ------- -- ---------- But - --- ----- ----- ----<br>---- --- --- ----- --- ---- ---- ------- ----- ---- -------<br>--- --- -- ----- -- --- ---- -- --- ---- -- ------ ------<br>--- ----- -- ----,61001.20000000298,61000.40000000596,60579.6,60585.70000000298,60596.271,61012.943,,22,But
screen,html.Screen,0_2_0_1_23,2021-11-05T12:21:54.080Z,,,,,,,,,,,,,,,,53,,,,,,,,,,,,,,443.45700000596116,,response,,,99,,,,,,Space,keypress(Space),,,,,---- -- ----- -- ------ - ------- --- ----------<br>------------- ------ ------ ---- ---- ------- ----- -- ----<br>-------- ------- -- ---------- --- a --- ----- ----- ----<br>---- --- --- ----- --- ---- ---- ------- ----- ---- -------<br>--- --- -- ----- -- --- ---- -- --- ---- -- ------ ------<br>--- ----- -- ----,61457.20000000298,61456.40000000596,60996.274,61001.40000000596,61012.943,61463.224,,23,a
screen,html.Screen,0_2_0_1_24,2021-11-05T12:21:54.488Z,,,,,,,,,,,,,,,,53,,,,,,,,,,,,,,401.1760000059585,,response,,,99,,,,,,Space,keypress(Space),,,,,---- -- ----- -- ------ - ------- --- ----------<br>------------- ------ ------ ---- ---- ------- ----- -- ----<br>-------- ------- -- ---------- --- - new ----- ----- ----<br>---- --- --- ----- --- ---- ---- ------- ----- ---- -------<br>--- --- -- ----- -- --- ---- -- --- ---- -- ------ ------<br>--- ----- -- ----,61865.20000000298,61864.40000000596,61446.552,61457.5,61463.224,61879.96,,24,new
screen,html.Screen,0_2_0_1_25,2021-11-05T12:21:54.840Z,,,,,,,,,,,,,,,,53,,,,,,,,,,,,,,336.83999999702064,,response,,,99,,,,,,Space,keypress(Space),,,,,---- -- ----- -- ------ - ------- --- ----------<br>------------- ------ ------ ---- ---- ------- ----- -- ----<br>-------- ------- -- ---------- --- - --- study ----- ----<br>---- --- --- ----- --- ---- ---- ------- ----- ---- -------<br>--- --- -- ----- -- --- ---- -- --- ---- -- ------ ------<br>--- ----- -- ----,62217.59999999404,62216.79999999702,61863.289,61865.40000000596,61879.96,62229.986,,25,study
screen,html.Screen,0_2_0_1_26,2021-11-05T12:21:55.216Z,,,,,,,,,,,,,,,,53,,,,,,,,,,,,,,362.3139999970226,,response,,,99,,,,,,Space,keypress(Space),,,,,---- -- ----- -- ------ - ------- --- ----------<br>------------- ------ ------ ---- ---- ------- ----- -- ----<br>-------- ------- -- ---------- --- - --- ----- finds ----<br>---- --- --- ----- --- ---- ---- ------- ----- ---- -------<br>--- --- -- ----- -- --- ---- -- --- ---- -- ------ ------<br>--- ----- -- ----,62593.09999999404,62592.29999999702,62213.316,62217.90000000596,62229.986,62596.832,,26,finds
screen,html.Screen,0_2_0_1_27,2021-11-05T12:21:55.568Z,,,,,,,,,,,,,,,,53,,,,,,,,,,,,,,347.4679999970176,,response,,,99,,,,,,Space,keypress(Space),,,,,---- -- ----- -- ------ - ------- --- ----------<br>------------- ------ ------ ---- ---- ------- ----- -- ----<br>-------- ------- -- ---------- --- - --- ----- ----- that<br>---- --- --- ----- --- ---- ---- ------- ----- ---- -------<br>--- --- -- ----- -- --- ---- -- --- ---- -- ------ ------<br>--- ----- -- ----,62945.20000000298,62944.29999999702,62580.161,62593.40000000596,62596.832,62946.878,,27,that
screen,html.Screen,0_2_0_1_28,2021-11-05T12:21:55.968Z,,,,,,,,,,,,,,,,53,,,,,,,,,,,,,,397.4219999970228,,response,,,99,,,,,,Space,keypress(Space),,,,,---- -- ----- -- ------ - ------- --- ----------<br>------------- ------ ------ ---- ---- ------- ----- -- ----<br>-------- ------- -- ---------- --- - --- ----- ----- ----<br>it's --- --- ----- --- ---- ---- ------- ----- ---- -------<br>--- --- -- ----- -- --- ---- -- --- ---- -- ------ ------<br>--- ----- -- ----,63345,63344.29999999702,62930.208,62945.40000000596,62946.878,63347.028,,28,it's
screen,html.Screen,0_2_0_1_29,2021-11-05T12:21:56.376Z,,,,,,,,,,,,,,,,53,,,,,,,,,,,,,,405.1720000029818,,response,,,99,,,,,,Space,keypress(Space),,,,,---- -- ----- -- ------ - ------- --- ----------<br>------------- ------ ------ ---- ---- ------- ----- -- ----<br>-------- ------- -- ---------- --- - --- ----- ----- ----<br>---- not --- ----- --- ---- ---- ------- ----- ---- -------<br>--- --- -- ----- -- --- ---- -- --- ---- -- ------ ------<br>--- ----- -- ----,63753,63752.20000000298,63330.357,63345.29999999702,63347.028,63763.611,,29,not
screen,html.Screen,0_2_0_1_30,2021-11-05T12:21:56.696Z,,,,,,,,,,,,,,,,53,,,,,,,,,,,,,,308.5890000029831,,response,,,99,,,,,,Space,keypress(Space),,,,,---- -- ----- -- ------ - ------- --- ----------<br>------------- ------ ------ ---- ---- ------- ----- -- ----<br>-------- ------- -- ---------- --- - --- ----- ----- ----<br>---- --- how ----- --- ---- ---- ------- ----- ---- -------<br>--- --- -- ----- -- --- ---- -- --- ---- -- ------ ------<br>--- ----- -- ----,64073,64072.20000000298,63746.943,63753.29999999702,63763.611,64080.495,,30,how
screen,html.Screen,0_2_0_1_31,2021-11-05T12:21:57.064Z,,,,,,,,,,,,,,,,53,,,,,,,,,,,,,,359.7050000029776,,response,,,99,,,,,,Space,keypress(Space),,,,,---- -- ----- -- ------ - ------- --- ----------<br>------------- ------ ------ ---- ---- ------- ----- -- ----<br>-------- ------- -- ---------- --- - --- ----- ----- ----<br>---- --- --- close --- ---- ---- ------- ----- ---- -------<br>--- --- -- ----- -- --- ---- -- --- ---- -- ------ ------<br>--- ----- -- ----,64441,64440.20000000298,64063.824,64073.29999999702,64080.495,64447.261,,31,close
screen,html.Screen,0_2_0_1_32,2021-11-05T12:21:57.472Z,,,,,,,,,,,,,,,,53,,,,,,,,,,,,,,400.83899999404093,,response,,,99,,,,,,Space,keypress(Space),,,,,---- -- ----- -- ------ - ------- --- ----------<br>------------- ------ ------ ---- ---- ------- ----- -- ----<br>-------- ------- -- ---------- --- - --- ----- ----- ----<br>---- --- --- ----- you ---- ---- ------- ----- ---- -------<br>--- --- -- ----- -- --- ---- -- --- ---- -- ------ ------<br>--- ----- -- ----,64848.90000000596,64848.09999999404,64430.59,64441.20000000298,64447.261,64864.131,,32,you
screen,html.Screen,0_2_0_1_33,2021-11-05T12:21:57.856Z,,,,,,,,,,,,,,,,53,,,,,,,,,,,,,,368.069000002979,,response,,,99,,,,,,Space,keypress(Space),,,,,---- -- ----- -- ------ - ------- --- ----------<br>------------- ------ ------ ---- ---- ------- ----- -- ----<br>-------- ------- -- ---------- --- - --- ----- ----- ----<br>---- --- --- ----- --- feel ---- ------- ----- ---- -------<br>--- --- -- ----- -- --- ---- -- --- ---- -- ------ ------<br>--- ----- -- ----,65233,65232.20000000298,64847.458,64849.20000000298,64864.131,65247.485,,33,feel
screen,html.Screen,0_2_0_1_34,2021-11-05T12:21:58.248Z,,,,,,,,,,,,,,,,53,,,,,,,,,,,,,,376.61499999403895,,response,,,99,,,,,,Space,keypress(Space),,,,,---- -- ----- -- ------ - ------- --- ----------<br>------------- ------ ------ ---- ---- ------- ----- -- ----<br>-------- ------- -- ---------- --- - --- ----- ----- ----<br>---- --- --- ----- --- ---- that ------- ----- ---- -------<br>--- --- -- ----- -- --- ---- -- --- ---- -- ------ ------<br>--- ----- -- ----,65624.90000000596,65624.09999999404,65230.815,65233.20000000298,65247.485,65630.954,,34,that
screen,html.Screen,0_2_0_1_35,2021-11-05T12:21:58.624Z,,,,,,,,,,,,,,,,53,,,,,,,,,,,,,,369.14599999404163,,response,,,99,,,,,,Space,keypress(Space),,,,,---- -- ----- -- ------ - ------- --- ----------<br>------------- ------ ------ ---- ---- ------- ----- -- ----<br>-------- ------- -- ---------- --- - --- ----- ----- ----<br>---- --- --- ----- --- ---- ---- matters ----- ---- -------<br>--- --- -- ----- -- --- ---- -- --- ---- -- ------ ------<br>--- ----- -- ----,66001,66000.09999999404,65614.283,65627.40000000596,65630.954,66014.407,,35,matters
screen,html.Screen,0_2_0_1_36,2021-11-05T12:21:59.032Z,,,,,,,,,,,,,,,,53,,,,,,,,,,,,,,394.0929999999935,,response,,,99,,,,,,Space,keypress(Space),,,,,"---- -- ----- -- ------ - ------- --- ----------<br>------------- ------ ------ ---- ---- ------- ----- -- ----<br>-------- ------- -- ---------- --- - --- ----- ----- ----<br>---- --- --- ----- --- ---- ---- ------- most, ---- -------<br>--- --- -- ----- -- --- ---- -- --- ---- -- ------ ------<br>--- ----- -- ----",66409.59999999404,66408.5,65997.736,66001.29999999702,66014.407,66414.5,,36,"most,"
screen,html.Screen,0_2_0_1_37,2021-11-05T12:21:59.432Z,,,,,,,,,,,,,,,,53,,,,,,,,,,,,,,393.59999999403954,,response,,,99,,,,,,Space,keypress(Space),,,,,---- -- ----- -- ------ - ------- --- ----------<br>------------- ------ ------ ---- ---- ------- ----- -- ----<br>-------- ------- -- ---------- --- - --- ----- ----- ----<br>---- --- --- ----- --- ---- ---- ------- ----- it's -------<br>--- --- -- ----- -- --- ---- -- --- ---- -- ------ ------<br>--- ----- -- ----,66808.79999999702,66808.09999999404,66397.829,66409.90000000596,66414.5,66814.581,,37,it's
screen,html.Screen,0_2_0_1_38,2021-11-05T12:21:59.928Z,,,,,,,,,,,,,,,,53,,,,,,,,,,,,,,489.51899999403395,,response,,,99,,,,,,Space,keypress(Space),,,,,---- -- ----- -- ------ - ------- --- ----------<br>------------- ------ ------ ---- ---- ------- ----- -- ----<br>-------- ------- -- ---------- --- - --- ----- ----- ----<br>---- --- --- ----- --- ---- ---- ------- ----- ---- whether<br>--- --- -- ----- -- --- ---- -- --- ---- -- ------ ------<br>--- ----- -- ----,67304.90000000596,67304.09999999404,66797.911,66809.09999999404,66814.581,67314.703,,38,whether
screen,html.Screen,0_2_0_1_39,2021-11-05T12:22:00.416Z,,,,,,,,,,,,,,,,53,,,,,,,,,,,,,,477.3969999940455,,response,,,99,,,,,,Space,keypress(Space),,,,,---- -- ----- -- ------ - ------- --- ----------<br>------------- ------ ------ ---- ---- ------- ----- -- ----<br>-------- ------- -- ---------- --- - --- ----- ----- ----<br>---- --- --- ----- --- ---- ---- ------- ----- ---- -------<br>you --- -- ----- -- --- ---- -- --- ---- -- ------ ------<br>--- ----- -- ----,67792.90000000596,67792.09999999404,67298.033,67305.09999999404,67314.703,67798.217,,39,you
screen,html.Screen,0_2_0_1_40,2021-11-05T12:22:00.824Z,,,,,,,,,,,,,,,,53,,,,,,,,,,,,,,401.88299999403534,,response,,,99,,,,,,Space,keypress(Space),,,,,---- -- ----- -- ------ - ------- --- ----------<br>------------- ------ ------ ---- ---- ------- ----- -- ----<br>-------- ------- -- ---------- --- - --- ----- ----- ----<br>---- --- --- ----- --- ---- ---- ------- ----- ---- -------<br>--- are -- ----- -- --- ---- -- --- ---- -- ------ ------<br>--- ----- -- ----,68201,68200.09999999404,67781.546,67793.20000000298,67798.217,68214.99,,40,are
screen,html.Screen,0_2_0_1_41,2021-11-05T12:22:01.136Z,,,,,,,,,,,,,,,,53,,,,,,,,,,,,,,296.9100000059552,,response,,,99,,,,,,Space,keypress(Space),,,,,---- -- ----- -- ------ - ------- --- ----------<br>------------- ------ ------ ---- ---- ------- ----- -- ----<br>-------- ------- -- ---------- --- - --- ----- ----- ----<br>---- --- --- ----- --- ---- ---- ------- ----- ---- -------<br>--- --- as ----- -- --- ---- -- --- ---- -- ------ ------<br>--- ----- -- ----,68512.79999999702,68511.90000000596,68198.319,68201.20000000298,68214.99,68515.012,,41,as
screen,html.Screen,0_2_0_1_42,2021-11-05T12:22:01.504Z,,,,,,,,,,,,,,,,53,,,,,,,,,,,,,,364.98799999999756,,response,,,99,,,,,,Space,keypress(Space),,,,,---- -- ----- -- ------ - ------- --- ----------<br>------------- ------ ------ ---- ---- ------- ----- -- ----<br>-------- ------- -- ---------- --- - --- ----- ----- ----<br>---- --- --- ----- --- ---- ---- ------- ----- ---- -------<br>--- --- -- close -- --- ---- -- --- ---- -- ------ ------<br>--- ----- -- ----,68880.79999999702,68880,68498.342,68513.09999999404,68515.012,68881.842,,42,close
screen,html.Screen,0_2_0_1_43,2021-11-05T12:22:01.856Z,,,,,,,,,,,,,,,,53,,,,,,,,,,,,,,350.1579999999958,,response,,,99,,,,,,Space,keypress(Space),,,,,---- -- ----- -- ------ - ------- --- ----------<br>------------- ------ ------ ---- ---- ------- ----- -- ----<br>-------- ------- -- ---------- --- - --- ----- ----- ----<br>---- --- --- ----- --- ---- ---- ------- ----- ---- -------<br>--- --- -- ----- as --- ---- -- --- ---- -- ------ ------<br>--- ----- -- ----,69232.90000000596,69232,68865.171,68881.09999999404,68881.842,69248.619,,43,as
screen,html.Screen,0_2_0_1_44,2021-11-05T12:22:02.240Z,,,,,,,,,,,,,,,,53,,,,,,,,,,,,,,367.38099999999395,,response,,,99,,,,,,Space,keypress(Space),,,,,---- -- ----- -- ------ - ------- --- ----------<br>------------- ------ ------ ---- ---- ------- ----- -- ----<br>-------- ------- -- ---------- --- - --- ----- ----- ----<br>---- --- --- ----- --- ---- ---- ------- ----- ---- -------<br>--- --- -- ----- -- you ---- -- --- ---- -- ------ ------<br>--- ----- -- ----,69616.79999999702,69616,69231.948,69233,69248.619,69632.007,,44,you
screen,html.Screen,0_2_0_1_45,2021-11-05T12:22:02.704Z,,,,,,,,,,,,,,,,53,,,,,,,,,,,,,,447.9930000000022,,response,,,99,,,,,,Space,keypress(Space),,,,,---- -- ----- -- ------ - ------- --- ----------<br>------------- ------ ------ ---- ---- ------- ----- -- ----<br>-------- ------- -- ---------- --- - --- ----- ----- ----<br>---- --- --- ----- --- ---- ---- ------- ----- ---- -------<br>--- --- -- ----- -- --- want -- --- ---- -- ------ ------<br>--- ----- -- ----,70080.79999999702,70080,69615.337,69617.09999999404,69632.007,70082.116,,45,want
screen,html.Screen,0_2_0_1_46,2021-11-05T12:22:03.048Z,,,,,,,,,,,,,,,,53,,,,,,,,,,,,,,341.78400000596594,,response,,,99,,,,,,Space,keypress(Space),,,,,---- -- ----- -- ------ - ------- --- ----------<br>------------- ------ ------ ---- ---- ------- ----- -- ----<br>-------- ------- -- ---------- --- - --- ----- ----- ----<br>---- --- --- ----- --- ---- ---- ------- ----- ---- -------<br>--- --- -- ----- -- --- ---- to --- ---- -- ------ ------<br>--- ----- -- ----,70424.79999999702,70423.90000000596,70065.446,70081.09999999404,70082.116,70432.247,,46,to
screen,html.Screen,0_2_0_1_47,2021-11-05T12:22:03.391Z,,,,,,,,,,,,,,,,53,,,,,,,,,,,,,,335.65300000595744,,response,,,99,,,,,,Space,keypress(Space),,,,,"---- -- ----- -- ------ - ------- --- ----------<br>------------- ------ ------ ---- ---- ------- ----- -- ----<br>-------- ------- -- ---------- --- - --- ----- ----- ----<br>---- --- --- ----- --- ---- ---- ------- ----- ---- -------<br>--- --- -- ----- -- --- ---- -- be, ---- -- ------ ------<br>--- ----- -- ----",70768.70000000298,70767.90000000596,70415.576,70425,70432.247,70782.245,,47,"be,"
screen,html.Screen,0_2_0_1_48,2021-11-05T12:22:03.855Z,,,,,,,,,,,,,,,,53,,,,,,,,,,,,,,449.6550000059651,,response,,,99,,,,,,Space,keypress(Space),,,,,---- -- ----- -- ------ - ------- --- ----------<br>------------- ------ ------ ---- ---- ------- ----- -- ----<br>-------- ------- -- ---------- --- - --- ----- ----- ----<br>---- --- --- ----- --- ---- ---- ------- ----- ---- -------<br>--- --- -- ----- -- --- ---- -- --- even -- ------ ------<br>--- ----- -- ----,71232.59999999404,71231.90000000596,70765.576,70769,70782.245,71249.051,,48,even
screen,html.Screen,0_2_0_1_49,2021-11-05T12:22:04.159Z,,,,,,,,,,,,,,,,53,,,,,,,,,,,,,,286.8490000059537,,response,,,99,,,,,,Space,keypress(Space),,,,,---- -- ----- -- ------ - ------- --- ----------<br>------------- ------ ------ ---- ---- ------- ----- -- ----<br>-------- ------- -- ---------- --- - --- ----- ----- ----<br>---- --- --- ----- --- ---- ---- ------- ----- ---- -------<br>--- --- -- ----- -- --- ---- -- --- ---- if ------ ------<br>--- ----- -- ----,71536.70000000298,71535.90000000596,71232.381,71232.90000000596,71249.051,71549.315,,49,if
screen,html.Screen,0_2_0_1_50,2021-11-05T12:22:04.455Z,,,,,,,,,,,,,,,,53,,,,,,,,,,,,,,282.58500000595814,,response,,,99,,,,,,Space,keypress(Space),,,,,---- -- ----- -- ------ - ------- --- ----------<br>------------- ------ ------ ---- ---- ------- ----- -- ----<br>-------- ------- -- ---------- --- - --- ----- ----- ----<br>---- --- --- ----- --- ---- ---- ------- ----- ---- -------<br>--- --- -- ----- -- --- ---- -- --- ---- -- that's ------<br>--- ----- -- ----,71832.70000000298,71831.90000000596,71532.642,71536.90000000596,71549.315,71849.296,,50,that's
screen,html.Screen,0_2_0_1_51,2021-11-05T12:22:04.888Z,,,,,,,,,,,,,,,,53,,,,,,,,,,,,,,415.0039999970177,,response,,,99,,,,,,Space,keypress(Space),,,,,---- -- ----- -- ------ - ------- --- ----------<br>------------- ------ ------ ---- ---- ------- ----- -- ----<br>-------- ------- -- ---------- --- - --- ----- ----- ----<br>---- --- --- ----- --- ---- ---- ------- ----- ---- -------<br>--- --- -- ----- -- --- ---- -- --- ---- -- ------ really<br>--- ----- -- ----,72265.09999999404,72264.29999999702,71832.625,71832.90000000596,71849.296,72266.04,,51,really
screen,html.Screen,0_2_0_1_52,2021-11-05T12:22:05.191Z,,,,,,,,,,,,,,,,53,,,,,,,,,,,,,,301.86000000596687,,response,,,99,,,,,,Space,keypress(Space),,,,,---- -- ----- -- ------ - ------- --- ----------<br>------------- ------ ------ ---- ---- ------- ----- -- ----<br>-------- ------- -- ---------- --- - --- ----- ----- ----<br>---- --- --- ----- --- ---- ---- ------- ----- ---- -------<br>--- --- -- ----- -- --- ---- -- --- ---- -- ------ ------<br>not ----- -- ----,72568.70000000298,72567.90000000596,72249.37,72265.29999999702,72266.04,72582.822,,52,not
screen,html.Screen,0_2_0_1_53,2021-11-05T12:22:05.543Z,,,,,,,,,,,,,,,,53,,,,,,,,,,,,,,336.97799999701965,,response,,,99,,,,,,Space,keypress(Space),,,,,---- -- ----- -- ------ - ------- --- ----------<br>------------- ------ ------ ---- ---- ------- ----- -- ----<br>-------- ------- -- ---------- --- - --- ----- ----- ----<br>---- --- --- ----- --- ---- ---- ------- ----- ---- -------<br>--- --- -- ----- -- --- ---- -- --- ---- -- ------ ------<br>--- close -- ----,72920.59999999404,72919.79999999702,72566.151,72569,72582.822,72932.932,,53,close
screen,html.Screen,0_2_0_1_54,2021-11-05T12:22:05.903Z,,,,,,,,,,,,,,,,53,,,,,,,,,,,,,,346.86799999701907,,response,,,99,,,,,,Space,keypress(Space),,,,,---- -- ----- -- ------ - ------- --- ----------<br>------------- ------ ------ ---- ---- ------- ----- -- ----<br>-------- ------- -- ---------- --- - --- ----- ----- ----<br>---- --- --- ----- --- ---- ---- ------- ----- ---- -------<br>--- --- -- ----- -- --- ---- -- --- ---- -- ------ ------<br>--- ----- at ----,73280.70000000298,73279.79999999702,72916.261,72920.90000000596,72932.932,73282.989,,54,at
screen,html.Screen,0_2_0_1_55,2021-11-05T12:22:06.455Z,,,,,,,,,,,,,,,,53,,,,,,,,,,,,,,548.8109999970184,,response,,,99,,,,,,Space,keypress(Space),,,,,---- -- ----- -- ------ - ------- --- ----------<br>------------- ------ ------ ---- ---- ------- ----- -- ----<br>-------- ------- -- ---------- --- - --- ----- ----- ----<br>---- --- --- ----- --- ---- ---- ------- ----- ---- -------<br>--- --- -- ----- -- --- ---- -- --- ---- -- ------ ------<br>--- ----- -- all.,73832.59999999404,73831.79999999702,73266.319,73280.79999999702,73282.989,73849.765,,55,all.
Item 99,flow.Loop,0_2_0_1,2021-11-05T12:22:06.460Z,,,,,,,,,,,,,,,,,,,,,,,,,,,,,,23471.919999997022,,completion,,,,F,,,,,,,,,,silence,,73837,73831.79999999702,50343.211,50350.59999999404,50359.88,73849.765,,,
Question 1,html.Screen,0_2_0_2,2021-11-05T12:22:11.128Z,,,,,,,,,,,,,,,,,,,,,,,,,,,true,FALSE,,4653.735000000001,,response,,,99,F,,,,,FALSE,click #choice-2,,,,silence,,78504.90000000596,78503.5,73833.095,73837.29999999702,73849.765,78517.754,,,
Question 2,html.Screen,0_2_0_3,2021-11-05T12:22:22.463Z,,,,,,,,,,,,,,,,,,,,,,,,,,,true,TRUE,,11321.246,,response,,,99,F,,,,,TRUE,click #choice-1,,,,silence,,89840.20000000298,89839,78501.083,78505.09999999404,78517.754,89854.132,,,
Item 99,flow.Sequence,0_2_0,2021-11-05T12:22:22.463Z,,,,,,,,,,,,,,,,,,,,,,,,,,,,,,49481.519,,completion,,,,,,,,,,,,,,,,89840.59999999404,89839,40340.81,40355.40000000596,40357.481,89854.132,,,
Holding screen,html.Screen,0_2_1_0,2021-11-05T12:22:32.464Z,,,,,,,,,,,,,,,,,,,,,,,,,,,,,,10002.612000000008,,timeout,,,,,,,,,,,,,,,,99841.70000000298,99840.073,89837.461,89841.09999999404,89854.132,99856.744,,,
screen,html.Screen,0_2_1_1_0,2021-11-05T12:22:33.967Z,,,,,,,,,,,,,,,,54,,,,,,,,,,,,,,1486.255999999994,,response,,,100,,,,,,Space,keypress(Space),,,,,At --- ---- --- ------ ----- ------- ---- -- --- ------- --<br>------- ---------- ------ -- ----- -- ----- -- ---- ------<br>--- ----- --- --- ------ -------- ----- --- ------ ----- --<br>----- ----- ---------- --- --- ------ ------ ---- -- ------<br>------- --- ------ ----- --- ---- ------- -- ---- --- --<br>------- ------,101343.90000000596,101343,99840.073,99842.09999999404,99856.744,101357.221,,0,At
screen,html.Screen,0_2_1_1_1,2021-11-05T12:22:34.382Z,,,,,,,,,,,,,,,,54,,,,,,,,,,,,,,401.278999999995,,response,,,100,,,,,,Space,keypress(Space),,,,,-- the ---- --- ------ ----- ------- ---- -- --- ------- --<br>------- ---------- ------ -- ----- -- ----- -- ---- ------<br>--- ----- --- --- ------ -------- ----- --- ------ ----- --<br>----- ----- ---------- --- --- ------ ------ ---- -- ------<br>------- --- ------ ----- --- ---- ------- -- ---- --- --<br>------- ------,101759.40000000596,101758.5,101340.55,101344.09999999404,101357.221,101773.978,,1,the
screen,html.Screen,0_2_1_1_2,2021-11-05T12:22:34.694Z,,,,,,,,,,,,,,,,54,,,,,,,,,,,,,,296.62199999403674,,response,,,100,,,,,,Space,keypress(Space),,,,,-- --- time --- ------ ----- ------- ---- -- --- ------- --<br>------- ---------- ------ -- ----- -- ----- -- ---- ------<br>--- ----- --- --- ------ -------- ----- --- ------ ----- --<br>----- ----- ---------- --- --- ------ ------ ---- -- ------<br>------- --- ------ ----- --- ---- ------- -- ---- --- --<br>------- ------,102071.40000000596,102070.59999999404,101757.307,101759.70000000298,101773.978,102074.001,,2,time
screen,html.Screen,0_2_1_1_3,2021-11-05T12:22:35.006Z,,,,,,,,,,,,,,,,54,,,,,,,,,,,,,,308.49899999999616,,response,,,100,,,,,,Space,keypress(Space),,,,,-- --- ---- the ------ ----- ------- ---- -- --- ------- --<br>------- ---------- ------ -- ----- -- ----- -- ---- ------<br>--- ----- --- --- ------ -------- ----- --- ------ ----- --<br>----- ----- ---------- --- --- ------ ------ ---- -- ------<br>------- --- ------ ----- --- ---- ------- -- ---- --- --<br>------- ------,102383.29999999702,102382.5,102057.331,102071.79999999702,102074.001,102390.959,,3,the
screen,html.Screen,0_2_1_1_4,2021-11-05T12:22:35.398Z,,,,,,,,,,,,,,,,54,,,,,,,,,,,,,,383.54099999999744,,response,,,100,,,,,,Space,keypress(Space),,,,,-- --- ---- --- French ----- ------- ---- -- --- ------- --<br>------- ---------- ------ -- ----- -- ----- -- ---- ------<br>--- ----- --- --- ------ -------- ----- --- ------ ----- --<br>----- ----- ---------- --- --- ------ ------ ---- -- ------<br>------- --- ------ ----- --- ---- ------- -- ---- --- --<br>------- ------,102775.29999999702,102774.5,102374.285,102383.59999999404,102390.959,102790.91,,4,French
screen,html.Screen,0_2_1_1_5,2021-11-05T12:22:35.742Z,,,,,,,,,,,,,,,,54,,,,,,,,,,,,,,327.68999999403604,,response,,,100,,,,,,Space,keypress(Space),,,,,-- --- ---- --- ------ crown ------- ---- -- --- ------- --<br>------- ---------- ------ -- ----- -- ----- -- ---- ------<br>--- ----- --- --- ------ -------- ----- --- ------ ----- --<br>----- ----- ---------- --- --- ------ ------ ---- -- ------<br>------- --- ------ ----- --- ---- ------- -- ---- --- --<br>------- ------,103119.40000000596,103118.59999999404,102774.24,102775.59999999404,102790.91,103124.377,,5,crown
screen,html.Screen,0_2_1_1_6,2021-11-05T12:22:36.086Z,,,,,,,,,,,,,,,,54,,,,,,,,,,,,,,338.12300000000687,,response,,,100,,,,,,Space,keypress(Space),,,,,-- --- ---- --- ------ ----- secured ---- -- --- ------- --<br>------- ---------- ------ -- ----- -- ----- -- ---- ------<br>--- ----- --- --- ------ -------- ----- --- ------ ----- --<br>----- ----- ---------- --- --- ------ ------ ---- -- ------<br>------- --- ------ ----- --- ---- ------- -- ---- --- --<br>------- ------,103463.29999999702,103462.5,103107.706,103119.59999999404,103124.377,103474.348,,6,secured
screen,html.Screen,0_2_1_1_7,2021-11-05T12:22:36.550Z,,,,,,,,,,,,,,,,54,,,,,,,,,,,,,,452.0520000059623,,response,,,100,,,,,,Space,keypress(Space),,,,,-- --- ---- --- ------ ----- ------- much -- --- ------- --<br>------- ---------- ------ -- ----- -- ----- -- ---- ------<br>--- ----- --- --- ------ -------- ----- --- ------ ----- --<br>----- ----- ---------- --- --- ------ ------ ---- -- ------<br>------- --- ------ ----- --- ---- ------- -- ---- --- --<br>------- ------,103927.29999999702,103926.40000000596,103457.679,103463.59999999404,103474.348,103941.314,,7,much
screen,html.Screen,0_2_1_1_8,2021-11-05T12:22:36.934Z,,,,,,,,,,,,,,,,54,,,,,,,,,,,,,,369.1860000000015,,response,,,100,,,,,,Space,keypress(Space),,,,,-- --- ---- --- ------ ----- ------- ---- of --- ------- --<br>------- ---------- ------ -- ----- -- ----- -- ---- ------<br>--- ----- --- --- ------ -------- ----- --- ------ ----- --<br>----- ----- ---------- --- --- ------ ------ ---- -- ------<br>------- --- ------ ----- --- ---- ------- -- ---- --- --<br>------- ------,104311.29999999702,104310.5,103924.642,103927.5,103941.314,104324.704,,8,of
screen,html.Screen,0_2_1_1_9,2021-11-05T12:22:37.230Z,,,,,,,,,,,,,,,,54,,,,,,,,,,,,,,281.7960000000021,,response,,,100,,,,,,Space,keypress(Space),,,,,-- --- ---- --- ------ ----- ------- ---- -- its ------- --<br>------- ---------- ------ -- ----- -- ----- -- ---- ------<br>--- ----- --- --- ------ -------- ----- --- ------ ----- --<br>----- ----- ---------- --- --- ------ ------ ---- -- ------<br>------- --- ------ ----- --- ---- ------- -- ---- --- --<br>------- ------,104607.29999999702,104606.5,104308.033,104311.5,104324.704,104624.687,,9,its
screen,html.Screen,0_2_1_1_10,2021-11-05T12:22:37.558Z,,,,,,,,,,,,,,,,54,,,,,,,,,,,,,,309.7130000059551,,response,,,100,,,,,,Space,keypress(Space),,,,,-- --- ---- --- ------ ----- ------- ---- -- --- revenue --<br>------- ---------- ------ -- ----- -- ----- -- ---- ------<br>--- ----- --- --- ------ -------- ----- --- ------ ----- --<br>----- ----- ---------- --- --- ------ ------ ---- -- ------<br>------- --- ------ ----- --- ---- ------- -- ---- --- --<br>------- ------,104935.20000000298,104934.40000000596,104608.018,104607.59999999404,104624.687,104941.528,,10,revenue
screen,html.Screen,0_2_1_1_11,2021-11-05T12:22:37.958Z,,,,,,,,,,,,,,,,54,,,,,,,,,,,,,,392.9719999999943,,response,,,100,,,,,,Space,keypress(Space),,,,,-- --- ---- --- ------ ----- ------- ---- -- --- ------- by<br>------- ---------- ------ -- ----- -- ----- -- ---- ------<br>--- ----- --- --- ------ -------- ----- --- ------ ----- --<br>----- ----- ---------- --- --- ------ ------ ---- -- ------<br>------- --- ------ ----- --- ---- ------- -- ---- --- --<br>------- ------,105335.29999999702,105334.5,104924.857,104935.5,104941.528,105341.638,,11,by
screen,html.Screen,0_2_1_1_12,2021-11-05T12:22:38.358Z,,,,,,,,,,,,,,,,54,,,,,,,,,,,,,,392.6619999970135,,response,,,100,,,,,,Space,keypress(Space),,,,,-- --- ---- --- ------ ----- ------- ---- -- --- ------- --<br>issuing ---------- ------ -- ----- -- ----- -- ---- ------<br>--- ----- --- --- ------ -------- ----- --- ------ ----- --<br>----- ----- ---------- --- --- ------ ------ ---- -- ------<br>------- --- ------ ----- --- ---- ------- -- ---- --- --<br>------- ------,105735,105734.29999999702,105324.967,105335.5,105341.638,105741.764,,12,issuing
screen,html.Screen,0_2_1_1_13,2021-11-05T12:22:39.430Z,,,,,,,,,,,,,,,,54,,,,,,,,,,,,,,1064.636000005965,,response,,,100,,,,,,Space,keypress(Space),,,,,-- --- ---- --- ------ ----- ------- ---- -- --- ------- --<br>------- government ------ -- ----- -- ----- -- ---- ------<br>--- ----- --- --- ------ -------- ----- --- ------ ----- --<br>----- ----- ---------- --- --- ------ ------ ---- -- ------<br>------- --- ------ ----- --- ---- ------- -- ---- --- --<br>------- ------,106807.20000000298,106806.40000000596,105725.093,105735.20000000298,105741.764,106808.491,,13,government
screen,html.Screen,0_2_1_1_14,2021-11-05T12:22:40.214Z,,,,,,,,,,,,,,,,54,,,,,,,,,,,,,,781.9090000059659,,response,,,100,,,,,,Space,keypress(Space),,,,,-- --- ---- --- ------ ----- ------- ---- -- --- ------- --<br>------- ---------- bonds. -- ----- -- ----- -- ---- ------<br>--- ----- --- --- ------ -------- ----- --- ------ ----- --<br>----- ----- ---------- --- --- ------ ------ ---- -- ------<br>------- --- ------ ----- --- ---- ------- -- ---- --- --<br>------- ------,107591.20000000298,107590.40000000596,106791.822,106807.40000000596,106808.491,107608.924,,14,bonds.
screen,html.Screen,0_2_1_1_15,2021-11-05T12:22:40.646Z,,,,,,,,,,,,,,,,54,,,,,,,,,,,,,,413.3759999970207,,response,,,100,,,,,,Space,keypress(Space),,,,,-- --- ---- --- ------ ----- ------- ---- -- --- ------- --<br>------- ---------- ------ In ----- -- ----- -- ---- ------<br>--- ----- --- --- ------ -------- ----- --- ------ ----- --<br>----- ----- ---------- --- --- ------ ------ ---- -- ------<br>------- --- ------ ----- --- ---- ------- -- ---- --- --<br>------- ------,108023.20000000298,108022.29999999702,107592.253,107591.40000000596,107608.924,108025.585,,15,In
screen,html.Screen,0_2_1_1_16,2021-11-05T12:22:42.286Z,,,,,,,,,,,,,,,,54,,,,,,,,,,,,,,1636.7149999970134,,response,,,100,,,,,,Space,keypress(Space),,,,,"-- --- ---- --- ------ ----- ------- ---- -- --- ------- --<br>------- ---------- ------ -- 1727, -- ----- -- ---- ------<br>--- ----- --- --- ------ -------- ----- --- ------ ----- --<br>----- ----- ---------- --- --- ------ ------ ---- -- ------<br>------- --- ------ ----- --- ---- ------- -- ---- --- --<br>------- ------",109663.20000000298,109662.29999999702,108008.915,108023.5,108025.585,109676.116,,16,"1727,"
screen,html.Screen,0_2_1_1_17,2021-11-05T12:22:42.694Z,,,,,,,,,,,,,,,,54,,,,,,,,,,,,,,394.0840000029857,,response,,,100,,,,,,Space,keypress(Space),,,,,-- --- ---- --- ------ ----- ------- ---- -- --- ------- --<br>------- ---------- ------ -- ----- in ----- -- ---- ------<br>--- ----- --- --- ------ -------- ----- --- ------ ----- --<br>----- ----- ---------- --- --- ------ ------ ---- -- ------<br>------- --- ------ ----- --- ---- ------- -- ---- --- --<br>------- ------,110070.79999999702,110070.20000000298,109659.445,109663.59999999404,109676.116,110075.911,,17,in
screen,html.Screen,0_2_1_1_18,2021-11-05T12:22:43.046Z,,,,,,,,,,,,,,,,54,,,,,,,,,,,,,,346.28900000298745,,response,,,100,,,,,,Space,keypress(Space),,,,,-- --- ---- --- ------ ----- ------- ---- -- --- ------- --<br>------- ---------- ------ -- ----- -- order -- ---- ------<br>--- ----- --- --- ------ -------- ----- --- ------ ----- --<br>----- ----- ---------- --- --- ------ ------ ---- -- ------<br>------- --- ------ ----- --- ---- ------- -- ---- --- --<br>------- ------,110423,110422.20000000298,110059.243,110071,110075.911,110426.234,,18,order
screen,html.Screen,0_2_1_1_19,2021-11-05T12:22:43.358Z,,,,,,,,,,,,,,,,54,,,,,,,,,,,,,,307.9660000029835,,response,,,100,,,,,,Space,keypress(Space),,,,,-- --- ---- --- ------ ----- ------- ---- -- --- ------- --<br>------- ---------- ------ -- ----- -- ----- to ---- ------<br>--- ----- --- --- ------ -------- ----- --- ------ ----- --<br>----- ----- ---------- --- --- ------ ------ ---- -- ------<br>------- --- ------ ----- --- ---- ------- -- ---- --- --<br>------- ------,110735.09999999404,110734.20000000298,110409.564,110423.29999999702,110426.234,110743.18,,19,to
screen,html.Screen,0_2_1_1_20,2021-11-05T12:22:43.662Z,,,,,,,,,,,,,,,,54,,,,,,,,,,,,,,295.0200000029872,,response,,,100,,,,,,Space,keypress(Space),,,,,-- --- ---- --- ------ ----- ------- ---- -- --- ------- --<br>------- ---------- ------ -- ----- -- ----- -- save ------<br>--- ----- --- --- ------ -------- ----- --- ------ ----- --<br>----- ----- ---------- --- --- ------ ------ ---- -- ------<br>------- --- ------ ----- --- ---- ------- -- ---- --- --<br>------- ------,111039,111038.20000000298,110726.506,110735.29999999702,110743.18,111043.162,,20,save
screen,html.Screen,0_2_1_1_21,2021-11-05T12:22:44.014Z,,,,,,,,,,,,,,,,54,,,,,,,,,,,,,,347.5380000029836,,response,,,100,,,,,,Space,keypress(Space),,,,,"-- --- ---- --- ------ ----- ------- ---- -- --- ------- --<br>------- ---------- ------ -- ----- -- ----- -- ---- money,<br>--- ----- --- --- ------ -------- ----- --- ------ ----- --<br>----- ----- ---------- --- --- ------ ------ ---- -- ------<br>------- --- ------ ----- --- ---- ------- -- ---- --- --<br>------- ------",111391.40000000596,111390.70000000298,111026.491,111039.20000000298,111043.162,111393.091,,21,"money,"
screen,html.Screen,0_2_1_1_22,2021-11-05T12:22:44.406Z,,,,,,,,,,,,,,,,54,,,,,,,,,,,,,,389.0089999940392,,response,,,100,,,,,,Space,keypress(Space),,,,,-- --- ---- --- ------ ----- ------- ---- -- --- ------- --<br>------- ---------- ------ -- ----- -- ----- -- ---- ------<br>the ----- --- --- ------ -------- ----- --- ------ ----- --<br>----- ----- ---------- --- --- ------ ------ ---- -- ------<br>------- --- ------ ----- --- ---- ------- -- ---- --- --<br>------- ------,111783,111782.09999999404,111376.423,111391.70000000298,111393.091,111793.467,,22,the
screen,html.Screen,0_2_1_1_23,2021-11-05T12:22:44.742Z,,,,,,,,,,,,,,,,54,,,,,,,,,,,,,,324.63299999403534,,response,,,100,,,,,,Space,keypress(Space),,,,,-- --- ---- --- ------ ----- ------- ---- -- --- ------- --<br>------- ---------- ------ -- ----- -- ----- -- ---- ------<br>--- state --- --- ------ -------- ----- --- ------ ----- --<br>----- ----- ---------- --- --- ------ ------ ---- -- ------<br>------- --- ------ ----- --- ---- ------- -- ---- --- --<br>------- ------,112119,112118.09999999404,111776.794,111783.20000000298,111793.467,112126.788,,23,state
screen,html.Screen,0_2_1_1_24,2021-11-05T12:22:45.126Z,,,,,,,,,,,,,,,,54,,,,,,,,,,,,,,375.31199999403907,,response,,,100,,,,,,Space,keypress(Space),,,,,-- --- ---- --- ------ ----- ------- ---- -- --- ------- --<br>------- ---------- ------ -- ----- -- ----- -- ---- ------<br>--- ----- cut --- ------ -------- ----- --- ------ ----- --<br>----- ----- ---------- --- --- ------ ------ ---- -- ------<br>------- --- ------ ----- --- ---- ------- -- ---- --- --<br>------- ------,112502.90000000596,112502.09999999404,112110.117,112119.20000000298,112126.788,112510.104,,24,cut
screen,html.Screen,0_2_1_1_25,2021-11-05T12:22:45.470Z,,,,,,,,,,,,,,,,54,,,,,,,,,,,,,,336.0960000029736,,response,,,100,,,,,,Space,keypress(Space),,,,,-- --- ---- --- ------ ----- ------- ---- -- --- ------- --<br>------- ---------- ------ -- ----- -- ----- -- ---- ------<br>--- ----- --- the ------ -------- ----- --- ------ ----- --<br>----- ----- ---------- --- --- ------ ------ ---- -- ------<br>------- --- ------ ----- --- ---- ------- -- ---- --- --<br>------- ------,112846.90000000596,112846.20000000298,112493.435,112503.09999999404,112510.104,112860.299,,25,the
screen,html.Screen,0_2_1_1_26,2021-11-05T12:22:45.782Z,,,,,,,,,,,,,,,,54,,,,,,,,,,,,,,297.80099999404047,,response,,,100,,,,,,Space,keypress(Space),,,,,-- --- ---- --- ------ ----- ------- ---- -- --- ------- --<br>------- ---------- ------ -- ----- -- ----- -- ---- ------<br>--- ----- --- --- bonds' -------- ----- --- ------ ----- --<br>----- ----- ---------- --- --- ------ ------ ---- -- ------<br>------- --- ------ ----- --- ---- ------- -- ---- --- --<br>------- ------,113158.79999999702,113158.09999999404,112843.628,112847.09999999404,112860.299,113160.42,,26,bonds'
screen,html.Screen,0_2_1_1_27,2021-11-05T12:22:46.118Z,,,,,,,,,,,,,,,,54,,,,,,,,,,,,,,333.6799999940413,,response,,,100,,,,,,Space,keypress(Space),,,,,-- --- ---- --- ------ ----- ------- ---- -- --- ------- --<br>------- ---------- ------ -- ----- -- ----- -- ---- ------<br>--- ----- --- --- ------ interest ----- --- ------ ----- --<br>----- ----- ---------- --- --- ------ ------ ---- -- ------<br>------- --- ------ ----- --- ---- ------- -- ---- --- --<br>------- ------,113494.90000000596,113494.09999999404,113143.749,113159.09999999404,113160.42,113510.51,,27,interest
screen,html.Screen,0_2_1_1_28,2021-11-05T12:22:46.470Z,,,,,,,,,,,,,,,,54,,,,,,,,,,,,,,335.5899999940448,,response,,,100,,,,,,Space,keypress(Space),,,,,-- --- ---- --- ------ ----- ------- ---- -- --- ------- --<br>------- ---------- ------ -- ----- -- ----- -- ---- ------<br>--- ----- --- --- ------ -------- rate. --- ------ ----- --<br>----- ----- ---------- --- --- ------ ------ ---- -- ------<br>------- --- ------ ----- --- ---- ------- -- ---- --- --<br>------- ------,113847,113846.09999999404,113493.839,113495.09999999404,113510.51,113860.546,,28,rate.
screen,html.Screen,0_2_1_1_29,2021-11-05T12:22:46.806Z,,,,,,,,,,,,,,,,54,,,,,,,,,,,,,,321.55399999403744,,response,,,100,,,,,,Space,keypress(Space),,,,,-- --- ---- --- ------ ----- ------- ---- -- --- ------- --<br>------- ---------- ------ -- ----- -- ----- -- ---- ------<br>--- ----- --- --- ------ -------- ----- The ------ ----- --<br>----- ----- ---------- --- --- ------ ------ ---- -- ------<br>------- --- ------ ----- --- ---- ------- -- ---- --- --<br>------- ------,114182.90000000596,114182.09999999404,113843.876,113847.29999999702,113860.546,114193.857,,29,The
screen,html.Screen,0_2_1_1_30,2021-11-05T12:22:47.166Z,,,,,,,,,,,,,,,,54,,,,,,,,,,,,,,348.1429999999964,,response,,,100,,,,,,Space,keypress(Space),,,,,-- --- ---- --- ------ ----- ------- ---- -- --- ------- --<br>------- ---------- ------ -- ----- -- ----- -- ---- ------<br>--- ----- --- --- ------ -------- ----- --- market ----- --<br>----- ----- ---------- --- --- ------ ------ ---- -- ------<br>------- --- ------ ----- --- ---- ------- -- ---- --- --<br>------- ------,114542.79999999702,114542,114177.189,114183.09999999404,114193.857,114544.058,,30,market
screen,html.Screen,0_2_1_1_31,2021-11-05T12:22:47.501Z,,,,,,,,,,,,,,,,54,,,,,,,,,,,,,,333.8420000059559,,response,,,100,,,,,,Space,keypress(Space),,,,,-- --- ---- --- ------ ----- ------- ---- -- --- ------- --<br>------- ---------- ------ -- ----- -- ----- -- ---- ------<br>--- ----- --- --- ------ -------- ----- --- ------ value --<br>----- ----- ---------- --- --- ------ ------ ---- -- ------<br>------- --- ------ ----- --- ---- ------- -- ---- --- --<br>------- ------,114878.70000000298,114877.90000000596,114527.387,114543,114544.058,114894.289,,31,value
screen,html.Screen,0_2_1_1_32,2021-11-05T12:22:47.901Z,,,,,,,,,,,,,,,,54,,,,,,,,,,,,,,383.61100000595616,,response,,,100,,,,,,Space,keypress(Space),,,,,-- --- ---- --- ------ ----- ------- ---- -- --- ------- --<br>------- ---------- ------ -- ----- -- ----- -- ---- ------<br>--- ----- --- --- ------ -------- ----- --- ------ ----- of<br>----- ----- ---------- --- --- ------ ------ ---- -- ------<br>------- --- ------ ----- --- ---- ------- -- ---- --- --<br>------- ------,115278.79999999702,115277.90000000596,114877.616,114879,114894.289,115294.307,,32,of
screen,html.Screen,0_2_1_1_33,2021-11-05T12:22:48.286Z,,,,,,,,,,,,,,,,54,,,,,,,,,,,,,,367.59300000595977,,response,,,100,,,,,,Space,keypress(Space),,,,,-- --- ---- --- ------ ----- ------- ---- -- --- ------- --<br>------- ---------- ------ -- ----- -- ----- -- ---- ------<br>--- ----- --- --- ------ -------- ----- --- ------ ----- --<br>these ----- ---------- --- --- ------ ------ ---- -- ------<br>------- --- ------ ----- --- ---- ------- -- ---- --- --<br>------- ------,115662.79999999702,115661.90000000596,115277.636,115279.09999999404,115294.307,115677.754,,33,these
screen,html.Screen,0_2_1_1_34,2021-11-05T12:22:48.694Z,,,,,,,,,,,,,,,,54,,,,,,,,,,,,,,392.2459999999992,,response,,,100,,,,,,Space,keypress(Space),,,,,-- --- ---- --- ------ ----- ------- ---- -- --- ------- --<br>------- ---------- ------ -- ----- -- ----- -- ---- ------<br>--- ----- --- --- ------ -------- ----- --- ------ ----- --<br>----- bonds ---------- --- --- ------ ------ ---- -- ------<br>------- --- ------ ----- --- ---- ------- -- ---- --- --<br>------- ------,116070.79999999702,116070,115661.083,115663.09999999404,115677.754,116077.852,,34,bonds
screen,html.Screen,0_2_1_1_35,2021-11-05T12:22:49.246Z,,,,,,,,,,,,,,,,54,,,,,,,,,,,,,,544.0480000059615,,response,,,100,,,,,,Space,keypress(Space),,,,,"-- --- ---- --- ------ ----- ------- ---- -- --- ------- --<br>------- ---------- ------ -- ----- -- ----- -- ---- ------<br>--- ----- --- --- ------ -------- ----- --- ------ ----- --<br>----- ----- plummeted, --- --- ------ ------ ---- -- ------<br>------- --- ------ ----- --- ---- ------- -- ---- --- --<br>------- ------",116622.79999999702,116621.90000000596,116061.181,116071.09999999404,116077.852,116627.957,,35,"plummeted,"
screen,html.Screen,0_2_1_1_36,2021-11-05T12:22:49.621Z,,,,,,,,,,,,,,,,54,,,,,,,,,,,,,,369.8429999970249,,response,,,100,,,,,,Space,keypress(Space),,,,,-- --- ---- --- ------ ----- ------- ---- -- --- ------- --<br>------- ---------- ------ -- ----- -- ----- -- ---- ------<br>--- ----- --- --- ------ -------- ----- --- ------ ----- --<br>----- ----- ---------- and --- ------ ------ ---- -- ------<br>------- --- ------ ----- --- ---- ------- -- ---- --- --<br>------- ------,116998.59999999404,116997.79999999702,116611.287,116623.09999999404,116627.957,117011.365,,36,and
screen,html.Screen,0_2_1_1_37,2021-11-05T12:22:49.965Z,,,,,,,,,,,,,,,,54,,,,,,,,,,,,,,330.5350000059552,,response,,,100,,,,,,Space,keypress(Space),,,,,-- --- ---- --- ------ ----- ------- ---- -- --- ------- --<br>------- ---------- ------ -- ----- -- ----- -- ---- ------<br>--- ----- --- --- ------ -------- ----- --- ------ ----- --<br>----- ----- ---------- --- the ------ ------ ---- -- ------<br>------- --- ------ ----- --- ---- ------- -- ---- --- --<br>------- ------,117342.70000000298,117341.90000000596,116994.695,116999,117011.365,117344.86,,37,the
screen,html.Screen,0_2_1_1_38,2021-11-05T12:22:50.309Z,,,,,,,,,,,,,,,,54,,,,,,,,,,,,,,340.9399999970192,,response,,,100,,,,,,Space,keypress(Space),,,,,-- --- ---- --- ------ ----- ------- ---- -- --- ------- --<br>------- ---------- ------ -- ----- -- ----- -- ---- ------<br>--- ----- --- --- ------ -------- ----- --- ------ ----- --<br>----- ----- ---------- --- --- market ------ ---- -- ------<br>------- --- ------ ----- --- ---- ------- -- ---- --- --<br>------- ------,117686.59999999404,117685.79999999702,117328.189,117342.90000000596,117344.86,117694.849,,38,market
screen,html.Screen,0_2_1_1_39,2021-11-05T12:22:50.693Z,,,,,,,,,,,,,,,,54,,,,,,,,,,,,,,374.9509999970178,,response,,,100,,,,,,Space,keypress(Space),,,,,-- --- ---- --- ------ ----- ------- ---- -- --- ------- --<br>------- ---------- ------ -- ----- -- ----- -- ---- ------<br>--- ----- --- --- ------ -------- ----- --- ------ ----- --<br>----- ----- ---------- --- --- ------ became ---- -- ------<br>------- --- ------ ----- --- ---- ------- -- ---- --- --<br>------- ------,118070.59999999404,118069.79999999702,117678.18,117686.90000000596,117694.849,118078.296,,39,became
screen,html.Screen,0_2_1_1_40,2021-11-05T12:22:51.077Z,,,,,,,,,,,,,,,,54,,,,,,,,,,,,,,375.5039999970177,,response,,,100,,,,,,Space,keypress(Space),,,,,-- --- ---- --- ------ ----- ------- ---- -- --- ------- --<br>------- ---------- ------ -- ----- -- ----- -- ---- ------<br>--- ----- --- --- ------ -------- ----- --- ------ ----- --<br>----- ----- ---------- --- --- ------ ------ wary -- ------<br>------- --- ------ ----- --- ---- ------- -- ---- --- --<br>------- ------,118454.59999999404,118453.79999999702,118061.626,118071,118078.296,118461.906,,40,wary
screen,html.Screen,0_2_1_1_41,2021-11-05T12:22:51.485Z,,,,,,,,,,,,,,,,54,,,,,,,,,,,,,,399.8939999970171,,response,,,100,,,,,,Space,keypress(Space),,,,,-- --- ---- --- ------ ----- ------- ---- -- --- ------- --<br>------- ---------- ------ -- ----- -- ----- -- ---- ------<br>--- ----- --- --- ------ -------- ----- --- ------ ----- --<br>----- ----- ---------- --- --- ------ ------ ---- of ------<br>------- --- ------ ----- --- ---- ------- -- ---- --- --<br>------- ------,118862.59999999404,118861.79999999702,118445.233,118454.79999999702,118461.906,118878.601,,41,of
screen,html.Screen,0_2_1_1_42,2021-11-05T12:22:51.877Z,,,,,,,,,,,,,,,,54,,,,,,,,,,,,,,375.0990000029851,,response,,,100,,,,,,Space,keypress(Space),,,,,-- --- ---- --- ------ ----- ------- ---- -- --- ------- --<br>------- ---------- ------ -- ----- -- ----- -- ---- ------<br>--- ----- --- --- ------ -------- ----- --- ------ ----- --<br>----- ----- ---------- --- --- ------ ------ ---- -- French<br>------- --- ------ ----- --- ---- ------- -- ---- --- --<br>------- ------,119254.5,119253.70000000298,118861.93,118862.90000000596,118878.601,119261.876,,42,French
screen,html.Screen,0_2_1_1_43,2021-11-05T12:22:52.237Z,,,,,,,,,,,,,,,,54,,,,,,,,,,,,,,351.9239999970159,,response,,,100,,,,,,Space,keypress(Space),,,,,-- --- ---- --- ------ ----- ------- ---- -- --- ------- --<br>------- ---------- ------ -- ----- -- ----- -- ---- ------<br>--- ----- --- --- ------ -------- ----- --- ------ ----- --<br>----- ----- ---------- --- --- ------ ------ ---- -- ------<br>credit. --- ------ ----- --- ---- ------- -- ---- --- --<br>------- ------,119614.5,119613.79999999702,119245.208,119254.70000000298,119261.876,119628.839,,43,credit.
screen,html.Screen,0_2_1_1_44,2021-11-05T12:22:52.653Z,,,,,,,,,,,,,,,,54,,,,,,,,,,,,,,400.96099999701255,,response,,,100,,,,,,Space,keypress(Space),,,,,-- --- ---- --- ------ ----- ------- ---- -- --- ------- --<br>------- ---------- ------ -- ----- -- ----- -- ---- ------<br>--- ----- --- --- ------ -------- ----- --- ------ ----- --<br>----- ----- ---------- --- --- ------ ------ ---- -- ------<br>------- The ------ ----- --- ---- ------- -- ---- --- --<br>------- ------,120030.59999999404,120029.79999999702,119612.167,119614.79999999702,119628.839,120045.575,,44,The
screen,html.Screen,0_2_1_1_45,2021-11-05T12:22:52.984Z,,,,,,,,,,,,,,,,54,,,,,,,,,,,,,,312.2249999970227,,response,,,100,,,,,,Space,keypress(Space),,,,,-- --- ---- --- ------ ----- ------- ---- -- --- ------- --<br>------- ---------- ------ -- ----- -- ----- -- ---- ------<br>--- ----- --- --- ------ -------- ----- --- ------ ----- --<br>----- ----- ---------- --- --- ------ ------ ---- -- ------<br>------- --- French ----- --- ---- ------- -- ---- --- --<br>------- ------,120358.5,120357.79999999702,120028.904,120030.90000000596,120045.575,120362.34,,45,French
screen,html.Screen,0_2_1_1_46,2021-11-05T12:22:53.280Z,,,,,,,,,,,,,,,,54,,,,,,,,,,,,,,291.3600000029837,,response,,,100,,,,,,Space,keypress(Space),,,,,-- --- ---- --- ------ ----- ------- ---- -- --- ------- --<br>------- ---------- ------ -- ----- -- ----- -- ---- ------<br>--- ----- --- --- ------ -------- ----- --- ------ ----- --<br>----- ----- ---------- --- --- ------ ------ ---- -- ------<br>------- --- ------ state --- ---- ------- -- ---- --- --<br>------- ------,120654.59999999404,120653.70000000298,120345.669,120358.70000000298,120362.34,120662.302,,46,state
screen,html.Screen,0_2_1_1_47,2021-11-05T12:22:53.672Z,,,,,,,,,,,,,,,,54,,,,,,,,,,,,,,383.3980000029842,,response,,,100,,,,,,Space,keypress(Space),,,,,-- --- ---- --- ------ ----- ------- ---- -- --- ------- --<br>------- ---------- ------ -- ----- -- ----- -- ---- ------<br>--- ----- --- --- ------ -------- ----- --- ------ ----- --<br>----- ----- ---------- --- --- ------ ------ ---- -- ------<br>------- --- ------ ----- was ---- ------- -- ---- --- --<br>------- ------,121046.5,121045.70000000298,120645.633,120654.79999999702,120662.302,121062.598,,47,was
screen,html.Screen,0_2_1_1_48,2021-11-05T12:22:54.008Z,,,,,,,,,,,,,,,,54,,,,,,,,,,,,,,319.20199999702163,,response,,,100,,,,,,Space,keypress(Space),,,,,-- --- ---- --- ------ ----- ------- ---- -- --- ------- --<br>------- ---------- ------ -- ----- -- ----- -- ---- ------<br>--- ----- --- --- ------ -------- ----- --- ------ ----- --<br>----- ----- ---------- --- --- ------ ------ ---- -- ------<br>------- --- ------ ----- --- left ------- -- ---- --- --<br>------- ------,121382.59999999404,121381.79999999702,121045.925,121046.70000000298,121062.598,121395.957,,48,left
screen,html.Screen,0_2_1_1_49,2021-11-05T12:22:54.384Z,,,,,,,,,,,,,,,,54,,,,,,,,,,,,,,362.24300000298535,,response,,,100,,,,,,Space,keypress(Space),,,,,-- --- ---- --- ------ ----- ------- ---- -- --- ------- --<br>------- ---------- ------ -- ----- -- ----- -- ---- ------<br>--- ----- --- --- ------ -------- ----- --- ------ ----- --<br>----- ----- ---------- --- --- ------ ------ ---- -- ------<br>------- --- ------ ----- --- ---- without -- ---- --- --<br>------- ------,121759,121758.20000000298,121379.286,121382.79999999702,121395.957,121762.598,,49,without
screen,html.Screen,0_2_1_1_50,2021-11-05T12:22:54.744Z,,,,,,,,,,,,,,,,54,,,,,,,,,,,,,,355.1020000029821,,response,,,100,,,,,,Space,keypress(Space),,,,,-- --- ---- --- ------ ----- ------- ---- -- --- ------- --<br>------- ---------- ------ -- ----- -- ----- -- ---- ------<br>--- ----- --- --- ------ -------- ----- --- ------ ----- --<br>----- ----- ---------- --- --- ------ ------ ---- -- ------<br>------- --- ------ ----- --- ---- ------- an ---- --- --<br>------- ------,122118.59999999404,122117.70000000298,121745.929,121759.29999999702,121762.598,122129.536,,50,an
screen,html.Screen,0_2_1_1_51,2021-11-05T12:22:55.032Z,,,,,,,,,,,,,,,,54,,,,,,,,,,,,,,275.9640000000072,,response,,,100,,,,,,Space,keypress(Space),,,,,-- --- ---- --- ------ ----- ------- ---- -- --- ------- --<br>------- ---------- ------ -- ----- -- ----- -- ---- ------<br>--- ----- --- --- ------ -------- ----- --- ------ ----- --<br>----- ----- ---------- --- --- ------ ------ ---- -- ------<br>------- --- ------ ----- --- ---- ------- -- easy --- --<br>------- ------,122406.40000000596,122405.5,122112.864,122118.79999999702,122129.536,122412.889,,51,easy
screen,html.Screen,0_2_1_1_52,2021-11-05T12:22:55.360Z,,,,,,,,,,,,,,,,54,,,,,,,,,,,,,,320.81100000298466,,response,,,100,,,,,,Space,keypress(Space),,,,,-- --- ---- --- ------ ----- ------- ---- -- --- ------- --<br>------- ---------- ------ -- ----- -- ----- -- ---- ------<br>--- ----- --- --- ------ -------- ----- --- ------ ----- --<br>----- ----- ---------- --- --- ------ ------ ---- -- ------<br>------- --- ------ ----- --- ---- ------- -- ---- way --<br>------- ------,122734.5,122733.70000000298,122396.218,122406.79999999702,122412.889,122746.219,,52,way
screen,html.Screen,0_2_1_1_53,2021-11-05T12:22:55.688Z,,,,,,,,,,,,,,,,54,,,,,,,,,,,,,,315.3809999940422,,response,,,100,,,,,,Space,keypress(Space),,,,,-- --- ---- --- ------ ----- ------- ---- -- --- ------- --<br>------- ---------- ------ -- ----- -- ----- -- ---- ------<br>--- ----- --- --- ------ -------- ----- --- ------ ----- --<br>----- ----- ---------- --- --- ------ ------ ---- -- ------<br>------- --- ------ ----- --- ---- ------- -- ---- --- of<br>------- ------,123062.5,123061.59999999404,122729.55,122734.79999999702,122746.219,123079.603,,53,of
screen,html.Screen,0_2_1_1_54,2021-11-05T12:22:56.063Z,,,,,,,,,,,,,,,,54,,,,,,,,,,,,,,358.09700000297744,,response,,,100,,,,,,Space,keypress(Space),,,,,-- --- ---- --- ------ ----- ------- ---- -- --- ------- --<br>------- ---------- ------ -- ----- -- ----- -- ---- ------<br>--- ----- --- --- ------ -------- ----- --- ------ ----- --<br>----- ----- ---------- --- --- ------ ------ ---- -- ------<br>------- --- ------ ----- --- ---- ------- -- ---- --- --<br>raising ------,123438.29999999702,123437.70000000298,123062.934,123062.70000000298,123079.603,123446.594,,54,raising
screen,html.Screen,0_2_1_1_55,2021-11-05T12:22:56.464Z,,,,,,,,,,,,,,,,54,,,,,,,,,,,,,,391.0059999940422,,response,,,100,,,,,,Space,keypress(Space),,,,,-- --- ---- --- ------ ----- ------- ---- -- --- ------- --<br>------- ---------- ------ -- ----- -- ----- -- ---- ------<br>--- ----- --- --- ------ -------- ----- --- ------ ----- --<br>----- ----- ---------- --- --- ------ ------ ---- -- ------<br>------- --- ------ ----- --- ---- ------- -- ---- --- --<br>------- money.,123838.40000000596,123837.59999999404,123429.921,123438.59999999404,123446.594,123846.605,,55,money.
Item 100,flow.Loop,0_2_1_1,2021-11-05T12:22:56.465Z,,,,,,,,,,,,,,,,,,,,,,,,,,,,,,23980.855999994033,,completion,,,,F,,,,,,,,,,silence,,123839.90000000596,123837.59999999404,99840.073,99841.90000000596,99856.744,123846.605,,,
Question 1,html.Screen,0_2_1_2,2021-11-05T12:23:00.718Z,,,,,,,,,,,,,,,,,,,,,,,,,,,true,TRUE,,4246.194999997024,,response,,,100,F,,,,,TRUE,click #choice-1,,,,silence,,128093.40000000596,128092.79999999702,123829.934,123840.20000000298,123846.605,128097.71,,,
Question 2,html.Screen,0_2_1_3,2021-11-05T12:23:03.743Z,,,,,,,,,,,,,,,,,,,,,,,,,,,true,FALSE,,3019.190000005954,,response,,,100,F,,,,,FALSE,click #choice-2,,,,silence,,131117.40000000596,131116.90000000596,128081.04,128093.40000000596,128097.71,131148.508,,,
Item 100,flow.Sequence,0_2_1,2021-11-05T12:23:03.743Z,,,,,,,,,,,,,,,,,,,,,,,,,,,,,,41262.76800000596,,completion,,,,,,,,,,,,,,,,131117.5,131116.90000000596,89837.461,89840.90000000596,89854.132,131148.508,,,
End of Practice,html.Page,0_2_2,2021-11-05T12:23:06.967Z,,,,,,,,,,,,,,,,,,,,,,,,,,,,,,3192.791999997018,,form submission,,,,,,,,,,,,,,,,134341.5,134341.29999999702,131131.837,131117.59999999404,131148.508,134349.463,,,
Practice,flow.Sequence,0_2,2021-11-05T12:23:06.967Z,,,,,,,,,,,,,,,,,,,,,,,,,,,,,,93983.81899999702,,completion,,,,,,,,,,,,,,,,134341.59999999404,134341.29999999702,40340.81,40355.29999999702,40357.481,134349.463,,,
Trap_instruction,html.Page,0_3_0,2021-11-05T12:23:10.247Z,,,,,,,,,,,,,,,,,,,,,,,,,,,,,,3271.7370000029914,,form submission,,,,,,,,,,,,,,,,137621.5,137621.20000000298,134332.79,134341.79999999702,134349.463,137633.567,,,
trap_trial,html.Screen,0_3_1,2021-11-05T12:23:13.006Z,,,,,,,,,,,,,,,,,,,,,,,,,,,true,1,,2746.8330000059505,,response,,,,,,,,,1,click #choice-1,,,,,,140380.90000000596,140380.40000000596,137616.896,137621.59999999404,137633.567,140383.828,,,
end of trap trial,html.Page,0_3_2,2021-11-05T12:23:14.814Z,,,,,,,,,,,,,,,,,,,,,,,,,,,,,,1805.0720000059518,,form submission,,,,,,,,,,,,,,,,142189.09999999404,142188.90000000596,140367.16,140381,140383.828,142201.463,,,
Trap 1,flow.Sequence,0_3,2021-11-05T12:23:14.814Z,,,,,,,,,,,,,,,,,,,,,,,,,,,,,,7839.437000005972,,completion,,,,,,,,,,,,,,,,142189.20000000298,142188.90000000596,134332.79,134341.79999999702,134349.463,142201.463,,,
Standby,html.Page,0_4_0,2021-11-05T12:23:22.813Z,,,,,,,,,,,,,,,,,,,,,,,,,,,,,,8002.114000000001,,timeout,,,,,,,,,,,,,,,,150187.59999999404,150186.906,142184.792,142189.20000000298,142201.463,150203.577,,,
Holding screen,html.Screen,0_4_1_0_0,2021-11-05T12:23:29.815Z,,,,,,,,,,,,,,,,,,,,,,,,,,,,,,7001.814000000013,,timeout,,,,,,,,,,,,,,,,157189.70000000298,157188.721,150186.906,150187.70000000298,150203.577,157205.391,,,
screen,html.Screen,0_4_1_0_1_0,2021-11-05T12:23:31.111Z,,,,,,,,,,,,,,,,11,,,,,,,,,,,,,,1279.1089999999967,,response,,,4,F,,,,,Space,keypress(Space),,,,instrumental,Known -- ---- --- -- --- -------- ------------ ---------- --<br>- ------- ------ --------- -- ------------ -- --- ---- -----<br>------ ---- ---- ------ ------ ------- --- ----- ---------<br>---- --- -------- -------- --- --- -- ------- --- --- -----<br>-- --- ------ ------- --- --- -------- ---- --------- --<br>---------- -- -------- ----------------,158485.5,158484.5,157188.721,157190.20000000298,157205.391,158489.035,,0,Known
screen,html.Screen,0_4_1_0_1_1,2021-11-05T12:23:31.566Z,,,,,,,,,,,,,,,,11,,,,,,,,,,,,,,450.9649999999965,,response,,,4,F,,,,,Space,keypress(Space),,,,instrumental,----- as ---- --- -- --- -------- ------------ ---------- --<br>- ------- ------ --------- -- ------------ -- --- ---- -----<br>------ ---- ---- ------ ------ ------- --- ----- ---------<br>---- --- -------- -------- --- --- -- ------- --- --- -----<br>-- --- ------ ------- --- --- -------- ---- --------- --<br>---------- -- -------- ----------------,158940.90000000596,158940,158472.365,158485.70000000298,158489.035,158956.062,,1,as
screen,html.Screen,0_4_1_0_1_2,2021-11-05T12:23:31.918Z,,,,,,,,,,,,,,,,11,,,,,,,,,,,,,,336.0379999940342,,response,,,4,F,,,,,Space,keypress(Space),,,,instrumental,----- -- Rapa --- -- --- -------- ------------ ---------- --<br>- ------- ------ --------- -- ------------ -- --- ---- -----<br>------ ---- ---- ------ ------ ------- --- ----- ---------<br>---- --- -------- -------- --- --- -- ------- --- --- -----<br>-- --- ------ ------- --- --- -------- ---- --------- --<br>---------- -- -------- ----------------,159292.79999999702,159292.09999999404,158939.391,158941.09999999404,158956.062,159306.05,,2,Rapa
screen,html.Screen,0_4_1_0_1_3,2021-11-05T12:23:32.374Z,,,,,,,,,,,,,,,,11,,,,,,,,,,,,,,442.0499999940512,,response,,,4,F,,,,,Space,keypress(Space),,,,instrumental,----- -- ---- Nui -- --- -------- ------------ ---------- --<br>- ------- ------ --------- -- ------------ -- --- ---- -----<br>------ ---- ---- ------ ------ ------- --- ----- ---------<br>---- --- -------- -------- --- --- -- ------- --- --- -----<br>-- --- ------ ------- --- --- -------- ---- --------- --<br>---------- -- -------- ----------------,159748.79999999702,159748.09999999404,159289.38,159293.20000000298,159306.05,159756.207,,3,Nui
screen,html.Screen,0_4_1_0_1_4,2021-11-05T12:23:32.790Z,,,,,,,,,,,,,,,,11,,,,,,,,,,,,,,407.7930000000051,,response,,,4,F,,,,,Space,keypress(Space),,,,instrumental,----- -- ---- --- to --- -------- ------------ ---------- --<br>- ------- ------ --------- -- ------------ -- --- ---- -----<br>------ ---- ---- ------ ------ ------- --- ----- ---------<br>---- --- -------- -------- --- --- -- ------- --- --- -----<br>-- --- ------ ------- --- --- -------- ---- --------- --<br>---------- -- -------- ----------------,160164.90000000596,160164,159739.536,159749.09999999404,159756.207,160172.999,,4,to
screen,html.Screen,0_4_1_0_1_5,2021-11-05T12:23:33.118Z,,,,,,,,,,,,,,,,11,,,,,,,,,,,,,,318.90100000594975,,response,,,4,F,,,,,Space,keypress(Space),,,,instrumental,----- -- ---- --- -- the -------- ------------ ---------- --<br>- ------- ------ --------- -- ------------ -- --- ---- -----<br>------ ---- ---- ------ ------ ------- --- ----- ---------<br>---- --- -------- -------- --- --- -- ------- --- --- -----<br>-- --- ------ ------- --- --- -------- ---- --------- --<br>---------- -- -------- ----------------,160492.70000000298,160491.90000000596,160156.328,160165.09999999404,160172.999,160506.501,,5,the
screen,html.Screen,0_4_1_0_1_6,2021-11-05T12:23:33.470Z,,,,,,,,,,,,,,,,11,,,,,,,,,,,,,,337.3990000059712,,response,,,4,F,,,,,Space,keypress(Space),,,,instrumental,----- -- ---- --- -- --- island's ------------ ---------- --<br>- ------- ------ --------- -- ------------ -- --- ---- -----<br>------ ---- ---- ------ ------ ------- --- ----- ---------<br>---- --- -------- -------- --- --- -- ------- --- --- -----<br>-- --- ------ ------- --- --- -------- ---- --------- --<br>---------- -- -------- ----------------,160844.70000000298,160843.90000000596,160489.829,160492.90000000596,160506.501,160856.519,,6,island's
screen,html.Screen,0_4_1_0_1_7,2021-11-05T12:23:33.846Z,,,,,,,,,,,,,,,,11,,,,,,,,,,,,,,363.38100000596023,,response,,,4,F,,,,,Space,keypress(Space),,,,instrumental,"----- -- ---- --- -- --- -------- inhabitants, ---------- --<br>- ------- ------ --------- -- ------------ -- --- ---- -----<br>------ ---- ---- ------ ------ ------- --- ----- ---------<br>---- --- -------- -------- --- --- -- ------- --- --- -----<br>-- --- ------ ------- --- --- -------- ---- --------- --<br>---------- -- -------- ----------------",161220.79999999702,161219.90000000596,160839.849,160844.90000000596,160856.519,161223.156,,7,"inhabitants,"
screen,html.Screen,0_4_1_0_1_8,2021-11-05T12:23:34.254Z,,,,,,,,,,,,,,,,11,,,,,,,,,,,,,,404.64399999703164,,response,,,4,F,,,,,Space,keypress(Space),,,,instrumental,----- -- ---- --- -- --- -------- ------------ Rongorongo --<br>- ------- ------ --------- -- ------------ -- --- ---- -----<br>------ ---- ---- ------ ------ ------- --- ----- ---------<br>---- --- -------- -------- --- --- -- ------- --- --- -----<br>-- --- ------ ------- --- --- -------- ---- --------- --<br>---------- -- -------- ----------------,161628.59999999404,161627.79999999702,161206.488,161221.09999999404,161223.156,161640.048,,8,Rongorongo
screen,html.Screen,0_4_1_0_1_9,2021-11-05T12:23:34.877Z,,,,,,,,,,,,,,,,11,,,,,,,,,,,,,,611.5519999940298,,response,,,4,F,,,,,Space,keypress(Space),,,,instrumental,----- -- ---- --- -- --- -------- ------------ ---------- is<br>- ------- ------ --------- -- ------------ -- --- ---- -----<br>------ ---- ---- ------ ------ ------- --- ----- ---------<br>---- --- -------- -------- --- --- -- ------- --- --- -----<br>-- --- ------ ------- --- --- -------- ---- --------- --<br>---------- -- -------- ----------------,162252,162251.59999999404,161623.377,161628.90000000596,161640.048,162257.045,,9,is
screen,html.Screen,0_4_1_0_1_10,2021-11-05T12:23:35.238Z,,,,,,,,,,,,,,,,11,,,,,,,,,,,,,,354.85500000594766,,response,,,4,F,,,,,Space,keypress(Space),,,,instrumental,----- -- ---- --- -- --- -------- ------------ ---------- --<br>a ------- ------ --------- -- ------------ -- --- ---- -----<br>------ ---- ---- ------ ------ ------- --- ----- ---------<br>---- --- -------- -------- --- --- -- ------- --- --- -----<br>-- --- ------ ------- --- --- -------- ---- --------- --<br>---------- -- -------- ----------------,162612.79999999702,162611.90000000596,162240.372,162252.09999999404,162257.045,162623.536,,10,a
screen,html.Screen,0_4_1_0_1_11,2021-11-05T12:23:35.446Z,,,,,,,,,,,,,,,,11,,,,,,,,,,,,,,196.46400000000722,,response,,,4,F,,,,,Space,keypress(Space),,,,instrumental,----- -- ---- --- -- --- -------- ------------ ---------- --<br>- writing ------ --------- -- ------------ -- --- ---- -----<br>------ ---- ---- ------ ------ ------- --- ----- ---------<br>---- --- -------- -------- --- --- -- ------- --- --- -----<br>-- --- ------ ------- --- --- -------- ---- --------- --<br>---------- -- -------- ----------------,162820.70000000298,162820,162606.867,162613.09999999404,162623.536,162823.671,,11,writing
screen,html.Screen,0_4_1_0_1_12,2021-11-05T12:23:35.742Z,,,,,,,,,,,,,,,,11,,,,,,,,,,,,,,292.22900000595837,,response,,,4,F,,,,,Space,keypress(Space),,,,instrumental,----- -- ---- --- -- --- -------- ------------ ---------- --<br>- ------- system --------- -- ------------ -- --- ---- -----<br>------ ---- ---- ------ ------ ------- --- ----- ---------<br>---- --- -------- -------- --- --- -- ------- --- --- -----<br>-- --- ------ ------- --- --- -------- ---- --------- --<br>---------- -- -------- ----------------,163116.70000000298,163115.90000000596,162807.001,162821,162823.671,163123.888,,12,system
screen,html.Screen,0_4_1_0_1_13,2021-11-05T12:23:36.062Z,,,,,,,,,,,,,,,,11,,,,,,,,,,,,,,312.0120000059542,,response,,,4,F,,,,,Space,keypress(Space),,,,instrumental,----- -- ---- --- -- --- -------- ------------ ---------- --<br>- ------- ------ comprised -- ------------ -- --- ---- -----<br>------ ---- ---- ------ ------ ------- --- ----- ---------<br>---- --- -------- -------- --- --- -- ------- --- --- -----<br>-- --- ------ ------- --- --- -------- ---- --------- --<br>---------- -- -------- ----------------,163436.70000000298,163435.90000000596,163107.215,163117,163123.888,163440.581,,13,comprised
screen,html.Screen,0_4_1_0_1_14,2021-11-05T12:23:36.366Z,,,,,,,,,,,,,,,,11,,,,,,,,,,,,,,299.3190000059549,,response,,,4,F,,,,,Space,keypress(Space),,,,instrumental,----- -- ---- --- -- --- -------- ------------ ---------- --<br>- ------- ------ --------- of ------------ -- --- ---- -----<br>------ ---- ---- ------ ------ ------- --- ----- ---------<br>---- --- -------- -------- --- --- -- ------- --- --- -----<br>-- --- ------ ------- --- --- -------- ---- --------- --<br>---------- -- -------- ----------------,163740.70000000298,163739.90000000596,163423.91,163436.90000000596,163440.581,163757.297,,14,of
screen,html.Screen,0_4_1_0_1_15,2021-11-05T12:23:36.630Z,,,,,,,,,,,,,,,,11,,,,,,,,,,,,,,246.60300000596908,,response,,,4,F,,,,,Space,keypress(Space),,,,instrumental,----- -- ---- --- -- --- -------- ------------ ---------- --<br>- ------- ------ --------- -- pictographs. -- --- ---- -----<br>------ ---- ---- ------ ------ ------- --- ----- ---------<br>---- --- -------- -------- --- --- -- ------- --- --- -----<br>-- --- ------ ------- --- --- -------- ---- --------- --<br>---------- -- -------- ----------------,164004.59999999404,164003.90000000596,163740.627,163741,163757.297,164007.405,,15,pictographs.
screen,html.Screen,0_4_1_0_1_16,2021-11-05T12:23:37.134Z,,,,,,,,,,,,,,,,11,,,,,,,,,,,,,,500.49500000596163,,response,,,4,F,,,,,Space,keypress(Space),,,,instrumental,----- -- ---- --- -- --- -------- ------------ ---------- --<br>- ------- ------ --------- -- ------------ It --- ---- -----<br>------ ---- ---- ------ ------ ------- --- ----- ---------<br>---- --- -------- -------- --- --- -- ------- --- --- -----<br>-- --- ------ ------- --- --- -------- ---- --------- --<br>---------- -- -------- ----------------,164508.70000000298,164507.90000000596,163990.734,164004.79999999702,164007.405,164524.165,,16,It
screen,html.Screen,0_4_1_0_1_17,2021-11-05T12:23:37.429Z,,,,,,,,,,,,,,,,11,,,,,,,,,,,,,,279.4349999940314,,response,,,4,F,,,,,Space,keypress(Space),,,,instrumental,----- -- ---- --- -- --- -------- ------------ ---------- --<br>- ------- ------ --------- -- ------------ -- has ---- -----<br>------ ---- ---- ------ ------ ------- --- ----- ---------<br>---- --- -------- -------- --- --- -- ------- --- --- -----<br>-- --- ------ ------- --- --- -------- ---- --------- --<br>---------- -- -------- ----------------,164804,164803.59999999404,164507.495,164509,164524.165,164807.566,,17,has
screen,html.Screen,0_4_1_0_1_18,2021-11-05T12:23:37.718Z,,,,,,,,,,,,,,,,11,,,,,,,,,,,,,,284.23399999702815,,response,,,4,F,,,,,Space,keypress(Space),,,,instrumental,----- -- ---- --- -- --- -------- ------------ ---------- --<br>- ------- ------ --------- -- ------------ -- --- been -----<br>------ ---- ---- ------ ------ ------- --- ----- ---------<br>---- --- -------- -------- --- --- -- ------- --- --- -----<br>-- --- ------ ------- --- --- -------- ---- --------- --<br>---------- -- -------- ----------------,165092.70000000298,165091.79999999702,164790.896,164804.09999999404,164807.566,165107.693,,18,been
screen,html.Screen,0_4_1_0_1_19,2021-11-05T12:23:38.006Z,,,,,,,,,,,,,,,,11,,,,,,,,,,,,,,272.10699999702047,,response,,,4,F,,,,,Space,keypress(Space),,,,instrumental,----- -- ---- --- -- --- -------- ------------ ---------- --<br>- ------- ------ --------- -- ------------ -- --- ---- found<br>------ ---- ---- ------ ------ ------- --- ----- ---------<br>---- --- -------- -------- --- --- -- ------- --- --- -----<br>-- --- ------ ------- --- --- -------- ---- --------- --<br>---------- -- -------- ----------------,165380.70000000298,165379.79999999702,165091.022,165092.90000000596,165107.693,165390.964,,19,found
screen,html.Screen,0_4_1_0_1_20,2021-11-05T12:23:38.398Z,,,,,,,,,,,,,,,,11,,,,,,,,,,,,,,380.83599999701255,,response,,,4,F,,,,,Space,keypress(Space),,,,instrumental,----- -- ---- --- -- --- -------- ------------ ---------- --<br>- ------- ------ --------- -- ------------ -- --- ---- -----<br>carved ---- ---- ------ ------ ------- --- ----- ---------<br>---- --- -------- -------- --- --- -- ------- --- --- -----<br>-- --- ------ ------- --- --- -------- ---- --------- --<br>---------- -- -------- ----------------,165772.59999999404,165771.79999999702,165374.296,165380.90000000596,165390.964,165774.636,,20,carved
screen,html.Screen,0_4_1_0_1_21,2021-11-05T12:23:38.726Z,,,,,,,,,,,,,,,,11,,,,,,,,,,,,,,325.16399999702116,,response,,,4,F,,,,,Space,keypress(Space),,,,instrumental,----- -- ---- --- -- --- -------- ------------ ---------- --<br>- ------- ------ --------- -- ------------ -- --- ---- -----<br>------ into ---- ------ ------ ------- --- ----- ---------<br>---- --- -------- -------- --- --- -- ------- --- --- -----<br>-- --- ------ ------- --- --- -------- ---- --------- --<br>---------- -- -------- ----------------,166100.5,166099.79999999702,165757.963,165772.90000000596,165774.636,166107.936,,21,into
screen,html.Screen,0_4_1_0_1_22,2021-11-05T12:23:39.006Z,,,,,,,,,,,,,,,,11,,,,,,,,,,,,,,271.8639999970328,,response,,,4,F,,,,,Space,keypress(Space),,,,instrumental,----- -- ---- --- -- --- -------- ------------ ---------- --<br>- ------- ------ --------- -- ------------ -- --- ---- -----<br>------ ---- many ------ ------ ------- --- ----- ---------<br>---- --- -------- -------- --- --- -- ------- --- --- -----<br>-- --- ------ ------- --- --- -------- ---- --------- --<br>---------- -- -------- ----------------,166380.59999999404,166379.79999999702,166091.266,166100.79999999702,166107.936,166391.334,,22,many
screen,html.Screen,0_4_1_0_1_23,2021-11-05T12:23:39.294Z,,,,,,,,,,,,,,,,11,,,,,,,,,,,,,,276.265999994037,,response,,,4,F,,,,,Space,keypress(Space),,,,instrumental,----- -- ---- --- -- --- -------- ------------ ---------- --<br>- ------- ------ --------- -- ------------ -- --- ---- -----<br>------ ---- ---- oblong ------ ------- --- ----- ---------<br>---- --- -------- -------- --- --- -- ------- --- --- -----<br>-- --- ------ ------- --- --- -------- ---- --------- --<br>---------- -- -------- ----------------,166668.40000000596,166667.59999999404,166374.664,166380.79999999702,166391.334,166674.649,,23,oblong
screen,html.Screen,0_4_1_0_1_24,2021-11-05T12:23:39.614Z,,,,,,,,,,,,,,,,11,,,,,,,,,,,,,,313.05100000297534,,response,,,4,F,,,,,Space,keypress(Space),,,,instrumental,----- -- ---- --- -- --- -------- ------------ ---------- --<br>- ------- ------ --------- -- ------------ -- --- ---- -----<br>------ ---- ---- ------ wooden ------- --- ----- ---------<br>---- --- -------- -------- --- --- -- ------- --- --- -----<br>-- --- ------ ------- --- --- -------- ---- --------- --<br>---------- -- -------- ----------------,166988.5,166987.70000000298,166657.981,166668.59999999404,166674.649,166991.602,,24,wooden
screen,html.Screen,0_4_1_0_1_25,2021-11-05T12:23:39.878Z,,,,,,,,,,,,,,,,11,,,,,,,,,,,,,,259.99799999402603,,response,,,4,F,,,,,Space,keypress(Space),,,,instrumental,----- -- ---- --- -- --- -------- ------------ ---------- --<br>- ------- ------ --------- -- ------------ -- --- ---- -----<br>------ ---- ---- ------ ------ tablets --- ----- ---------<br>---- --- -------- -------- --- --- -- ------- --- --- -----<br>-- --- ------ ------- --- --- -------- ---- --------- --<br>---------- -- -------- ----------------,167252.40000000596,167251.59999999404,166974.929,166988.79999999702,166991.602,167258.283,,25,tablets
screen,html.Screen,0_4_1_0_1_26,2021-11-05T12:23:40.182Z,,,,,,,,,,,,,,,,11,,,,,,,,,,,,,,297.4170000029844,,response,,,4,F,,,,,Space,keypress(Space),,,,instrumental,----- -- ---- --- -- --- -------- ------------ ---------- --<br>- ------- ------ --------- -- ------------ -- --- ---- -----<br>------ ---- ---- ------ ------ ------- and ----- ---------<br>---- --- -------- -------- --- --- -- ------- --- --- -----<br>-- --- ------ ------- --- --- -------- ---- --------- --<br>---------- -- -------- ----------------,167556.5,167555.70000000298,167241.612,167252.70000000298,167258.283,167558.321,,26,and
screen,html.Screen,0_4_1_0_1_27,2021-11-05T12:23:40.470Z,,,,,,,,,,,,,,,,11,,,,,,,,,,,,,,285.27899999404326,,response,,,4,F,,,,,Space,keypress(Space),,,,instrumental,----- -- ---- --- -- --- -------- ------------ ---------- --<br>- ------- ------ --------- -- ------------ -- --- ---- -----<br>------ ---- ---- ------ ------ ------- --- other ---------<br>---- --- -------- -------- --- --- -- ------- --- --- -----<br>-- --- ------ ------- --- --- -------- ---- --------- --<br>---------- -- -------- ----------------,167844.5,167843.59999999404,167541.651,167556.79999999702,167558.321,167858.29,,27,other
screen,html.Screen,0_4_1_0_1_28,2021-11-05T12:23:40.734Z,,,,,,,,,,,,,,,,11,,,,,,,,,,,,,,249.41000000297208,,response,,,4,F,,,,,Space,keypress(Space),,,,instrumental,----- -- ---- --- -- --- -------- ------------ ---------- --<br>- ------- ------ --------- -- ------------ -- --- ---- -----<br>------ ---- ---- ------ ------ ------- --- ----- artifacts<br>---- --- -------- -------- --- --- -- ------- --- --- -----<br>-- --- ------ ------- --- --- -------- ---- --------- --<br>---------- -- -------- ----------------,168108.40000000596,168107.70000000298,167841.622,167844.70000000298,167858.29,168125.124,,28,artifacts
screen,html.Screen,0_4_1_0_1_29,2021-11-05T12:23:41.150Z,,,,,,,,,,,,,,,,11,,,,,,,,,,,,,,398.8759999999893,,response,,,4,F,,,,,Space,keypress(Space),,,,instrumental,----- -- ---- --- -- --- -------- ------------ ---------- --<br>- ------- ------ --------- -- ------------ -- --- ---- -----<br>------ ---- ---- ------ ------ ------- --- ----- ---------<br>from --- -------- -------- --- --- -- ------- --- --- -----<br>-- --- ------ ------- --- --- -------- ---- --------- --<br>---------- -- -------- ----------------,168524.79999999702,168524,168108.453,168108.79999999702,168125.124,168542.036,,29,from
screen,html.Screen,0_4_1_0_1_30,2021-11-05T12:23:41.462Z,,,,,,,,,,,,,,,,11,,,,,,,,,,,,,,293.56399999404675,,response,,,4,F,,,,,Space,keypress(Space),,,,instrumental,----- -- ---- --- -- --- -------- ------------ ---------- --<br>- ------- ------ --------- -- ------------ -- --- ---- -----<br>------ ---- ---- ------ ------ ------- --- ----- ---------<br>---- the -------- -------- --- --- -- ------- --- --- -----<br>-- --- ------ ------- --- --- -------- ---- --------- --<br>---------- -- -------- ----------------,168836.40000000596,168835.59999999404,168525.363,168524.90000000596,168542.036,168841.859,,30,the
screen,html.Screen,0_4_1_0_1_31,2021-11-05T12:23:41.766Z,,,,,,,,,,,,,,,,11,,,,,,,,,,,,,,297.8410000029835,,response,,,4,F,,,,,Space,keypress(Space),,,,instrumental,----- -- ---- --- -- --- -------- ------------ ---------- --<br>- ------- ------ --------- -- ------------ -- --- ---- -----<br>------ ---- ---- ------ ------ ------- --- ----- ---------<br>---- --- island's -------- --- --- -- ------- --- --- -----<br>-- --- ------ ------- --- --- -------- ---- --------- --<br>---------- -- -------- ----------------,169140.40000000596,169139.70000000298,168825.191,168836.70000000298,168841.859,169142.144,,31,island's
screen,html.Screen,0_4_1_0_1_32,2021-11-05T12:23:42.086Z,,,,,,,,,,,,,,,,11,,,,,,,,,,,,,,317.4559999940393,,response,,,4,F,,,,,Space,keypress(Space),,,,instrumental,----- -- ---- --- -- --- -------- ------------ ---------- --<br>- ------- ------ --------- -- ------------ -- --- ---- -----<br>------ ---- ---- ------ ------ ------- --- ----- ---------<br>---- --- -------- history. --- --- -- ------- --- --- -----<br>-- --- ------ ------- --- --- -------- ---- --------- --<br>---------- -- -------- ----------------,169460.40000000596,169459.59999999404,169125.472,169140.70000000298,169142.144,169475.585,,32,history.
screen,html.Screen,0_4_1_0_1_33,2021-11-05T12:23:42.382Z,,,,,,,,,,,,,,,,11,,,,,,,,,,,,,,280.1150000029884,,response,,,4,F,,,,,Space,keypress(Space),,,,instrumental,----- -- ---- --- -- --- -------- ------------ ---------- --<br>- ------- ------ --------- -- ------------ -- --- ---- -----<br>------ ---- ---- ------ ------ ------- --- ----- ---------<br>---- --- -------- -------- The --- -- ------- --- --- -----<br>-- --- ------ ------- --- --- -------- ---- --------- --<br>---------- -- -------- ----------------,169756.40000000596,169755.70000000298,169458.913,169460.70000000298,169475.585,169758.872,,33,The
screen,html.Screen,0_4_1_0_1_34,2021-11-05T12:23:42.669Z,,,,,,,,,,,,,,,,11,,,,,,,,,,,,,,284.52800000595744,,response,,,4,F,,,,,Space,keypress(Space),,,,instrumental,----- -- ---- --- -- --- -------- ------------ ---------- --<br>- ------- ------ --------- -- ------------ -- --- ---- -----<br>------ ---- ---- ------ ------ ------- --- ----- ---------<br>---- --- -------- -------- --- art -- ------- --- --- -----<br>-- --- ------ ------- --- --- -------- ---- --------- --<br>---------- -- -------- ----------------,170044.20000000298,170043.40000000596,169742.203,169756.59999999404,169758.872,170058.89,,34,art
screen,html.Screen,0_4_1_0_1_35,2021-11-05T12:23:42.974Z,,,,,,,,,,,,,,,,11,,,,,,,,,,,,,,288.70999999402557,,response,,,4,F,,,,,Space,keypress(Space),,,,instrumental,----- -- ---- --- -- --- -------- ------------ ---------- --<br>- ------- ------ --------- -- ------------ -- --- ---- -----<br>------ ---- ---- ------ ------ ------- --- ----- ---------<br>---- --- -------- -------- --- --- of ------- --- --- -----<br>-- --- ------ ------- --- --- -------- ---- --------- --<br>---------- -- -------- ----------------,170348.40000000596,170347.59999999404,170042.222,170044.5,170058.89,170359.058,,35,of
screen,html.Screen,0_4_1_0_1_36,2021-11-05T12:23:43.238Z,,,,,,,,,,,,,,,,11,,,,,,,,,,,,,,252.54199999404955,,response,,,4,F,,,,,Space,keypress(Space),,,,instrumental,----- -- ---- --- -- --- -------- ------------ ---------- --<br>- ------- ------ --------- -- ------------ -- --- ---- -----<br>------ ---- ---- ------ ------ ------- --- ----- ---------<br>---- --- -------- -------- --- --- -- writing --- --- -----<br>-- --- ------ ------- --- --- -------- ---- --------- --<br>---------- -- -------- ----------------,170612.5,170611.59999999404,170342.387,170348.59999999404,170359.058,170625.921,,36,writing
screen,html.Screen,0_4_1_0_1_37,2021-11-05T12:23:43.534Z,,,,,,,,,,,,,,,,11,,,,,,,,,,,,,,281.67899999403744,,response,,,4,F,,,,,Space,keypress(Space),,,,instrumental,----- -- ---- --- -- --- -------- ------------ ---------- --<br>- ------- ------ --------- -- ------------ -- --- ---- -----<br>------ ---- ---- ------ ------ ------- --- ----- ---------<br>---- --- -------- -------- --- --- -- ------- was --- -----<br>-- --- ------ ------- --- --- -------- ---- --------- --<br>---------- -- -------- ----------------,170908.5,170907.59999999404,170609.248,170612.70000000298,170625.921,170925.782,,37,was
screen,html.Screen,0_4_1_0_1_38,2021-11-05T12:23:43.837Z,,,,,,,,,,,,,,,,11,,,,,,,,,,,,,,285.817999994033,,response,,,4,F,,,,,Space,keypress(Space),,,,instrumental,----- -- ---- --- -- --- -------- ------------ ---------- --<br>- ------- ------ --------- -- ------------ -- --- ---- -----<br>------ ---- ---- ------ ------ ------- --- ----- ---------<br>---- --- -------- -------- --- --- -- ------- --- not -----<br>-- --- ------ ------- --- --- -------- ---- --------- --<br>---------- -- -------- ----------------,171212.40000000596,171211.59999999404,170909.114,170908.79999999702,170925.782,171225.958,,38,not
screen,html.Screen,0_4_1_0_1_39,2021-11-05T12:23:44.197Z,,,,,,,,,,,,,,,,11,,,,,,,,,,,,,,345.64199999402626,,response,,,4,F,,,,,Space,keypress(Space),,,,instrumental,----- -- ---- --- -- --- -------- ------------ ---------- --<br>- ------- ------ --------- -- ------------ -- --- ---- -----<br>------ ---- ---- ------ ------ ------- --- ----- ---------<br>---- --- -------- -------- --- --- -- ------- --- --- known<br>-- --- ------ ------- --- --- -------- ---- --------- --<br>---------- -- -------- ----------------,171572.29999999702,171571.59999999404,171209.287,171212.59999999404,171225.958,171576.052,,39,known
screen,html.Screen,0_4_1_0_1_40,2021-11-05T12:23:44.669Z,,,,,,,,,,,,,,,,11,,,,,,,,,,,,,,467.3480000059644,,response,,,4,F,,,,,Space,keypress(Space),,,,instrumental,----- -- ---- --- -- --- -------- ------------ ---------- --<br>- ------- ------ --------- -- ------------ -- --- ---- -----<br>------ ---- ---- ------ ------ ------- --- ----- ---------<br>---- --- -------- -------- --- --- -- ------- --- --- -----<br>in --- ------ ------- --- --- -------- ---- --------- --<br>---------- -- -------- ----------------,172044.20000000298,172043.40000000596,171559.381,171572.59999999404,171576.052,172059.513,,40,in
screen,html.Screen,0_4_1_0_1_41,2021-11-05T12:23:44.949Z,,,,,,,,,,,,,,,,11,,,,,,,,,,,,,,263.9869999999937,,response,,,4,F,,,,,Space,keypress(Space),,,,instrumental,----- -- ---- --- -- --- -------- ------------ ---------- --<br>- ------- ------ --------- -- ------------ -- --- ---- -----<br>------ ---- ---- ------ ------ ------- --- ----- ---------<br>---- --- -------- -------- --- --- -- ------- --- --- -----<br>-- any ------ ------- --- --- -------- ---- --------- --<br>---------- -- -------- ----------------,172324.29999999702,172323.5,172042.842,172044.40000000596,172059.513,172326.271,,41,any
screen,html.Screen,0_4_1_0_1_42,2021-11-05T12:23:45.325Z,,,,,,,,,,,,,,,,11,,,,,,,,,,,,,,373.3289999940316,,response,,,4,F,,,,,Space,keypress(Space),,,,instrumental,----- -- ---- --- -- --- -------- ------------ ---------- --<br>- ------- ------ --------- -- ------------ -- --- ---- -----<br>------ ---- ---- ------ ------ ------- --- ----- ---------<br>---- --- -------- -------- --- --- -- ------- --- --- -----<br>-- --- nearby ------- --- --- -------- ---- --------- --<br>---------- -- -------- ----------------,172700.29999999702,172699.59999999404,172309.6,172324.5,172326.271,172709.771,,42,nearby
screen,html.Screen,0_4_1_0_1_43,2021-11-05T12:23:45.661Z,,,,,,,,,,,,,,,,11,,,,,,,,,,,,,,325.7289999999921,,response,,,4,F,,,,,Space,keypress(Space),,,,instrumental,----- -- ---- --- -- --- -------- ------------ ---------- --<br>- ------- ------ --------- -- ------------ -- --- ---- -----<br>------ ---- ---- ------ ------ ------- --- ----- ---------<br>---- --- -------- -------- --- --- -- ------- --- --- -----<br>-- --- ------ islands --- --- -------- ---- --------- --<br>---------- -- -------- ----------------,173036.29999999702,173035.5,172693.099,172700.5,172709.771,173043.154,,43,islands
screen,html.Screen,0_4_1_0_1_44,2021-11-05T12:23:45.989Z,,,,,,,,,,,,,,,,11,,,,,,,,,,,,,,320.1459999970102,,response,,,4,F,,,,,Space,keypress(Space),,,,instrumental,----- -- ---- --- -- --- -------- ------------ ---------- --<br>- ------- ------ --------- -- ------------ -- --- ---- -----<br>------ ---- ---- ------ ------ ------- --- ----- ---------<br>---- --- -------- -------- --- --- -- ------- --- --- -----<br>-- --- ------ ------- and --- -------- ---- --------- --<br>---------- -- -------- ----------------,173364.09999999404,173363.29999999702,173026.483,173036.5,173043.154,173376.523,,44,and
screen,html.Screen,0_4_1_0_1_45,2021-11-05T12:23:46.333Z,,,,,,,,,,,,,,,,11,,,,,,,,,,,,,,330.9770000000135,,response,,,4,F,,,,,Space,keypress(Space),,,,instrumental,----- -- ---- --- -- --- -------- ------------ ---------- --<br>- ------- ------ --------- -- ------------ -- --- ---- -----<br>------ ---- ---- ------ ------ ------- --- ----- ---------<br>---- --- -------- -------- --- --- -- ------- --- --- -----<br>-- --- ------ ------- --- the -------- ---- --------- --<br>---------- -- -------- ----------------,173708.20000000298,173707.5,173359.853,173364.29999999702,173376.523,173710.02,,45,the
screen,html.Screen,0_4_1_0_1_46,2021-11-05T12:23:46.629Z,,,,,,,,,,,,,,,,11,,,,,,,,,,,,,,293.1800000029907,,response,,,4,F,,,,,Space,keypress(Space),,,,instrumental,----- -- ---- --- -- --- -------- ------------ ---------- --<br>- ------- ------ --------- -- ------------ -- --- ---- -----<br>------ ---- ---- ------ ------ ------- --- ----- ---------<br>---- --- -------- -------- --- --- -- ------- --- --- -----<br>-- --- ------ ------- --- --- script's ---- --------- --<br>---------- -- -------- ----------------,174003.90000000596,174003.20000000298,173693.349,173708.40000000596,173710.02,174010.086,,46,script's
screen,html.Screen,0_4_1_0_1_47,2021-11-05T12:23:47.005Z,,,,,,,,,,,,,,,,11,,,,,,,,,,,,,,369.3140000059502,,response,,,4,F,,,,,Space,keypress(Space),,,,instrumental,----- -- ---- --- -- --- -------- ------------ ---------- --<br>- ------- ------ --------- -- ------------ -- --- ---- -----<br>------ ---- ---- ------ ------ ------- --- ----- ---------<br>---- --- -------- -------- --- --- -- ------- --- --- -----<br>-- --- ------ ------- --- --- -------- mere --------- --<br>---------- -- -------- ----------------,174380.20000000298,174379.40000000596,173993.415,174004.09999999404,174010.086,174393.358,,47,mere
screen,html.Screen,0_4_1_0_1_48,2021-11-05T12:23:47.341Z,,,,,,,,,,,,,,,,11,,,,,,,,,,,,,,322.042000005953,,response,,,4,F,,,,,Space,keypress(Space),,,,instrumental,----- -- ---- --- -- --- -------- ------------ ---------- --<br>- ------- ------ --------- -- ------------ -- --- ---- -----<br>------ ---- ---- ------ ------ ------- --- ----- ---------<br>---- --- -------- -------- --- --- -- ------- --- --- -----<br>-- --- ------ ------- --- --- -------- ---- existence --<br>---------- -- -------- ----------------,174716.20000000298,174715.40000000596,174376.69,174380.5,174393.358,174727.017,,48,existence
screen,html.Screen,0_4_1_0_1_49,2021-11-05T12:23:47.733Z,,,,,,,,,,,,,,,,11,,,,,,,,,,,,,,380.3830000059679,,response,,,4,F,,,,,Space,keypress(Space),,,,instrumental,----- -- ---- --- -- --- -------- ------------ ---------- --<br>- ------- ------ --------- -- ------------ -- --- ---- -----<br>------ ---- ---- ------ ------ ------- --- ----- ---------<br>---- --- -------- -------- --- --- -- ------- --- --- -----<br>-- --- ------ ------- --- --- -------- ---- --------- is<br>---------- -- -------- ----------------,175108.20000000298,175107.40000000596,174710.344,174716.5,174727.017,175110.407,,49,is
screen,html.Screen,0_4_1_0_1_50,2021-11-05T12:23:48.053Z,,,,,,,,,,,,,,,,11,,,,,,,,,,,,,,316.99300000595395,,response,,,4,F,,,,,Space,keypress(Space),,,,instrumental,----- -- ---- --- -- --- -------- ------------ ---------- --<br>- ------- ------ --------- -- ------------ -- --- ---- -----<br>------ ---- ---- ------ ------ ------- --- ----- ---------<br>---- --- -------- -------- --- --- -- ------- --- --- -----<br>-- --- ------ ------- --- --- -------- ---- --------- --<br>sufficient -- -------- ----------------,175428.20000000298,175427.40000000596,175093.736,175108.5,175110.407,175443.78,,50,sufficient
