sender,sender_type,sender_id,timestamp,meta,,Blues,Classical,Country,Dance,Electronic,Folk,Gospel,Hip-Hop,Jazz,Latin,Musical/Film,New-age,Pop,Provo_ID,R&B,Rap,Reggae,Religious,Rock,Soul,Swing,Traditional,age,artist_name,correct,correctResponse,distraction,duration,education,ended_on,familiarity,gender,item,list,music_frequency,offensiveness,pleasantness,preference,response,response_action,snippet_file,song_name,song_rating,sound,text,time_commit,time_end,time_render,time_run,time_show,time_switch,url,word,word_ID
Instructions,html.Page,0_0,2021-11-12T10:33:29.930Z,"{""labjs_version"":""20.2.3"",""labjs_build"":{""flavor"":""production"",""commit"":""7ea907d66ca8aeef8054924ca5d82ffbe11e34e5""},""location"":""https://run.pavlovia.org/mvasilev/lab_music_b/"",""userAgent"":""Mozilla/5.0 (Windows NT 6.1; Win64; x64) AppleWebKit/537.36 (KHTML, like Gecko) Chrome/95.0.4638.69 Safari/537.36"",""platform"":""Win32"",""language"":""en-US"",""locale"":""en-US"",""timeZone"":""Europe/London"",""timezoneOffset"":0,""screen_width"":1920,""screen_height"":1080,""scroll_width"":1920,""scroll_height"":959,""window_innerWidth"":1920,""window_innerHeight"":1007,""devicePixelRatio"":1}",,,,,,,,,,,,,,,,,,,,,,,,,,,,,32336.985999952318,,form submission,,,,,,,,,,,,,,,,42542.19999998808,42541.299999952316,10187.649,10203.599999964237,10204.314,42551.679,{},,
Headphones,html.Page,0_1,2021-11-12T10:33:36.219Z,,,,,,,,,,,,,,,,,,,,,,,,,,,,,,6279.520999988083,,form submission,,,,,,,,,,,,,,,,48831.59999996424,48831.19999998808,42535.053,42542.59999996424,42551.679,48835.541,,,
Holding screen,html.Screen,0_2_0_0,2021-11-12T10:33:46.209Z,,,,,,,,,,,,,,,,,,,,,,,,,,,,,,9999.36,,timeout,,,,,,,,,,,,,,,,58821.799999952316,58818.236,48818.917,48832,48835.541,58834.901,,,
screen,html.Screen,0_2_0_1_0,2021-11-12T10:33:47.664Z,,,,,,,,,,,,,,,,53,,,,,,,,,,,,,,1437.099000000002,,response,,,99,,,,,,Space,keypress(Space),,,,,When -- ----- -- ------ - ------- --- ----------<br>------------- ------ ------ ---- ---- ------- ----- -- ----<br>-------- ------- -- ---------- --- - --- ----- ----- ----<br>---- --- --- ----- --- ---- ---- ------- ----- ---- -------<br>--- --- -- ----- -- --- ---- -- --- ---- -- ------ ------<br>--- ----- -- ----,60273,60272,58818.236,58822.09999996424,58834.901,60284.795,,0,When
screen,html.Screen,0_2_0_1_1,2021-11-12T10:33:48.479Z,,,,,,,,,,,,,,,,53,,,,,,,,,,,,,,803.1049999761599,,response,,,99,,,,,,Space,keypress(Space),,,,,---- it ----- -- ------ - ------- --- ----------<br>------------- ------ ------ ---- ---- ------- ----- -- ----<br>-------- ------- -- ---------- --- - --- ----- ----- ----<br>---- --- --- ----- --- ---- ---- ------- ----- ---- -------<br>--- --- -- ----- -- --- ---- -- --- ---- -- ------ ------<br>--- ----- -- ----,61088.5,61087.89999997616,60268.13,60273.39999997616,60284.795,61101.424,,1,it
screen,html.Screen,0_2_0_1_2,2021-11-12T10:33:49.215Z,,,,,,,,,,,,,,,,53,,,,,,,,,,,,,,722.4759999761591,,response,,,99,,,,,,Space,keypress(Space),,,,,---- -- comes -- ------ - ------- --- ----------<br>------------- ------ ------ ---- ---- ------- ----- -- ----<br>-------- ------- -- ---------- --- - --- ----- ----- ----<br>---- --- --- ----- --- ---- ---- ------- ----- ---- -------<br>--- --- -- ----- -- --- ---- -- --- ---- -- ------ ------<br>--- ----- -- ----,61824.59999996424,61823.89999997616,61084.759,61088.69999998808,61101.424,61834.729,,2,comes
screen,html.Screen,0_2_0_1_3,2021-11-12T10:33:49.911Z,,,,,,,,,,,,,,,,53,,,,,,,,,,,,,,685.1709999761588,,response,,,99,,,,,,Space,keypress(Space),,,,,---- -- ----- to ------ - ------- --- ----------<br>------------- ------ ------ ---- ---- ------- ----- -- ----<br>-------- ------- -- ---------- --- - --- ----- ----- ----<br>---- --- --- ----- --- ---- ---- ------- ----- ---- -------<br>--- --- -- ----- -- --- ---- -- --- ---- -- ------ ------<br>--- ----- -- ----,62520.5,62519.89999997616,61818.064,61824.69999998808,61834.729,62534.687,,3,to
screen,html.Screen,0_2_0_1_4,2021-11-12T10:33:50.568Z,,,,,,,,,,,,,,,,53,,,,,,,,,,,,,,641.3130000000019,,response,,,99,,,,,,Space,keypress(Space),,,,,---- -- ----- -- having - ------- --- ----------<br>------------- ------ ------ ---- ---- ------- ----- -- ----<br>-------- ------- -- ---------- --- - --- ----- ----- ----<br>---- --- --- ----- --- ---- ---- ------- ----- ---- -------<br>--- --- -- ----- -- --- ---- -- --- ---- -- ------ ------<br>--- ----- -- ----,63176.89999997616,63176,62518.022,62520.799999952316,62534.687,63184.665,,4,having
screen,html.Screen,0_2_0_1_5,2021-11-12T10:33:51.239Z,,,,,,,,,,,,,,,,53,,,,,,,,,,,,,,663.1349999523154,,response,,,99,,,,,,Space,keypress(Space),,,,,---- -- ----- -- ------ a ------- --- ----------<br>------------- ------ ------ ---- ---- ------- ----- -- ----<br>-------- ------- -- ---------- --- - --- ----- ----- ----<br>---- --- --- ----- --- ---- ---- ------- ----- ---- -------<br>--- --- -- ----- -- --- ---- -- --- ---- -- ------ ------<br>--- ----- -- ----,63848.5,63847.799999952316,63168,63177.19999998808,63184.665,63851.277,,5,a
screen,html.Screen,0_2_0_1_6,2021-11-12T10:33:51.863Z,,,,,,,,,,,,,,,,53,,,,,,,,,,,,,,620.4229999880772,,response,,,99,,,,,,Space,keypress(Space),,,,,---- -- ----- -- ------ - lasting --- ----------<br>------------- ------ ------ ---- ---- ------- ----- -- ----<br>-------- ------- -- ---------- --- - --- ----- ----- ----<br>---- --- --- ----- --- ---- ---- ------- ----- ---- -------<br>--- --- -- ----- -- --- ---- -- --- ---- -- ------ ------<br>--- ----- -- ----,64472.39999997616,64471.69999998808,63834.612,63848.799999952316,63851.277,64484.573,,6,lasting
screen,html.Screen,0_2_0_1_7,2021-11-12T10:33:52.431Z,,,,,,,,,,,,,,,,53,,,,,,,,,,,,,,555.0269999642405,,response,,,99,,,,,,Space,keypress(Space),,,,,---- -- ----- -- ------ - ------- and ----------<br>------------- ------ ------ ---- ---- ------- ----- -- ----<br>-------- ------- -- ---------- --- - --- ----- ----- ----<br>---- --- --- ----- --- ---- ---- ------- ----- ---- -------<br>--- --- -- ----- -- --- ---- -- --- ---- -- ------ ------<br>--- ----- -- ----,65040.299999952316,65039.59999996424,64467.908,64472.69999998808,64484.573,65051.203,,7,and
screen,html.Screen,0_2_0_1_8,2021-11-12T10:33:53.023Z,,,,,,,,,,,,,,,,53,,,,,,,,,,,,,,580.4969999880777,,response,,,99,,,,,,Space,keypress(Space),,,,,---- -- ----- -- ------ - ------- --- fulfilling<br>------------- ------ ------ ---- ---- ------- ----- -- ----<br>-------- ------- -- ---------- --- - --- ----- ----- ----<br>---- --- --- ----- --- ---- ---- ------- ----- ---- -------<br>--- --- -- ----- -- --- ---- -- --- ---- -- ------ ------<br>--- ----- -- ----,65632.39999997616,65631.69999998808,65034.538,65040.59999996424,65051.203,65634.516,,8,fulfilling
screen,html.Screen,0_2_0_1_9,2021-11-12T10:33:53.615Z,,,,,,,,,,,,,,,,53,,,,,,,,,,,,,,589.083999964234,,response,,,99,,,,,,Space,keypress(Space),,,,,"---- -- ----- -- ------ - ------- --- ----------<br>relationship, ------ ------ ---- ---- ------- ----- -- ----<br>-------- ------- -- ---------- --- - --- ----- ----- ----<br>---- --- --- ----- --- ---- ---- ------- ----- ---- -------<br>--- --- -- ----- -- --- ---- -- --- ---- -- ------ ------<br>--- ----- -- ----",66224.29999995232,66223.59999996424,65617.851,65632.59999996424,65634.516,66234.466,,9,"relationship,"
screen,html.Screen,0_2_0_1_10,2021-11-12T10:33:54.223Z,,,,,,,,,,,,,,,,53,,,,,,,,,,,,,,597.0339999999997,,response,,,99,,,,,,Space,keypress(Space),,,,,---- -- ----- -- ------ - ------- --- ----------<br>------------- common ------ ---- ---- ------- ----- -- ----<br>-------- ------- -- ---------- --- - --- ----- ----- ----<br>---- --- --- ----- --- ---- ---- ------- ----- ---- -------<br>--- --- -- ----- -- --- ---- -- --- ---- -- ------ ------<br>--- ----- -- ----,66832.19999998808,66831.5,66217.801,66224.5,66234.466,66834.441,,10,common
screen,html.Screen,0_2_0_1_11,2021-11-12T10:33:54.815Z,,,,,,,,,,,,,,,,53,,,,,,,,,,,,,,589.0589999999938,,response,,,99,,,,,,Space,keypress(Space),,,,,---- -- ----- -- ------ - ------- --- ----------<br>------------- ------ wisdom ---- ---- ------- ----- -- ----<br>-------- ------- -- ---------- --- - --- ----- ----- ----<br>---- --- --- ----- --- ---- ---- ------- ----- ---- -------<br>--- --- -- ----- -- --- ---- -- --- ---- -- ------ ------<br>--- ----- -- ----,67424.19999998808,67423.5,66817.776,66832.39999997616,66834.441,67434.395,,11,wisdom
screen,html.Screen,0_2_0_1_12,2021-11-12T10:33:55.351Z,,,,,,,,,,,,,,,,53,,,,,,,,,,,,,,525.0049999761541,,response,,,99,,,,,,Space,keypress(Space),,,,,---- -- ----- -- ------ - ------- --- ----------<br>------------- ------ ------ says ---- ------- ----- -- ----<br>-------- ------- -- ---------- --- - --- ----- ----- ----<br>---- --- --- ----- --- ---- ---- ------- ----- ---- -------<br>--- --- -- ----- -- --- ---- -- --- ---- -- ------ ------<br>--- ----- -- ----,67960.09999996424,67959.39999997616,67417.73,67424.39999997616,67434.395,67967.697,,12,says
screen,html.Screen,0_2_0_1_13,2021-11-12T10:33:56.007Z,,,,,,,,,,,,,,,,53,,,,,,,,,,,,,,647.702999976158,,response,,,99,,,,,,Space,keypress(Space),,,,,---- -- ----- -- ------ - ------- --- ----------<br>------------- ------ ------ ---- that ------- ----- -- ----<br>-------- ------- -- ---------- --- - --- ----- ----- ----<br>---- --- --- ----- --- ---- ---- ------- ----- ---- -------<br>--- --- -- ----- -- --- ---- -- --- ---- -- ------ ------<br>--- ----- -- ----,68616.09999996424,68615.39999997616,67951.032,67960.19999998808,67967.697,68617.654,,13,that
screen,html.Screen,0_2_0_1_14,2021-11-12T10:33:56.591Z,,,,,,,,,,,,,,,,53,,,,,,,,,,,,,,581.7459999761631,,response,,,99,,,,,,Space,keypress(Space),,,,,---- -- ----- -- ------ - ------- --- ----------<br>------------- ------ ------ ---- ---- feeling ----- -- ----<br>-------- ------- -- ---------- --- - --- ----- ----- ----<br>---- --- --- ----- --- ---- ---- ------- ----- ---- -------<br>--- --- -- ----- -- --- ---- -- --- ---- -- ------ ------<br>--- ----- -- ----,69200.09999996424,69199.39999997616,68600.989,68616.29999995232,68617.654,69200.971,,14,feeling
screen,html.Screen,0_2_0_1_15,2021-11-12T10:33:57.207Z,,,,,,,,,,,,,,,,53,,,,,,,,,,,,,,614.4289999761531,,response,,,99,,,,,,Space,keypress(Space),,,,,---- -- ----- -- ------ - ------- --- ----------<br>------------- ------ ------ ---- ---- ------- close -- ----<br>-------- ------- -- ---------- --- - --- ----- ----- ----<br>---- --- --- ----- --- ---- ---- ------- ----- ---- -------<br>--- --- -- ----- -- --- ---- -- --- ---- -- ------ ------<br>--- ----- -- ----,69816,69815.39999997616,69184.306,69200.19999998808,69200.971,69817.484,,15,close
screen,html.Screen,0_2_0_1_16,2021-11-12T10:33:57.823Z,,,,,,,,,,,,,,,,53,,,,,,,,,,,,,,613.8159999523195,,response,,,99,,,,,,Space,keypress(Space),,,,,---- -- ----- -- ------ - ------- --- ----------<br>------------- ------ ------ ---- ---- ------- ----- to ----<br>-------- ------- -- ---------- --- - --- ----- ----- ----<br>---- --- --- ----- --- ---- ---- ------- ----- ---- -------<br>--- --- -- ----- -- --- ---- -- --- ---- -- ------ ------<br>--- ----- -- ----,70432,70431.29999995232,69800.82,69816.19999998808,69817.484,70434.2,,16,to
screen,html.Screen,0_2_0_1_17,2021-11-12T10:33:58.367Z,,,,,,,,,,,,,,,,53,,,,,,,,,,,,,,540.999999988082,,response,,,99,,,,,,Space,keypress(Space),,,,,---- -- ----- -- ------ - ------- --- ----------<br>------------- ------ ------ ---- ---- ------- ----- -- your<br>-------- ------- -- ---------- --- - --- ----- ----- ----<br>---- --- --- ----- --- ---- ---- ------- ----- ---- -------<br>--- --- -- ----- -- --- ---- -- --- ---- -- ------ ------<br>--- ----- -- ----,70975.79999995232,70975.19999998808,70417.535,70432.09999996424,70434.2,70984.151,,17,your
screen,html.Screen,0_2_0_1_18,2021-11-12T10:33:58.951Z,,,,,,,,,,,,,,,,53,,,,,,,,,,,,,,575.048999988081,,response,,,99,,,,,,Space,keypress(Space),,,,,---- -- ----- -- ------ - ------- --- ----------<br>------------- ------ ------ ---- ---- ------- ----- -- ----<br>romantic ------- -- ---------- --- - --- ----- ----- ----<br>---- --- --- ----- --- ---- ---- ------- ----- ---- -------<br>--- --- -- ----- -- --- ---- -- --- ---- -- ------ ------<br>--- ----- -- ----,71559.79999995232,71559.19999998808,70967.486,70976,70984.151,71567.538,,18,romantic
screen,html.Screen,0_2_0_1_19,2021-11-12T10:33:59.519Z,,,,,,,,,,,,,,,,53,,,,,,,,,,,,,,559.6619999880786,,response,,,99,,,,,,Space,keypress(Space),,,,,---- -- ----- -- ------ - ------- --- ----------<br>------------- ------ ------ ---- ---- ------- ----- -- ----<br>-------- partner -- ---------- --- - --- ----- ----- ----<br>---- --- --- ----- --- ---- ---- ------- ----- ---- -------<br>--- --- -- ----- -- --- ---- -- --- ---- -- ------ ------<br>--- ----- -- ----,72127.79999995232,72127.19999998808,71550.872,71560,71567.538,72134.107,,19,partner
screen,html.Screen,0_2_0_1_20,2021-11-12T10:34:00.167Z,,,,,,,,,,,,,,,,53,,,,,,,,,,,,,,641.0929999880755,,response,,,99,,,,,,Space,keypress(Space),,,,,---- -- ----- -- ------ - ------- --- ----------<br>------------- ------ ------ ---- ---- ------- ----- -- ----<br>-------- ------- is ---------- --- - --- ----- ----- ----<br>---- --- --- ----- --- ---- ---- ------- ----- ---- -------<br>--- --- -- ----- -- --- ---- -- --- ---- -- ------ ------<br>--- ----- -- ----,72775.79999995232,72775.19999998808,72117.442,72128,72134.107,72784.043,,20,is
screen,html.Screen,0_2_0_1_21,2021-11-12T10:34:00.687Z,,,,,,,,,,,,,,,,53,,,,,,,,,,,,,,511.4569999999949,,response,,,99,,,,,,Space,keypress(Space),,,,,---- -- ----- -- ------ - ------- --- ----------<br>------------- ------ ------ ---- ---- ------- ----- -- ----<br>-------- ------- -- paramount. --- - --- ----- ----- ----<br>---- --- --- ----- --- ---- ---- ------- ----- ---- -------<br>--- --- -- ----- -- --- ---- -- --- ---- -- ------ ------<br>--- ----- -- ----,73296.09999996424,73295.5,72767.378,72775.89999997616,72784.043,73300.761,,21,paramount.
screen,html.Screen,0_2_0_1_22,2021-11-12T10:34:01.247Z,,,,,,,,,,,,,,,,53,,,,,,,,,,,,,,554.4389999880805,,response,,,99,,,,,,Space,keypress(Space),,,,,---- -- ----- -- ------ - ------- --- ----------<br>------------- ------ ------ ---- ---- ------- ----- -- ----<br>-------- ------- -- ---------- But - --- ----- ----- ----<br>---- --- --- ----- --- ---- ---- ------- ----- ---- -------<br>--- --- -- ----- -- --- ---- -- --- ---- -- ------ ------<br>--- ----- -- ----,73855.69999998808,73855.19999998808,73284.095,73296.39999997616,73300.761,73867.335,,22,But
screen,html.Screen,0_2_0_1_23,2021-11-12T10:34:01.782Z,,,,,,,,,,,,,,,,53,,,,,,,,,,,,,,523.7649999642308,,response,,,99,,,,,,Space,keypress(Space),,,,,---- -- ----- -- ------ - ------- --- ----------<br>------------- ------ ------ ---- ---- ------- ----- -- ----<br>-------- ------- -- ---------- --- a --- ----- ----- ----<br>---- --- --- ----- --- ---- ---- ------- ----- ---- -------<br>--- --- -- ----- -- --- ---- -- --- ---- -- ------ ------<br>--- ----- -- ----,74391.59999996424,74391.09999996424,73850.67,73855.89999997616,73867.335,74400.566,,23,a
screen,html.Screen,0_2_0_1_24,2021-11-12T10:34:02.486Z,,,,,,,,,,,,,,,,53,,,,,,,,,,,,,,694.4339999999938,,response,,,99,,,,,,Space,keypress(Space),,,,,---- -- ----- -- ------ - ------- --- ----------<br>------------- ------ ------ ---- ---- ------- ----- -- ----<br>-------- ------- -- ---------- --- - new ----- ----- ----<br>---- --- --- ----- --- ---- ---- ------- ----- ---- -------<br>--- --- -- ----- -- --- ---- -- --- ---- -- ------ ------<br>--- ----- -- ----,75095.59999996424,75095,74383.902,74391.89999997616,74400.566,75100.663,,24,new
screen,html.Screen,0_2_0_1_25,2021-11-12T10:34:03.286Z,,,,,,,,,,,,,,,,53,,,,,,,,,,,,,,794.3369999999995,,response,,,99,,,,,,Space,keypress(Space),,,,,---- -- ----- -- ------ - ------- --- ----------<br>------------- ------ ------ ---- ---- ------- ----- -- ----<br>-------- ------- -- ---------- --- - --- study ----- ----<br>---- --- --- ----- --- ---- ---- ------- ----- ---- -------<br>--- --- -- ----- -- --- ---- -- --- ---- -- ------ ------<br>--- ----- -- ----,75895.69999998808,75895,75083.997,75095.79999995232,75100.663,75900.538,,25,study
screen,html.Screen,0_2_0_1_26,2021-11-12T10:34:03.838Z,,,,,,,,,,,,,,,,53,,,,,,,,,,,,,,546.4619999999995,,response,,,99,,,,,,Space,keypress(Space),,,,,---- -- ----- -- ------ - ------- --- ----------<br>------------- ------ ------ ---- ---- ------- ----- -- ----<br>-------- ------- -- ---------- --- - --- ----- finds ----<br>---- --- --- ----- --- ---- ---- ------- ----- ---- -------<br>--- --- -- ----- -- --- ---- -- --- ---- -- ------ ------<br>--- ----- -- ----,76447.69999998808,76447,75883.873,75895.89999997616,75900.538,76450.418,,26,finds
screen,html.Screen,0_2_0_1_27,2021-11-12T10:34:04.398Z,,,,,,,,,,,,,,,,53,,,,,,,,,,,,,,556.481999976153,,response,,,99,,,,,,Space,keypress(Space),,,,,---- -- ----- -- ------ - ------- --- ----------<br>------------- ------ ------ ---- ---- ------- ----- -- ----<br>-------- ------- -- ---------- --- - --- ----- ----- that<br>---- --- --- ----- --- ---- ---- ------- ----- ---- -------<br>--- --- -- ----- -- --- ---- -- --- ---- -- ------ ------<br>--- ----- -- ----,77007.39999997616,77006.89999997616,76433.754,76447.79999995232,76450.418,77017.081,,27,that
screen,html.Screen,0_2_0_1_28,2021-11-12T10:34:04.942Z,,,,,,,,,,,,,,,,53,,,,,,,,,,,,,,533.8189999761526,,response,,,99,,,,,,Space,keypress(Space),,,,,---- -- ----- -- ------ - ------- --- ----------<br>------------- ------ ------ ---- ---- ------- ----- -- ----<br>-------- ------- -- ---------- --- - --- ----- ----- ----<br>it's --- --- ----- --- ---- ---- ------- ----- ---- -------<br>--- --- -- ----- -- --- ---- -- --- ---- -- ------ ------<br>--- ----- -- ----,77551.5,77550.89999997616,77000.416,77007.59999996424,77017.081,77567.144,,28,it's
screen,html.Screen,0_2_0_1_29,2021-11-12T10:34:05.478Z,,,,,,,,,,,,,,,,53,,,,,,,,,,,,,,519.655999952316,,response,,,99,,,,,,Space,keypress(Space),,,,,---- -- ----- -- ------ - ------- --- ----------<br>------------- ------ ------ ---- ---- ------- ----- -- ----<br>-------- ------- -- ---------- --- - --- ----- ----- ----<br>---- not --- ----- --- ---- ---- ------- ----- ---- -------<br>--- --- -- ----- -- --- ---- -- --- ---- -- ------ ------<br>--- ----- -- ----,78087.39999997616,78086.79999995232,77550.478,77551.59999996424,77567.144,78100.457,,29,not
screen,html.Screen,0_2_0_1_30,2021-11-12T10:34:06.014Z,,,,,,,,,,,,,,,,53,,,,,,,,,,,,,,522.4429999761633,,response,,,99,,,,,,Space,keypress(Space),,,,,---- -- ----- -- ------ - ------- --- ----------<br>------------- ------ ------ ---- ---- ------- ----- -- ----<br>-------- ------- -- ---------- --- - --- ----- ----- ----<br>---- --- how ----- --- ---- ---- ------- ----- ---- -------<br>--- --- -- ----- -- --- ---- -- --- ---- -- ------ ------<br>--- ----- -- ----,78623.39999997616,78622.89999997616,78083.791,78087.59999996424,78100.457,78633.708,,30,how
screen,html.Screen,0_2_0_1_31,2021-11-12T10:34:06.558Z,,,,,,,,,,,,,,,,53,,,,,,,,,,,,,,532.9919999880804,,response,,,99,,,,,,Space,keypress(Space),,,,,---- -- ----- -- ------ - ------- --- ----------<br>------------- ------ ------ ---- ---- ------- ----- -- ----<br>-------- ------- -- ---------- --- - --- ----- ----- ----<br>---- --- --- close --- ---- ---- ------- ----- ---- -------<br>--- --- -- ----- -- --- ---- -- --- ---- -- ------ ------<br>--- ----- -- ----,79167.39999997616,79166.69999998808,78617.043,78623.59999996424,78633.708,79183.671,,31,close
screen,html.Screen,0_2_0_1_32,2021-11-12T10:34:07.062Z,,,,,,,,,,,,,,,,53,,,,,,,,,,,,,,487.1289999523142,,response,,,99,,,,,,Space,keypress(Space),,,,,---- -- ----- -- ------ - ------- --- ----------<br>------------- ------ ------ ---- ---- ------- ----- -- ----<br>-------- ------- -- ---------- --- - --- ----- ----- ----<br>---- --- --- ----- you ---- ---- ------- ----- ---- -------<br>--- --- -- ----- -- --- ---- -- --- ---- -- ------ ------<br>--- ----- -- ----,79671.29999995232,79670.79999995232,79167.006,79167.5,79183.671,79683.654,,32,you
screen,html.Screen,0_2_0_1_33,2021-11-12T10:34:07.574Z,,,,,,,,,,,,,,,,53,,,,,,,,,,,,,,499.1459999523213,,response,,,99,,,,,,Space,keypress(Space),,,,,---- -- ----- -- ------ - ------- --- ----------<br>------------- ------ ------ ---- ---- ------- ----- -- ----<br>-------- ------- -- ---------- --- - --- ----- ----- ----<br>---- --- --- ----- --- feel ---- ------- ----- ---- -------<br>--- --- -- ----- -- --- ---- -- --- ---- -- ------ ------<br>--- ----- -- ----,80183.39999997616,80182.79999995232,79666.989,79671.5,79683.654,80200.283,,33,feel
screen,html.Screen,0_2_0_1_34,2021-11-12T10:34:08.110Z,,,,,,,,,,,,,,,,53,,,,,,,,,,,,,,518.3169999642414,,response,,,99,,,,,,Space,keypress(Space),,,,,---- -- ----- -- ------ - ------- --- ----------<br>------------- ------ ------ ---- ---- ------- ----- -- ----<br>-------- ------- -- ---------- --- - --- ----- ----- ----<br>---- --- --- ----- --- ---- that ------- ----- ---- -------<br>--- --- -- ----- -- --- ---- -- --- ---- -- ------ ------<br>--- ----- -- ----,80719.39999997616,80718.59999996424,80183.618,80185.29999995232,80200.283,80733.51,,34,that
screen,html.Screen,0_2_0_1_35,2021-11-12T10:34:08.614Z,,,,,,,,,,,,,,,,53,,,,,,,,,,,,,,489.1899999880843,,response,,,99,,,,,,Space,keypress(Space),,,,,---- -- ----- -- ------ - ------- --- ----------<br>------------- ------ ------ ---- ---- ------- ----- -- ----<br>-------- ------- -- ---------- --- - --- ----- ----- ----<br>---- --- --- ----- --- ---- ---- matters ----- ---- -------<br>--- --- -- ----- -- --- ---- -- --- ---- -- ------ ------<br>--- ----- -- ----,81223.39999997616,81222.69999998808,80716.846,80719.69999998808,80733.51,81233.53,,35,matters
screen,html.Screen,0_2_0_1_36,2021-11-12T10:34:09.190Z,,,,,,,,,,,,,,,,53,,,,,,,,,,,,,,565.1699999880802,,response,,,99,,,,,,Space,keypress(Space),,,,,"---- -- ----- -- ------ - ------- --- ----------<br>------------- ------ ------ ---- ---- ------- ----- -- ----<br>-------- ------- -- ---------- --- - --- ----- ----- ----<br>---- --- --- ----- --- ---- ---- ------- most, ---- -------<br>--- --- -- ----- -- --- ---- -- --- ---- -- ------ ------<br>--- ----- -- ----",81799.19999998808,81798.69999998808,81216.865,81223.59999996424,81233.53,81800.156,,36,"most,"
screen,html.Screen,0_2_0_1_37,2021-11-12T10:34:09.734Z,,,,,,,,,,,,,,,,53,,,,,,,,,,,,,,542.4439999642345,,response,,,99,,,,,,Space,keypress(Space),,,,,---- -- ----- -- ------ - ------- --- ----------<br>------------- ------ ------ ---- ---- ------- ----- -- ----<br>-------- ------- -- ---------- --- - --- ----- ----- ----<br>---- --- --- ----- --- ---- ---- ------- ----- it's -------<br>--- --- -- ----- -- --- ---- -- --- ---- -- ------ ------<br>--- ----- -- ----,82343.19999998808,82342.59999996424,81783.491,81799.39999997616,81800.156,82350.032,,37,it's
screen,html.Screen,0_2_0_1_38,2021-11-12T10:34:10.278Z,,,,,,,,,,,,,,,,53,,,,,,,,,,,,,,536.4679999999935,,response,,,99,,,,,,Space,keypress(Space),,,,,---- -- ----- -- ------ - ------- --- ----------<br>------------- ------ ------ ---- ---- ------- ----- -- ----<br>-------- ------- -- ---------- --- - --- ----- ----- ----<br>---- --- --- ----- --- ---- ---- ------- ----- ---- whether<br>--- --- -- ----- -- --- ---- -- --- ---- -- ------ ------<br>--- ----- -- ----,82887.19999998808,82886.5,82333.368,82343.29999995232,82350.032,82900.155,,38,whether
screen,html.Screen,0_2_0_1_39,2021-11-12T10:34:10.814Z,,,,,,,,,,,,,,,,53,,,,,,,,,,,,,,522.6449999523174,,response,,,99,,,,,,Space,keypress(Space),,,,,---- -- ----- -- ------ - ------- --- ----------<br>------------- ------ ------ ---- ---- ------- ----- -- ----<br>-------- ------- -- ---------- --- - --- ----- ----- ----<br>---- --- --- ----- --- ---- ---- ------- ----- ---- -------<br>you --- -- ----- -- --- ---- -- --- ---- -- ------ ------<br>--- ----- -- ----,83423.39999997616,83422.79999995232,82883.489,82887.39999997616,82900.155,83433.462,,39,you
screen,html.Screen,0_2_0_1_40,2021-11-12T10:34:11.318Z,,,,,,,,,,,,,,,,53,,,,,,,,,,,,,,493.03800000000047,,response,,,99,,,,,,Space,keypress(Space),,,,,---- -- ----- -- ------ - ------- --- ----------<br>------------- ------ ------ ---- ---- ------- ----- -- ----<br>-------- ------- -- ---------- --- - --- ----- ----- ----<br>---- --- --- ----- --- ---- ---- ------- ----- ---- -------<br>--- are -- ----- -- --- ---- -- --- ---- -- ------ ------<br>--- ----- -- ----,83927,83926.5,83416.796,83423.59999996424,83433.462,83933.354,,40,are
screen,html.Screen,0_2_0_1_41,2021-11-12T10:34:11.862Z,,,,,,,,,,,,,,,,53,,,,,,,,,,,,,,537.1459999999934,,response,,,99,,,,,,Space,keypress(Space),,,,,---- -- ----- -- ------ - ------- --- ----------<br>------------- ------ ------ ---- ---- ------- ----- -- ----<br>-------- ------- -- ---------- --- - --- ----- ----- ----<br>---- --- --- ----- --- ---- ---- ------- ----- ---- -------<br>--- --- as ----- -- --- ---- -- --- ---- -- ------ ------<br>--- ----- -- ----,84471.19999998808,84470.5,83916.689,83927.19999998808,83933.354,84483.403,,41,as
screen,html.Screen,0_2_0_1_42,2021-11-12T10:34:12.366Z,,,,,,,,,,,,,,,,53,,,,,,,,,,,,,,490.99699997615244,,response,,,99,,,,,,Space,keypress(Space),,,,,---- -- ----- -- ------ - ------- --- ----------<br>------------- ------ ------ ---- ---- ------- ----- -- ----<br>-------- ------- -- ---------- --- - --- ----- ----- ----<br>---- --- --- ----- --- ---- ---- ------- ----- ---- -------<br>--- --- -- close -- --- ---- -- --- ---- -- ------ ------<br>--- ----- -- ----,84974.89999997616,84974.39999997616,84466.737,84471.29999995232,84483.403,84983.321,,42,close
screen,html.Screen,0_2_0_1_43,2021-11-12T10:34:12.846Z,,,,,,,,,,,,,,,,53,,,,,,,,,,,,,,470.97899995232,,response,,,99,,,,,,Space,keypress(Space),,,,,---- -- ----- -- ------ - ------- --- ----------<br>------------- ------ ------ ---- ---- ------- ----- -- ----<br>-------- ------- -- ---------- --- - --- ----- ----- ----<br>---- --- --- ----- --- ---- ---- ------- ----- ---- -------<br>--- --- -- ----- as --- ---- -- --- ---- -- ------ ------<br>--- ----- -- ----,85455,85454.29999995232,84966.656,84975.09999996424,84983.321,85466.627,,43,as
screen,html.Screen,0_2_0_1_44,2021-11-12T10:34:13.326Z,,,,,,,,,,,,,,,,53,,,,,,,,,,,,,,467.772999976165,,response,,,99,,,,,,Space,keypress(Space),,,,,---- -- ----- -- ------ - ------- --- ----------<br>------------- ------ ------ ---- ---- ------- ----- -- ----<br>-------- ------- -- ---------- --- - --- ----- ----- ----<br>---- --- --- ----- --- ---- ---- ------- ----- ---- -------<br>--- --- -- ----- -- you ---- -- --- ---- -- ------ ------<br>--- ----- -- ----,85935,85934.39999997616,85449.962,85455.09999996424,85466.627,85949.93,,44,you
screen,html.Screen,0_2_0_1_45,2021-11-12T10:34:13.766Z,,,,,,,,,,,,,,,,53,,,,,,,,,,,,,,424.4699999761651,,response,,,99,,,,,,Space,keypress(Space),,,,,---- -- ----- -- ------ - ------- --- ----------<br>------------- ------ ------ ---- ---- ------- ----- -- ----<br>-------- ------- -- ---------- --- - --- ----- ----- ----<br>---- --- --- ----- --- ---- ---- ------- ----- ---- -------<br>--- --- -- ----- -- --- want -- --- ---- -- ------ ------<br>--- ----- -- ----,86374.89999997616,86374.39999997616,85933.265,85935.09999996424,85949.93,86383.096,,45,want
screen,html.Screen,0_2_0_1_46,2021-11-12T10:34:14.230Z,,,,,,,,,,,,,,,,53,,,,,,,,,,,,,,455.2039999523113,,response,,,99,,,,,,Space,keypress(Space),,,,,---- -- ----- -- ------ - ------- --- ----------<br>------------- ------ ------ ---- ---- ------- ----- -- ----<br>-------- ------- -- ---------- --- - --- ----- ----- ----<br>---- --- --- ----- --- ---- ---- ------- ----- ---- -------<br>--- --- -- ----- -- --- ---- to --- ---- -- ------ ------<br>--- ----- -- ----,86838.89999997616,86838.29999995232,86366.433,86375.09999996424,86383.096,86849.926,,46,to
screen,html.Screen,0_2_0_1_47,2021-11-12T10:34:14.726Z,,,,,,,,,,,,,,,,53,,,,,,,,,,,,,,484.37399995230953,,response,,,99,,,,,,Space,keypress(Space),,,,,"---- -- ----- -- ------ - ------- --- ----------<br>------------- ------ ------ ---- ---- ------- ----- -- ----<br>-------- ------- -- ---------- --- - --- ----- ----- ----<br>---- --- --- ----- --- ---- ---- ------- ----- ---- -------<br>--- --- -- ----- -- --- ---- -- be, ---- -- ------ ------<br>--- ----- -- ----",87335,87334.29999995232,86833.259,86839.09999996424,86849.926,87349.844,,47,"be,"
screen,html.Screen,0_2_0_1_48,2021-11-12T10:34:15.182Z,,,,,,,,,,,,,,,,53,,,,,,,,,,,,,,440.35599998808175,,response,,,99,,,,,,Space,keypress(Space),,,,,---- -- ----- -- ------ - ------- --- ----------<br>------------- ------ ------ ---- ---- ------- ----- -- ----<br>-------- ------- -- ---------- --- - --- ----- ----- ----<br>---- --- --- ----- --- ---- ---- ------- ----- ---- -------<br>--- --- -- ----- -- --- ---- -- --- even -- ------ ------<br>--- ----- -- ----,87790.89999997616,87790.19999998808,87333.179,87335.19999998808,87349.844,87799.814,,48,even
screen,html.Screen,0_2_0_1_49,2021-11-12T10:34:15.654Z,,,,,,,,,,,,,,,,53,,,,,,,,,,,,,,462.4859999523178,,response,,,99,,,,,,Space,keypress(Space),,,,,---- -- ----- -- ------ - ------- --- ----------<br>------------- ------ ------ ---- ---- ------- ----- -- ----<br>-------- ------- -- ---------- --- - --- ----- ----- ----<br>---- --- --- ----- --- ---- ---- ------- ----- ---- -------<br>--- --- -- ----- -- --- ---- -- --- ---- if ------ ------<br>--- ----- -- ----,88262.79999995232,88262.29999995232,87783.149,87791,87799.814,88266.471,,49,if
screen,html.Screen,0_2_0_1_50,2021-11-12T10:34:16.118Z,,,,,,,,,,,,,,,,53,,,,,,,,,,,,,,459.72899998807407,,response,,,99,,,,,,Space,keypress(Space),,,,,---- -- ----- -- ------ - ------- --- ----------<br>------------- ------ ------ ---- ---- ------- ----- -- ----<br>-------- ------- -- ---------- --- - --- ----- ----- ----<br>---- --- --- ----- --- ---- ---- ------- ----- ---- -------<br>--- --- -- ----- -- --- ---- -- --- ---- -- that's ------<br>--- ----- -- ----,88726.69999998808,88726.19999998808,88249.806,88263,88266.471,88733.02,,50,that's
screen,html.Screen,0_2_0_1_51,2021-11-12T10:34:16.606Z,,,,,,,,,,,,,,,,53,,,,,,,,,,,,,,481.179999988075,,response,,,99,,,,,,Space,keypress(Space),,,,,---- -- ----- -- ------ - ------- --- ----------<br>------------- ------ ------ ---- ---- ------- ----- -- ----<br>-------- ------- -- ---------- --- - --- ----- ----- ----<br>---- --- --- ----- --- ---- ---- ------- ----- ---- -------<br>--- --- -- ----- -- --- ---- -- --- ---- -- ------ really<br>--- ----- -- ----,89214.69999998808,89214.19999998808,88716.356,88726.89999997616,88733.02,89216.468,,51,really
screen,html.Screen,0_2_0_1_52,2021-11-12T10:34:17.118Z,,,,,,,,,,,,,,,,53,,,,,,,,,,,,,,509.63199996424373,,response,,,99,,,,,,Space,keypress(Space),,,,,---- -- ----- -- ------ - ------- --- ----------<br>------------- ------ ------ ---- ---- ------- ----- -- ----<br>-------- ------- -- ---------- --- - --- ----- ----- ----<br>---- --- --- ----- --- ---- ---- ------- ----- ---- -------<br>--- --- -- ----- -- --- ---- -- --- ---- -- ------ ------<br>not ----- -- ----,89726.69999998808,89726.09999996424,89199.802,89214.89999997616,89216.468,89733.023,,52,not
screen,html.Screen,0_2_0_1_53,2021-11-12T10:34:17.598Z,,,,,,,,,,,,,,,,53,,,,,,,,,,,,,,473.176999988078,,response,,,99,,,,,,Space,keypress(Space),,,,,---- -- ----- -- ------ - ------- --- ----------<br>------------- ------ ------ ---- ---- ------- ----- -- ----<br>-------- ------- -- ---------- --- - --- ----- ----- ----<br>---- --- --- ----- --- ---- ---- ------- ----- ---- -------<br>--- --- -- ----- -- --- ---- -- --- ---- -- ------ ------<br>--- close -- ----,90206.69999998808,90206.19999998808,89716.358,89726.89999997616,89733.023,90216.337,,53,close
screen,html.Screen,0_2_0_1_54,2021-11-12T10:34:18.109Z,,,,,,,,,,,,,,,,53,,,,,,,,,,,,,,501.7629999642377,,response,,,99,,,,,,Space,keypress(Space),,,,,---- -- ----- -- ------ - ------- --- ----------<br>------------- ------ ------ ---- ---- ------- ----- -- ----<br>-------- ------- -- ---------- --- - --- ----- ----- ----<br>---- --- --- ----- --- ---- ---- ------- ----- ---- -------<br>--- --- -- ----- -- --- ---- -- --- ---- -- ------ ------<br>--- ----- at ----,90718.59999996424,90718.09999996424,90199.672,90206.89999997616,90216.337,90732.97,,54,at
screen,html.Screen,0_2_0_1_55,2021-11-12T10:34:18.702Z,,,,,,,,,,,,,,,,53,,,,,,,,,,,,,,577.129999964236,,response,,,99,,,,,,Space,keypress(Space),,,,,---- -- ----- -- ------ - ------- --- ----------<br>------------- ------ ------ ---- ---- ------- ----- -- ----<br>-------- ------- -- ---------- --- - --- ----- ----- ----<br>---- --- --- ----- --- ---- ---- ------- ----- ---- -------<br>--- --- -- ----- -- --- ---- -- --- ---- -- ------ ------<br>--- ----- -- all.,91310.79999995232,91310.09999996424,90716.305,90718.79999995232,90732.97,91316.274,,55,all.
Item 99,flow.Loop,0_2_0_1,2021-11-12T10:34:18.704Z,,,,,,,,,,,,,,,,,,,,,,,,,,,,,,32475.19899996424,,completion,,,,B,,,,,,,,,,silence,,91313.59999996424,91310.09999996424,58818.236,58822,58834.901,91316.274,,,
Question 1,html.Screen,0_2_0_2,2021-11-12T10:34:27.568Z,,,,,,,,,,,,,,,,,,,,,,,,,,,true,FALSE,,8860.125999976153,,response,,,99,B,,,,,FALSE,click #choice-2,,,,silence,,100177.5,100176.39999997616,91299.609,91313.79999995232,91316.274,100182.237,,,
Question 2,html.Screen,0_2_0_3,2021-11-12T10:34:38.330Z,,,,,,,,,,,,,,,,,,,,,,,,,,,true,TRUE,,10756.462999988085,,response,,,99,B,,,,,TRUE,click #choice-1,,,,silence,,110939.5,110938.69999998808,100165.573,100177.69999998808,100182.237,110948.386,,,
Item 99,flow.Sequence,0_2_0,2021-11-12T10:34:38.331Z,,,,,,,,,,,,,,,,,,,,,,,,,,,,,,62103.15899998808,,completion,,,,,,,,,,,,,,,,110939.89999997616,110938.69999998808,48818.917,48831.89999997616,48835.541,110948.386,,,
Holding screen,html.Screen,0_2_1_0,2021-11-12T10:34:48.326Z,,,,,,,,,,,,,,,,,,,,,,,,,,,,,,9999.384999999995,,timeout,,,,,,,,,,,,,,,,120932.5,120931.106,110931.721,110940.19999998808,110948.386,120947.771,,,
screen,html.Screen,0_2_1_1_0,2021-11-12T10:34:49.407Z,,,,,,,,,,,,,,,,54,,,,,,,,,,,,,,1064.7290000000066,,response,,,100,,,,,,Space,keypress(Space),,,,,At --- ---- --- ------ ----- ------- ---- -- --- ------- --<br>------- ---------- ------ -- ----- -- ----- -- ---- ------<br>--- ----- --- --- ------ -------- ----- --- ------ ----- --<br>----- ----- ---------- --- --- ------ ------ ---- -- ------<br>------- --- ------ ----- --- ---- ------- -- ---- --- --<br>------- ------,122013.19999998808,122012.5,120931.106,120932.89999997616,120947.771,122014.307,,0,At
screen,html.Screen,0_2_1_1_1,2021-11-12T10:34:49.934Z,,,,,,,,,,,,,,,,54,,,,,,,,,,,,,,525.7929999642365,,response,,,100,,,,,,Space,keypress(Space),,,,,-- the ---- --- ------ ----- ------- ---- -- --- ------- --<br>------- ---------- ------ -- ----- -- ----- -- ---- ------<br>--- ----- --- --- ------ -------- ----- --- ------ ----- --<br>----- ----- ---------- --- --- ------ ------ ---- -- ------<br>------- --- ------ ----- --- ---- ------- -- ---- --- --<br>------- ------,122540.69999998808,122540.09999996424,121997.642,122013.29999995232,122014.307,122547.727,,1,the
screen,html.Screen,0_2_1_1_2,2021-11-12T10:34:50.583Z,,,,,,,,,,,,,,,,54,,,,,,,,,,,,,,640.3729999642383,,response,,,100,,,,,,Space,keypress(Space),,,,,-- --- time --- ------ ----- ------- ---- -- --- ------- --<br>------- ---------- ------ -- ----- -- ----- -- ---- ------<br>--- ----- --- --- ------ -------- ----- --- ------ ----- --<br>----- ----- ---------- --- --- ------ ------ ---- -- ------<br>------- --- ------ ----- --- ---- ------- -- ---- --- --<br>------- ------,123188.79999995232,123188.09999996424,122531.061,122540.89999997616,122547.727,123197.648,,2,time
screen,html.Screen,0_2_1_1_3,2021-11-12T10:34:51.182Z,,,,,,,,,,,,,,,,54,,,,,,,,,,,,,,590.4519999642362,,response,,,100,,,,,,Space,keypress(Space),,,,,-- --- ---- the ------ ----- ------- ---- -- --- ------- --<br>------- ---------- ------ -- ----- -- ----- -- ---- ------<br>--- ----- --- --- ------ -------- ----- --- ------ ----- --<br>----- ----- ---------- --- --- ------ ------ ---- -- ------<br>------- --- ------ ----- --- ---- ------- -- ---- --- --<br>------- ------,123788.69999998808,123788.09999996424,123180.983,123189,123197.648,123797.425,,3,the
screen,html.Screen,0_2_1_1_4,2021-11-12T10:34:51.806Z,,,,,,,,,,,,,,,,54,,,,,,,,,,,,,,614.5749999999971,,response,,,100,,,,,,Space,keypress(Space),,,,,-- --- ---- --- French ----- ------- ---- -- --- ------- --<br>------- ---------- ------ -- ----- -- ----- -- ---- ------<br>--- ----- --- --- ------ -------- ----- --- ------ ----- --<br>----- ----- ---------- --- --- ------ ------ ---- -- ------<br>------- --- ------ ----- --- ---- ------- -- ---- --- --<br>------- ------,124412.59999996424,124412,123780.762,123788.79999995232,123797.425,124414.265,,4,French
screen,html.Screen,0_2_1_1_5,2021-11-12T10:34:52.431Z,,,,,,,,,,,,,,,,54,,,,,,,,,,,,,,621.7350000000006,,response,,,100,,,,,,Space,keypress(Space),,,,,-- --- ---- --- ------ crown ------- ---- -- --- ------- --<br>------- ---------- ------ -- ----- -- ----- -- ---- ------<br>--- ----- --- --- ------ -------- ----- --- ------ ----- --<br>----- ----- ---------- --- --- ------ ------ ---- -- ------<br>------- --- ------ ----- --- ---- ------- -- ---- --- --<br>------- ------,125036.69999998808,125036,124397.599,124412.79999995232,124414.265,125047.606,,5,crown
screen,html.Screen,0_2_1_1_6,2021-11-12T10:34:52.942Z,,,,,,,,,,,,,,,,54,,,,,,,,,,,,,,500.39400000000023,,response,,,100,,,,,,Space,keypress(Space),,,,,-- --- ---- --- ------ ----- secured ---- -- --- ------- --<br>------- ---------- ------ -- ----- -- ----- -- ---- ------<br>--- ----- --- --- ------ -------- ----- --- ------ ----- --<br>----- ----- ---------- --- --- ------ ------ ---- -- ------<br>------- --- ------ ----- --- ---- ------- -- ---- --- --<br>------- ------,125548.5,125548,125030.94,125036.89999997616,125047.606,125564.146,,6,secured
screen,html.Screen,0_2_1_1_7,2021-11-12T10:34:53.462Z,,,,,,,,,,,,,,,,54,,,,,,,,,,,,,,503.85400000000664,,response,,,100,,,,,,Space,keypress(Space),,,,,-- --- ---- --- ------ ----- ------- much -- --- ------- --<br>------- ---------- ------ -- ----- -- ----- -- ---- ------<br>--- ----- --- --- ------ -------- ----- --- ------ ----- --<br>----- ----- ---------- --- --- ------ ------ ---- -- ------<br>------- --- ------ ----- --- ---- ------- -- ---- --- --<br>------- ------,126068.59999996424,126068,125547.481,125548.69999998808,125564.146,126080.767,,7,much
screen,html.Screen,0_2_1_1_8,2021-11-12T10:34:53.974Z,,,,,,,,,,,,,,,,54,,,,,,,,,,,,,,499.0329999523092,,response,,,100,,,,,,Space,keypress(Space),,,,,-- --- ---- --- ------ ----- ------- ---- of --- ------- --<br>------- ---------- ------ -- ----- -- ----- -- ---- ------<br>--- ----- --- --- ------ -------- ----- --- ------ ----- --<br>----- ----- ---------- --- --- ------ ------ ---- -- ------<br>------- --- ------ ----- --- ---- ------- -- ---- --- --<br>------- ------,126580.39999997616,126579.79999995232,126064.102,126068.69999998808,126080.767,126597.477,,8,of
screen,html.Screen,0_2_1_1_9,2021-11-12T10:34:54.510Z,,,,,,,,,,,,,,,,54,,,,,,,,,,,,,,518.3229999523173,,response,,,100,,,,,,Space,keypress(Space),,,,,-- --- ---- --- ------ ----- ------- ---- -- its ------- --<br>------- ---------- ------ -- ----- -- ----- -- ---- ------<br>--- ----- --- --- ------ -------- ----- --- ------ ----- --<br>----- ----- ---------- --- --- ------ ------ ---- -- ------<br>------- --- ------ ----- --- ---- ------- -- ---- --- --<br>------- ------,127116.39999997616,127115.79999995232,126580.811,126580.59999996424,126597.477,127130.651,,9,its
screen,html.Screen,0_2_1_1_10,2021-11-12T10:34:55.070Z,,,,,,,,,,,,,,,,54,,,,,,,,,,,,,,545.1489999523183,,response,,,100,,,,,,Space,keypress(Space),,,,,-- --- ---- --- ------ ----- ------- ---- -- --- revenue --<br>------- ---------- ------ -- ----- -- ----- -- ---- ------<br>--- ----- --- --- ------ -------- ----- --- ------ ----- --<br>----- ----- ---------- --- --- ------ ------ ---- -- ------<br>------- --- ------ ----- --- ---- ------- -- ---- --- --<br>------- ------,127676.39999997616,127675.79999995232,127113.987,127116.59999996424,127130.651,127680.684,,10,revenue
screen,html.Screen,0_2_1_1_11,2021-11-12T10:34:55.598Z,,,,,,,,,,,,,,,,54,,,,,,,,,,,,,,523.1159999523225,,response,,,100,,,,,,Space,keypress(Space),,,,,-- --- ---- --- ------ ----- ------- ---- -- --- ------- by<br>------- ---------- ------ -- ----- -- ----- -- ---- ------<br>--- ----- --- --- ------ -------- ----- --- ------ ----- --<br>----- ----- ---------- --- --- ------ ------ ---- -- ------<br>------- --- ------ ----- --- ---- ------- -- ---- --- --<br>------- ------,128204.39999997616,128203.79999995232,127664.019,127676.59999996424,127680.684,128213.99,,11,by
screen,html.Screen,0_2_1_1_12,2021-11-12T10:34:56.166Z,,,,,,,,,,,,,,,,54,,,,,,,,,,,,,,557.7099999880738,,response,,,100,,,,,,Space,keypress(Space),,,,,-- --- ---- --- ------ ----- ------- ---- -- --- ------- --<br>issuing ---------- ------ -- ----- -- ----- -- ---- ------<br>--- ----- --- --- ------ -------- ----- --- ------ ----- --<br>----- ----- ---------- --- --- ------ ------ ---- -- ------<br>------- --- ------ ----- --- ---- ------- -- ---- --- --<br>------- ------,128772.29999995232,128771.69999998808,128197.325,128204.59999996424,128213.99,128780.605,,12,issuing
screen,html.Screen,0_2_1_1_13,2021-11-12T10:34:56.638Z,,,,,,,,,,,,,,,,54,,,,,,,,,,,,,,463.19499995232036,,response,,,100,,,,,,Space,keypress(Space),,,,,-- --- ---- --- ------ ----- ------- ---- -- --- ------- --<br>------- government ------ -- ----- -- ----- -- ---- ------<br>--- ----- --- --- ------ -------- ----- --- ------ ----- --<br>----- ----- ---------- --- --- ------ ------ ---- -- ------<br>------- --- ------ ----- --- ---- ------- -- ---- --- --<br>------- ------,129244.39999997616,129243.79999995232,128763.94,128772.5,128780.605,129247.315,,13,government
screen,html.Screen,0_2_1_1_14,2021-11-12T10:34:57.238Z,,,,,,,,,,,,,,,,54,,,,,,,,,,,,,,596.3849999880767,,response,,,100,,,,,,Space,keypress(Space),,,,,-- --- ---- --- ------ ----- ------- ---- -- --- ------- --<br>------- ---------- bonds. -- ----- -- ----- -- ---- ------<br>--- ----- --- --- ------ -------- ----- --- ------ ----- --<br>----- ----- ---------- --- --- ------ ------ ---- -- ------<br>------- --- ------ ----- --- ---- ------- -- ---- --- --<br>------- ------,129844.39999997616,129843.69999998808,129230.649,129244.5,129247.315,129847.224,,14,bonds.
screen,html.Screen,0_2_1_1_15,2021-11-12T10:34:57.806Z,,,,,,,,,,,,,,,,54,,,,,,,,,,,,,,564.4759999880771,,response,,,100,,,,,,Space,keypress(Space),,,,,-- --- ---- --- ------ ----- ------- ---- -- --- ------- --<br>------- ---------- ------ In ----- -- ----- -- ---- ------<br>--- ----- --- --- ------ -------- ----- --- ------ ----- --<br>----- ----- ---------- --- --- ------ ------ ---- -- ------<br>------- --- ------ ----- --- ---- ------- -- ---- --- --<br>------- ------,130412.29999995232,130411.69999998808,129830.559,129844.59999996424,129847.224,130413.83,,15,In
screen,html.Screen,0_2_1_1_16,2021-11-12T10:34:58.326Z,,,,,,,,,,,,,,,,54,,,,,,,,,,,,,,517.6699999999983,,response,,,100,,,,,,Space,keypress(Space),,,,,"-- --- ---- --- ------ ----- ------- ---- -- --- ------- --<br>------- ---------- ------ -- 1727, -- ----- -- ---- ------<br>--- ----- --- --- ------ -------- ----- --- ------ ----- --<br>----- ----- ---------- --- --- ------ ------ ---- -- ------<br>------- --- ------ ----- --- ---- ------- -- ---- --- --<br>------- ------",130932.19999998808,130931.5,130397.165,130412.59999996424,130413.83,130947.208,,16,"1727,"
screen,html.Screen,0_2_1_1_17,2021-11-12T10:35:00.382Z,,,,,,,,,,,,,,,,54,,,,,,,,,,,,,,2040.5919999523176,,response,,,100,,,,,,Space,keypress(Space),,,,,-- --- ---- --- ------ ----- ------- ---- -- --- ------- --<br>------- ---------- ------ -- ----- in ----- -- ---- ------<br>--- ----- --- --- ------ -------- ----- --- ------ ----- --<br>----- ----- ---------- --- --- ------ ------ ---- -- ------<br>------- --- ------ ----- --- ---- ------- -- ---- --- --<br>------- ------,132988.39999997616,132987.79999995232,130930.542,130932.39999997616,130947.208,132996.983,,17,in
screen,html.Screen,0_2_1_1_18,2021-11-12T10:35:01.222Z,,,,,,,,,,,,,,,,54,,,,,,,,,,,,,,830.5169999999925,,response,,,100,,,,,,Space,keypress(Space),,,,,-- --- ---- --- ------ ----- ------- ---- -- --- ------- --<br>------- ---------- ------ -- ----- -- order -- ---- ------<br>--- ----- --- --- ------ -------- ----- --- ------ ----- --<br>----- ----- ---------- --- --- ------ ------ ---- -- ------<br>------- --- ------ ----- --- ---- ------- -- ---- --- --<br>------- ------,133828.09999996424,133827.5,132980.318,132988.5,132996.983,133830.14,,18,order
screen,html.Screen,0_2_1_1_19,2021-11-12T10:35:02.374Z,,,,,,,,,,,,,,,,54,,,,,,,,,,,,,,1149.2599999761442,,response,,,100,,,,,,Space,keypress(Space),,,,,-- --- ---- --- ------ ----- ------- ---- -- --- ------- --<br>------- ---------- ------ -- ----- -- ----- to ---- ------<br>--- ----- --- --- ------ -------- ----- --- ------ ----- --<br>----- ----- ---------- --- --- ------ ------ ---- -- ------<br>------- --- ------ ----- --- ---- ------- -- ---- --- --<br>------- ------,134980,134979.39999997616,133813.476,133828.19999998808,133830.14,134996.898,,19,to
screen,html.Screen,0_2_1_1_20,2021-11-12T10:35:02.878Z,,,,,,,,,,,,,,,,54,,,,,,,,,,,,,,486.50199997617165,,response,,,100,,,,,,Space,keypress(Space),,,,,-- --- ---- --- ------ ----- ------- ---- -- --- ------- --<br>------- ---------- ------ -- ----- -- ----- -- save ------<br>--- ----- --- --- ------ -------- ----- --- ------ ----- --<br>----- ----- ---------- --- --- ------ ------ ---- -- ------<br>------- --- ------ ----- --- ---- ------- -- ---- --- --<br>------- ------,135484,135483.39999997616,134980.233,134980.19999998808,134996.898,135496.901,,20,save
screen,html.Screen,0_2_1_1_21,2021-11-12T10:35:03.430Z,,,,,,,,,,,,,,,,54,,,,,,,,,,,,,,538.4989999761456,,response,,,100,,,,,,Space,keypress(Space),,,,,"-- --- ---- --- ------ ----- ------- ---- -- --- ------- --<br>------- ---------- ------ -- ----- -- ----- -- ---- money,<br>--- ----- --- --- ------ -------- ----- --- ------ ----- --<br>----- ----- ---------- --- --- ------ ------ ---- -- ------<br>------- --- ------ ----- --- ---- ------- -- ---- --- --<br>------- ------",136035.89999997616,136035.39999997616,135480.236,135484.29999995232,135496.901,136046.821,,21,"money,"
screen,html.Screen,0_2_1_1_22,2021-11-12T10:35:03.974Z,,,,,,,,,,,,,,,,54,,,,,,,,,,,,,,532.3789999880828,,response,,,100,,,,,,Space,keypress(Space),,,,,-- --- ---- --- ------ ----- ------- ---- -- --- ------- --<br>------- ---------- ------ -- ----- -- ----- -- ---- ------<br>the ----- --- --- ------ -------- ----- --- ------ ----- --<br>----- ----- ---------- --- --- ------ ------ ---- -- ------<br>------- --- ------ ----- --- ---- ------- -- ---- --- --<br>------- ------,136579.89999997616,136579.19999998808,136030.156,136036.09999996424,136046.821,136596.768,,22,the
screen,html.Screen,0_2_1_1_23,2021-11-12T10:35:04.510Z,,,,,,,,,,,,,,,,54,,,,,,,,,,,,,,518.4319999880681,,response,,,100,,,,,,Space,keypress(Space),,,,,-- --- ---- --- ------ ----- ------- ---- -- --- ------- --<br>------- ---------- ------ -- ----- -- ----- -- ---- ------<br>--- state --- --- ------ -------- ----- --- ------ ----- --<br>----- ----- ---------- --- --- ------ ------ ---- -- ------<br>------- --- ------ ----- --- ---- ------- -- ---- --- --<br>------- ------,137115.79999995232,137115.19999998808,136580.103,136580,136596.768,137130.187,,23,state
screen,html.Screen,0_2_1_1_24,2021-11-12T10:35:04.958Z,,,,,,,,,,,,,,,,54,,,,,,,,,,,,,,433.0129999880737,,response,,,100,,,,,,Space,keypress(Space),,,,,-- --- ---- --- ------ ----- ------- ---- -- --- ------- --<br>------- ---------- ------ -- ----- -- ----- -- ---- ------<br>--- ----- cut --- ------ -------- ----- --- ------ ----- --<br>----- ----- ---------- --- --- ------ ------ ---- -- ------<br>------- --- ------ ----- --- ---- ------- -- ---- --- --<br>------- ------,137563.79999995232,137563.19999998808,137113.521,137116,137130.187,137580.094,,24,cut
screen,html.Screen,0_2_1_1_25,2021-11-12T10:35:05.558Z,,,,,,,,,,,,,,,,54,,,,,,,,,,,,,,583.0059999642253,,response,,,100,,,,,,Space,keypress(Space),,,,,-- --- ---- --- ------ ----- ------- ---- -- --- ------- --<br>------- ---------- ------ -- ----- -- ----- -- ---- ------<br>--- ----- --- the ------ -------- ----- --- ------ ----- --<br>----- ----- ---------- --- --- ------ ------ ---- -- ------<br>------- --- ------ ----- --- ---- ------- -- ---- --- --<br>------- ------,138163.79999995232,138163.09999996424,137563.429,137564,137580.094,138180.062,,25,the
screen,html.Screen,0_2_1_1_26,2021-11-12T10:35:06.117Z,,,,,,,,,,,,,,,,54,,,,,,,,,,,,,,543.0379999642319,,response,,,100,,,,,,Space,keypress(Space),,,,,-- --- ---- --- ------ ----- ------- ---- -- --- ------- --<br>------- ---------- ------ -- ----- -- ----- -- ---- ------<br>--- ----- --- --- bonds' -------- ----- --- ------ ----- --<br>----- ----- ---------- --- --- ------ ------ ---- -- ------<br>------- --- ------ ----- --- ---- ------- -- ---- --- --<br>------- ------,138723.69999998808,138723.09999996424,138163.397,138163.89999997616,138180.062,138730.021,,26,bonds'
screen,html.Screen,0_2_1_1_27,2021-11-12T10:35:06.638Z,,,,,,,,,,,,,,,,54,,,,,,,,,,,,,,513.0789999642293,,response,,,100,,,,,,Space,keypress(Space),,,,,-- --- ---- --- ------ ----- ------- ---- -- --- ------- --<br>------- ---------- ------ -- ----- -- ----- -- ---- ------<br>--- ----- --- --- ------ interest ----- --- ------ ----- --<br>----- ----- ---------- --- --- ------ ------ ---- -- ------<br>------- --- ------ ----- --- ---- ------- -- ---- --- --<br>------- ------,139243.69999998808,139243.09999996424,138713.356,138723.89999997616,138730.021,139246.657,,27,interest
screen,html.Screen,0_2_1_1_28,2021-11-12T10:35:07.237Z,,,,,,,,,,,,,,,,54,,,,,,,,,,,,,,596.4429999642307,,response,,,100,,,,,,Space,keypress(Space),,,,,-- --- ---- --- ------ ----- ------- ---- -- --- ------- --<br>------- ---------- ------ -- ----- -- ----- -- ---- ------<br>--- ----- --- --- ------ -------- rate. --- ------ ----- --<br>----- ----- ---------- --- --- ------ ------ ---- -- ------<br>------- --- ------ ----- --- ---- ------- -- ---- --- --<br>------- ------,139843.59999996424,139843.09999996424,139229.992,139243.89999997616,139246.657,139846.618,,28,rate.
screen,html.Screen,0_2_1_1_29,2021-11-12T10:35:07.838Z,,,,,,,,,,,,,,,,54,,,,,,,,,,,,,,596.4819999642496,,response,,,100,,,,,,Space,keypress(Space),,,,,-- --- ---- --- ------ ----- ------- ---- -- --- ------- --<br>------- ---------- ------ -- ----- -- ----- -- ---- ------<br>--- ----- --- --- ------ -------- ----- The ------ ----- --<br>----- ----- ---------- --- --- ------ ------ ---- -- ------<br>------- --- ------ ----- --- ---- ------- -- ---- --- --<br>------- ------,140443.69999998808,140443.09999996424,139829.953,139843.79999995232,139846.618,140446.504,,29,The
screen,html.Screen,0_2_1_1_30,2021-11-12T10:35:08.341Z,,,,,,,,,,,,,,,,54,,,,,,,,,,,,,,500.49600000001374,,response,,,100,,,,,,Space,keypress(Space),,,,,-- --- ---- --- ------ ----- ------- ---- -- --- ------- --<br>------- ---------- ------ -- ----- -- ----- -- ---- ------<br>--- ----- --- --- ------ -------- ----- --- market ----- --<br>----- ----- ---------- --- --- ------ ------ ---- -- ------<br>------- --- ------ ----- --- ---- ------- -- ---- --- --<br>------- ------,140947.59999996424,140947,140429.84,140443.89999997616,140446.504,140963.291,,30,market
screen,html.Screen,0_2_1_1_31,2021-11-12T10:35:08.781Z,,,,,,,,,,,,,,,,54,,,,,,,,,,,,,,423.70900000000256,,response,,,100,,,,,,Space,keypress(Space),,,,,-- --- ---- --- ------ ----- ------- ---- -- --- ------- --<br>------- ---------- ------ -- ----- -- ----- -- ---- ------<br>--- ----- --- --- ------ -------- ----- --- ------ value --<br>----- ----- ---------- --- --- ------ ------ ---- -- ------<br>------- --- ------ ----- --- ---- ------- -- ---- --- --<br>------- ------,141387.59999996424,141387,140946.625,140947.79999995232,140963.291,141396.464,,31,value
screen,html.Screen,0_2_1_1_32,2021-11-12T10:35:09.309Z,,,,,,,,,,,,,,,,54,,,,,,,,,,,,,,518.4359999761509,,response,,,100,,,,,,Space,keypress(Space),,,,,-- --- ---- --- ------ ----- ------- ---- -- --- ------- --<br>------- ---------- ------ -- ----- -- ----- -- ---- ------<br>--- ----- --- --- ------ -------- ----- --- ------ ----- of<br>----- ----- ---------- --- --- ------ ------ ---- -- ------<br>------- --- ------ ----- --- ---- ------- -- ---- --- --<br>------- ------,141915.59999996424,141914.89999997616,141379.8,141387.69999998808,141396.464,141929.873,,32,of
screen,html.Screen,0_2_1_1_33,2021-11-12T10:35:09.789Z,,,,,,,,,,,,,,,,54,,,,,,,,,,,,,,465.0269999761658,,response,,,100,,,,,,Space,keypress(Space),,,,,-- --- ---- --- ------ ----- ------- ---- -- --- ------- --<br>------- ---------- ------ -- ----- -- ----- -- ---- ------<br>--- ----- --- --- ------ -------- ----- --- ------ ----- --<br>these ----- ---------- --- --- ------ ------ ---- -- ------<br>------- --- ------ ----- --- ---- ------- -- ---- --- --<br>------- ------,142395.5,142394.89999997616,141913.207,141915.79999995232,141929.873,142396.46,,33,these
screen,html.Screen,0_2_1_1_34,2021-11-12T10:35:10.293Z,,,,,,,,,,,,,,,,54,,,,,,,,,,,,,,502.4399999761663,,response,,,100,,,,,,Space,keypress(Space),,,,,-- --- ---- --- ------ ----- ------- ---- -- --- ------- --<br>------- ---------- ------ -- ----- -- ----- -- ---- ------<br>--- ----- --- --- ------ -------- ----- --- ------ ----- --<br>----- bonds ---------- --- --- ------ ------ ---- -- ------<br>------- --- ------ ----- --- ---- ------- -- ---- --- --<br>------- ------,142899.5,142898.89999997616,142379.795,142395.69999998808,142396.46,142913.108,,34,bonds
screen,html.Screen,0_2_1_1_35,2021-11-12T10:35:10.742Z,,,,,,,,,,,,,,,,54,,,,,,,,,,,,,,434.0919999880716,,response,,,100,,,,,,Space,keypress(Space),,,,,"-- --- ---- --- ------ ----- ------- ---- -- --- ------- --<br>------- ---------- ------ -- ----- -- ----- -- ---- ------<br>--- ----- --- --- ------ -------- ----- --- ------ ----- --<br>----- ----- plummeted, --- --- ------ ------ ---- -- ------<br>------- --- ------ ----- --- ---- ------- -- ---- --- --<br>------- ------",143347.79999995232,143347.19999998808,142896.443,142899.69999998808,142913.108,143363.069,,35,"plummeted,"
screen,html.Screen,0_2_1_1_36,2021-11-12T10:35:11.277Z,,,,,,,,,,,,,,,,54,,,,,,,,,,,,,,519.8309999761696,,response,,,100,,,,,,Space,keypress(Space),,,,,-- --- ---- --- ------ ----- ------- ---- -- --- ------- --<br>------- ---------- ------ -- ----- -- ----- -- ---- ------<br>--- ----- --- --- ------ -------- ----- --- ------ ----- --<br>----- ----- ---------- and --- ------ ------ ---- -- ------<br>------- --- ------ ----- --- ---- ------- -- ---- --- --<br>------- ------,143883.5,143882.89999997616,143346.404,143347.89999997616,143363.069,143896.367,,36,and
screen,html.Screen,0_2_1_1_37,2021-11-12T10:35:11.741Z,,,,,,,,,,,,,,,,54,,,,,,,,,,,,,,450.4329999523179,,response,,,100,,,,,,Space,keypress(Space),,,,,-- --- ---- --- ------ ----- ------- ---- -- --- ------- --<br>------- ---------- ------ -- ----- -- ----- -- ---- ------<br>--- ----- --- --- ------ -------- ----- --- ------ ----- --<br>----- ----- ---------- --- the ------ ------ ---- -- ------<br>------- --- ------ ----- --- ---- ------- -- ---- --- --<br>------- ------,144347.39999997616,144346.79999995232,143879.702,143883.59999996424,143896.367,144363.007,,37,the
screen,html.Screen,0_2_1_1_38,2021-11-12T10:35:12.213Z,,,,,,,,,,,,,,,,54,,,,,,,,,,,,,,455.69299998806673,,response,,,100,,,,,,Space,keypress(Space),,,,,-- --- ---- --- ------ ----- ------- ---- -- --- ------- --<br>------- ---------- ------ -- ----- -- ----- -- ---- ------<br>--- ----- --- --- ------ -------- ----- --- ------ ----- --<br>----- ----- ---------- --- --- market ------ ---- -- ------<br>------- --- ------ ----- --- ---- ------- -- ---- --- --<br>------- ------,144819.39999997616,144818.69999998808,144346.342,144347.59999996424,144363.007,144829.62,,38,market
screen,html.Screen,0_2_1_1_39,2021-11-12T10:35:12.765Z,,,,,,,,,,,,,,,,54,,,,,,,,,,,,,,541.0799999880837,,response,,,100,,,,,,Space,keypress(Space),,,,,-- --- ---- --- ------ ----- ------- ---- -- --- ------- --<br>------- ---------- ------ -- ----- -- ----- -- ---- ------<br>--- ----- --- --- ------ -------- ----- --- ------ ----- --<br>----- ----- ---------- --- --- ------ became ---- -- ------<br>------- --- ------ ----- --- ---- ------- -- ---- --- --<br>------- ------,145371.39999997616,145370.69999998808,144812.955,144819.5,144829.62,145379.658,,39,became
screen,html.Screen,0_2_1_1_40,2021-11-12T10:35:13.525Z,,,,,,,,,,,,,,,,54,,,,,,,,,,,,,,751.0419999880833,,response,,,100,,,,,,Space,keypress(Space),,,,,-- --- ---- --- ------ ----- ------- ---- -- --- ------- --<br>------- ---------- ------ -- ----- -- ----- -- ---- ------<br>--- ----- --- --- ------ -------- ----- --- ------ ----- --<br>----- ----- ---------- --- --- ------ ------ wary -- ------<br>------- --- ------ ----- --- ---- ------- -- ---- --- --<br>------- ------,146131.29999995232,146130.69999998808,145362.992,145371.59999996424,145379.658,146146.294,,40,wary
screen,html.Screen,0_2_1_1_41,2021-11-12T10:35:14.061Z,,,,,,,,,,,,,,,,54,,,,,,,,,,,,,,520.3059999642428,,response,,,100,,,,,,Space,keypress(Space),,,,,-- --- ---- --- ------ ----- ------- ---- -- --- ------- --<br>------- ---------- ------ -- ----- -- ----- -- ---- ------<br>--- ----- --- --- ------ -------- ----- --- ------ ----- --<br>----- ----- ---------- --- --- ------ ------ ---- of ------<br>------- --- ------ ----- --- ---- ------- -- ---- --- --<br>------- ------,146667.29999995232,146666.59999996424,146129.628,146131.5,146146.294,146679.533,,41,of
screen,html.Screen,0_2_1_1_42,2021-11-12T10:35:14.557Z,,,,,,,,,,,,,,,,54,,,,,,,,,,,,,,483.0669999642414,,response,,,100,,,,,,Space,keypress(Space),,,,,-- --- ---- --- ------ ----- ------- ---- -- --- ------- --<br>------- ---------- ------ -- ----- -- ----- -- ---- ------<br>--- ----- --- --- ------ -------- ----- --- ------ ----- --<br>----- ----- ---------- --- --- ------ ------ ---- -- French<br>------- --- ------ ----- --- ---- ------- -- ---- --- --<br>------- ------,147163.19999998808,147162.59999996424,146662.868,146667.39999997616,146679.533,147179.398,,42,French
screen,html.Screen,0_2_1_1_43,2021-11-12T10:35:15.069Z,,,,,,,,,,,,,,,,54,,,,,,,,,,,,,,495.2019999642507,,response,,,100,,,,,,Space,keypress(Space),,,,,-- --- ---- --- ------ ----- ------- ---- -- --- ------- --<br>------- ---------- ------ -- ----- -- ----- -- ---- ------<br>--- ----- --- --- ------ -------- ----- --- ------ ----- --<br>----- ----- ---------- --- --- ------ ------ ---- -- ------<br>credit. --- ------ ----- --- ---- ------- -- ---- --- --<br>------- ------,147675.19999998808,147674.59999996424,147162.734,147163.29999995232,147179.398,147679.497,,43,credit.
screen,html.Screen,0_2_1_1_44,2021-11-12T10:35:15.549Z,,,,,,,,,,,,,,,,54,,,,,,,,,,,,,,475.002999999997,,response,,,100,,,,,,Space,keypress(Space),,,,,-- --- ---- --- ------ ----- ------- ---- -- --- ------- --<br>------- ---------- ------ -- ----- -- ----- -- ---- ------<br>--- ----- --- --- ------ -------- ----- --- ------ ----- --<br>----- ----- ---------- --- --- ------ ------ ---- -- ------<br>------- The ------ ----- --- ---- ------- -- ---- --- --<br>------- ------,148155.09999996424,148154.5,147662.831,147675.29999995232,147679.497,148162.614,,44,The
screen,html.Screen,0_2_1_1_45,2021-11-12T10:35:16.077Z,,,,,,,,,,,,,,,,54,,,,,,,,,,,,,,519.8859999999986,,response,,,100,,,,,,Space,keypress(Space),,,,,-- --- ---- --- ------ ----- ------- ---- -- --- ------- --<br>------- ---------- ------ -- ----- -- ----- -- ---- ------<br>--- ----- --- --- ------ -------- ----- --- ------ ----- --<br>----- ----- ---------- --- --- ------ ------ ---- -- ------<br>------- --- French ----- --- ---- ------- -- ---- --- --<br>------- ------,148683.09999996424,148682.5,148145.951,148155.29999995232,148162.614,148696.158,,45,French
screen,html.Screen,0_2_1_1_46,2021-11-12T10:35:16.525Z,,,,,,,,,,,,,,,,54,,,,,,,,,,,,,,434.24199997616233,,response,,,100,,,,,,Space,keypress(Space),,,,,-- --- ---- --- ------ ----- ------- ---- -- --- ------- --<br>------- ---------- ------ -- ----- -- ----- -- ---- ------<br>--- ----- --- --- ------ -------- ----- --- ------ ----- --<br>----- ----- ---------- --- --- ------ ------ ---- -- ------<br>------- --- ------ state --- ---- ------- -- ---- --- --<br>------- ------,149131,149130.39999997616,148679.491,148683.29999995232,148696.158,149145.899,,46,state
screen,html.Screen,0_2_1_1_47,2021-11-12T10:35:17.005Z,,,,,,,,,,,,,,,,54,,,,,,,,,,,,,,464.50099997615325,,response,,,100,,,,,,Space,keypress(Space),,,,,-- --- ---- --- ------ ----- ------- ---- -- --- ------- --<br>------- ---------- ------ -- ----- -- ----- -- ---- ------<br>--- ----- --- --- ------ -------- ----- --- ------ ----- --<br>----- ----- ---------- --- --- ------ ------ ---- -- ------<br>------- --- ------ ----- was ---- ------- -- ---- --- --<br>------- ------,149611,149610.39999997616,149129.236,149131.19999998808,149145.899,149612.729,,47,was
screen,html.Screen,0_2_1_1_48,2021-11-12T10:35:17.437Z,,,,,,,,,,,,,,,,54,,,,,,,,,,,,,,429.67099997616606,,response,,,100,,,,,,Space,keypress(Space),,,,,-- --- ---- --- ------ ----- ------- ---- -- --- ------- --<br>------- ---------- ------ -- ----- -- ----- -- ---- ------<br>--- ----- --- --- ------ -------- ----- --- ------ ----- --<br>----- ----- ---------- --- --- ------ ------ ---- -- ------<br>------- --- ------ ----- --- left ------- -- ---- --- --<br>------- ------,150043,150042.39999997616,149596.063,149611.19999998808,149612.729,150046.038,,48,left
screen,html.Screen,0_2_1_1_49,2021-11-12T10:35:17.869Z,,,,,,,,,,,,,,,,54,,,,,,,,,,,,,,428.2619999523158,,response,,,100,,,,,,Space,keypress(Space),,,,,-- --- ---- --- ------ ----- ------- ---- -- --- ------- --<br>------- ---------- ------ -- ----- -- ----- -- ---- ------<br>--- ----- --- --- ------ -------- ----- --- ------ ----- --<br>----- ----- ---------- --- --- ------ ------ ---- -- ------<br>------- --- ------ ----- --- ---- without -- ---- --- --<br>------- ------,150474.89999997616,150474.29999995232,150029.372,150043.19999998808,150046.038,150479.316,,49,without
screen,html.Screen,0_2_1_1_50,2021-11-12T10:35:18.237Z,,,,,,,,,,,,,,,,54,,,,,,,,,,,,,,363.0839999761665,,response,,,100,,,,,,Space,keypress(Space),,,,,-- --- ---- --- ------ ----- ------- ---- -- --- ------- --<br>------- ---------- ------ -- ----- -- ----- -- ---- ------<br>--- ----- --- --- ------ -------- ----- --- ------ ----- --<br>----- ----- ---------- --- --- ------ ------ ---- -- ------<br>------- --- ------ ----- --- ---- ------- an ---- --- --<br>------- ------,150843,150842.39999997616,150462.651,150475.19999998808,150479.316,150845.896,,50,an
screen,html.Screen,0_2_1_1_51,2021-11-12T10:35:18.725Z,,,,,,,,,,,,,,,,54,,,,,,,,,,,,,,484.5039999761502,,response,,,100,,,,,,Space,keypress(Space),,,,,-- --- ---- --- ------ ----- ------- ---- -- --- ------- --<br>------- ---------- ------ -- ----- -- ----- -- ---- ------<br>--- ----- --- --- ------ -------- ----- --- ------ ----- --<br>----- ----- ---------- --- --- ------ ------ ---- -- ------<br>------- --- ------ ----- --- ---- ------- -- easy --- --<br>------- ------,151331,151330.39999997616,150829.232,150843.09999996424,150845.896,151345.968,,51,easy
screen,html.Screen,0_2_1_1_52,2021-11-12T10:35:19.069Z,,,,,,,,,,,,,,,,54,,,,,,,,,,,,,,328.3319999523228,,response,,,100,,,,,,Space,keypress(Space),,,,,-- --- ---- --- ------ ----- ------- ---- -- --- ------- --<br>------- ---------- ------ -- ----- -- ----- -- ---- ------<br>--- ----- --- --- ------ -------- ----- --- ------ ----- --<br>----- ----- ---------- --- --- ------ ------ ---- -- ------<br>------- --- ------ ----- --- ---- ------- -- ---- way --<br>------- ------,151674.89999997616,151674.29999995232,151329.302,151331.09999996424,151345.968,151679.167,,52,way
screen,html.Screen,0_2_1_1_53,2021-11-12T10:35:19.509Z,,,,,,,,,,,,,,,,54,,,,,,,,,,,,,,435.03299998809234,,response,,,100,,,,,,Space,keypress(Space),,,,,-- --- ---- --- ------ ----- ------- ---- -- --- ------- --<br>------- ---------- ------ -- ----- -- ----- -- ---- ------<br>--- ----- --- --- ------ -------- ----- --- ------ ----- --<br>----- ----- ---------- --- --- ------ ------ ---- -- ------<br>------- --- ------ ----- --- ---- ------- -- ---- --- of<br>------- ------,152114.89999997616,152114.19999998808,151662.503,151675,151679.167,152129.249,,53,of
screen,html.Screen,0_2_1_1_54,2021-11-12T10:35:19.965Z,,,,,,,,,,,,,,,,54,,,,,,,,,,,,,,440.95099998806836,,response,,,100,,,,,,Space,keypress(Space),,,,,-- --- ---- --- ------ ----- ------- ---- -- --- ------- --<br>------- ---------- ------ -- ----- -- ----- -- ---- ------<br>--- ----- --- --- ------ -------- ----- --- ------ ----- --<br>----- ----- ---------- --- --- ------ ------ ---- -- ------<br>------- --- ------ ----- --- ---- ------- -- ---- --- --<br>raising ------,152570.79999995232,152570.19999998808,152112.583,152115,152129.249,152579.176,,54,raising
screen,html.Screen,0_2_1_1_55,2021-11-12T10:35:20.829Z,,,,,,,,,,,,,,,,54,,,,,,,,,,,,,,855.3239999999932,,response,,,100,,,,,,Space,keypress(Space),,,,,-- --- ---- --- ------ ----- ------- ---- -- --- ------- --<br>------- ---------- ------ -- ----- -- ----- -- ---- ------<br>--- ----- --- --- ------ -------- ----- --- ------ ----- --<br>----- ----- ---------- --- --- ------ ------ ---- -- ------<br>------- --- ------ ----- --- ---- ------- -- ---- --- --<br>------- money.,153435.19999998808,153434.5,152562.511,152571,152579.176,153445.773,,55,money.
Item 100,flow.Loop,0_2_1_1,2021-11-12T10:35:20.829Z,,,,,,,,,,,,,,,,,,,,,,,,,,,,,,32486.729000000007,,completion,,,,B,,,,,,,,,,silence,,153435.5,153434.5,120931.106,120932.69999998808,120947.771,153445.773,,,
Question 1,html.Screen,0_2_1_2,2021-11-12T10:35:23.769Z,,,,,,,,,,,,,,,,,,,,,,,,,,,true,TRUE,,2928.2270000000135,,response,,,100,B,,,,,TRUE,click #choice-1,,,,silence,,156374.89999997616,156374,153429.108,153435.59999996424,153445.773,156378.884,,,
Question 2,html.Screen,0_2_1_3,2021-11-12T10:35:26.249Z,,,,,,,,,,,,,,,,,,,,,,,,,,,true,FALSE,,2475.315999988088,,response,,,100,B,,,,,FALSE,click #choice-2,,,,silence,,158855,158854.19999998808,156362.219,156375.19999998808,156378.884,158862.117,,,
Item 100,flow.Sequence,0_2_1,2021-11-12T10:35:26.249Z,,,,,,,,,,,,,,,,,,,,,,,,,,,,,,47905.81399998808,,completion,,,,,,,,,,,,,,,,158855.19999998808,158854.19999998808,110931.721,110940.09999996424,110948.386,158862.117,,,
End of Practice,html.Page,0_2_2,2021-11-12T10:35:30.193Z,,,,,,,,,,,,,,,,,,,,,,,,,,,,,,3936.482999964239,,form submission,,,,,,,,,,,,,,,,162799,162798.59999996424,158845.452,158855.39999997616,158862.117,162811.904,,,
Practice,flow.Sequence,0_2,2021-11-12T10:35:30.193Z,,,,,,,,,,,,,,,,,,,,,,,,,,,,,,113963.05899996424,,completion,,,,,,,,,,,,,,,,162799.19999998808,162798.59999996424,48818.917,48831.799999952316,48835.541,162811.904,,,
Trap_instruction,html.Page,0_3_0,2021-11-12T10:35:31.807Z,,,,,,,,,,,,,,,,,,,,,,,,,,,,,,1600.5959999999905,,form submission,,,,,,,,,,,,,,,,164412.79999995232,164412.5,162795.238,162799.39999997616,162811.904,164428.389,,,
trap_trial,html.Screen,0_3_1,2021-11-12T10:35:35.565Z,,,,,,,,,,,,,,,,,,,,,,,,,,,true,1,,3741.7109999642416,,response,,,,,,,,,1,click #choice-1,,,,,,168171,168170.09999996424,164411.724,164413,164428.389,168178.05,,,
end of trap trial,html.Page,0_3_2,2021-11-12T10:35:37.655Z,,,,,,,,,,,,,,,,,,,,,,,,,,,,,,2083.1499999880907,,form submission,,,,,,,,,,,,,,,,170261.59999996424,170261.19999998808,168161.385,168171.19999998808,168178.05,170261.419,,,
Trap 1,flow.Sequence,0_3,2021-11-12T10:35:37.656Z,,,,,,,,,,,,,,,,,,,,,,,,,,,,,,7449.2959999880695,,completion,,,,,,,,,,,,,,,,170261.79999995232,170261.19999998808,162795.238,162799.29999995232,162811.904,170261.419,,,
Standby,html.Page,0_4_0,2021-11-12T10:35:45.639Z,,,,,,,,,,,,,,,,,,,,,,,,,,,,,,7999.162000000011,,timeout,,,,,,,,,,,,,,,,178244.79999995232,178243.916,170244.754,170262,170261.419,178260.581,,,
Holding screen,html.Screen,0_4_1_0_0,2021-11-12T10:35:52.642Z,,,,,,,,,,,,,,,,,,,,,,,,,,,,,,6999.864000000001,,timeout,,,,,,,,,,,,,,,,185244.69999998808,185243.78,178243.916,178245.09999996424,178260.581,185260.445,,,
screen,html.Screen,0_4_1_0_1_0,2021-11-12T10:35:53.839Z,,,,,,,,,,,,,,,,2,,,,,,,,,,,,,,1180.1549999642302,,response,,,1,B,,,,,Space,keypress(Space),,,,lyrical,Two ---- ------ --- ------- ---------- ------- ----------<br>--- --------- --- ----------- ------- ----- ------- ---<br>--------- ---- -- --- ---- -- --------- -- ---- -------<br>-- --------- ------ --- ----- ------ ---- --- --------- --<br>------ - ---- -- --- ----------- ------- ---- ----- -----<br>--- -------- - ------ ---- -- ----- ---- --- --- -----------<br>-- -------,186441.29999995232,186440.59999996424,185243.78,185245,185260.445,186443.698,,0,Two
screen,html.Screen,0_4_1_0_1_1,2021-11-12T10:35:54.358Z,,,,,,,,,,,,,,,,2,,,,,,,,,,,,,,516.4019999642333,,response,,,1,B,,,,,Space,keypress(Space),,,,lyrical,--- days ------ --- ------- ---------- ------- ----------<br>--- --------- --- ----------- ------- ----- ------- ---<br>--------- ---- -- --- ---- -- --------- -- ---- -------<br>-- --------- ------ --- ----- ------ ---- --- --------- --<br>------ - ---- -- --- ----------- ------- ---- ----- -----<br>--- -------- - ------ ---- -- ----- ---- --- --- -----------<br>-- -------,186960.79999995232,186960.09999996424,186427.033,186441.5,186443.698,186977.105,,1,days
screen,html.Screen,0_4_1_0_1_2,2021-11-12T10:35:54.822Z,,,,,,,,,,,,,,,,2,,,,,,,,,,,,,,446.99499996422674,,response,,,1,B,,,,,Space,keypress(Space),,,,lyrical,"--- ---- later, --- ------- ---------- ------- ----------<br>--- --------- --- ----------- ------- ----- ------- ---<br>--------- ---- -- --- ---- -- --------- -- ---- -------<br>-- --------- ------ --- ----- ------ ---- --- --------- --<br>------ - ---- -- --- ----------- ------- ---- ----- -----<br>--- -------- - ------ ---- -- ----- ---- --- --- -----------<br>-- -------",187424.69999998808,187424.09999996424,186960.439,186961.09999996424,186977.105,187427.031,,2,"later,"
screen,html.Screen,0_4_1_0_1_3,2021-11-12T10:35:55.366Z,,,,,,,,,,,,,,,,2,,,,,,,,,,,,,,541.0689999642491,,response,,,1,B,,,,,Space,keypress(Space),,,,lyrical,--- ---- ------ the ------- ---------- ------- ----------<br>--- --------- --- ----------- ------- ----- ------- ---<br>--------- ---- -- --- ---- -- --------- -- ---- -------<br>-- --------- ------ --- ----- ------ ---- --- --------- --<br>------ - ---- -- --- ----------- ------- ---- ----- -----<br>--- -------- - ------ ---- -- ----- ---- --- --- -----------<br>-- -------,187968.69999998808,187968.09999996424,187410.366,187424.89999997616,187427.031,187977.007,,3,the
screen,html.Screen,0_4_1_0_1_4,2021-11-12T10:35:55.862Z,,,,,,,,,,,,,,,,2,,,,,,,,,,,,,,487.0929999642249,,response,,,1,B,,,,,Space,keypress(Space),,,,lyrical,--- ---- ------ --- British ---------- ------- ----------<br>--- --------- --- ----------- ------- ----- ------- ---<br>--------- ---- -- --- ---- -- --------- -- ---- -------<br>-- --------- ------ --- ----- ------ ---- --- --------- --<br>------ - ---- -- --- ----------- ------- ---- ----- -----<br>--- -------- - ------ ---- -- ----- ---- --- --- -----------<br>-- -------,188464.69999998808,188464.09999996424,187960.342,187968.89999997616,187977.007,188476.899,,4,British
screen,html.Screen,0_4_1_0_1_5,2021-11-12T10:35:56.806Z,,,,,,,,,,,,,,,,2,,,,,,,,,,,,,,931.2009999642323,,response,,,1,B,,,,,Space,keypress(Space),,,,lyrical,--- ---- ------ --- ------- astronomer ------- ----------<br>--- --------- --- ----------- ------- ----- ------- ---<br>--------- ---- -- --- ---- -- --------- -- ---- -------<br>-- --------- ------ --- ----- ------ ---- --- --------- --<br>------ - ---- -- --- ----------- ------- ---- ----- -----<br>--- -------- - ------ ---- -- ----- ---- --- --- -----------<br>-- -------,189408.59999996424,189408.09999996424,188460.235,188464.79999995232,188476.899,189410.313,,5,astronomer
screen,html.Screen,0_4_1_0_1_6,2021-11-12T10:35:57.462Z,,,,,,,,,,,,,,,,2,,,,,,,,,,,,,,653.6870000000054,,response,,,1,B,,,,,Space,keypress(Space),,,,lyrical,--- ---- ------ --- ------- ---------- Richard ----------<br>--- --------- --- ----------- ------- ----- ------- ---<br>--------- ---- -- --- ---- -- --------- -- ---- -------<br>-- --------- ------ --- ----- ------ ---- --- --------- --<br>------ - ---- -- --- ----------- ------- ---- ----- -----<br>--- -------- - ------ ---- -- ----- ---- --- --- -----------<br>-- -------,190064.69999998808,190064,189393.647,189408.79999995232,189410.313,190076.765,,6,Richard
screen,html.Screen,0_4_1_0_1_7,2021-11-12T10:35:58.166Z,,,,,,,,,,,,,,,,2,,,,,,,,,,,,,,691.234999999986,,response,,,1,B,,,,,Space,keypress(Space),,,,lyrical,--- ---- ------ --- ------- ---------- ------- Carrington<br>--- --------- --- ----------- ------- ----- ------- ---<br>--------- ---- -- --- ---- -- --------- -- ---- -------<br>-- --------- ------ --- ----- ------ ---- --- --------- --<br>------ - ---- -- --- ----------- ------- ---- ----- -----<br>--- -------- - ------ ---- -- ----- ---- --- --- -----------<br>-- -------,190768.59999996424,190768,190060.101,190064.79999995232,190076.765,190776.824,,7,Carrington
screen,html.Screen,0_4_1_0_1_8,2021-11-12T10:35:59.022Z,,,,,,,,,,,,,,,,2,,,,,,,,,,,,,,847.1760000000068,,response,,,1,B,,,,,Space,keypress(Space),,,,lyrical,--- ---- ------ --- ------- ---------- ------- ----------<br>was --------- --- ----------- ------- ----- ------- ---<br>--------- ---- -- --- ---- -- --------- -- ---- -------<br>-- --------- ------ --- ----- ------ ---- --- --------- --<br>------ - ---- -- --- ----------- ------- ---- ----- -----<br>--- -------- - ------ ---- -- ----- ---- --- --- -----------<br>-- -------,191624.59999996424,191624,190760.159,190768.79999995232,190776.824,191626.744,,8,was
screen,html.Screen,0_4_1_0_1_9,2021-11-12T10:35:59.702Z,,,,,,,,,,,,,,,,2,,,,,,,,,,,,,,677.1559999761521,,response,,,1,B,,,,,Space,keypress(Space),,,,lyrical,--- ---- ------ --- ------- ---------- ------- ----------<br>--- observing --- ----------- ------- ----- ------- ---<br>--------- ---- -- --- ---- -- --------- -- ---- -------<br>-- --------- ------ --- ----- ------ ---- --- --------- --<br>------ - ---- -- --- ----------- ------- ---- ----- -----<br>--- -------- - ------ ---- -- ----- ---- --- --- -----------<br>-- -------,192304.5,192303.89999997616,191610.079,191624.69999998808,191626.744,192310.03,,9,observing
screen,html.Screen,0_4_1_0_1_10,2021-11-12T10:36:00.390Z,,,,,,,,,,,,,,,,2,,,,,,,,,,,,,,681.7699999523174,,response,,,1,B,,,,,Space,keypress(Space),,,,lyrical,--- ---- ------ --- ------- ---------- ------- ----------<br>--- --------- the ----------- ------- ----- ------- ---<br>--------- ---- -- --- ---- -- --------- -- ---- -------<br>-- --------- ------ --- ----- ------ ---- --- --------- --<br>------ - ---- -- --- ----------- ------- ---- ----- -----<br>--- -------- - ------ ---- -- ----- ---- --- --- -----------<br>-- -------,192992.39999997616,192991.79999995232,192293.365,192304.69999998808,192310.03,192993.415,,10,the
screen,html.Screen,0_4_1_0_1_11,2021-11-12T10:36:01.198Z,,,,,,,,,,,,,,,,2,,,,,,,,,,,,,,806.2849999880709,,response,,,1,B,,,,,Space,keypress(Space),,,,lyrical,--- ---- ------ --- ------- ---------- ------- ----------<br>--- --------- --- interesting ------- ----- ------- ---<br>--------- ---- -- --- ---- -- --------- -- ---- -------<br>-- --------- ------ --- ----- ------ ---- --- --------- --<br>------ - ---- -- --- ----------- ------- ---- ----- -----<br>--- -------- - ------ ---- -- ----- ---- --- --- -----------<br>-- -------,193800.39999997616,193799.69999998808,192976.749,192992.59999996424,192993.415,193809.957,,11,interesting
screen,html.Screen,0_4_1_0_1_12,2021-11-12T10:36:02.134Z,,,,,,,,,,,,,,,,2,,,,,,,,,,,,,,925.7429999880842,,response,,,1,B,,,,,Space,keypress(Space),,,,lyrical,--- ---- ------ --- ------- ---------- ------- ----------<br>--- --------- --- ----------- sunspot ----- ------- ---<br>--------- ---- -- --- ---- -- --------- -- ---- -------<br>-- --------- ------ --- ----- ------ ---- --- --------- --<br>------ - ---- -- --- ----------- ------- ---- ----- -----<br>--- -------- - ------ ---- -- ----- ---- --- --- -----------<br>-- -------,194736.29999995232,194735.69999998808,193793.292,193800.59999996424,193809.957,194743.245,,12,sunspot
screen,html.Screen,0_4_1_0_1_13,2021-11-12T10:36:03.318Z,,,,,,,,,,,,,,,,2,,,,,,,,,,,,,,1176.3549999642419,,response,,,1,B,,,,,Space,keypress(Space),,,,lyrical,--- ---- ------ --- ------- ---------- ------- ----------<br>--- --------- --- ----------- ------- group ------- ---<br>--------- ---- -- --- ---- -- --------- -- ---- -------<br>-- --------- ------ --- ----- ------ ---- --- --------- --<br>------ - ---- -- --- ----------- ------- ---- ----- -----<br>--- -------- - ------ ---- -- ----- ---- --- --- -----------<br>-- -------,195920.29999995232,195919.59999996424,194726.58,194736.5,194743.245,195926.449,,13,group
screen,html.Screen,0_4_1_0_1_14,2021-11-12T10:36:03.805Z,,,,,,,,,,,,,,,,2,,,,,,,,,,,,,,481.15099996424397,,response,,,1,B,,,,,Space,keypress(Space),,,,lyrical,--- ---- ------ --- ------- ---------- ------- ----------<br>--- --------- --- ----------- ------- ----- through ---<br>--------- ---- -- --- ---- -- --------- -- ---- -------<br>-- --------- ------ --- ----- ------ ---- --- --------- --<br>------ - ---- -- --- ----------- ------- ---- ----- -----<br>--- -------- - ------ ---- -- ----- ---- --- --- -----------<br>-- -------,196408.09999996424,196407.59999996424,195909.784,195920.39999997616,195926.449,196409.786,,14,through
screen,html.Screen,0_4_1_0_1_15,2021-11-12T10:36:04.414Z,,,,,,,,,,,,,,,,2,,,,,,,,,,,,,,606.0139999523235,,response,,,1,B,,,,,Space,keypress(Space),,,,lyrical,--- ---- ------ --- ------- ---------- ------- ----------<br>--- --------- --- ----------- ------- ----- ------- his<br>--------- ---- -- --- ---- -- --------- -- ---- -------<br>-- --------- ------ --- ----- ------ ---- --- --------- --<br>------ - ---- -- --- ----------- ------- ---- ----- -----<br>--- -------- - ------ ---- -- ----- ---- --- --- -----------<br>-- -------,197016.39999997616,197015.79999995232,196393.121,196408.29999995232,196409.786,197026.434,,15,his
screen,html.Screen,0_4_1_0_1_16,2021-11-12T10:36:05.317Z,,,,,,,,,,,,,,,,2,,,,,,,,,,,,,,893.0659999999916,,response,,,1,B,,,,,Space,keypress(Space),,,,lyrical,--- ---- ------ --- ------- ---------- ------- ----------<br>--- --------- --- ----------- ------- ----- ------- ---<br>telescope ---- -- --- ---- -- --------- -- ---- -------<br>-- --------- ------ --- ----- ------ ---- --- --------- --<br>------ - ---- -- --- ----------- ------- ---- ----- -----<br>--- -------- - ------ ---- -- ----- ---- --- --- -----------<br>-- -------,197920.19999998808,197919.5,197009.769,197016.59999996424,197026.434,197926.445,,16,telescope
screen,html.Screen,0_4_1_0_1_17,2021-11-12T10:36:05.797Z,,,,,,,,,,,,,,,,2,,,,,,,,,,,,,,473.054999999993,,response,,,1,B,,,,,Space,keypress(Space),,,,lyrical,--- ---- ------ --- ------- ---------- ------- ----------<br>--- --------- --- ----------- ------- ----- ------- ---<br>--------- when -- --- ---- -- --------- -- ---- -------<br>-- --------- ------ --- ----- ------ ---- --- --------- --<br>------ - ---- -- --- ----------- ------- ---- ----- -----<br>--- -------- - ------ ---- -- ----- ---- --- --- -----------<br>-- -------,198400.09999996424,198399.5,197909.779,197920.39999997616,197926.445,198409.686,,17,when
screen,html.Screen,0_4_1_0_1_18,2021-11-12T10:36:06.325Z,,,,,,,,,,,,,,,,2,,,,,,,,,,,,,,517.7139999761712,,response,,,1,B,,,,,Space,keypress(Space),,,,lyrical,--- ---- ------ --- ------- ---------- ------- ----------<br>--- --------- --- ----------- ------- ----- ------- ---<br>--------- ---- he --- ---- -- --------- -- ---- -------<br>-- --------- ------ --- ----- ------ ---- --- --------- --<br>------ - ---- -- --- ----------- ------- ---- ----- -----<br>--- -------- - ------ ---- -- ----- ---- --- --- -----------<br>-- -------,198928,198927.39999997616,198393.021,198400.29999995232,198409.686,198942.991,,18,he
screen,html.Screen,0_4_1_0_1_19,2021-11-12T10:36:06.901Z,,,,,,,,,,,,,,,,2,,,,,,,,,,,,,,560.4089999761491,,response,,,1,B,,,,,Space,keypress(Space),,,,lyrical,--- ---- ------ --- ------- ---------- ------- ----------<br>--- --------- --- ----------- ------- ----- ------- ---<br>--------- ---- -- saw ---- -- --------- -- ---- -------<br>-- --------- ------ --- ----- ------ ---- --- --------- --<br>------ - ---- -- --- ----------- ------- ---- ----- -----<br>--- -------- - ------ ---- -- ----- ---- --- --- -----------<br>-- -------,199504,199503.39999997616,198926.326,198928.19999998808,198942.991,199509.633,,19,saw
screen,html.Screen,0_4_1_0_1_20,2021-11-12T10:36:07.565Z,,,,,,,,,,,,,,,,2,,,,,,,,,,,,,,657.6669999523147,,response,,,1,B,,,,,Space,keypress(Space),,,,lyrical,--- ---- ------ --- ------- ---------- ------- ----------<br>--- --------- --- ----------- ------- ----- ------- ---<br>--------- ---- -- --- what -- --------- -- ---- -------<br>-- --------- ------ --- ----- ------ ---- --- --------- --<br>------ - ---- -- --- ----------- ------- ---- ----- -----<br>--- -------- - ------ ---- -- ----- ---- --- --- -----------<br>-- -------,200168,200167.29999995232,199492.968,199504.09999996424,199509.633,200176.243,,20,what
screen,html.Screen,0_4_1_0_1_21,2021-11-12T10:36:08.109Z,,,,,,,,,,,,,,,,2,,,,,,,,,,,,,,535.0569999523286,,response,,,1,B,,,,,Space,keypress(Space),,,,lyrical,--- ---- ------ --- ------- ---------- ------- ----------<br>--- --------- --- ----------- ------- ----- ------- ---<br>--------- ---- -- --- ---- he --------- -- ---- -------<br>-- --------- ------ --- ----- ------ ---- --- --------- --<br>------ - ---- -- --- ----------- ------- ---- ----- -----<br>--- -------- - ------ ---- -- ----- ---- --- --- -----------<br>-- -------,200711.89999997616,200711.29999995232,200159.578,200168.09999996424,200176.243,200726.209,,21,he
screen,html.Screen,0_4_1_0_1_22,2021-11-12T10:36:08.637Z,,,,,,,,,,,,,,,,2,,,,,,,,,,,,,,513.0909999523137,,response,,,1,B,,,,,Space,keypress(Space),,,,lyrical,--- ---- ------ --- ------- ---------- ------- ----------<br>--- --------- --- ----------- ------- ----- ------- ---<br>--------- ---- -- --- ---- -- described -- ---- -------<br>-- --------- ------ --- ----- ------ ---- --- --------- --<br>------ - ---- -- --- ----------- ------- ---- ----- -----<br>--- -------- - ------ ---- -- ----- ---- --- --- -----------<br>-- -------,201239.89999997616,201239.29999995232,200709.544,200712.09999996424,200726.209,201242.863,,22,described
screen,html.Screen,0_4_1_0_1_23,2021-11-12T10:36:09.093Z,,,,,,,,,,,,,,,,2,,,,,,,,,,,,,,452.33699998806696,,response,,,1,B,,,,,Space,keypress(Space),,,,lyrical,--- ---- ------ --- ------- ---------- ------- ----------<br>--- --------- --- ----------- ------- ----- ------- ---<br>--------- ---- -- --- ---- -- --------- as ---- -------<br>-- --------- ------ --- ----- ------ ---- --- --------- --<br>------ - ---- -- --- ----------- ------- ---- ----- -----<br>--- -------- - ------ ---- -- ----- ---- --- --- -----------<br>-- -------,201695.79999995232,201695.19999998808,201226.198,201240.09999996424,201242.863,201709.427,,23,as
screen,html.Screen,0_4_1_0_1_24,2021-11-12T10:36:09.653Z,,,,,,,,,,,,,,,,2,,,,,,,,,,,,,,545.8729999523202,,response,,,1,B,,,,,Space,keypress(Space),,,,lyrical,"--- ---- ------ --- ------- ---------- ------- ----------<br>--- --------- --- ----------- ------- ----- ------- ---<br>--------- ---- -- --- ---- -- --------- -- ""two -------<br>-- --------- ------ --- ----- ------ ---- --- --------- --<br>------ - ---- -- --- ----------- ------- ---- ----- -----<br>--- -------- - ------ ---- -- ----- ---- --- --- -----------<br>-- -------",202255.89999997616,202255.29999995232,201692.763,201696.09999996424,201709.427,202259.498,,24,"""two"
screen,html.Screen,0_4_1_0_1_25,2021-11-12T10:36:10.229Z,,,,,,,,,,,,,,,,2,,,,,,,,,,,,,,571.7019999880868,,response,,,1,B,,,,,Space,keypress(Space),,,,lyrical,--- ---- ------ --- ------- ---------- ------- ----------<br>--- --------- --- ----------- ------- ----- ------- ---<br>--------- ---- -- --- ---- -- --------- -- ---- patches<br>-- --------- ------ --- ----- ------ ---- --- --------- --<br>------ - ---- -- --- ----------- ------- ---- ----- -----<br>--- -------- - ------ ---- -- ----- ---- --- --- -----------<br>-- -------,202831.79999995232,202831.19999998808,202242.832,202256,202259.498,202842.756,,25,patches
screen,html.Screen,0_4_1_0_1_26,2021-11-12T10:36:10.869Z,,,,,,,,,,,,,,,,2,,,,,,,,,,,,,,628.4439999880851,,response,,,1,B,,,,,Space,keypress(Space),,,,lyrical,--- ---- ------ --- ------- ---------- ------- ----------<br>--- --------- --- ----------- ------- ----- ------- ---<br>--------- ---- -- --- ---- -- --------- -- ---- -------<br>of --------- ------ --- ----- ------ ---- --- --------- --<br>------ - ---- -- --- ----------- ------- ---- ----- -----<br>--- -------- - ------ ---- -- ----- ---- --- --- -----------<br>-- -------,203471.79999995232,203471.19999998808,202826.091,202832,202842.756,203476.052,,26,of
screen,html.Screen,0_4_1_0_1_27,2021-11-12T10:36:11.429Z,,,,,,,,,,,,,,,,2,,,,,,,,,,,,,,555.0479999642412,,response,,,1,B,,,,,Space,keypress(Space),,,,lyrical,--- ---- ------ --- ------- ---------- ------- ----------<br>--- --------- --- ----------- ------- ----- ------- ---<br>--------- ---- -- --- ---- -- --------- -- ---- -------<br>-- intensely ------ --- ----- ------ ---- --- --------- --<br>------ - ---- -- --- ----------- ------- ---- ----- -----<br>--- -------- - ------ ---- -- ----- ---- --- --- -----------<br>-- -------,204031.69999998808,204031.09999996424,203459.387,203471.89999997616,203476.052,204042.646,,27,intensely
screen,html.Screen,0_4_1_0_1_28,2021-11-12T10:36:12.013Z,,,,,,,,,,,,,,,,2,,,,,,,,,,,,,,572.3539999999921,,response,,,1,B,,,,,Space,keypress(Space),,,,lyrical,--- ---- ------ --- ------- ---------- ------- ----------<br>--- --------- --- ----------- ------- ----- ------- ---<br>--------- ---- -- --- ---- -- --------- -- ---- -------<br>-- --------- bright --- ----- ------ ---- --- --------- --<br>------ - ---- -- --- ----------- ------- ---- ----- -----<br>--- -------- - ------ ---- -- ----- ---- --- --- -----------<br>-- -------,204615.69999998808,204615,204025.981,204031.89999997616,204042.646,204625.97,,28,bright
screen,html.Screen,0_4_1_0_1_29,2021-11-12T10:36:12.541Z,,,,,,,,,,,,,,,,2,,,,,,,,,,,,,,517.129999964236,,response,,,1,B,,,,,Space,keypress(Space),,,,lyrical,--- ---- ------ --- ------- ---------- ------- ----------<br>--- --------- --- ----------- ------- ----- ------- ---<br>--------- ---- -- --- ---- -- --------- -- ---- -------<br>-- --------- ------ and ----- ------ ---- --- --------- --<br>------ - ---- -- --- ----------- ------- ---- ----- -----<br>--- -------- - ------ ---- -- ----- ---- --- --- -----------<br>-- -------,205143.69999998808,205143.09999996424,204609.305,204615.79999995232,204625.97,205159.26,,29,and
screen,html.Screen,0_4_1_0_1_30,2021-11-12T10:36:13.141Z,,,,,,,,,,,,,,,,2,,,,,,,,,,,,,,583.7399999999907,,response,,,1,B,,,,,Space,keypress(Space),,,,lyrical,--- ---- ------ --- ------- ---------- ------- ----------<br>--- --------- --- ----------- ------- ----- ------- ---<br>--------- ---- -- --- ---- -- --------- -- ---- -------<br>-- --------- ------ --- white ------ ---- --- --------- --<br>------ - ---- -- --- ----------- ------- ---- ----- -----<br>--- -------- - ------ ---- -- ----- ---- --- --- -----------<br>-- -------,205743.69999998808,205743,205142.595,205143.79999995232,205159.26,205759.212,,30,white
screen,html.Screen,0_4_1_0_1_31,2021-11-12T10:36:13.669Z,,,,,,,,,,,,,,,,2,,,,,,,,,,,,,,511.78800000000047,,response,,,1,B,,,,,Space,keypress(Space),,,,lyrical,"--- ---- ------ --- ------- ---------- ------- ----------<br>--- --------- --- ----------- ------- ----- ------- ---<br>--------- ---- -- --- ---- -- --------- -- ---- -------<br>-- --------- ------ --- ----- light"" ---- --- --------- --<br>------ - ---- -- --- ----------- ------- ---- ----- -----<br>--- -------- - ------ ---- -- ----- ---- --- --- -----------<br>-- -------",206271.59999996424,206271,205742.547,205743.79999995232,205759.212,206275.934,,31,"light"""
screen,html.Screen,0_4_1_0_1_32,2021-11-12T10:36:14.245Z,,,,,,,,,,,,,,,,2,,,,,,,,,,,,,,571.0659999999916,,response,,,1,B,,,,,Space,keypress(Space),,,,lyrical,--- ---- ------ --- ------- ---------- ------- ----------<br>--- --------- --- ----------- ------- ----- ------- ---<br>--------- ---- -- --- ---- -- --------- -- ---- -------<br>-- --------- ------ --- ----- ------ over --- --------- --<br>------ - ---- -- --- ----------- ------- ---- ----- -----<br>--- -------- - ------ ---- -- ----- ---- --- --- -----------<br>-- -------,206847.59999996424,206847,206259.268,206271.69999998808,206275.934,206859.168,,32,over
screen,html.Screen,0_4_1_0_1_33,2021-11-12T10:36:15.581Z,,,,,,,,,,,,,,,,2,,,,,,,,,,,,,,1324.031999988074,,response,,,1,B,,,,,Space,keypress(Space),,,,lyrical,--- ---- ------ --- ------- ---------- ------- ----------<br>--- --------- --- ----------- ------- ----- ------- ---<br>--------- ---- -- --- ---- -- --------- -- ---- -------<br>-- --------- ------ --- ----- ------ ---- the --------- --<br>------ - ---- -- --- ----------- ------- ---- ----- -----<br>--- -------- - ------ ---- -- ----- ---- --- --- -----------<br>-- -------,208183.79999995232,208183.19999998808,206842.503,206847.69999998808,206859.168,208192.267,,33,the
screen,html.Screen,0_4_1_0_1_34,2021-11-12T10:36:17.261Z,,,,,,,,,,,,,,,,2,,,,,,,,,,,,,,1670.5329999523237,,response,,,1,B,,,,,Space,keypress(Space),,,,lyrical,--- ---- ------ --- ------- ---------- ------- ----------<br>--- --------- --- ----------- ------- ----- ------- ---<br>--------- ---- -- --- ---- -- --------- -- ---- -------<br>-- --------- ------ --- ----- ------ ---- --- sunspots. --<br>------ - ---- -- --- ----------- ------- ---- ----- -----<br>--- -------- - ------ ---- -- ----- ---- --- --- -----------<br>-- -------,209863.5,209862.79999995232,208175.603,208183.89999997616,208192.267,209875.604,,34,sunspots.
screen,html.Screen,0_4_1_0_1_35,2021-11-12T10:36:17.861Z,,,,,,,,,,,,,,,,2,,,,,,,,,,,,,,587.095999988087,,response,,,1,B,,,,,Space,keypress(Space),,,,lyrical,--- ---- ------ --- ------- ---------- ------- ----------<br>--- --------- --- ----------- ------- ----- ------- ---<br>--------- ---- -- --- ---- -- --------- -- ---- -------<br>-- --------- ------ --- ----- ------ ---- --- --------- He<br>------ - ---- -- --- ----------- ------- ---- ----- -----<br>--- -------- - ------ ---- -- ----- ---- --- --- -----------<br>-- -------,210463.39999997616,210462.69999998808,209858.939,209863.59999996424,209875.604,210475.577,,35,He
screen,html.Screen,0_4_1_0_1_36,2021-11-12T10:36:18.621Z,,,,,,,,,,,,,,,,2,,,,,,,,,,,,,,747.1229999880888,,response,,,1,B,,,,,Space,keypress(Space),,,,lyrical,--- ---- ------ --- ------- ---------- ------- ----------<br>--- --------- --- ----------- ------- ----- ------- ---<br>--------- ---- -- --- ---- -- --------- -- ---- -------<br>-- --------- ------ --- ----- ------ ---- --- --------- --<br>jotted - ---- -- --- ----------- ------- ---- ----- -----<br>--- -------- - ------ ---- -- ----- ---- --- --- -----------<br>-- -------,211223.29999995232,211222.69999998808,210458.912,210463.59999996424,210475.577,211225.578,,36,jotted
screen,html.Screen,0_4_1_0_1_37,2021-11-12T10:36:19.141Z,,,,,,,,,,,,,,,,2,,,,,,,,,,,,,,517.1219999880705,,response,,,1,B,,,,,Space,keypress(Space),,,,lyrical,--- ---- ------ --- ------- ---------- ------- ----------<br>--- --------- --- ----------- ------- ----- ------- ---<br>--------- ---- -- --- ---- -- --------- -- ---- -------<br>-- --------- ------ --- ----- ------ ---- --- --------- --<br>------ a ---- -- --- ----------- ------- ---- ----- -----<br>--- -------- - ------ ---- -- ----- ---- --- --- -----------<br>-- -------,211743.29999995232,211742.69999998808,211208.913,211223.5,211225.578,211758.87,,37,a
screen,html.Screen,0_4_1_0_1_38,2021-11-12T10:36:19.692Z,,,,,,,,,,,,,,,,2,,,,,,,,,,,,,,535.7299999642419,,response,,,1,B,,,,,Space,keypress(Space),,,,lyrical,--- ---- ------ --- ------- ---------- ------- ----------<br>--- --------- --- ----------- ------- ----- ------- ---<br>--------- ---- -- --- ---- -- --------- -- ---- -------<br>-- --------- ------ --- ----- ------ ---- --- --------- --<br>------ - note -- --- ----------- ------- ---- ----- -----<br>--- -------- - ------ ---- -- ----- ---- --- --- -----------<br>-- -------,212295.19999998808,212294.59999996424,211742.205,211743.39999997616,211758.87,212308.808,,38,note
screen,html.Screen,0_4_1_0_1_39,2021-11-12T10:36:20.269Z,,,,,,,,,,,,,,,,2,,,,,,,,,,,,,,561.7919999642472,,response,,,1,B,,,,,Space,keypress(Space),,,,lyrical,--- ---- ------ --- ------- ---------- ------- ----------<br>--- --------- --- ----------- ------- ----- ------- ---<br>--------- ---- -- --- ---- -- --------- -- ---- -------<br>-- --------- ------ --- ----- ------ ---- --- --------- --<br>------ - ---- in --- ----------- ------- ---- ----- -----<br>--- -------- - ------ ---- -- ----- ---- --- --- -----------<br>-- -------,212871.29999995232,212870.59999996424,212292.143,212295.29999995232,212308.808,212875.533,,39,in
screen,html.Screen,0_4_1_0_1_40,2021-11-12T10:36:20.836Z,,,,,,,,,,,,,,,,2,,,,,,,,,,,,,,563.0669999642414,,response,,,1,B,,,,,Space,keypress(Space),,,,lyrical,--- ---- ------ --- ------- ---------- ------- ----------<br>--- --------- --- ----------- ------- ----- ------- ---<br>--------- ---- -- --- ---- -- --------- -- ---- -------<br>-- --------- ------ --- ----- ------ ---- --- --------- --<br>------ - ---- -- his ----------- ------- ---- ----- -----<br>--- -------- - ------ ---- -- ----- ---- --- --- -----------<br>-- -------,213439.09999996424,213438.59999996424,212858.867,212871.39999997616,212875.533,213442.101,,40,his
screen,html.Screen,0_4_1_0_1_41,2021-11-12T10:36:21.324Z,,,,,,,,,,,,,,,,2,,,,,,,,,,,,,,484.4989999642421,,response,,,1,B,,,,,Space,keypress(Space),,,,lyrical,--- ---- ------ --- ------- ---------- ------- ----------<br>--- --------- --- ----------- ------- ----- ------- ---<br>--------- ---- -- --- ---- -- --------- -- ---- -------<br>-- --------- ------ --- ----- ------ ---- --- --------- --<br>------ - ---- -- --- painstaking ------- ---- ----- -----<br>--- -------- - ------ ---- -- ----- ---- --- --- -----------<br>-- -------,213927.09999996424,213926.59999996424,213425.436,213439.29999995232,213442.101,213942.073,,41,painstaking
screen,html.Screen,0_4_1_0_1_42,2021-11-12T10:36:23.044Z,,,,,,,,,,,,,,,,2,,,,,,,,,,,,,,1704.426999999996,,response,,,1,B,,,,,Space,keypress(Space),,,,lyrical,--- ---- ------ --- ------- ---------- ------- ----------<br>--- --------- --- ----------- ------- ----- ------- ---<br>--------- ---- -- --- ---- -- --------- -- ---- -------<br>-- --------- ------ --- ----- ------ ---- --- --------- --<br>------ - ---- -- --- ----------- record. ---- ----- -----<br>--- -------- - ------ ---- -- ----- ---- --- --- -----------<br>-- -------,215647.09999996424,215646.5,213925.408,213927.29999995232,213942.073,215658.587,,42,record.
screen,html.Screen,0_4_1_0_1_43,2021-11-12T10:36:23.516Z,,,,,,,,,,,,,,,,2,,,,,,,,,,,,,,459.8129999761586,,response,,,1,B,,,,,Space,keypress(Space),,,,lyrical,--- ---- ------ --- ------- ---------- ------- ----------<br>--- --------- --- ----------- ------- ----- ------- ---<br>--------- ---- -- --- ---- -- --------- -- ---- -------<br>-- --------- ------ --- ----- ------ ---- --- --------- --<br>------ - ---- -- --- ----------- ------- That ----- -----<br>--- -------- - ------ ---- -- ----- ---- --- --- -----------<br>-- -------,216119.09999996424,216118.39999997616,215641.922,215647.29999995232,215658.587,216125.254,,43,That
screen,html.Screen,0_4_1_0_1_44,2021-11-12T10:36:24.596Z,,,,,,,,,,,,,,,,2,,,,,,,,,,,,,,1073.1459999761719,,response,,,1,B,,,,,Space,keypress(Space),,,,lyrical,--- ---- ------ --- ------- ---------- ------- ----------<br>--- --------- --- ----------- ------- ----- ------- ---<br>--------- ---- -- --- ---- -- --------- -- ---- -------<br>-- --------- ------ --- ----- ------ ---- --- --------- --<br>------ - ---- -- --- ----------- ------- ---- night -----<br>--- -------- - ------ ---- -- ----- ---- --- --- -----------<br>-- -------,217199,217198.39999997616,216108.589,216119.19999998808,216125.254,217208.52,,44,night
screen,html.Screen,0_4_1_0_1_45,2021-11-12T10:36:25.132Z,,,,,,,,,,,,,,,,2,,,,,,,,,,,,,,525.7799999523268,,response,,,1,B,,,,,Space,keypress(Space),,,,lyrical,--- ---- ------ --- ------- ---------- ------- ----------<br>--- --------- --- ----------- ------- ----- ------- ---<br>--------- ---- -- --- ---- -- --------- -- ---- -------<br>-- --------- ------ --- ----- ------ ---- --- --------- --<br>------ - ---- -- --- ----------- ------- ---- ----- there<br>--- -------- - ------ ---- -- ----- ---- --- --- -----------<br>-- -------,217734.89999997616,217734.29999995232,217191.855,217199.19999998808,217208.52,217741.743,,45,there
screen,html.Screen,0_4_1_0_1_46,2021-11-12T10:36:25.628Z,,,,,,,,,,,,,,,,2,,,,,,,,,,,,,,488.75700000001234,,response,,,1,B,,,,,Space,keypress(Space),,,,lyrical,--- ---- ------ --- ------- ---------- ------- ----------<br>--- --------- --- ----------- ------- ----- ------- ---<br>--------- ---- -- --- ---- -- --------- -- ---- -------<br>-- --------- ------ --- ----- ------ ---- --- --------- --<br>------ - ---- -- --- ----------- ------- ---- ----- -----<br>was -------- - ------ ---- -- ----- ---- --- --- -----------<br>-- -------,218231,218230.5,217725.079,217735.09999996424,217741.743,218241.818,,46,was
screen,html.Screen,0_4_1_0_1_47,2021-11-12T10:36:26.044Z,,,,,,,,,,,,,,,,2,,,,,,,,,,,,,,404.38199998807977,,response,,,1,B,,,,,Space,keypress(Space),,,,lyrical,--- ---- ------ --- ------- ---------- ------- ----------<br>--- --------- --- ----------- ------- ----- ------- ---<br>--------- ---- -- --- ---- -- --------- -- ---- -------<br>-- --------- ------ --- ----- ------ ---- --- --------- --<br>------ - ---- -- --- ----------- ------- ---- ----- -----<br>--- scarcely - ------ ---- -- ----- ---- --- --- -----------<br>-- -------,218646.79999995232,218646.19999998808,218225.153,218231.19999998808,218241.818,218658.392,,47,scarcely
screen,html.Screen,0_4_1_0_1_48,2021-11-12T10:36:26.868Z,,,,,,,,,,,,,,,,2,,,,,,,,,,,,,,811.8079999880865,,response,,,1,B,,,,,Space,keypress(Space),,,,lyrical,--- ---- ------ --- ------- ---------- ------- ----------<br>--- --------- --- ----------- ------- ----- ------- ---<br>--------- ---- -- --- ---- -- --------- -- ---- -------<br>-- --------- ------ --- ----- ------ ---- --- --------- --<br>------ - ---- -- --- ----------- ------- ---- ----- -----<br>--- -------- a ------ ---- -- ----- ---- --- --- -----------<br>-- -------,219470.89999997616,219470.19999998808,218641.728,218647,218658.392,219475.035,,48,a
screen,html.Screen,0_4_1_0_1_49,2021-11-12T10:36:27.368Z,,,,,,,,,,,,,,,,2,,,,,,,,,,,,,,494.6649999880756,,response,,,1,B,,,,,Space,keypress(Space),,,,lyrical,--- ---- ------ --- ------- ---------- ------- ----------<br>--- --------- --- ----------- ------- ----- ------- ---<br>--------- ---- -- --- ---- -- --------- -- ---- -------<br>-- --------- ------ --- ----- ------ ---- --- --------- --<br>------ - ---- -- --- ----------- ------- ---- ----- -----<br>--- -------- - square ---- -- ----- ---- --- --- -----------<br>-- -------,219970.29999995232,219969.69999998808,219458.37,219471.19999998808,219475.035,219975.101,,49,square
