sender,sender_type,sender_id,timestamp,meta,,Blues,Classical,Country,Dance,Electronic,Folk,Gospel,Hip-Hop,Jazz,Latin,Musical/Film,New-age,Pop,Provo_ID,R&B,Rap,Reggae,Religious,Rock,Soul,Swing,Traditional,age,artist_name,correct,correctResponse,distraction,duration,education,ended_on,familiarity,gender,item,list,music_frequency,offensiveness,pleasantness,preference,response,response_action,snippet_file,song_name,song_rating,sound,text,time_commit,time_end,time_render,time_run,time_show,time_switch,url,word,word_ID
Instructions,html.Page,0_0,2021-11-19T14:30:56.894Z,"{""labjs_version"":""20.2.3"",""labjs_build"":{""flavor"":""production"",""commit"":""7ea907d66ca8aeef8054924ca5d82ffbe11e34e5""},""location"":""https://run.pavlovia.org/mvasilev/lab_music_a/"",""userAgent"":""Mozilla/5.0 (Windows NT 6.1; Win64; x64) AppleWebKit/537.36 (KHTML, like Gecko) Chrome/96.0.4664.45 Safari/537.36"",""platform"":""Win32"",""language"":""en-US"",""locale"":""en-US"",""timeZone"":""Europe/London"",""timezoneOffset"":0,""screen_width"":1920,""screen_height"":1080,""scroll_width"":1920,""scroll_height"":959,""window_innerWidth"":1920,""window_innerHeight"":1007,""devicePixelRatio"":1}",,,,,,,,,,,,,,,,,,,,,,,,,,,,,16295.600999904633,,form submission,,,,,,,,,,,,,,,,24704.400000095367,24703.599999904633,8374.669,8390.799999952316,8407.999,24707.249,{},,
Headphones,html.Page,0_1,2021-11-19T14:31:02.268Z,,,,,,,,,,,,,,,,,,,,,,,,,,,,,,5370.951000047684,,form submission,,,,,,,,,,,,,,,,30078.5,30078.200000047684,24690.56,24704.900000095367,24707.249,30090.148,,,
Holding screen,html.Screen,0_2_0_0,2021-11-19T14:31:12.266Z,,,,,,,,,,,,,,,,,,,,,,,,,,,,,,9999.385000000002,,timeout,,,,,,,,,,,,,,,,40076.200000047684,40072.868,30073.483,30078.900000095367,30090.148,40089.533,,,
screen,html.Screen,0_2_0_1_0,2021-11-19T14:31:13.266Z,,,,,,,,,,,,,,,,53,,,,,,,,,,,,,,985.3670000953643,,response,,,99,,,,,,Space,keypress(Space),,,,,When -- ----- -- ------ - ------- --- ----------<br>------------- ------ ------ ---- ---- ------- ----- -- ----<br>-------- ------- -- ---------- --- - --- ----- ----- ----<br>---- --- --- ----- --- ---- ---- ------- ----- ---- -------<br>--- --- -- ----- -- --- ---- -- --- ---- -- ------ ------<br>--- ----- -- ----,41076,41074.90000009537,40072.868,40076.5,40089.533,41089.473,,0,When
screen,html.Screen,0_2_0_1_1,2021-11-19T14:31:14.001Z,,,,,,,,,,,,,,,,53,,,,,,,,,,,,,,721.1269999046344,,response,,,99,,,,,,Space,keypress(Space),,,,,---- it ----- -- ------ - ------- --- ----------<br>------------- ------ ------ ---- ---- ------- ----- -- ----<br>-------- ------- -- ---------- --- - --- ----- ----- ----<br>---- --- --- ----- --- ---- ---- ------- ----- ---- -------<br>--- --- -- ----- -- --- ---- -- --- ---- -- ------ ------<br>--- ----- -- ----,41811.200000047684,41810.59999990463,41072.808,41076.299999952316,41089.473,41822.768,,1,it
screen,html.Screen,0_2_0_1_2,2021-11-19T14:31:14.681Z,,,,,,,,,,,,,,,,53,,,,,,,,,,,,,,667.8319999046362,,response,,,99,,,,,,Space,keypress(Space),,,,,---- -- comes -- ------ - ------- --- ----------<br>------------- ------ ------ ---- ---- ------- ----- -- ----<br>-------- ------- -- ---------- --- - --- ----- ----- ----<br>---- --- --- ----- --- ---- ---- ------- ----- ---- -------<br>--- --- -- ----- -- --- ---- -- --- ---- -- ------ ------<br>--- ----- -- ----,42491.200000047684,42490.59999990463,41806.103,41811.40000009537,41822.768,42506.085,,2,comes
screen,html.Screen,0_2_0_1_3,2021-11-19T14:31:15.153Z,,,,,,,,,,,,,,,,53,,,,,,,,,,,,,,456.4150000000009,,response,,,99,,,,,,Space,keypress(Space),,,,,---- -- ----- to ------ - ------- --- ----------<br>------------- ------ ------ ---- ---- ------- ----- -- ----<br>-------- ------- -- ---------- --- - --- ----- ----- ----<br>---- --- --- ----- --- ---- ---- ------- ----- ---- -------<br>--- --- -- ----- -- --- ---- -- --- ---- -- ------ ------<br>--- ----- -- ----,42963.299999952316,42962.5,42489.42,42491.40000009537,42506.085,42972.714,,3,to
screen,html.Screen,0_2_0_1_4,2021-11-19T14:31:15.681Z,,,,,,,,,,,,,,,,53,,,,,,,,,,,,,,517.7860000000001,,response,,,99,,,,,,Space,keypress(Space),,,,,---- -- ----- -- having - ------- --- ----------<br>------------- ------ ------ ---- ---- ------- ----- -- ----<br>-------- ------- -- ---------- --- - --- ----- ----- ----<br>---- --- --- ----- --- ---- ---- ------- ----- ---- -------<br>--- --- -- ----- -- --- ---- -- --- ---- -- ------ ------<br>--- ----- -- ----,43491.299999952316,43490.5,42956.049,42963.59999990463,42972.714,43505.991,,4,having
screen,html.Screen,0_2_0_1_5,2021-11-19T14:31:16.121Z,,,,,,,,,,,,,,,,53,,,,,,,,,,,,,,424.5089999999982,,response,,,99,,,,,,Space,keypress(Space),,,,,---- -- ----- -- ------ a ------- --- ----------<br>------------- ------ ------ ---- ---- ------- ----- -- ----<br>-------- ------- -- ---------- --- - --- ----- ----- ----<br>---- --- --- ----- --- ---- ---- ------- ----- ---- -------<br>--- --- -- ----- -- --- ---- -- --- ---- -- ------ ------<br>--- ----- -- ----,43931.299999952316,43930.5,43489.326,43491.5,43505.991,43939.303,,5,a
screen,html.Screen,0_2_0_1_6,2021-11-19T14:31:16.761Z,,,,,,,,,,,,,,,,53,,,,,,,,,,,,,,631.0970000953675,,response,,,99,,,,,,Space,keypress(Space),,,,,---- -- ----- -- ------ - lasting --- ----------<br>------------- ------ ------ ---- ---- ------- ----- -- ----<br>-------- ------- -- ---------- --- - --- ----- ----- ----<br>---- --- --- ----- --- ---- ---- ------- ----- ---- -------<br>--- --- -- ----- -- --- ---- -- --- ---- -- ------ ------<br>--- ----- -- ----,44571.09999990463,44570.40000009537,43922.638,43931.5,43939.303,44572.605,,6,lasting
screen,html.Screen,0_2_0_1_7,2021-11-19T14:31:17.289Z,,,,,,,,,,,,,,,,53,,,,,,,,,,,,,,525.7950000953642,,response,,,99,,,,,,Space,keypress(Space),,,,,---- -- ----- -- ------ - ------- and ----------<br>------------- ------ ------ ---- ---- ------- ----- -- ----<br>-------- ------- -- ---------- --- - --- ----- ----- ----<br>---- --- --- ----- --- ---- ---- ------- ----- ---- -------<br>--- --- -- ----- -- --- ---- -- --- ---- -- ------ ------<br>--- ----- -- ----,45099.09999990463,45098.40000009537,44555.94,44571.40000009537,44572.605,45105.986,,7,and
screen,html.Screen,0_2_0_1_8,2021-11-19T14:31:17.913Z,,,,,,,,,,,,,,,,53,,,,,,,,,,,,,,616.4140000953703,,response,,,99,,,,,,Space,keypress(Space),,,,,---- -- ----- -- ------ - ------- --- fulfilling<br>------------- ------ ------ ---- ---- ------- ----- -- ----<br>-------- ------- -- ---------- --- - --- ----- ----- ----<br>---- --- --- ----- --- ---- ---- ------- ----- ---- -------<br>--- --- -- ----- -- --- ---- -- --- ---- -- ------ ------<br>--- ----- -- ----,45723.200000047684,45722.40000009537,45089.32,45099.299999952316,45105.986,45739.103,,8,fulfilling
screen,html.Screen,0_2_0_1_9,2021-11-19T14:31:18.569Z,,,,,,,,,,,,,,,,53,,,,,,,,,,,,,,639.1969999523135,,response,,,99,,,,,,Space,keypress(Space),,,,,"---- -- ----- -- ------ - ------- --- ----------<br>relationship, ------ ------ ---- ---- ------- ----- -- ----<br>-------- ------- -- ---------- --- - --- ----- ----- ----<br>---- --- --- ----- --- ---- ---- ------- ----- ---- -------<br>--- --- -- ----- -- --- ---- -- --- ---- -- ------ ------<br>--- ----- -- ----",46379,46378.299999952316,45722.439,45723.40000009537,45739.103,46389.255,,9,"relationship,"
screen,html.Screen,0_2_0_1_10,2021-11-19T14:31:19.105Z,,,,,,,,,,,,,,,,53,,,,,,,,,,,,,,524.9450000476863,,response,,,99,,,,,,Space,keypress(Space),,,,,---- -- ----- -- ------ - ------- --- ----------<br>------------- common ------ ---- ---- ------- ----- -- ----<br>-------- ------- -- ---------- --- - --- ----- ----- ----<br>---- --- --- ----- --- ---- ---- ------- ----- ---- -------<br>--- --- -- ----- -- --- ---- -- --- ---- -- ------ ------<br>--- ----- -- ----,46914.90000009537,46914.200000047684,46372.589,46379.200000047684,46389.255,46922.477,,10,common
screen,html.Screen,0_2_0_1_11,2021-11-19T14:31:19.697Z,,,,,,,,,,,,,,,,53,,,,,,,,,,,,,,583.7230000476848,,response,,,99,,,,,,Space,keypress(Space),,,,,---- -- ----- -- ------ - ------- --- ----------<br>------------- ------ wisdom ---- ---- ------- ----- -- ----<br>-------- ------- -- ---------- --- - --- ----- ----- ----<br>---- --- --- ----- --- ---- ---- ------- ----- ---- -------<br>--- --- -- ----- -- --- ---- -- --- ---- -- ------ ------<br>--- ----- -- ----,47507,47506.200000047684,46905.812,46915.200000047684,46922.477,47522.437,,11,wisdom
screen,html.Screen,0_2_0_1_12,2021-11-19T14:31:20.241Z,,,,,,,,,,,,,,,,53,,,,,,,,,,,,,,527.7630000476856,,response,,,99,,,,,,Space,keypress(Space),,,,,---- -- ----- -- ------ - ------- --- ----------<br>------------- ------ ------ says ---- ------- ----- -- ----<br>-------- ------- -- ---------- --- - --- ----- ----- ----<br>---- --- --- ----- --- ---- ---- ------- ----- ---- -------<br>--- --- -- ----- -- --- ---- -- --- ---- -- ------ ------<br>--- ----- -- ----,48050.799999952316,48050.200000047684,47505.772,47507.09999990463,47522.437,48055.755,,12,says
screen,html.Screen,0_2_0_1_13,2021-11-19T14:31:20.721Z,,,,,,,,,,,,,,,,53,,,,,,,,,,,,,,474.3449999046352,,response,,,99,,,,,,Space,keypress(Space),,,,,---- -- ----- -- ------ - ------- --- ----------<br>------------- ------ ------ ---- that ------- ----- -- ----<br>-------- ------- -- ---------- --- - --- ----- ----- ----<br>---- --- --- ----- --- ---- ---- ------- ----- ---- -------<br>--- --- -- ----- -- --- ---- -- --- ---- -- ------ ------<br>--- ----- -- ----,48530.700000047684,48530.09999990463,48039.09,48051,48055.755,48539.051,,13,that
screen,html.Screen,0_2_0_1_14,2021-11-19T14:31:21.281Z,,,,,,,,,,,,,,,,53,,,,,,,,,,,,,,551.0489999046331,,response,,,99,,,,,,Space,keypress(Space),,,,,---- -- ----- -- ------ - ------- --- ----------<br>------------- ------ ------ ---- ---- feeling ----- -- ----<br>-------- ------- -- ---------- --- - --- ----- ----- ----<br>---- --- --- ----- --- ---- ---- ------- ----- ---- -------<br>--- --- -- ----- -- --- ---- -- --- ---- -- ------ ------<br>--- ----- -- ----,49090.799999952316,49090.09999990463,48522.386,48530.90000009537,48539.051,49105.607,,14,feeling
screen,html.Screen,0_2_0_1_15,2021-11-19T14:31:21.825Z,,,,,,,,,,,,,,,,53,,,,,,,,,,,,,,528.492999904629,,response,,,99,,,,,,Space,keypress(Space),,,,,---- -- ----- -- ------ - ------- --- ----------<br>------------- ------ ------ ---- ---- ------- close -- ----<br>-------- ------- -- ---------- --- - --- ----- ----- ----<br>---- --- --- ----- --- ---- ---- ------- ----- ---- -------<br>--- --- -- ----- -- --- ---- -- --- ---- -- ------ ------<br>--- ----- -- ----,49634.700000047684,49634.09999990463,49088.943,49091,49105.607,49639.026,,15,close
screen,html.Screen,0_2_0_1_16,2021-11-19T14:31:22.216Z,,,,,,,,,,,,,,,,53,,,,,,,,,,,,,,386.974000000002,,response,,,99,,,,,,Space,keypress(Space),,,,,---- -- ----- -- ------ - ------- --- ----------<br>------------- ------ ------ ---- ---- ------- ----- to ----<br>-------- ------- -- ---------- --- - --- ----- ----- ----<br>---- --- --- ----- --- ---- ---- ------- ----- ---- -------<br>--- --- -- ----- -- --- ---- -- --- ---- -- ------ ------<br>--- ----- -- ----,50026.59999990463,50026,49622.36,49634.90000009537,49639.026,50038.891,,16,to
screen,html.Screen,0_2_0_1_17,2021-11-19T14:31:22.656Z,,,,,,,,,,,,,,,,53,,,,,,,,,,,,,,427.10899999999674,,response,,,99,,,,,,Space,keypress(Space),,,,,---- -- ----- -- ------ - ------- --- ----------<br>------------- ------ ------ ---- ---- ------- ----- -- your<br>-------- ------- -- ---------- --- - --- ----- ----- ----<br>---- --- --- ----- --- ---- ---- ------- ----- ---- -------<br>--- --- -- ----- -- --- ---- -- --- ---- -- ------ ------<br>--- ----- -- ----,50466.700000047684,50466,50022.227,50026.799999952316,50038.891,50472.311,,17,your
screen,html.Screen,0_2_0_1_18,2021-11-19T14:31:23.184Z,,,,,,,,,,,,,,,,53,,,,,,,,,,,,,,521.6889999999985,,response,,,99,,,,,,Space,keypress(Space),,,,,---- -- ----- -- ------ - ------- --- ----------<br>------------- ------ ------ ---- ---- ------- ----- -- ----<br>romantic ------- -- ---------- --- - --- ----- ----- ----<br>---- --- --- ----- --- ---- ---- ------- ----- ---- -------<br>--- --- -- ----- -- --- ---- -- --- ---- -- ------ ------<br>--- ----- -- ----,50994.59999990463,50994,50455.645,50466.799999952316,50472.311,51005.559,,18,romantic
screen,html.Screen,0_2_0_1_19,2021-11-19T14:31:23.633Z,,,,,,,,,,,,,,,,53,,,,,,,,,,,,,,436.6410000476826,,response,,,99,,,,,,Space,keypress(Space),,,,,---- -- ----- -- ------ - ------- --- ----------<br>------------- ------ ------ ---- ---- ------- ----- -- ----<br>-------- partner -- ---------- --- - --- ----- ----- ----<br>---- --- --- ----- --- ---- ---- ------- ----- ---- -------<br>--- --- -- ----- -- --- ---- -- --- ---- -- ------ ------<br>--- ----- -- ----,51442.90000009537,51442.200000047684,50988.894,50994.799999952316,51005.559,51455.53,,19,partner
screen,html.Screen,0_2_0_1_20,2021-11-19T14:31:24.024Z,,,,,,,,,,,,,,,,53,,,,,,,,,,,,,,378.47000000000116,,response,,,99,,,,,,Space,keypress(Space),,,,,---- -- ----- -- ------ - ------- --- ----------<br>------------- ------ ------ ---- ---- ------- ----- -- ----<br>-------- ------- is ---------- --- - --- ----- ----- ----<br>---- --- --- ----- --- ---- ---- ------- ----- ---- -------<br>--- --- -- ----- -- --- ---- -- --- ---- -- ------ ------<br>--- ----- -- ----,51834.5,51834,51438.865,51443.09999990463,51455.53,51838.82,,20,is
screen,html.Screen,0_2_0_1_21,2021-11-19T14:31:24.984Z,,,,,,,,,,,,,,,,53,,,,,,,,,,,,,,955.1800000000003,,response,,,99,,,,,,Space,keypress(Space),,,,,---- -- ----- -- ------ - ------- --- ----------<br>------------- ------ ------ ---- ---- ------- ----- -- ----<br>-------- ------- -- paramount. --- - --- ----- ----- ----<br>---- --- --- ----- --- ---- ---- ------- ----- ---- -------<br>--- --- -- ----- -- --- ---- -- --- ---- -- ------ ------<br>--- ----- -- ----,52794.59999990463,52794,51822.155,51834.700000047684,51838.82,52805.413,,21,paramount.
screen,html.Screen,0_2_0_1_22,2021-11-19T14:31:25.416Z,,,,,,,,,,,,,,,,53,,,,,,,,,,,,,,420.3869999523158,,response,,,99,,,,,,Space,keypress(Space),,,,,---- -- ----- -- ------ - ------- --- ----------<br>------------- ------ ------ ---- ---- ------- ----- -- ----<br>-------- ------- -- ---------- But - --- ----- ----- ----<br>---- --- --- ----- --- ---- ---- ------- ----- ---- -------<br>--- --- -- ----- -- --- ---- -- --- ---- -- ------ ------<br>--- ----- -- ----,53226.40000009537,53225.799999952316,52788.748,52794.90000009537,52805.413,53238.705,,22,But
screen,html.Screen,0_2_0_1_23,2021-11-19T14:31:25.792Z,,,,,,,,,,,,,,,,53,,,,,,,,,,,,,,363.09499995231454,,response,,,99,,,,,,Space,keypress(Space),,,,,---- -- ----- -- ------ - ------- --- ----------<br>------------- ------ ------ ---- ---- ------- ----- -- ----<br>-------- ------- -- ---------- --- a --- ----- ----- ----<br>---- --- --- ----- --- ---- ---- ------- ----- ---- -------<br>--- --- -- ----- -- --- ---- -- --- ---- -- ------ ------<br>--- ----- -- ----,53602.40000009537,53601.799999952316,53222.04,53226.59999990463,53238.705,53605.394,,23,a
screen,html.Screen,0_2_0_1_24,2021-11-19T14:31:26.224Z,,,,,,,,,,,,,,,,53,,,,,,,,,,,,,,428.40599995231605,,response,,,99,,,,,,Space,keypress(Space),,,,,---- -- ----- -- ------ - ------- --- ----------<br>------------- ------ ------ ---- ---- ------- ----- -- ----<br>-------- ------- -- ---------- --- - new ----- ----- ----<br>---- --- --- ----- --- ---- ---- ------- ----- ---- -------<br>--- --- -- ----- -- --- ---- -- --- ---- -- ------ ------<br>--- ----- -- ----,54034.40000009537,54033.799999952316,53588.729,53602.59999990463,53605.394,54038.691,,24,new
screen,html.Screen,0_2_0_1_25,2021-11-19T14:31:26.832Z,,,,,,,,,,,,,,,,53,,,,,,,,,,,,,,603.1089999523174,,response,,,99,,,,,,Space,keypress(Space),,,,,---- -- ----- -- ------ - ------- --- ----------<br>------------- ------ ------ ---- ---- ------- ----- -- ----<br>-------- ------- -- ---------- --- - --- study ----- ----<br>---- --- --- ----- --- ---- ---- ------- ----- ---- -------<br>--- --- -- ----- -- --- ---- -- --- ---- -- ------ ------<br>--- ----- -- ----,54642.5,54641.799999952316,54022.026,54034.59999990463,54038.691,54655.407,,25,study
screen,html.Screen,0_2_0_1_26,2021-11-19T14:31:27.336Z,,,,,,,,,,,,,,,,53,,,,,,,,,,,,,,490.39299995231704,,response,,,99,,,,,,Space,keypress(Space),,,,,---- -- ----- -- ------ - ------- --- ----------<br>------------- ------ ------ ---- ---- ------- ----- -- ----<br>-------- ------- -- ---------- --- - --- ----- finds ----<br>---- --- --- ----- --- ---- ---- ------- ----- ---- -------<br>--- --- -- ----- -- --- ---- -- --- ---- -- ------ ------<br>--- ----- -- ----,55146.40000009537,55145.799999952316,54638.741,54642.59999990463,54655.407,55155.202,,26,finds
screen,html.Screen,0_2_0_1_27,2021-11-19T14:31:27.760Z,,,,,,,,,,,,,,,,53,,,,,,,,,,,,,,414.4980000476862,,response,,,99,,,,,,Space,keypress(Space),,,,,---- -- ----- -- ------ - ------- --- ----------<br>------------- ------ ------ ---- ---- ------- ----- -- ----<br>-------- ------- -- ---------- --- - --- ----- ----- that<br>---- --- --- ----- --- ---- ---- ------- ----- ---- -------<br>--- --- -- ----- -- --- ---- -- --- ---- -- ------ ------<br>--- ----- -- ----,55570.299999952316,55569.700000047684,55138.538,55146.59999990463,55155.202,55571.972,,27,that
screen,html.Screen,0_2_0_1_28,2021-11-19T14:31:28.248Z,,,,,,,,,,,,,,,,53,,,,,,,,,,,,,,485.627999904631,,response,,,99,,,,,,Space,keypress(Space),,,,,---- -- ----- -- ------ - ------- --- ----------<br>------------- ------ ------ ---- ---- ------- ----- -- ----<br>-------- ------- -- ---------- --- - --- ----- ----- ----<br>it's --- --- ----- --- ---- ---- ------- ----- ---- -------<br>--- --- -- ----- -- --- ---- -- --- ---- -- ------ ------<br>--- ----- -- ----,56058.299999952316,56057.59999990463,55555.306,55570.40000009537,55571.972,56071.845,,28,it's
screen,html.Screen,0_2_0_1_29,2021-11-19T14:31:28.656Z,,,,,,,,,,,,,,,,53,,,,,,,,,,,,,,393.85500004768255,,response,,,99,,,,,,Space,keypress(Space),,,,,---- -- ----- -- ------ - ------- --- ----------<br>------------- ------ ------ ---- ---- ------- ----- -- ----<br>-------- ------- -- ---------- --- - --- ----- ----- ----<br>---- not --- ----- --- ---- ---- ------- ----- ---- -------<br>--- --- -- ----- -- --- ---- -- --- ---- -- ------ ------<br>--- ----- -- ----,56466.299999952316,56465.700000047684,56055.181,56058.5,56071.845,56471.941,,29,not
screen,html.Screen,0_2_0_1_30,2021-11-19T14:31:29.056Z,,,,,,,,,,,,,,,,53,,,,,,,,,,,,,,393.7590000476848,,response,,,99,,,,,,Space,keypress(Space),,,,,---- -- ----- -- ------ - ------- --- ----------<br>------------- ------ ------ ---- ---- ------- ----- -- ----<br>-------- ------- -- ---------- --- - --- ----- ----- ----<br>---- --- how ----- --- ---- ---- ------- ----- ---- -------<br>--- --- -- ----- -- --- ---- -- --- ---- -- ------ ------<br>--- ----- -- ----,56866.200000047684,56865.700000047684,56455.275,56466.40000009537,56471.941,56871.877,,30,how
screen,html.Screen,0_2_0_1_31,2021-11-19T14:31:29.504Z,,,,,,,,,,,,,,,,53,,,,,,,,,,,,,,441.72299990463216,,response,,,99,,,,,,Space,keypress(Space),,,,,---- -- ----- -- ------ - ------- --- ----------<br>------------- ------ ------ ---- ---- ------- ----- -- ----<br>-------- ------- -- ---------- --- - --- ----- ----- ----<br>---- --- --- close --- ---- ---- ------- ----- ---- -------<br>--- --- -- ----- -- --- ---- -- --- ---- -- ------ ------<br>--- ----- -- ----,57314.09999990463,57313.59999990463,56855.212,56866.40000009537,56871.877,57321.849,,31,close
screen,html.Screen,0_2_0_1_32,2021-11-19T14:31:29.968Z,,,,,,,,,,,,,,,,53,,,,,,,,,,,,,,455.7509999046306,,response,,,99,,,,,,Space,keypress(Space),,,,,---- -- ----- -- ------ - ------- --- ----------<br>------------- ------ ------ ---- ---- ------- ----- -- ----<br>-------- ------- -- ---------- --- - --- ----- ----- ----<br>---- --- --- ----- you ---- ---- ------- ----- ---- -------<br>--- --- -- ----- -- --- ---- -- --- ---- -- ------ ------<br>--- ----- -- ----,57778.09999990463,57777.59999990463,57305.184,57314.40000009537,57321.849,57788.475,,32,you
screen,html.Screen,0_2_0_1_33,2021-11-19T14:31:30.384Z,,,,,,,,,,,,,,,,53,,,,,,,,,,,,,,405.02500000000146,,response,,,99,,,,,,Space,keypress(Space),,,,,---- -- ----- -- ------ - ------- --- ----------<br>------------- ------ ------ ---- ---- ------- ----- -- ----<br>-------- ------- -- ---------- --- - --- ----- ----- ----<br>---- --- --- ----- --- feel ---- ------- ----- ---- -------<br>--- --- -- ----- -- --- ---- -- --- ---- -- ------ ------<br>--- ----- -- ----,58194.09999990463,58193.5,57771.81,57778.40000009537,57788.475,58205.131,,33,feel
screen,html.Screen,0_2_0_1_34,2021-11-19T14:31:30.840Z,,,,,,,,,,,,,,,,53,,,,,,,,,,,,,,444.3689999999988,,response,,,99,,,,,,Space,keypress(Space),,,,,---- -- ----- -- ------ - ------- --- ----------<br>------------- ------ ------ ---- ---- ------- ----- -- ----<br>-------- ------- -- ---------- --- - --- ----- ----- ----<br>---- --- --- ----- --- ---- that ------- ----- ---- -------<br>--- --- -- ----- -- --- ---- -- --- ---- -- ------ ------<br>--- ----- -- ----,58650.200000047684,58649.5,58188.466,58194.299999952316,58205.131,58655.095,,34,that
screen,html.Screen,0_2_0_1_35,2021-11-19T14:31:31.304Z,,,,,,,,,,,,,,,,53,,,,,,,,,,,,,,458.40499999999884,,response,,,99,,,,,,Space,keypress(Space),,,,,---- -- ----- -- ------ - ------- --- ----------<br>------------- ------ ------ ---- ---- ------- ----- -- ----<br>-------- ------- -- ---------- --- - --- ----- ----- ----<br>---- --- --- ----- --- ---- ---- matters ----- ---- -------<br>--- --- -- ----- -- --- ---- -- --- ---- -- ------ ------<br>--- ----- -- ----,59114.09999990463,59113.5,58638.43,58650.40000009537,58655.095,59121.667,,35,matters
screen,html.Screen,0_2_0_1_36,2021-11-19T14:31:31.720Z,,,,,,,,,,,,,,,,53,,,,,,,,,,,,,,407.8329999999987,,response,,,99,,,,,,Space,keypress(Space),,,,,"---- -- ----- -- ------ - ------- --- ----------<br>------------- ------ ------ ---- ---- ------- ----- -- ----<br>-------- ------- -- ---------- --- - --- ----- ----- ----<br>---- --- --- ----- --- ---- ---- ------- most, ---- -------<br>--- --- -- ----- -- --- ---- -- --- ---- -- ------ ------<br>--- ----- -- ----",59530.299999952316,59529.5,59105.003,59114.299999952316,59121.667,59538.44,,36,"most,"
screen,html.Screen,0_2_0_1_37,2021-11-19T14:31:32.204Z,,,,,,,,,,,,,,,,53,,,,,,,,,,,,,,470.9600000953651,,response,,,99,,,,,,Space,keypress(Space),,,,,---- -- ----- -- ------ - ------- --- ----------<br>------------- ------ ------ ---- ---- ------- ----- -- ----<br>-------- ------- -- ---------- --- - --- ----- ----- ----<br>---- --- --- ----- --- ---- ---- ------- ----- it's -------<br>--- --- -- ----- -- --- ---- -- --- ---- -- ------ ------<br>--- ----- -- ----,60010,60009.40000009537,59521.774,59530.5,59538.44,60021.592,,37,it's
screen,html.Screen,0_2_0_1_38,2021-11-19T14:31:32.612Z,,,,,,,,,,,,,,,,53,,,,,,,,,,,,,,395.9080000000031,,response,,,99,,,,,,Space,keypress(Space),,,,,---- -- ----- -- ------ - ------- --- ----------<br>------------- ------ ------ ---- ---- ------- ----- -- ----<br>-------- ------- -- ---------- --- - --- ----- ----- ----<br>---- --- --- ----- --- ---- ---- ------- ----- ---- whether<br>--- --- -- ----- -- --- ---- -- --- ---- -- ------ ------<br>--- ----- -- ----,60418,60417.5,60004.928,60010.09999990463,60021.592,60421.702,,38,whether
screen,html.Screen,0_2_0_1_39,2021-11-19T14:31:32.988Z,,,,,,,,,,,,,,,,53,,,,,,,,,,,,,,371.5979999523188,,response,,,99,,,,,,Space,keypress(Space),,,,,---- -- ----- -- ------ - ------- --- ----------<br>------------- ------ ------ ---- ---- ------- ----- -- ----<br>-------- ------- -- ---------- --- - --- ----- ----- ----<br>---- --- --- ----- --- ---- ---- ------- ----- ---- -------<br>you --- -- ----- -- --- ---- -- --- ---- -- ------ ------<br>--- ----- -- ----,60793.90000009537,60793.299999952316,60405.036,60418.200000047684,60421.702,60804.838,,39,you
screen,html.Screen,0_2_0_1_40,2021-11-19T14:31:33.388Z,,,,,,,,,,,,,,,,53,,,,,,,,,,,,,,388.56200009536406,,response,,,99,,,,,,Space,keypress(Space),,,,,---- -- ----- -- ------ - ------- --- ----------<br>------------- ------ ------ ---- ---- ------- ----- -- ----<br>-------- ------- -- ---------- --- - --- ----- ----- ----<br>---- --- --- ----- --- ---- ---- ------- ----- ---- -------<br>--- are -- ----- -- --- ---- -- --- ---- -- ------ ------<br>--- ----- -- ----,61193.90000009537,61193.40000009537,60788.175,60794.09999990463,60804.838,61204.969,,40,are
screen,html.Screen,0_2_0_1_41,2021-11-19T14:31:33.812Z,,,,,,,,,,,,,,,,53,,,,,,,,,,,,,,412.63099990463525,,response,,,99,,,,,,Space,keypress(Space),,,,,---- -- ----- -- ------ - ------- --- ----------<br>------------- ------ ------ ---- ---- ------- ----- -- ----<br>-------- ------- -- ---------- --- - --- ----- ----- ----<br>---- --- --- ----- --- ---- ---- ------- ----- ---- -------<br>--- --- as ----- -- --- ---- -- --- ---- -- ------ ------<br>--- ----- -- ----,61618.200000047684,61617.59999990463,61188.303,61194.09999990463,61204.969,61621.56,,41,as
screen,html.Screen,0_2_0_1_42,2021-11-19T14:31:34.244Z,,,,,,,,,,,,,,,,53,,,,,,,,,,,,,,427.84000009536976,,response,,,99,,,,,,Space,keypress(Space),,,,,---- -- ----- -- ------ - ------- --- ----------<br>------------- ------ ------ ---- ---- ------- ----- -- ----<br>-------- ------- -- ---------- --- - --- ----- ----- ----<br>---- --- --- ----- --- ---- ---- ------- ----- ---- -------<br>--- --- -- close -- --- ---- -- --- ---- -- ------ ------<br>--- ----- -- ----,62050,62049.40000009537,61604.895,61618.299999952316,61621.56,62054.938,,42,close
screen,html.Screen,0_2_0_1_43,2021-11-19T14:31:34.620Z,,,,,,,,,,,,,,,,53,,,,,,,,,,,,,,370.36199995231436,,response,,,99,,,,,,Space,keypress(Space),,,,,---- -- ----- -- ------ - ------- --- ----------<br>------------- ------ ------ ---- ---- ------- ----- -- ----<br>-------- ------- -- ---------- --- - --- ----- ----- ----<br>---- --- --- ----- --- ---- ---- ------- ----- ---- -------<br>--- --- -- ----- as --- ---- -- --- ---- -- ------ ------<br>--- ----- -- ----,62425.799999952316,62425.299999952316,62038.272,62050.200000047684,62054.938,62438.213,,43,as
screen,html.Screen,0_2_0_1_44,2021-11-19T14:31:35.012Z,,,,,,,,,,,,,,,,53,,,,,,,,,,,,,,379.0869999523129,,response,,,99,,,,,,Space,keypress(Space),,,,,---- -- ----- -- ------ - ------- --- ----------<br>------------- ------ ------ ---- ---- ------- ----- -- ----<br>-------- ------- -- ---------- --- - --- ----- ----- ----<br>---- --- --- ----- --- ---- ---- ------- ----- ---- -------<br>--- --- -- ----- -- you ---- -- --- ---- -- ------ ------<br>--- ----- -- ----,62817.799999952316,62817.299999952316,62421.548,62426,62438.213,62821.497,,44,you
screen,html.Screen,0_2_0_1_45,2021-11-19T14:31:35.404Z,,,,,,,,,,,,,,,,53,,,,,,,,,,,,,,387.7030000476807,,response,,,99,,,,,,Space,keypress(Space),,,,,---- -- ----- -- ------ - ------- --- ----------<br>------------- ------ ------ ---- ---- ------- ----- -- ----<br>-------- ------- -- ---------- --- - --- ----- ----- ----<br>---- --- --- ----- --- ---- ---- ------- ----- ---- -------<br>--- --- -- ----- -- --- want -- --- ---- -- ------ ------<br>--- ----- -- ----,63209.799999952316,63209.200000047684,62804.832,62818,62821.497,63221.492,,45,want
screen,html.Screen,0_2_0_1_46,2021-11-19T14:31:35.787Z,,,,,,,,,,,,,,,,53,,,,,,,,,,,,,,371.70800004768535,,response,,,99,,,,,,Space,keypress(Space),,,,,---- -- ----- -- ------ - ------- --- ----------<br>------------- ------ ------ ---- ---- ------- ----- -- ----<br>-------- ------- -- ---------- --- - --- ----- ----- ----<br>---- --- --- ----- --- ---- ---- ------- ----- ---- -------<br>--- --- -- ----- -- --- ---- to --- ---- -- ------ ------<br>--- ----- -- ----,63593.799999952316,63593.200000047684,63204.827,63210,63221.492,63604.787,,46,to
screen,html.Screen,0_2_0_1_47,2021-11-19T14:31:36.195Z,,,,,,,,,,,,,,,,53,,,,,,,,,,,,,,396.4130000476871,,response,,,99,,,,,,Space,keypress(Space),,,,,"---- -- ----- -- ------ - ------- --- ----------<br>------------- ------ ------ ---- ---- ------- ----- -- ----<br>-------- ------- -- ---------- --- - --- ----- ----- ----<br>---- --- --- ----- --- ---- ---- ------- ----- ---- -------<br>--- --- -- ----- -- --- ---- -- be, ---- -- ------ ------<br>--- ----- -- ----",64001.799999952316,64001.200000047684,63588.122,63593.90000009537,63604.787,64004.768,,47,"be,"
screen,html.Screen,0_2_0_1_48,2021-11-19T14:31:36.747Z,,,,,,,,,,,,,,,,53,,,,,,,,,,,,,,548.3319999046362,,response,,,99,,,,,,Space,keypress(Space),,,,,---- -- ----- -- ------ - ------- --- ----------<br>------------- ------ ------ ---- ---- ------- ----- -- ----<br>-------- ------- -- ---------- --- - --- ----- ----- ----<br>---- --- --- ----- --- ---- ---- ------- ----- ---- -------<br>--- --- -- ----- -- --- ---- -- --- even -- ------ ------<br>--- ----- -- ----,64553.700000047684,64553.09999990463,63988.103,64001.90000009537,64004.768,64554.665,,48,even
screen,html.Screen,0_2_0_1_49,2021-11-19T14:31:37.084Z,,,,,,,,,,,,,,,,53,,,,,,,,,,,,,,334.8349999999991,,response,,,99,,,,,,Space,keypress(Space),,,,,---- -- ----- -- ------ - ------- --- ----------<br>------------- ------ ------ ---- ---- ------- ----- -- ----<br>-------- ------- -- ---------- --- - --- ----- ----- ----<br>---- --- --- ----- --- ---- ---- ------- ----- ---- -------<br>--- --- -- ----- -- --- ---- -- --- ---- if ------ ------<br>--- ----- -- ----,64890,64889.5,64538.001,64553.90000009537,64554.665,64904.673,,49,if
screen,html.Screen,0_2_0_1_50,2021-11-19T14:31:37.499Z,,,,,,,,,,,,,,,,53,,,,,,,,,,,,,,400.5270000476812,,response,,,99,,,,,,Space,keypress(Space),,,,,---- -- ----- -- ------ - ------- --- ----------<br>------------- ------ ------ ---- ---- ------- ----- -- ----<br>-------- ------- -- ---------- --- - --- ----- ----- ----<br>---- --- --- ----- --- ---- ---- ------- ----- ---- -------<br>--- --- -- ----- -- --- ---- -- --- ---- -- that's ------<br>--- ----- -- ----,65305.700000047684,65305.200000047684,64888.008,64890.200000047684,64904.673,65321.319,,50,that's
screen,html.Screen,0_2_0_1_51,2021-11-19T14:31:37.875Z,,,,,,,,,,,,,,,,53,,,,,,,,,,,,,,359.7809999046294,,response,,,99,,,,,,Space,keypress(Space),,,,,---- -- ----- -- ------ - ------- --- ----------<br>------------- ------ ------ ---- ---- ------- ----- -- ----<br>-------- ------- -- ---------- --- - --- ----- ----- ----<br>---- --- --- ----- --- ---- ---- ------- ----- ---- -------<br>--- --- -- ----- -- --- ---- -- --- ---- -- ------ really<br>--- ----- -- ----,65681.70000004768,65681.09999990463,65304.654,65305.90000009537,65321.319,65688.009,,51,really
screen,html.Screen,0_2_0_1_52,2021-11-19T14:31:38.275Z,,,,,,,,,,,,,,,,53,,,,,,,,,,,,,,392.99099999999453,,response,,,99,,,,,,Space,keypress(Space),,,,,---- -- ----- -- ------ - ------- --- ----------<br>------------- ------ ------ ---- ---- ------- ----- -- ----<br>-------- ------- -- ---------- --- - --- ----- ----- ----<br>---- --- --- ----- --- ---- ---- ------- ----- ---- -------<br>--- --- -- ----- -- --- ---- -- --- ---- -- ------ ------<br>not ----- -- ----,66081.59999990463,66081,65671.343,65681.79999995232,65688.009,66088.036,,52,not
screen,html.Screen,0_2_0_1_53,2021-11-19T14:31:38.635Z,,,,,,,,,,,,,,,,53,,,,,,,,,,,,,,352.9640000000072,,response,,,99,,,,,,Space,keypress(Space),,,,,---- -- ----- -- ------ - ------- --- ----------<br>------------- ------ ------ ---- ---- ------- ----- -- ----<br>-------- ------- -- ---------- --- - --- ----- ----- ----<br>---- --- --- ----- --- ---- ---- ------- ----- ---- -------<br>--- --- -- ----- -- --- ---- -- --- ---- -- ------ ------<br>--- close -- ----,66441.70000004768,66441,66071.37,66081.79999995232,66088.036,66454.62,,53,close
screen,html.Screen,0_2_0_1_54,2021-11-19T14:31:39.019Z,,,,,,,,,,,,,,,,53,,,,,,,,,,,,,,370.38000000000466,,response,,,99,,,,,,Space,keypress(Space),,,,,---- -- ----- -- ------ - ------- --- ----------<br>------------- ------ ------ ---- ---- ------- ----- -- ----<br>-------- ------- -- ---------- --- - --- ----- ----- ----<br>---- --- --- ----- --- ---- ---- ------- ----- ---- -------<br>--- --- -- ----- -- --- ---- -- --- ---- -- ------ ------<br>--- ----- at ----,66825.59999990463,66825,66437.955,66441.90000009537,66454.62,66837.929,,54,at
screen,html.Screen,0_2_0_1_55,2021-11-19T14:31:39.659Z,,,,,,,,,,,,,,,,53,,,,,,,,,,,,,,627.0709999999963,,response,,,99,,,,,,Space,keypress(Space),,,,,---- -- ----- -- ------ - ------- --- ----------<br>------------- ------ ------ ---- ---- ------- ----- -- ----<br>-------- ------- -- ---------- --- - --- ----- ----- ----<br>---- --- --- ----- --- ---- ---- ------- ----- ---- -------<br>--- --- -- ----- -- --- ---- -- --- ---- -- ------ ------<br>--- ----- -- all.,67465.59999990463,67465,66821.264,66825.70000004768,66837.929,67471.144,,55,all.
Item 99,flow.Loop,0_2_0_1,2021-11-19T14:31:39.662Z,,,,,,,,,,,,,,,,,,,,,,,,,,,,,,27375.466999999997,,completion,,,,A,,,,,,,,,,silence,,67468.5,67465,40072.868,40076.40000009537,40089.533,67471.144,,,
Question 1,html.Screen,0_2_0_2,2021-11-19T14:31:43.465Z,,,,,,,,,,,,,,,,,,,,,,,,,,,true,FALSE,,3799.4559999046323,,response,,,99,A,,,,,FALSE,click #choice-2,,,,silence,,71271.70000004768,71270.59999990463,67454.48,67468.70000004768,67471.144,71287.624,,,
Question 2,html.Screen,0_2_0_3,2021-11-19T14:31:51.453Z,,,,,,,,,,,,,,,,,,,,,,,,,,,true,TRUE,,7970.975999904636,,response,,,99,A,,,,,TRUE,click #choice-1,,,,silence,,79259.29999995232,79258.59999990463,71270.959,71271.90000009537,71287.624,79270.432,,,
Item 99,flow.Sequence,0_2_0,2021-11-19T14:31:51.453Z,,,,,,,,,,,,,,,,,,,,,,,,,,,,,,49168.45199990463,,completion,,,,,,,,,,,,,,,,79259.59999990463,79258.59999990463,30073.483,30078.900000095367,30090.148,79270.432,,,
Holding screen,html.Screen,0_2_1_0,2021-11-19T14:32:01.448Z,,,,,,,,,,,,,,,,,,,,,,,,,,,,,,9999.433000000005,,timeout,,,,,,,,,,,,,,,,89254.70000004768,89253.2,79253.768,79259.90000009537,79270.432,89269.865,,,
screen,html.Screen,0_2_1_1_0,2021-11-19T14:32:02.122Z,,,,,,,,,,,,,,,,54,,,,,,,,,,,,,,658.0350000953622,,response,,,100,,,,,,Space,keypress(Space),,,,,At --- ---- --- ------ ----- ------- ---- -- --- ------- --<br>------- ---------- ------ -- ----- -- ----- -- ---- ------<br>--- ----- --- --- ------ -------- ----- --- ------ ----- --<br>----- ----- ---------- --- --- ------ ------ ---- -- ------<br>------- --- ------ ----- --- ---- ------- -- ---- --- --<br>------- ------,89928.5,89927.90000009537,89253.2,89255,89269.865,89936.448,,0,At
screen,html.Screen,0_2_1_1_1,2021-11-19T14:32:02.538Z,,,,,,,,,,,,,,,,54,,,,,,,,,,,,,,407.1519999046286,,response,,,100,,,,,,Space,keypress(Space),,,,,-- the ---- --- ------ ----- ------- ---- -- --- ------- --<br>------- ---------- ------ -- ----- -- ----- -- ---- ------<br>--- ----- --- --- ------ -------- ----- --- ------ ----- --<br>----- ----- ---------- --- --- ------ ------ ---- -- ------<br>------- --- ------ ----- --- ---- ------- -- ---- --- --<br>------- ------,90344.09999990463,90343.59999990463,89919.783,89928.70000004768,89936.448,90353.153,,1,the
screen,html.Screen,0_2_1_1_2,2021-11-19T14:32:02.914Z,,,,,,,,,,,,,,,,54,,,,,,,,,,,,,,366.3469999999943,,response,,,100,,,,,,Space,keypress(Space),,,,,-- --- time --- ------ ----- ------- ---- -- --- ------- --<br>------- ---------- ------ -- ----- -- ----- -- ---- ------<br>--- ----- --- --- ------ -------- ----- --- ------ ----- --<br>----- ----- ---------- --- --- ------ ------ ---- -- ------<br>------- --- ------ ----- --- ---- ------- -- ---- --- --<br>------- ------,90720.09999990463,90719.5,90336.488,90344.20000004768,90353.153,90736.468,,2,time
screen,html.Screen,0_2_1_1_3,2021-11-19T14:32:03.306Z,,,,,,,,,,,,,,,,54,,,,,,,,,,,,,,375.0320000000065,,response,,,100,,,,,,Space,keypress(Space),,,,,-- --- ---- the ------ ----- ------- ---- -- --- ------- --<br>------- ---------- ------ -- ----- -- ----- -- ---- ------<br>--- ----- --- --- ------ -------- ----- --- ------ ----- --<br>----- ----- ---------- --- --- ------ ------ ---- -- ------<br>------- --- ------ ----- --- ---- ------- -- ---- --- --<br>------- ------,91112.09999990463,91111.5,90719.803,90720.20000004768,90736.468,91119.768,,3,the
screen,html.Screen,0_2_1_1_4,2021-11-19T14:32:03.722Z,,,,,,,,,,,,,,,,54,,,,,,,,,,,,,,407.7320000000036,,response,,,100,,,,,,Space,keypress(Space),,,,,-- --- ---- --- French ----- ------- ---- -- --- ------- --<br>------- ---------- ------ -- ----- -- ----- -- ---- ------<br>--- ----- --- --- ------ -------- ----- --- ------ ----- --<br>----- ----- ---------- --- --- ------ ------ ---- -- ------<br>------- --- ------ ----- --- ---- ------- -- ---- --- --<br>------- ------,91528,91527.5,91103.103,91112.29999995232,91119.768,91536.41,,4,French
screen,html.Screen,0_2_1_1_5,2021-11-19T14:32:04.138Z,,,,,,,,,,,,,,,,54,,,,,,,,,,,,,,406.99000009536394,,response,,,100,,,,,,Space,keypress(Space),,,,,-- --- ---- --- ------ crown ------- ---- -- --- ------- --<br>------- ---------- ------ -- ----- -- ----- -- ---- ------<br>--- ----- --- --- ------ -------- ----- --- ------ ----- --<br>----- ----- ---------- --- --- ------ ------ ---- -- ------<br>------- --- ------ ----- --- ---- ------- -- ---- --- --<br>------- ------,91944.09999990463,91943.40000009537,91519.745,91528.29999995232,91536.41,91952.995,,5,crown
screen,html.Screen,0_2_1_1_6,2021-11-19T14:32:04.570Z,,,,,,,,,,,,,,,,54,,,,,,,,,,,,,,422.4050000953721,,response,,,100,,,,,,Space,keypress(Space),,,,,-- --- ---- --- ------ ----- secured ---- -- --- ------- --<br>------- ---------- ------ -- ----- -- ----- -- ---- ------<br>--- ----- --- --- ------ -------- ----- --- ------ ----- --<br>----- ----- ---------- --- --- ------ ------ ---- -- ------<br>------- --- ------ ----- --- ---- ------- -- ---- --- --<br>------- ------,92376,92375.40000009537,91936.331,91944.29999995232,91952.995,92386.405,,6,secured
screen,html.Screen,0_2_1_1_7,2021-11-19T14:32:04.986Z,,,,,,,,,,,,,,,,54,,,,,,,,,,,,,,404.9950000953686,,response,,,100,,,,,,Space,keypress(Space),,,,,-- --- ---- --- ------ ----- ------- much -- --- ------- --<br>------- ---------- ------ -- ----- -- ----- -- ---- ------<br>--- ----- --- --- ------ -------- ----- --- ------ ----- --<br>----- ----- ---------- --- --- ------ ------ ---- -- ------<br>------- --- ------ ----- --- ---- ------- -- ---- --- --<br>------- ------,92792,92791.40000009537,92369.739,92376.09999990463,92386.405,92802.938,,7,much
screen,html.Screen,0_2_1_1_8,2021-11-19T14:32:05.394Z,,,,,,,,,,,,,,,,54,,,,,,,,,,,,,,396.36199995232164,,response,,,100,,,,,,Space,keypress(Space),,,,,-- --- ---- --- ------ ----- ------- ---- of --- ------- --<br>------- ---------- ------ -- ----- -- ----- -- ---- ------<br>--- ----- --- --- ------ -------- ----- --- ------ ----- --<br>----- ----- ---------- --- --- ------ ------ ---- -- ------<br>------- --- ------ ----- --- ---- ------- -- ---- --- --<br>------- ------,93199.90000009537,93199.29999995232,92786.274,92792.09999990463,92802.938,93203.021,,8,of
screen,html.Screen,0_2_1_1_9,2021-11-19T14:32:05.754Z,,,,,,,,,,,,,,,,54,,,,,,,,,,,,,,356.47900000000664,,response,,,100,,,,,,Space,keypress(Space),,,,,-- --- ---- --- ------ ----- ------- ---- -- its ------- --<br>------- ---------- ------ -- ----- -- ----- -- ---- ------<br>--- ----- --- --- ------ -------- ----- --- ------ ----- --<br>----- ----- ---------- --- --- ------ ------ ---- -- ------<br>------- --- ------ ----- --- ---- ------- -- ---- --- --<br>------- ------,93560.09999990463,93559.5,93186.355,93200.09999990463,93203.021,93569.566,,9,its
screen,html.Screen,0_2_1_1_10,2021-11-19T14:32:06.114Z,,,,,,,,,,,,,,,,54,,,,,,,,,,,,,,349.7339999523101,,response,,,100,,,,,,Space,keypress(Space),,,,,-- --- ---- --- ------ ----- ------- ---- -- --- revenue --<br>------- ---------- ------ -- ----- -- ----- -- ---- ------<br>--- ----- --- --- ------ -------- ----- --- ------ ----- --<br>----- ----- ---------- --- --- ------ ------ ---- -- ------<br>------- --- ------ ----- --- ---- ------- -- ---- --- --<br>------- ------,93919.79999995232,93919.29999995232,93552.902,93560.20000004768,93569.566,93936.244,,10,revenue
screen,html.Screen,0_2_1_1_11,2021-11-19T14:32:06.506Z,,,,,,,,,,,,,,,,54,,,,,,,,,,,,,,375.05599995231023,,response,,,100,,,,,,Space,keypress(Space),,,,,-- --- ---- --- ------ ----- ------- ---- -- --- ------- by<br>------- ---------- ------ -- ----- -- ----- -- ---- ------<br>--- ----- --- --- ------ -------- ----- --- ------ ----- --<br>----- ----- ---------- --- --- ------ ------ ---- -- ------<br>------- --- ------ ----- --- ---- ------- -- ---- --- --<br>------- ------,94311.90000009537,94311.29999995232,93919.579,93920,93936.244,94319.626,,11,by
screen,html.Screen,0_2_1_1_12,2021-11-19T14:32:06.970Z,,,,,,,,,,,,,,,,54,,,,,,,,,,,,,,455.5740000476799,,response,,,100,,,,,,Space,keypress(Space),,,,,-- --- ---- --- ------ ----- ------- ---- -- --- ------- --<br>issuing ---------- ------ -- ----- -- ----- -- ---- ------<br>--- ----- --- --- ------ -------- ----- --- ------ ----- --<br>----- ----- ---------- --- --- ------ ------ ---- -- ------<br>------- --- ------ ----- --- ---- ------- -- ---- --- --<br>------- ------,94775.79999995232,94775.20000004768,94302.96,94312.09999990463,94319.626,94786.223,,12,issuing
screen,html.Screen,0_2_1_1_13,2021-11-19T14:32:07.426Z,,,,,,,,,,,,,,,,54,,,,,,,,,,,,,,445.1770000953693,,response,,,100,,,,,,Space,keypress(Space),,,,,-- --- ---- --- ------ ----- ------- ---- -- --- ------- --<br>------- government ------ -- ----- -- ----- -- ---- ------<br>--- ----- --- --- ------ -------- ----- --- ------ ----- --<br>----- ----- ---------- --- --- ------ ------ ---- -- ------<br>------- --- ------ ----- --- ---- ------- -- ---- --- --<br>------- ------,95231.90000009537,95231.40000009537,94769.558,94776,94786.223,95236.188,,13,government
screen,html.Screen,0_2_1_1_14,2021-11-19T14:32:07.826Z,,,,,,,,,,,,,,,,54,,,,,,,,,,,,,,395.01200004768907,,response,,,100,,,,,,Space,keypress(Space),,,,,-- --- ---- --- ------ ----- ------- ---- -- --- ------- --<br>------- ---------- bonds. -- ----- -- ----- -- ---- ------<br>--- ----- --- --- ------ -------- ----- --- ------ ----- --<br>----- ----- ---------- --- --- ------ ------ ---- -- ------<br>------- --- ------ ----- --- ---- ------- -- ---- --- --<br>------- ------,95631.79999995232,95631.20000004768,95219.523,95232.09999990463,95236.188,95636.159,,14,bonds.
screen,html.Screen,0_2_1_1_15,2021-11-19T14:32:08.242Z,,,,,,,,,,,,,,,,54,,,,,,,,,,,,,,411.14099995231663,,response,,,100,,,,,,Space,keypress(Space),,,,,-- --- ---- --- ------ ----- ------- ---- -- --- ------- --<br>------- ---------- ------ In ----- -- ----- -- ---- ------<br>--- ----- --- --- ------ -------- ----- --- ------ ----- --<br>----- ----- ---------- --- --- ------ ------ ---- -- ------<br>------- --- ------ ----- --- ---- ------- -- ---- --- --<br>------- ------,96047.90000009537,96047.29999995232,95619.494,95631.90000009537,95636.159,96052.745,,15,In
screen,html.Screen,0_2_1_1_16,2021-11-19T14:32:09.434Z,,,,,,,,,,,,,,,,54,,,,,,,,,,,,,,1186.4550000476884,,response,,,100,,,,,,Space,keypress(Space),,,,,"-- --- ---- --- ------ ----- ------- ---- -- --- ------- --<br>------- ---------- ------ -- 1727, -- ----- -- ---- ------<br>--- ----- --- --- ------ -------- ----- --- ------ ----- --<br>----- ----- ---------- --- --- ------ ------ ---- -- ------<br>------- --- ------ ----- --- ---- ------- -- ---- --- --<br>------- ------",97239.79999995232,97239.20000004768,96036.081,96048.09999990463,96052.745,97252.79,,16,"1727,"
screen,html.Screen,0_2_1_1_17,2021-11-19T14:32:09.809Z,,,,,,,,,,,,,,,,54,,,,,,,,,,,,,,362.30999990463897,,response,,,100,,,,,,Space,keypress(Space),,,,,-- --- ---- --- ------ ----- ------- ---- -- --- ------- --<br>------- ---------- ------ -- ----- in ----- -- ---- ------<br>--- ----- --- --- ------ -------- ----- --- ------ ----- --<br>----- ----- ---------- --- --- ------ ------ ---- -- ------<br>------- --- ------ ----- --- ---- ------- -- ---- --- --<br>------- ------,97615.70000004768,97615.09999990463,97236.124,97239.90000009537,97252.79,97619.137,,17,in
screen,html.Screen,0_2_1_1_18,2021-11-19T14:32:10.353Z,,,,,,,,,,,,,,,,54,,,,,,,,,,,,,,539.9629999046301,,response,,,100,,,,,,Space,keypress(Space),,,,,-- --- ---- --- ------ ----- ------- ---- -- --- ------- --<br>------- ---------- ------ -- ----- -- order -- ---- ------<br>--- ----- --- --- ------ -------- ----- --- ------ ----- --<br>----- ----- ---------- --- --- ------ ------ ---- -- ------<br>------- --- ------ ----- --- ---- ------- -- ---- --- --<br>------- ------,98159.70000004768,98159.09999990463,97602.474,97615.90000009537,97619.137,98169.396,,18,order
screen,html.Screen,0_2_1_1_19,2021-11-19T14:32:10.705Z,,,,,,,,,,,,,,,,54,,,,,,,,,,,,,,341.7039999046392,,response,,,100,,,,,,Space,keypress(Space),,,,,-- --- ---- --- ------ ----- ------- ---- -- --- ------- --<br>------- ---------- ------ -- ----- -- ----- to ---- ------<br>--- ----- --- --- ------ -------- ----- --- ------ ----- --<br>----- ----- ---------- --- --- ------ ------ ---- -- ------<br>------- --- ------ ----- --- ---- ------- -- ---- --- --<br>------- ------,98511.79999995232,98511.09999990463,98152.73,98159.90000009537,98169.396,98519.312,,19,to
screen,html.Screen,0_2_1_1_20,2021-11-19T14:32:11.065Z,,,,,,,,,,,,,,,,54,,,,,,,,,,,,,,351.68799999999464,,response,,,100,,,,,,Space,keypress(Space),,,,,-- --- ---- --- ------ ----- ------- ---- -- --- ------- --<br>------- ---------- ------ -- ----- -- ----- -- save ------<br>--- ----- --- --- ------ -------- ----- --- ------ ----- --<br>----- ----- ---------- --- --- ------ ------ ---- -- ------<br>------- --- ------ ----- --- ---- ------- -- ---- --- --<br>------- ------,98871.59999990463,98871,98502.647,98511.90000009537,98519.312,98885.951,,20,save
screen,html.Screen,0_2_1_1_21,2021-11-19T14:32:11.465Z,,,,,,,,,,,,,,,,54,,,,,,,,,,,,,,385.04899999999907,,response,,,100,,,,,,Space,keypress(Space),,,,,"-- --- ---- --- ------ ----- ------- ---- -- --- ------- --<br>------- ---------- ------ -- ----- -- ----- -- ---- money,<br>--- ----- --- --- ------ -------- ----- --- ------ ----- --<br>----- ----- ---------- --- --- ------ ------ ---- -- ------<br>------- --- ------ ----- --- ---- ------- -- ---- --- --<br>------- ------",99271.59999990463,99271,98869.286,98871.79999995232,98885.951,99285.913,,21,"money,"
screen,html.Screen,0_2_1_1_22,2021-11-19T14:32:11.889Z,,,,,,,,,,,,,,,,54,,,,,,,,,,,,,,409.08699999999953,,response,,,100,,,,,,Space,keypress(Space),,,,,-- --- ---- --- ------ ----- ------- ---- -- --- ------- --<br>------- ---------- ------ -- ----- -- ----- -- ---- ------<br>the ----- --- --- ------ -------- ----- --- ------ ----- --<br>----- ----- ---------- --- --- ------ ------ ---- -- ------<br>------- --- ------ ----- --- ---- ------- -- ---- --- --<br>------- ------,99695.59999990463,99695,99269.248,99271.70000004768,99285.913,99702.507,,22,the
screen,html.Screen,0_2_1_1_23,2021-11-19T14:32:12.290Z,,,,,,,,,,,,,,,,54,,,,,,,,,,,,,,392.5929999046348,,response,,,100,,,,,,Space,keypress(Space),,,,,-- --- ---- --- ------ ----- ------- ---- -- --- ------- --<br>------- ---------- ------ -- ----- -- ----- -- ---- ------<br>--- state --- --- ------ -------- ----- --- ------ ----- --<br>----- ----- ---------- --- --- ------ ------ ---- -- ------<br>------- --- ------ ----- --- ---- ------- -- ---- --- --<br>------- ------,100095.79999995232,100095.09999990463,99685.843,99695.70000004768,99702.507,100102.519,,23,state
screen,html.Screen,0_2_1_1_24,2021-11-19T14:32:12.657Z,,,,,,,,,,,,,,,,54,,,,,,,,,,,,,,360.3810000953672,,response,,,100,,,,,,Space,keypress(Space),,,,,-- --- ---- --- ------ ----- ------- ---- -- --- ------- --<br>------- ---------- ------ -- ----- -- ----- -- ---- ------<br>--- ----- cut --- ------ -------- ----- --- ------ ----- --<br>----- ----- ---------- --- --- ------ ------ ---- -- ------<br>------- --- ------ ----- --- ---- ------- -- ---- --- --<br>------- ------,100463.59999990463,100462.90000009537,100085.854,100096,100102.519,100469.212,,24,cut
screen,html.Screen,0_2_1_1_25,2021-11-19T14:32:13.065Z,,,,,,,,,,,,,,,,54,,,,,,,,,,,,,,401.6880000953679,,response,,,100,,,,,,Space,keypress(Space),,,,,-- --- ---- --- ------ ----- ------- ---- -- --- ------- --<br>------- ---------- ------ -- ----- -- ----- -- ---- ------<br>--- ----- --- the ------ -------- ----- --- ------ ----- --<br>----- ----- ---------- --- --- ------ ------ ---- -- ------<br>------- --- ------ ----- --- ---- ------- -- ---- --- --<br>------- ------,100871.5,100870.90000009537,100452.546,100463.70000004768,100469.212,100885.876,,25,the
screen,html.Screen,0_2_1_1_26,2021-11-19T14:32:13.497Z,,,,,,,,,,,,,,,,54,,,,,,,,,,,,,,417.0240000953636,,response,,,100,,,,,,Space,keypress(Space),,,,,-- --- ---- --- ------ ----- ------- ---- -- --- ------- --<br>------- ---------- ------ -- ----- -- ----- -- ---- ------<br>--- ----- --- --- bonds' -------- ----- --- ------ ----- --<br>----- ----- ---------- --- --- ------ ------ ---- -- ------<br>------- --- ------ ----- --- ---- ------- -- ---- --- --<br>------- ------,101303.5,101302.90000009537,100869.21,100871.70000004768,100885.876,101319.149,,26,bonds'
screen,html.Screen,0_2_1_1_27,2021-11-19T14:32:13.889Z,,,,,,,,,,,,,,,,54,,,,,,,,,,,,,,375.75100009536254,,response,,,100,,,,,,Space,keypress(Space),,,,,-- --- ---- --- ------ ----- ------- ---- -- --- ------- --<br>------- ---------- ------ -- ----- -- ----- -- ---- ------<br>--- ----- --- --- ------ interest ----- --- ------ ----- --<br>----- ----- ---------- --- --- ------ ------ ---- -- ------<br>------- --- ------ ----- --- ---- ------- -- ---- --- --<br>------- ------,101695.40000009537,101694.90000009537,101302.484,101303.70000004768,101319.149,101702.394,,27,interest
screen,html.Screen,0_2_1_1_28,2021-11-19T14:32:14.321Z,,,,,,,,,,,,,,,,54,,,,,,,,,,,,,,424.5060000953672,,response,,,100,,,,,,Space,keypress(Space),,,,,-- --- ---- --- ------ ----- ------- ---- -- --- ------- --<br>------- ---------- ------ -- ----- -- ----- -- ---- ------<br>--- ----- --- --- ------ -------- rate. --- ------ ----- --<br>----- ----- ---------- --- --- ------ ------ ---- -- ------<br>------- --- ------ ----- --- ---- ------- -- ---- --- --<br>------- ------,102127.5,102126.90000009537,101685.73,101695.59999990463,101702.394,102135.782,,28,rate.
screen,html.Screen,0_2_1_1_29,2021-11-19T14:32:14.729Z,,,,,,,,,,,,,,,,54,,,,,,,,,,,,,,399.1180000953609,,response,,,100,,,,,,Space,keypress(Space),,,,,-- --- ---- --- ------ ----- ------- ---- -- --- ------- --<br>------- ---------- ------ -- ----- -- ----- -- ---- ------<br>--- ----- --- --- ------ -------- ----- The ------ ----- --<br>----- ----- ---------- --- --- ------ ------ ---- -- ------<br>------- --- ------ ----- --- ---- ------- -- ---- --- --<br>------- ------,102535.40000009537,102534.90000009537,102119.116,102127.70000004768,102135.782,102552.34,,29,The
screen,html.Screen,0_2_1_1_30,2021-11-19T14:32:15.129Z,,,,,,,,,,,,,,,,54,,,,,,,,,,,,,,382.4599999523198,,response,,,100,,,,,,Space,keypress(Space),,,,,-- --- ---- --- ------ ----- ------- ---- -- --- ------- --<br>------- ---------- ------ -- ----- -- ----- -- ---- ------<br>--- ----- --- --- ------ -------- ----- --- market ----- --<br>----- ----- ---------- --- --- ------ ------ ---- -- ------<br>------- --- ------ ----- --- ---- ------- -- ---- --- --<br>------- ------,102935.40000009537,102934.79999995232,102535.676,102535.59999990463,102552.34,102952.372,,30,market
screen,html.Screen,0_2_1_1_31,2021-11-19T14:32:15.473Z,,,,,,,,,,,,,,,,54,,,,,,,,,,,,,,326.3280000476807,,response,,,100,,,,,,Space,keypress(Space),,,,,-- --- ---- --- ------ ----- ------- ---- -- --- ------- --<br>------- ---------- ------ -- ----- -- ----- -- ---- ------<br>--- ----- --- --- ------ -------- ----- --- ------ value --<br>----- ----- ---------- --- --- ------ ------ ---- -- ------<br>------- --- ------ ----- --- ---- ------- -- ---- --- --<br>------- ------,103279.29999995232,103278.70000004768,102935.707,102935.59999990463,102952.372,103285.739,,31,value
screen,html.Screen,0_2_1_1_32,2021-11-19T14:32:15.801Z,,,,,,,,,,,,,,,,54,,,,,,,,,,,,,,321.0609999523149,,response,,,100,,,,,,Space,keypress(Space),,,,,-- --- ---- --- ------ ----- ------- ---- -- --- ------- --<br>------- ---------- ------ -- ----- -- ----- -- ---- ------<br>--- ----- --- --- ------ -------- ----- --- ------ ----- of<br>----- ----- ---------- --- --- ------ ------ ---- -- ------<br>------- --- ------ ----- --- ---- ------- -- ---- --- --<br>------- ------,103607.40000009537,103606.79999995232,103269.073,103279.40000009537,103285.739,103619.019,,32,of
screen,html.Screen,0_2_1_1_33,2021-11-19T14:32:16.177Z,,,,,,,,,,,,,,,,54,,,,,,,,,,,,,,363.6810000476835,,response,,,100,,,,,,Space,keypress(Space),,,,,-- --- ---- --- ------ ----- ------- ---- -- --- ------- --<br>------- ---------- ------ -- ----- -- ----- -- ---- ------<br>--- ----- --- --- ------ -------- ----- --- ------ ----- --<br>these ----- ---------- --- --- ------ ------ ---- -- ------<br>------- --- ------ ----- --- ---- ------- -- ---- --- --<br>------- ------,103983.29999995232,103982.70000004768,103602.354,103607.59999990463,103619.019,103985.655,,33,these
screen,html.Screen,0_2_1_1_34,2021-11-19T14:32:16.569Z,,,,,,,,,,,,,,,,54,,,,,,,,,,,,,,388.94499990463373,,response,,,100,,,,,,Space,keypress(Space),,,,,-- --- ---- --- ------ ----- ------- ---- -- --- ------- --<br>------- ---------- ------ -- ----- -- ----- -- ---- ------<br>--- ----- --- --- ------ -------- ----- --- ------ ----- --<br>----- bonds ---------- --- --- ------ ------ ---- -- ------<br>------- --- ------ ----- --- ---- ------- -- ---- --- --<br>------- ------,104375.29999995232,104374.59999990463,103968.99,103983.5,103985.655,104385.615,,34,bonds
screen,html.Screen,0_2_1_1_35,2021-11-19T14:32:16.961Z,,,,,,,,,,,,,,,,54,,,,,,,,,,,,,,380.98499990462733,,response,,,100,,,,,,Space,keypress(Space),,,,,"-- --- ---- --- ------ ----- ------- ---- -- --- ------- --<br>------- ---------- ------ -- ----- -- ----- -- ---- ------<br>--- ----- --- --- ------ -------- ----- --- ------ ----- --<br>----- ----- plummeted, --- --- ------ ------ ---- -- ------<br>------- --- ------ ----- --- ---- ------- -- ---- --- --<br>------- ------",104767.29999995232,104766.59999990463,104368.95,104375.5,104385.615,104768.941,,35,"plummeted,"
screen,html.Screen,0_2_1_1_36,2021-11-19T14:32:17.369Z,,,,,,,,,,,,,,,,54,,,,,,,,,,,,,,405.6589999046264,,response,,,100,,,,,,Space,keypress(Space),,,,,-- --- ---- --- ------ ----- ------- ---- -- --- ------- --<br>------- ---------- ------ -- ----- -- ----- -- ---- ------<br>--- ----- --- --- ------ -------- ----- --- ------ ----- --<br>----- ----- ---------- and --- ------ ------ ---- -- ------<br>------- --- ------ ----- --- ---- ------- -- ---- --- --<br>------- ------,105175.29999995232,105174.59999990463,104752.276,104767.5,104768.941,105185.574,,36,and
screen,html.Screen,0_2_1_1_37,2021-11-19T14:32:17.713Z,,,,,,,,,,,,,,,,54,,,,,,,,,,,,,,333.0259999046393,,response,,,100,,,,,,Space,keypress(Space),,,,,-- --- ---- --- ------ ----- ------- ---- -- --- ------- --<br>------- ---------- ------ -- ----- -- ----- -- ---- ------<br>--- ----- --- --- ------ -------- ----- --- ------ ----- --<br>----- ----- ---------- --- the ------ ------ ---- -- ------<br>------- --- ------ ----- --- ---- ------- -- ---- --- --<br>------- ------,105519.20000004768,105518.59999990463,105168.909,105175.5,105185.574,105535.568,,37,the
screen,html.Screen,0_2_1_1_38,2021-11-19T14:32:18.073Z,,,,,,,,,,,,,,,,54,,,,,,,,,,,,,,343.03199990463327,,response,,,100,,,,,,Space,keypress(Space),,,,,-- --- ---- --- ------ ----- ------- ---- -- --- ------- --<br>------- ---------- ------ -- ----- -- ----- -- ---- ------<br>--- ----- --- --- ------ -------- ----- --- ------ ----- --<br>----- ----- ---------- --- --- market ------ ---- -- ------<br>------- --- ------ ----- --- ---- ------- -- ---- --- --<br>------- ------,105879.20000004768,105878.59999990463,105518.903,105519.40000009537,105535.568,105885.533,,38,market
screen,html.Screen,0_2_1_1_39,2021-11-19T14:32:18.449Z,,,,,,,,,,,,,,,,54,,,,,,,,,,,,,,369.06699990463676,,response,,,100,,,,,,Space,keypress(Space),,,,,-- --- ---- --- ------ ----- ------- ---- -- --- ------- --<br>------- ---------- ------ -- ----- -- ----- -- ---- ------<br>--- ----- --- --- ------ -------- ----- --- ------ ----- --<br>----- ----- ---------- --- --- ------ became ---- -- ------<br>------- --- ------ ----- --- ---- ------- -- ---- --- --<br>------- ------,106255.20000004768,106254.59999990463,105868.868,105879.40000009537,105885.533,106268.852,,39,became
screen,html.Screen,0_2_1_1_40,2021-11-19T14:32:18.793Z,,,,,,,,,,,,,,,,54,,,,,,,,,,,,,,329.7479999046336,,response,,,100,,,,,,Space,keypress(Space),,,,,-- --- ---- --- ------ ----- ------- ---- -- --- ------- --<br>------- ---------- ------ -- ----- -- ----- -- ---- ------<br>--- ----- --- --- ------ -------- ----- --- ------ ----- --<br>----- ----- ---------- --- --- ------ ------ wary -- ------<br>------- --- ------ ----- --- ---- ------- -- ---- --- --<br>------- ------,106599.09999990463,106598.59999990463,106252.187,106255.40000009537,106268.852,106602.156,,40,wary
screen,html.Screen,0_2_1_1_41,2021-11-19T14:32:19.161Z,,,,,,,,,,,,,,,,54,,,,,,,,,,,,,,364.3439999999973,,response,,,100,,,,,,Space,keypress(Space),,,,,-- --- ---- --- ------ ----- ------- ---- -- --- ------- --<br>------- ---------- ------ -- ----- -- ----- -- ---- ------<br>--- ----- --- --- ------ -------- ----- --- ------ ----- --<br>----- ----- ---------- --- --- ------ ------ ---- of ------<br>------- --- ------ ----- --- ---- ------- -- ---- --- --<br>------- ------,106967.09999990463,106966.5,106585.491,106599.29999995232,106602.156,106968.728,,41,of
screen,html.Screen,0_2_1_1_42,2021-11-19T14:32:19.521Z,,,,,,,,,,,,,,,,54,,,,,,,,,,,,,,357.7719999999972,,response,,,100,,,,,,Space,keypress(Space),,,,,-- --- ---- --- ------ ----- ------- ---- -- --- ------- --<br>------- ---------- ------ -- ----- -- ----- -- ---- ------<br>--- ----- --- --- ------ -------- ----- --- ------ ----- --<br>----- ----- ---------- --- --- ------ ------ ---- -- French<br>------- --- ------ ----- --- ---- ------- -- ---- --- --<br>------- ------,107327,107326.5,106952.064,106967.29999995232,106968.728,107335.428,,42,French
screen,html.Screen,0_2_1_1_43,2021-11-19T14:32:19.985Z,,,,,,,,,,,,,,,,54,,,,,,,,,,,,,,455.0720000000001,,response,,,100,,,,,,Space,keypress(Space),,,,,-- --- ---- --- ------ ----- ------- ---- -- --- ------- --<br>------- ---------- ------ -- ----- -- ----- -- ---- ------<br>--- ----- --- --- ------ -------- ----- --- ------ ----- --<br>----- ----- ---------- --- --- ------ ------ ---- -- ------<br>credit. --- ------ ----- --- ---- ------- -- ---- --- --<br>------- ------,107791.09999990463,107790.5,107318.763,107327.20000004768,107335.428,107802.038,,43,credit.
screen,html.Screen,0_2_1_1_44,2021-11-19T14:32:20.345Z,,,,,,,,,,,,,,,,54,,,,,,,,,,,,,,348.46199999999953,,response,,,100,,,,,,Space,keypress(Space),,,,,-- --- ---- --- ------ ----- ------- ---- -- --- ------- --<br>------- ---------- ------ -- ----- -- ----- -- ---- ------<br>--- ----- --- --- ------ -------- ----- --- ------ ----- --<br>----- ----- ---------- --- --- ------ ------ ---- -- ------<br>------- The ------ ----- --- ---- ------- -- ---- --- --<br>------- ------,108151,108150.5,107785.373,107791.20000004768,107802.038,108152.123,,44,The
screen,html.Screen,0_2_1_1_45,2021-11-19T14:32:20.713Z,,,,,,,,,,,,,,,,54,,,,,,,,,,,,,,366.37699999999313,,response,,,100,,,,,,Space,keypress(Space),,,,,-- --- ---- --- ------ ----- ------- ---- -- --- ------- --<br>------- ---------- ------ -- ----- -- ----- -- ---- ------<br>--- ----- --- --- ------ -------- ----- --- ------ ----- --<br>----- ----- ---------- --- --- ------ ------ ---- -- ------<br>------- --- French ----- --- ---- ------- -- ---- --- --<br>------- ------,108519,108518.5,108135.457,108151.20000004768,108152.123,108535.365,,45,French
screen,html.Screen,0_2_1_1_46,2021-11-19T14:32:21.065Z,,,,,,,,,,,,,,,,54,,,,,,,,,,,,,,335.0350000953622,,response,,,100,,,,,,Space,keypress(Space),,,,,-- --- ---- --- ------ ----- ------- ---- -- --- ------- --<br>------- ---------- ------ -- ----- -- ----- -- ---- ------<br>--- ----- --- --- ------ -------- ----- --- ------ ----- --<br>----- ----- ---------- --- --- ------ ------ ---- -- ------<br>------- --- ------ state --- ---- ------- -- ---- --- --<br>------- ------,108871,108870.40000009537,108518.7,108519.20000004768,108535.365,108885.39,,46,state
screen,html.Screen,0_2_1_1_47,2021-11-19T14:32:21.489Z,,,,,,,,,,,,,,,,54,,,,,,,,,,,,,,409.010000095368,,response,,,100,,,,,,Space,keypress(Space),,,,,-- --- ---- --- ------ ----- ------- ---- -- --- ------- --<br>------- ---------- ------ -- ----- -- ----- -- ---- ------<br>--- ----- --- --- ------ -------- ----- --- ------ ----- --<br>----- ----- ---------- --- --- ------ ------ ---- -- ------<br>------- --- ------ ----- was ---- ------- -- ---- --- --<br>------- ------,109294.90000009537,109294.40000009537,108868.724,108871.20000004768,108885.39,109301.983,,47,was
screen,html.Screen,0_2_1_1_48,2021-11-19T14:32:21.873Z,,,,,,,,,,,,,,,,54,,,,,,,,,,,,,,376.41700009537453,,response,,,100,,,,,,Space,keypress(Space),,,,,-- --- ---- --- ------ ----- ------- ---- -- --- ------- --<br>------- ---------- ------ -- ----- -- ----- -- ---- ------<br>--- ----- --- --- ------ -------- ----- --- ------ ----- --<br>----- ----- ---------- --- --- ------ ------ ---- -- ------<br>------- --- ------ ----- --- left ------- -- ---- --- --<br>------- ------,109679.09999990463,109678.40000009537,109285.318,109295.09999990463,109301.983,109685.298,,48,left
screen,html.Screen,0_2_1_1_49,2021-11-19T14:32:22.273Z,,,,,,,,,,,,,,,,54,,,,,,,,,,,,,,393.1020000953722,,response,,,100,,,,,,Space,keypress(Space),,,,,-- --- ---- --- ------ ----- ------- ---- -- --- ------- --<br>------- ---------- ------ -- ----- -- ----- -- ---- ------<br>--- ----- --- --- ------ -------- ----- --- ------ ----- --<br>----- ----- ---------- --- --- ------ ------ ---- -- ------<br>------- --- ------ ----- --- ---- without -- ---- --- --<br>------- ------,110079,110078.40000009537,109668.633,109679.29999995232,109685.298,110085.272,,49,without
screen,html.Screen,0_2_1_1_50,2021-11-19T14:32:22.641Z,,,,,,,,,,,,,,,,54,,,,,,,,,,,,,,361.32799990463536,,response,,,100,,,,,,Space,keypress(Space),,,,,-- --- ---- --- ------ ----- ------- ---- -- --- ------- --<br>------- ---------- ------ -- ----- -- ----- -- ---- ------<br>--- ----- --- --- ------ -------- ----- --- ------ ----- --<br>----- ----- ---------- --- --- ------ ------ ---- -- ------<br>------- --- ------ ----- --- ---- ------- an ---- --- --<br>------- ------,110447.20000004768,110446.59999990463,110068.607,110079.09999990463,110085.272,110451.927,,50,an
screen,html.Screen,0_2_1_1_51,2021-11-19T14:32:22.977Z,,,,,,,,,,,,,,,,54,,,,,,,,,,,,,,330.4730000953714,,response,,,100,,,,,,Space,keypress(Space),,,,,-- --- ---- --- ------ ----- ------- ---- -- --- ------- --<br>------- ---------- ------ -- ----- -- ----- -- ---- ------<br>--- ----- --- --- ------ -------- ----- --- ------ ----- --<br>----- ----- ---------- --- --- ------ ------ ---- -- ------<br>------- --- ------ ----- --- ---- ------- -- easy --- --<br>------- ------,110782.90000009537,110782.40000009537,110435.262,110447.29999995232,110451.927,110785.234,,51,easy
screen,html.Screen,0_2_1_1_52,2021-11-19T14:32:23.305Z,,,,,,,,,,,,,,,,54,,,,,,,,,,,,,,325.06599995231954,,response,,,100,,,,,,Space,keypress(Space),,,,,-- --- ---- --- ------ ----- ------- ---- -- --- ------- --<br>------- ---------- ------ -- ----- -- ----- -- ---- ------<br>--- ----- --- --- ------ -------- ----- --- ------ ----- --<br>----- ----- ---------- --- --- ------ ------ ---- -- ------<br>------- --- ------ ----- --- ---- ------- -- ---- way --<br>------- ------,111110.79999995232,111110.29999995232,110768.569,110783.09999990463,110785.234,111118.488,,52,way
screen,html.Screen,0_2_1_1_53,2021-11-19T14:32:23.641Z,,,,,,,,,,,,,,,,54,,,,,,,,,,,,,,327.9120000953699,,response,,,100,,,,,,Space,keypress(Space),,,,,-- --- ---- --- ------ ----- ------- ---- -- --- ------- --<br>------- ---------- ------ -- ----- -- ----- -- ---- ------<br>--- ----- --- --- ------ -------- ----- --- ------ ----- --<br>----- ----- ---------- --- --- ------ ------ ---- -- ------<br>------- --- ------ ----- --- ---- ------- -- ---- --- of<br>------- ------,111446.90000009537,111446.40000009537,111101.824,111111,111118.488,111451.877,,53,of
screen,html.Screen,0_2_1_1_54,2021-11-19T14:32:23.977Z,,,,,,,,,,,,,,,,54,,,,,,,,,,,,,,330.3230000476906,,response,,,100,,,,,,Space,keypress(Space),,,,,-- --- ---- --- ------ ----- ------- ---- -- --- ------- --<br>------- ---------- ------ -- ----- -- ----- -- ---- ------<br>--- ----- --- --- ------ -------- ----- --- ------ ----- --<br>----- ----- ---------- --- --- ------ ------ ---- -- ------<br>------- --- ------ ----- --- ---- ------- -- ---- --- --<br>raising ------,111782.79999995232,111782.20000004768,111435.211,111447.09999990463,111451.877,111785.226,,54,raising
screen,html.Screen,0_2_1_1_55,2021-11-19T14:32:24.553Z,,,,,,,,,,,,,,,,54,,,,,,,,,,,,,,572.9740000476886,,response,,,100,,,,,,Space,keypress(Space),,,,,-- --- ---- --- ------ ----- ------- ---- -- --- ------- --<br>------- ---------- ------ -- ----- -- ----- -- ---- ------<br>--- ----- --- --- ------ -------- ----- --- ------ ----- --<br>----- ----- ---------- --- --- ------ ------ ---- -- ------<br>------- --- ------ ----- --- ---- ------- -- ---- --- --<br>------- money.,112358.79999995232,112358.20000004768,111768.56,111783,111785.226,112368.389,,55,money.
Item 100,flow.Loop,0_2_1_1,2021-11-19T14:32:24.553Z,,,,,,,,,,,,,,,,,,,,,,,,,,,,,,23088.33500004768,,completion,,,,A,,,,,,,,,,silence,,112359.09999990463,112358.20000004768,89253.2,89254.79999995232,89269.865,112368.389,,,
Question 1,html.Screen,0_2_1_2,2021-11-19T14:32:27.176Z,,,,,,,,,,,,,,,,,,,,,,,,,,,true,TRUE,,2612.811000047688,,response,,,100,A,,,,,TRUE,click #choice-1,,,,silence,,114982,114981.20000004768,112351.725,112359.20000004768,112368.389,114984.949,,,
Question 2,html.Screen,0_2_1_3,2021-11-19T14:32:29.907Z,,,,,,,,,,,,,,,,,,,,,,,,,,,true,FALSE,,2727.7510000476905,,response,,,100,A,,,,,FALSE,click #choice-2,,,,silence,,117713.40000009537,117712.70000004768,114968.284,114982.20000004768,114984.949,117718.102,,,
Item 100,flow.Sequence,0_2_1,2021-11-19T14:32:29.907Z,,,,,,,,,,,,,,,,,,,,,,,,,,,,,,38442.26800004768,,completion,,,,,,,,,,,,,,,,117713.59999990463,117712.70000004768,79253.768,79259.70000004768,79270.432,117718.102,,,
End of Practice,html.Page,0_2_2,2021-11-19T14:32:34.119Z,,,,,,,,,,,,,,,,,,,,,,,,,,,,,,4203.898000000001,,form submission,,,,,,,,,,,,,,,,121922.40000009537,121922,117701.437,117713.70000004768,117718.102,121934.592,,,
Practice,flow.Sequence,0_2,2021-11-19T14:32:34.119Z,,,,,,,,,,,,,,,,,,,,,,,,,,,,,,91831.852,,completion,,,,,,,,,,,,,,,,121922.79999995232,121922,30073.483,30078.700000047684,30090.148,121934.592,,,
Trap_instruction,html.Page,0_3_0,2021-11-19T14:32:36.995Z,,,,,,,,,,,,,,,,,,,,,,,,,,,,,,2863.6080000476795,,form submission,,,,,,,,,,,,,,,,124798.59999990463,124798.20000004768,121917.926,121922.90000009537,121934.592,124817.592,,,
trap_trial,html.Screen,0_3_1,2021-11-19T14:32:40.456Z,,,,,,,,,,,,,,,,,,,,,,,,,,,true,1,,3441.407999999996,,response,,,,,,,,,1,click #choice-1,,,,,,128259.79999995232,128259,124784.262,124798.70000004768,124817.592,128267.385,,,
end of trap trial,html.Page,0_3_2,2021-11-19T14:32:42.145Z,,,,,,,,,,,,,,,,,,,,,,,,,,,,,,1680.815000047689,,form submission,,,,,,,,,,,,,,,,129948.5,129948.20000004768,128250.72,128260,128267.385,129950.706,,,
Trap 1,flow.Sequence,0_3,2021-11-19T14:32:42.145Z,,,,,,,,,,,,,,,,,,,,,,,,,,,,,,8013.6080000476795,,completion,,,,,,,,,,,,,,,,129948.70000004768,129948.20000004768,121917.926,121922.90000009537,121934.592,129950.706,,,
Standby,html.Page,0_4_0,2021-11-19T14:32:50.131Z,,,,,,,,,,,,,,,,,,,,,,,,,,,,,,7999.184000000008,,timeout,,,,,,,,,,,,,,,,137934,137933.225,129934.041,129949,129950.706,137949.89,,,
Holding screen,html.Screen,0_4_1_0_0,2021-11-19T14:32:57.130Z,,,,,,,,,,,,,,,,,,,,,,,,,,,,,,6999.876999999979,,timeout,,,,,,,,,,,,,,,,144933.79999995232,144933.102,137933.225,137934.20000004768,137949.89,144949.767,,,
screen,html.Screen,0_4_1_0_1_0,2021-11-19T14:32:58.546Z,,,,,,,,,,,,,,,,11,,,,,,,,,,,,,,1398.6330000953749,,response,,,4,A,,,,,Space,keypress(Space),,,,silence,Known -- ---- --- -- --- -------- ------------ ---------- --<br>- ------- ------ --------- -- ------------ -- --- ---- -----<br>------ ---- ---- ------ ------ ------- --- ----- ---------<br>---- --- -------- -------- --- --- -- ------- --- --- -----<br>-- --- ------ ------- --- --- -------- ---- --------- --<br>---------- -- -------- ----------------,146349.09999990463,146348.40000009537,144933.102,144934.09999990463,144949.767,146349.665,,0,Known
screen,html.Screen,0_4_1_0_1_1,2021-11-19T14:32:58.977Z,,,,,,,,,,,,,,,,11,,,,,,,,,,,,,,430.4349999046244,,response,,,4,A,,,,,Space,keypress(Space),,,,silence,----- as ---- --- -- --- -------- ------------ ---------- --<br>- ------- ------ --------- -- ------------ -- --- ---- -----<br>------ ---- ---- ------ ------ ------- --- ----- ---------<br>---- --- -------- -------- --- --- -- ------- --- --- -----<br>-- --- ------ ------- --- --- -------- ---- --------- --<br>---------- -- -------- ----------------,146780.70000004768,146780.09999990463,146333,146349.29999995232,146349.665,146783,,1,as
screen,html.Screen,0_4_1_0_1_2,2021-11-19T14:32:59.857Z,,,,,,,,,,,,,,,,11,,,,,,,,,,,,,,877.0999999046326,,response,,,4,A,,,,,Space,keypress(Space),,,,silence,----- -- Rapa --- -- --- -------- ------------ ---------- --<br>- ------- ------ --------- -- ------------ -- --- ---- -----<br>------ ---- ---- ------ ------ ------- --- ----- ---------<br>---- --- -------- -------- --- --- -- ------- --- --- -----<br>-- --- ------ ------- --- --- -------- ---- --------- --<br>---------- -- -------- ----------------,147660.70000004768,147660.09999990463,146766.335,146780.90000009537,146783,147666.275,,2,Rapa
screen,html.Screen,0_4_1_0_1_3,2021-11-19T14:33:00.425Z,,,,,,,,,,,,,,,,11,,,,,,,,,,,,,,561.8249999046384,,response,,,4,A,,,,,Space,keypress(Space),,,,silence,----- -- ---- Nui -- --- -------- ------------ ---------- --<br>- ------- ------ --------- -- ------------ -- --- ---- -----<br>------ ---- ---- ------ ------ ------- --- ----- ---------<br>---- --- -------- -------- --- --- -- ------- --- --- -----<br>-- --- ------ ------- --- --- -------- ---- --------- --<br>---------- -- -------- ----------------,148228.59999990463,148228.09999990463,147649.61,147660.79999995232,147666.275,148232.832,,3,Nui
screen,html.Screen,0_4_1_0_1_4,2021-11-19T14:33:00.825Z,,,,,,,,,,,,,,,,11,,,,,,,,,,,,,,395.1680000000051,,response,,,4,A,,,,,Space,keypress(Space),,,,silence,----- -- ---- --- to --- -------- ------------ ---------- --<br>- ------- ------ --------- -- ------------ -- --- ---- -----<br>------ ---- ---- ------ ------ ------- --- ----- ---------<br>---- --- -------- -------- --- --- -- ------- --- --- -----<br>-- --- ------ ------- --- --- -------- ---- --------- --<br>---------- -- -------- ----------------,148628.59999990463,148628,148216.168,148228.70000004768,148232.832,148632.91,,4,to
screen,html.Screen,0_4_1_0_1_5,2021-11-19T14:33:01.297Z,,,,,,,,,,,,,,,,11,,,,,,,,,,,,,,467.0899999999965,,response,,,4,A,,,,,Space,keypress(Space),,,,silence,----- -- ---- --- -- the -------- ------------ ---------- --<br>- ------- ------ --------- -- ------------ -- --- ---- -----<br>------ ---- ---- ------ ------ ------- --- ----- ---------<br>---- --- -------- -------- --- --- -- ------- --- --- -----<br>-- --- ------ ------- --- --- -------- ---- --------- --<br>---------- -- -------- ----------------,149100.59999990463,149100,148616.245,148628.79999995232,148632.91,149116.113,,5,the
screen,html.Screen,0_4_1_0_1_6,2021-11-19T14:33:01.737Z,,,,,,,,,,,,,,,,11,,,,,,,,,,,,,,423.8869999999879,,response,,,4,A,,,,,Space,keypress(Space),,,,silence,----- -- ---- --- -- --- island's ------------ ---------- --<br>- ------- ------ --------- -- ------------ -- --- ---- -----<br>------ ---- ---- ------ ------ ------- --- ----- ---------<br>---- --- -------- -------- --- --- -- ------- --- --- -----<br>-- --- ------ ------- --- --- -------- ---- --------- --<br>---------- -- -------- ----------------,149540.5,149540,149099.449,149100.70000004768,149116.113,149549.539,,6,island's
screen,html.Screen,0_4_1_0_1_7,2021-11-19T14:33:02.385Z,,,,,,,,,,,,,,,,11,,,,,,,,,,,,,,638.3610000953777,,response,,,4,A,,,,,Space,keypress(Space),,,,silence,"----- -- ---- --- -- --- -------- inhabitants, ---------- --<br>- ------- ------ --------- -- ------------ -- --- ---- -----<br>------ ---- ---- ------ ------ ------- --- ----- ---------<br>---- --- -------- -------- --- --- -- ------- --- --- -----<br>-- --- ------ ------- --- --- -------- ---- --------- --<br>---------- -- -------- ----------------",150188.5,150187.90000009537,149532.873,149540.70000004768,149549.539,150199.518,,7,"inhabitants,"
screen,html.Screen,0_4_1_0_1_8,2021-11-19T14:33:03.513Z,,,,,,,,,,,,,,,,11,,,,,,,,,,,,,,1116.3820000953565,,response,,,4,A,,,,,Space,keypress(Space),,,,silence,----- -- ---- --- -- --- -------- ------------ Rongorongo --<br>- ------- ------ --------- -- ------------ -- --- ---- -----<br>------ ---- ---- ------ ------ ------- --- ----- ---------<br>---- --- -------- -------- --- --- -- ------- --- --- -----<br>-- --- ------ ------- --- --- -------- ---- --------- --<br>---------- -- -------- ----------------,151316.59999990463,151315.90000009537,150182.852,150188.70000004768,150199.518,151332.598,,8,Rongorongo
screen,html.Screen,0_4_1_0_1_9,2021-11-19T14:33:03.889Z,,,,,,,,,,,,,,,,11,,,,,,,,,,,,,,359.20199995231815,,response,,,4,A,,,,,Space,keypress(Space),,,,silence,----- -- ---- --- -- --- -------- ------------ ---------- is<br>- ------- ------ --------- -- ------------ -- --- ---- -----<br>------ ---- ---- ------ ------ ------- --- ----- ---------<br>---- --- -------- -------- --- --- -- ------- --- --- -----<br>-- --- ------ ------- --- --- -------- ---- --------- --<br>---------- -- -------- ----------------,151692.29999995232,151691.79999995232,151315.934,151316.70000004768,151332.598,151699.416,,9,is
screen,html.Screen,0_4_1_0_1_10,2021-11-19T14:33:04.337Z,,,,,,,,,,,,,,,,11,,,,,,,,,,,,,,440.38399995231885,,response,,,4,A,,,,,Space,keypress(Space),,,,silence,----- -- ---- --- -- --- -------- ------------ ---------- --<br>a ------- ------ --------- -- ------------ -- --- ---- -----<br>------ ---- ---- ------ ------ ------- --- ----- ---------<br>---- --- -------- -------- --- --- -- ------- --- --- -----<br>-- --- ------ ------- --- --- -------- ---- --------- --<br>---------- -- -------- ----------------,152140.40000009537,152139.79999995232,151682.75,151692.59999990463,151699.416,152149.364,,10,a
screen,html.Screen,0_4_1_0_1_11,2021-11-19T14:33:04.849Z,,,,,,,,,,,,,,,,11,,,,,,,,,,,,,,502.4359999523149,,response,,,4,A,,,,,Space,keypress(Space),,,,silence,----- -- ---- --- -- --- -------- ------------ ---------- --<br>- writing ------ --------- -- ------------ -- --- ---- -----<br>------ ---- ---- ------ ------ ------- --- ----- ---------<br>---- --- -------- -------- --- --- -- ------- --- --- -----<br>-- --- ------ ------- --- --- -------- ---- --------- --<br>---------- -- -------- ----------------,152652.40000009537,152651.79999995232,152132.699,152140.59999990463,152149.364,152665.913,,11,writing
screen,html.Screen,0_4_1_0_1_12,2021-11-19T14:33:05.377Z,,,,,,,,,,,,,,,,11,,,,,,,,,,,,,,513.7870000476833,,response,,,4,A,,,,,Space,keypress(Space),,,,silence,----- -- ---- --- -- --- -------- ------------ ---------- --<br>- ------- system --------- -- ------------ -- --- ---- -----<br>------ ---- ---- ------ ------ ------- --- ----- ---------<br>---- --- -------- -------- --- --- -- ------- --- --- -----<br>-- --- ------ ------- --- --- -------- ---- --------- --<br>---------- -- -------- ----------------,153180.29999995232,153179.70000004768,152649.249,152652.5,152665.913,153182.666,,12,system
screen,html.Screen,0_4_1_0_1_13,2021-11-19T14:33:05.881Z,,,,,,,,,,,,,,,,11,,,,,,,,,,,,,,501.0340000476863,,response,,,4,A,,,,,Space,keypress(Space),,,,silence,----- -- ---- --- -- --- -------- ------------ ---------- --<br>- ------- ------ comprised -- ------------ -- --- ---- -----<br>------ ---- ---- ------ ------ ------- --- ----- ---------<br>---- --- -------- -------- --- --- -- ------- --- --- -----<br>-- --- ------ ------- --- --- -------- ---- --------- --<br>---------- -- -------- ----------------,153684.29999995232,153683.70000004768,153166,153180.40000009537,153182.666,153699.226,,13,comprised
screen,html.Screen,0_4_1_0_1_14,2021-11-19T14:33:06.249Z,,,,,,,,,,,,,,,,11,,,,,,,,,,,,,,352.4740000476886,,response,,,4,A,,,,,Space,keypress(Space),,,,silence,----- -- ---- --- -- --- -------- ------------ ---------- --<br>- ------- ------ --------- of ------------ -- --- ---- -----<br>------ ---- ---- ------ ------ ------- --- ----- ---------<br>---- --- -------- -------- --- --- -- ------- --- --- -----<br>-- --- ------ ------- --- --- -------- ---- --------- --<br>---------- -- -------- ----------------,154052.29999995232,154051.70000004768,153682.561,153684.5,153699.226,154065.885,,14,of
screen,html.Screen,0_4_1_0_1_15,2021-11-19T14:33:07.321Z,,,,,,,,,,,,,,,,11,,,,,,,,,,,,,,1057.8150000476744,,response,,,4,A,,,,,Space,keypress(Space),,,,silence,----- -- ---- --- -- --- -------- ------------ ---------- --<br>- ------- ------ --------- -- pictographs. -- --- ---- -----<br>------ ---- ---- ------ ------ ------- --- ----- ---------<br>---- --- -------- -------- --- --- -- ------- --- --- -----<br>-- --- ------ ------- --- --- -------- ---- --------- --<br>---------- -- -------- ----------------,155124.20000004768,155123.70000004768,154049.22,154052.40000009537,154065.885,155132.555,,15,pictographs.
screen,html.Screen,0_4_1_0_1_16,2021-11-19T14:33:07.737Z,,,,,,,,,,,,,,,,11,,,,,,,,,,,,,,407.04499990463955,,response,,,4,A,,,,,Space,keypress(Space),,,,silence,----- -- ---- --- -- --- -------- ------------ ---------- --<br>- ------- ------ --------- -- ------------ It --- ---- -----<br>------ ---- ---- ------ ------ ------- --- ----- ---------<br>---- --- -------- -------- --- --- -- ------- --- --- -----<br>-- --- ------ ------- --- --- -------- ---- --------- --<br>---------- -- -------- ----------------,155540.20000004768,155539.59999990463,155115.889,155124.40000009537,155132.555,155549.108,,16,It
screen,html.Screen,0_4_1_0_1_17,2021-11-19T14:33:08.089Z,,,,,,,,,,,,,,,,11,,,,,,,,,,,,,,342.4919999046251,,response,,,4,A,,,,,Space,keypress(Space),,,,silence,----- -- ---- --- -- --- -------- ------------ ---------- --<br>- ------- ------ --------- -- ------------ -- has ---- -----<br>------ ---- ---- ------ ------ ------- --- ----- ---------<br>---- --- -------- -------- --- --- -- ------- --- --- -----<br>-- --- ------ ------- --- --- -------- ---- --------- --<br>---------- -- -------- ----------------,155892.20000004768,155891.59999990463,155532.443,155540.40000009537,155549.108,155899.137,,17,has
screen,html.Screen,0_4_1_0_1_18,2021-11-19T14:33:08.473Z,,,,,,,,,,,,,,,,11,,,,,,,,,,,,,,376.4629999046447,,response,,,4,A,,,,,Space,keypress(Space),,,,silence,----- -- ---- --- -- --- -------- ------------ ---------- --<br>- ------- ------ --------- -- ------------ -- --- been -----<br>------ ---- ---- ------ ------ ------- --- ----- ---------<br>---- --- -------- -------- --- --- -- ------- --- --- -----<br>-- --- ------ ------- --- --- -------- ---- --------- --<br>---------- -- -------- ----------------,156276.09999990463,156275.59999990463,155882.472,155892.29999995232,155899.137,156282.44,,18,been
screen,html.Screen,0_4_1_0_1_19,2021-11-19T14:33:08.817Z,,,,,,,,,,,,,,,,11,,,,,,,,,,,,,,337.2600000476814,,response,,,4,A,,,,,Space,keypress(Space),,,,silence,----- -- ---- --- -- --- -------- ------------ ---------- --<br>- ------- ------ --------- -- ------------ -- --- ---- found<br>------ ---- ---- ------ ------ ------- --- ----- ---------<br>---- --- -------- -------- --- --- -- ------- --- --- -----<br>-- --- ------ ------- --- --- -------- ---- --------- --<br>---------- -- -------- ----------------,156620.29999995232,156619.70000004768,156265.775,156276.29999995232,156282.44,156632.418,,19,found
screen,html.Screen,0_4_1_0_1_20,2021-11-19T14:33:09.193Z,,,,,,,,,,,,,,,,11,,,,,,,,,,,,,,363.0819999999949,,response,,,4,A,,,,,Space,keypress(Space),,,,silence,----- -- ---- --- -- --- -------- ------------ ---------- --<br>- ------- ------ --------- -- ------------ -- --- ---- -----<br>carved ---- ---- ------ ------ ------- --- ----- ---------<br>---- --- -------- -------- --- --- -- ------- --- --- -----<br>-- --- ------ ------- --- --- -------- ---- --------- --<br>---------- -- -------- ----------------,156996,156995.5,156615.753,156620.5,156632.418,156999.069,,20,carved
screen,html.Screen,0_4_1_0_1_21,2021-11-19T14:33:09.593Z,,,,,,,,,,,,,,,,11,,,,,,,,,,,,,,396.33100009537884,,response,,,4,A,,,,,Space,keypress(Space),,,,silence,----- -- ---- --- -- --- -------- ------------ ---------- --<br>- ------- ------ --------- -- ------------ -- --- ---- -----<br>------ into ---- ------ ------ ------- --- ----- ---------<br>---- --- -------- -------- --- --- -- ------- --- --- -----<br>-- --- ------ ------- --- --- -------- ---- --------- --<br>---------- -- -------- ----------------,157396,157395.40000009537,156982.404,156996.20000004768,156999.069,157399.036,,21,into
screen,html.Screen,0_4_1_0_1_22,2021-11-19T14:33:10.033Z,,,,,,,,,,,,,,,,11,,,,,,,,,,,,,,436.4640000000072,,response,,,4,A,,,,,Space,keypress(Space),,,,silence,----- -- ---- --- -- --- -------- ------------ ---------- --<br>- ------- ------ --------- -- ------------ -- --- ---- -----<br>------ ---- many ------ ------ ------- --- ----- ---------<br>---- --- -------- -------- --- --- -- ------- --- --- -----<br>-- --- ------ ------- --- --- -------- ---- --------- --<br>---------- -- -------- ----------------,157836,157835.5,157382.371,157396.20000004768,157399.036,157848.988,,22,many
screen,html.Screen,0_4_1_0_1_23,2021-11-19T14:33:10.609Z,,,,,,,,,,,,,,,,11,,,,,,,,,,,,,,562.4120000953553,,response,,,4,A,,,,,Space,keypress(Space),,,,silence,----- -- ---- --- -- --- -------- ------------ ---------- --<br>- ------- ------ --------- -- ------------ -- --- ---- -----<br>------ ---- ---- oblong ------ ------- --- ----- ---------<br>---- --- -------- -------- --- --- -- ------- --- --- -----<br>-- --- ------ ------- --- --- -------- ---- --------- --<br>---------- -- -------- ----------------,158412,158411.40000009537,157832.323,157836.20000004768,157848.988,158415.559,,23,oblong
screen,html.Screen,0_4_1_0_1_24,2021-11-19T14:33:11.017Z,,,,,,,,,,,,,,,,11,,,,,,,,,,,,,,403.84100009535905,,response,,,4,A,,,,,Space,keypress(Space),,,,silence,----- -- ---- --- -- --- -------- ------------ ---------- --<br>- ------- ------ --------- -- ------------ -- --- ---- -----<br>------ ---- ---- ------ wooden ------- --- ----- ---------<br>---- --- -------- -------- --- --- -- ------- --- --- -----<br>-- --- ------ ------- --- --- -------- ---- --------- --<br>---------- -- -------- ----------------,158820,158819.40000009537,158398.895,158412.09999990463,158415.559,158832.253,,24,wooden
screen,html.Screen,0_4_1_0_1_25,2021-11-19T14:33:11.377Z,,,,,,,,,,,,,,,,11,,,,,,,,,,,,,,347.14700009537046,,response,,,4,A,,,,,Space,keypress(Space),,,,silence,----- -- ---- --- -- --- -------- ------------ ---------- --<br>- ------- ------ --------- -- ------------ -- --- ---- -----<br>------ ---- ---- ------ ------ tablets --- ----- ---------<br>---- --- -------- -------- --- --- -- ------- --- --- -----<br>-- --- ------ ------- --- --- -------- ---- --------- --<br>---------- -- -------- ----------------,159179.90000009537,159179.40000009537,158815.588,158820.09999990463,158832.253,159182.311,,25,tablets
screen,html.Screen,0_4_1_0_1_26,2021-11-19T14:33:11.721Z,,,,,,,,,,,,,,,,11,,,,,,,,,,,,,,340.9889999523293,,response,,,4,A,,,,,Space,keypress(Space),,,,silence,----- -- ---- --- -- --- -------- ------------ ---------- --<br>- ------- ------ --------- -- ------------ -- --- ---- -----<br>------ ---- ---- ------ ------ ------- and ----- ---------<br>---- --- -------- -------- --- --- -- ------- --- --- -----<br>-- --- ------ ------- --- --- -------- ---- --------- --<br>---------- -- -------- ----------------,159523.90000009537,159523.29999995232,159165.645,159180.09999990463,159182.311,159532.242,,26,and
screen,html.Screen,0_4_1_0_1_27,2021-11-19T14:33:12.089Z,,,,,,,,,,,,,,,,11,,,,,,,,,,,,,,359.0579999523179,,response,,,4,A,,,,,Space,keypress(Space),,,,silence,----- -- ---- --- -- --- -------- ------------ ---------- --<br>- ------- ------ --------- -- ------------ -- --- ---- -----<br>------ ---- ---- ------ ------ ------- --- other ---------<br>---- --- -------- -------- --- --- -- ------- --- --- -----<br>-- --- ------ ------- --- --- -------- ---- --------- --<br>---------- -- -------- ----------------,159891.79999995232,159891.29999995232,159515.577,159524.09999990463,159532.242,159898.894,,27,other
screen,html.Screen,0_4_1_0_1_28,2021-11-19T14:33:12.457Z,,,,,,,,,,,,,,,,11,,,,,,,,,,,,,,360.3060000476835,,response,,,4,A,,,,,Space,keypress(Space),,,,silence,----- -- ---- --- -- --- -------- ------------ ---------- --<br>- ------- ------ --------- -- ------------ -- --- ---- -----<br>------ ---- ---- ------ ------ ------- --- ----- artifacts<br>---- --- -------- -------- --- --- -- ------- --- --- -----<br>-- --- ------ ------- --- --- -------- ---- --------- --<br>---------- -- -------- ----------------,160259.90000009537,160259.20000004768,159882.229,159892.09999990463,159898.894,160265.529,,28,artifacts
screen,html.Screen,0_4_1_0_1_29,2021-11-19T14:33:12.833Z,,,,,,,,,,,,,,,,11,,,,,,,,,,,,,,369.77099995230674,,response,,,4,A,,,,,Space,keypress(Space),,,,silence,----- -- ---- --- -- --- -------- ------------ ---------- --<br>- ------- ------ --------- -- ------------ -- --- ---- -----<br>------ ---- ---- ------ ------ ------- --- ----- ---------<br>from --- -------- -------- --- --- -- ------- --- --- -----<br>-- --- ------ ------- --- --- -------- ---- --------- --<br>---------- -- -------- ----------------,160635.90000009537,160635.29999995232,160248.864,160260,160265.529,160648.784,,29,from
screen,html.Screen,0_4_1_0_1_30,2021-11-19T14:33:13.144Z,,,,,,,,,,,,,,,,11,,,,,,,,,,,,,,298.5159999523021,,response,,,4,A,,,,,Space,keypress(Space),,,,silence,----- -- ---- --- -- --- -------- ------------ ---------- --<br>- ------- ------ --------- -- ------------ -- --- ---- -----<br>------ ---- ---- ------ ------ ------- --- ----- ---------<br>---- the -------- -------- --- --- -- ------- --- --- -----<br>-- --- ------ ------- --- --- -------- ---- --------- --<br>---------- -- -------- ----------------,160947.79999995232,160947.29999995232,160632.12,160636,160648.784,160948.848,,30,the
screen,html.Screen,0_4_1_0_1_31,2021-11-19T14:33:13.537Z,,,,,,,,,,,,,,,,11,,,,,,,,,,,,,,390.3520000476856,,response,,,4,A,,,,,Space,keypress(Space),,,,silence,----- -- ---- --- -- --- -------- ------------ ---------- --<br>- ------- ------ --------- -- ------------ -- --- ---- -----<br>------ ---- ---- ------ ------ ------- --- ----- ---------<br>---- --- island's -------- --- --- -- ------- --- --- -----<br>-- --- ------ ------- --- --- -------- ---- --------- --<br>---------- -- -------- ----------------,161339.90000009537,161339.20000004768,160932.182,160948,160948.848,161348.833,,31,island's
screen,html.Screen,0_4_1_0_1_32,2021-11-19T14:33:13.936Z,,,,,,,,,,,,,,,,11,,,,,,,,,,,,,,390.36700004767044,,response,,,4,A,,,,,Space,keypress(Space),,,,silence,----- -- ---- --- -- --- -------- ------------ ---------- --<br>- ------- ------ --------- -- ------------ -- --- ---- -----<br>------ ---- ---- ------ ------ ------- --- ----- ---------<br>---- --- -------- history. --- --- -- ------- --- --- -----<br>-- --- ------ ------- --- --- -------- ---- --------- --<br>---------- -- -------- ----------------,161739.70000004768,161739.20000004768,161332.167,161340,161348.833,161748.785,,32,history.
screen,html.Screen,0_4_1_0_1_33,2021-11-19T14:33:14.328Z,,,,,,,,,,,,,,,,11,,,,,,,,,,,,,,382.4150000476802,,response,,,4,A,,,,,Space,keypress(Space),,,,silence,----- -- ---- --- -- --- -------- ------------ ---------- --<br>- ------- ------ --------- -- ------------ -- --- ---- -----<br>------ ---- ---- ------ ------ ------- --- ----- ---------<br>---- --- -------- -------- The --- -- ------- --- --- -----<br>-- --- ------ ------- --- --- -------- ---- --------- --<br>---------- -- -------- ----------------,162131.79999995232,162131.20000004768,161732.12,161739.90000009537,161748.785,162148.751,,33,The
screen,html.Screen,0_4_1_0_1_34,2021-11-19T14:33:14.696Z,,,,,,,,,,,,,,,,11,,,,,,,,,,,,,,350.3489999046433,,response,,,4,A,,,,,Space,keypress(Space),,,,silence,----- -- ---- --- -- --- -------- ------------ ---------- --<br>- ------- ------ --------- -- ------------ -- --- ---- -----<br>------ ---- ---- ------ ------ ------- --- ----- ---------<br>---- --- -------- -------- --- art -- ------- --- --- -----<br>-- --- ------ ------- --- --- -------- ---- --------- --<br>---------- -- -------- ----------------,162499.79999995232,162499.09999990463,162132.086,162132,162148.751,162515.397,,34,art
screen,html.Screen,0_4_1_0_1_35,2021-11-19T14:33:15.040Z,,,,,,,,,,,,,,,,11,,,,,,,,,,,,,,327.70299990463536,,response,,,4,A,,,,,Space,keypress(Space),,,,silence,----- -- ---- --- -- --- -------- ------------ ---------- --<br>- ------- ------ --------- -- ------------ -- --- ---- -----<br>------ ---- ---- ------ ------ ------- --- ----- ---------<br>---- --- -------- -------- --- --- of ------- --- --- -----<br>-- --- ------ ------- --- --- -------- ---- --------- --<br>---------- -- -------- ----------------,162843.70000004768,162843.09999990463,162498.732,162499.90000009537,162515.397,162848.647,,35,of
screen,html.Screen,0_4_1_0_1_36,2021-11-19T14:33:15.576Z,,,,,,,,,,,,,,,,11,,,,,,,,,,,,,,530.4529999046354,,response,,,4,A,,,,,Space,keypress(Space),,,,silence,----- -- ---- --- -- --- -------- ------------ ---------- --<br>- ------- ------ --------- -- ------------ -- --- ---- -----<br>------ ---- ---- ------ ------ ------- --- ----- ---------<br>---- --- -------- -------- --- --- -- writing --- --- -----<br>-- --- ------ ------- --- --- -------- ---- --------- --<br>---------- -- -------- ----------------,163379.70000004768,163379.09999990463,162831.983,162843.79999995232,162848.647,163382.038,,36,writing
screen,html.Screen,0_4_1_0_1_37,2021-11-19T14:33:15.888Z,,,,,,,,,,,,,,,,11,,,,,,,,,,,,,,308.96199999999953,,response,,,4,A,,,,,Space,keypress(Space),,,,silence,----- -- ---- --- -- --- -------- ------------ ---------- --<br>- ------- ------ --------- -- ------------ -- --- ---- -----<br>------ ---- ---- ------ ------ ------- --- ----- ---------<br>---- --- -------- -------- --- --- -- ------- was --- -----<br>-- --- ------ ------- --- --- -------- ---- --------- --<br>---------- -- -------- ----------------,163691.59999990463,163691,163365.372,163379.90000009537,163382.038,163698.646,,37,was
screen,html.Screen,0_4_1_0_1_38,2021-11-19T14:33:16.200Z,,,,,,,,,,,,,,,,11,,,,,,,,,,,,,,304.45399990462465,,response,,,4,A,,,,,Space,keypress(Space),,,,silence,----- -- ---- --- -- --- -------- ------------ ---------- --<br>- ------- ------ --------- -- ------------ -- --- ---- -----<br>------ ---- ---- ------ ------ ------- --- ----- ---------<br>---- --- -------- -------- --- --- -- ------- --- not -----<br>-- --- ------ ------- --- --- -------- ---- --------- --<br>---------- -- -------- ----------------,164003.59999990463,164003.09999990463,163681.981,163691.79999995232,163698.646,164015.246,,38,not
screen,html.Screen,0_4_1_0_1_39,2021-11-19T14:33:16.560Z,,,,,,,,,,,,,,,,11,,,,,,,,,,,,,,347.75399999998626,,response,,,4,A,,,,,Space,keypress(Space),,,,silence,----- -- ---- --- -- --- -------- ------------ ---------- --<br>- ------- ------ --------- -- ------------ -- --- ---- -----<br>------ ---- ---- ------ ------ ------- --- ----- ---------<br>---- --- -------- -------- --- --- -- ------- --- --- known<br>-- --- ------ ------- --- --- -------- ---- --------- --<br>---------- -- -------- ----------------,164363.59999990463,164363,163998.582,164003.79999995232,164015.246,164365.316,,39,known
screen,html.Screen,0_4_1_0_1_40,2021-11-19T14:33:16.928Z,,,,,,,,,,,,,,,,11,,,,,,,,,,,,,,365.5840000953758,,response,,,4,A,,,,,Space,keypress(Space),,,,silence,----- -- ---- --- -- --- -------- ------------ ---------- --<br>- ------- ------ --------- -- ------------ -- --- ---- -----<br>------ ---- ---- ------ ------ ------- --- ----- ---------<br>---- --- -------- -------- --- --- -- ------- --- --- -----<br>in --- ------ ------- --- --- -------- ---- --------- --<br>---------- -- -------- ----------------,164731.59999990463,164730.90000009537,164348.65,164363.70000004768,164365.316,164748.581,,40,in
screen,html.Screen,0_4_1_0_1_41,2021-11-19T14:33:17.336Z,,,,,,,,,,,,,,,,11,,,,,,,,,,,,,,390.4189999999944,,response,,,4,A,,,,,Space,keypress(Space),,,,silence,----- -- ---- --- -- --- -------- ------------ ---------- --<br>- ------- ------ --------- -- ------------ -- --- ---- -----<br>------ ---- ---- ------ ------ ------- --- ----- ---------<br>---- --- -------- -------- --- --- -- ------- --- --- -----<br>-- any ------ ------- --- --- -------- ---- --------- --<br>---------- -- -------- ----------------,165139.59999990463,165139,164731.916,164731.70000004768,164748.581,165148.565,,41,any
screen,html.Screen,0_4_1_0_1_42,2021-11-19T14:33:17.680Z,,,,,,,,,,,,,,,,11,,,,,,,,,,,,,,334.4349999999977,,response,,,4,A,,,,,Space,keypress(Space),,,,silence,----- -- ---- --- -- --- -------- ------------ ---------- --<br>- ------- ------ --------- -- ------------ -- --- ---- -----<br>------ ---- ---- ------ ------ ------- --- ----- ---------<br>---- --- -------- -------- --- --- -- ------- --- --- -----<br>-- --- nearby ------- --- --- -------- ---- --------- --<br>---------- -- -------- ----------------,165483.5,165483,165131.9,165139.70000004768,165148.565,165498.551,,42,nearby
screen,html.Screen,0_4_1_0_1_43,2021-11-19T14:33:18.120Z,,,,,,,,,,,,,,,,11,,,,,,,,,,,,,,424.3490000953607,,response,,,4,A,,,,,Space,keypress(Space),,,,silence,----- -- ---- --- -- --- -------- ------------ ---------- --<br>- ------- ------ --------- -- ------------ -- --- ---- -----<br>------ ---- ---- ------ ------ ------- --- ----- ---------<br>---- --- -------- -------- --- --- -- ------- --- --- -----<br>-- --- ------ islands --- --- -------- ---- --------- --<br>---------- -- -------- ----------------,165923.5,165922.90000009537,165481.886,165483.70000004768,165498.551,165931.78,,43,islands
screen,html.Screen,0_4_1_0_1_44,2021-11-19T14:33:18.528Z,,,,,,,,,,,,,,,,11,,,,,,,,,,,,,,399.1200000953686,,response,,,4,A,,,,,Space,keypress(Space),,,,silence,----- -- ---- --- -- --- -------- ------------ ---------- --<br>- ------- ------ --------- -- ------------ -- --- ---- -----<br>------ ---- ---- ------ ------ ------- --- ----- ---------<br>---- --- -------- -------- --- --- -- ------- --- --- -----<br>-- --- ------ ------- and --- -------- ---- --------- --<br>---------- -- -------- ----------------,166331.59999990463,166330.90000009537,165915.116,165923.70000004768,165931.78,166348.556,,44,and
screen,html.Screen,0_4_1_0_1_45,2021-11-19T14:33:18.880Z,,,,,,,,,,,,,,,,11,,,,,,,,,,,,,,334.54399990462116,,response,,,4,A,,,,,Space,keypress(Space),,,,silence,----- -- ---- --- -- --- -------- ------------ ---------- --<br>- ------- ------ --------- -- ------------ -- --- ---- -----<br>------ ---- ---- ------ ------ ------- --- ----- ---------<br>---- --- -------- -------- --- --- -- ------- --- --- -----<br>-- --- ------ ------- --- the -------- ---- --------- --<br>---------- -- -------- ----------------,166683.70000004768,166683.09999990463,166331.89,166331.70000004768,166348.556,166698.458,,45,the
screen,html.Screen,0_4_1_0_1_46,2021-11-19T14:33:19.280Z,,,,,,,,,,,,,,,,11,,,,,,,,,,,,,,384.44200009535416,,response,,,4,A,,,,,Space,keypress(Space),,,,silence,----- -- ---- --- -- --- -------- ------------ ---------- --<br>- ------- ------ --------- -- ------------ -- --- ---- -----<br>------ ---- ---- ------ ------ ------- --- ----- ---------<br>---- --- -------- -------- --- --- -- ------- --- --- -----<br>-- --- ------ ------- --- --- script's ---- --------- --<br>---------- -- -------- ----------------,167083.40000009537,167082.90000009537,166681.793,166683.79999995232,166698.458,167098.441,,46,script's
screen,html.Screen,0_4_1_0_1_47,2021-11-19T14:33:19.640Z,,,,,,,,,,,,,,,,11,,,,,,,,,,,,,,344.4590000953758,,response,,,4,A,,,,,Space,keypress(Space),,,,silence,----- -- ---- --- -- --- -------- ------------ ---------- --<br>- ------- ------ --------- -- ------------ -- --- ---- -----<br>------ ---- ---- ------ ------ ------- --- ----- ---------<br>---- --- -------- -------- --- --- -- ------- --- --- -----<br>-- --- ------ ------- --- --- -------- mere --------- --<br>---------- -- -------- ----------------,167443.5,167442.90000009537,167081.776,167083.59999990463,167098.441,167448.356,,47,mere
screen,html.Screen,0_4_1_0_1_48,2021-11-19T14:33:20.040Z,,,,,,,,,,,,,,,,11,,,,,,,,,,,,,,394.4439999523165,,response,,,4,A,,,,,Space,keypress(Space),,,,silence,----- -- ---- --- -- --- -------- ------------ ---------- --<br>- ------- ------ --------- -- ------------ -- --- ---- -----<br>------ ---- ---- ------ ------ ------- --- ----- ---------<br>---- --- -------- -------- --- --- -- ------- --- --- -----<br>-- --- ------ ------- --- --- -------- ---- existence --<br>---------- -- -------- ----------------,167843.40000009537,167842.79999995232,167431.692,167443.70000004768,167448.356,167848.38,,48,existence
screen,html.Screen,0_4_1_0_1_49,2021-11-19T14:33:20.432Z,,,,,,,,,,,,,,,,11,,,,,,,,,,,,,,386.32000004767906,,response,,,4,A,,,,,Space,keypress(Space),,,,silence,----- -- ---- --- -- --- -------- ------------ ---------- --<br>- ------- ------ --------- -- ------------ -- --- ---- -----<br>------ ---- ---- ------ ------ ------- --- ----- ---------<br>---- --- -------- -------- --- --- -- ------- --- --- -----<br>-- --- ------ ------- --- --- -------- ---- --------- is<br>---------- -- -------- ----------------,168235.29999995232,168234.70000004768,167831.715,167843.59999990463,167848.38,168248.348,,49,is
screen,html.Screen,0_4_1_0_1_50,2021-11-19T14:33:20.944Z,,,,,,,,,,,,,,,,11,,,,,,,,,,,,,,498.45199995231815,,response,,,4,A,,,,,Space,keypress(Space),,,,silence,----- -- ---- --- -- --- -------- ------------ ---------- --<br>- ------- ------ --------- -- ------------ -- --- ---- -----<br>------ ---- ---- ------ ------ ------- --- ----- ---------<br>---- --- -------- -------- --- --- -- ------- --- --- -----<br>-- --- ------ ------- --- --- -------- ---- --------- --<br>sufficient -- -------- ----------------,168747.40000009537,168746.79999995232,168231.683,168235.5,168248.348,168748.314,,50,sufficient
screen,html.Screen,0_4_1_0_1_51,2021-11-19T14:33:21.248Z,,,,,,,,,,,,,,,,11,,,,,,,,,,,,,,302.3860000476707,,response,,,4,A,,,,,Space,keypress(Space),,,,silence,----- -- ---- --- -- --- -------- ------------ ---------- --<br>- ------- ------ --------- -- ------------ -- --- ---- -----<br>------ ---- ---- ------ ------ ------- --- ----- ---------<br>---- --- -------- -------- --- --- -- ------- --- --- -----<br>-- --- ------ ------- --- --- -------- ---- --------- --<br>---------- to -------- ----------------,169051.29999995232,169050.70000004768,168731.649,168747.5,168748.314,169065.03,,51,to
