sender,sender_type,sender_id,timestamp,meta,,Blues,Classical,Country,Dance,Electronic,Folk,Gospel,Hip-Hop,Jazz,Latin,Musical/Film,New-age,Pop,Provo_ID,R&B,Rap,Reggae,Religious,Rock,Soul,Swing,Traditional,age,artist_name,correct,correctResponse,distraction,duration,education,ended_on,familiarity,gender,item,list,music_frequency,offensiveness,pleasantness,preference,response,response_action,snippet_file,song_name,song_rating,sound,text,time_commit,time_end,time_render,time_run,time_show,time_switch,url,word,word_ID
Instructions,html.Page,0_0,2021-11-25T16:46:26.696Z,"{""labjs_version"":""20.2.3"",""labjs_build"":{""flavor"":""production"",""commit"":""7ea907d66ca8aeef8054924ca5d82ffbe11e34e5""},""location"":""https://run.pavlovia.org/mvasilev/lab_music_d/"",""userAgent"":""Mozilla/5.0 (Windows NT 6.1; Win64; x64) AppleWebKit/537.36 (KHTML, like Gecko) Chrome/96.0.4664.45 Safari/537.36"",""platform"":""Win32"",""language"":""en-US"",""locale"":""en-US"",""timeZone"":""Europe/London"",""timezoneOffset"":0,""screen_width"":1920,""screen_height"":1080,""scroll_width"":1904,""scroll_height"":900,""window_innerWidth"":1904,""window_innerHeight"":948,""devicePixelRatio"":1}",,,,,,,,,,,,,,,,,,,,,,,,,,,,,6609.732000017882,,form submission,,,,,,,,,,,,,,,,14457.40000000596,14456.200000017881,7829.798,7832.700000017881,7846.468,14459.029,{},,
Headphones,html.Page,0_1,2021-11-25T16:46:28.186Z,,,,,,,,,,,,,,,,,,,,,,,,,,,,,,1487.37100000596,,form submission,,,,,,,,,,,,,,,,15946.90000000596,15946.40000000596,14442.407,14458.200000017881,14459.029,15948.366,,,
Holding screen,html.Screen,0_2_0_0,2021-11-25T16:46:38.179Z,,,,,,,,,,,,,,,,,,,,,,,,,,,,,,10002.871000000001,,timeout,,,,,,,,,,,,,,,,25940.30000001192,25934.567,15931.701,15947.40000000596,15948.366,25951.237,,,
screen,html.Screen,0_2_0_1_0,2021-11-25T16:46:39.441Z,,,,,,,,,,,,,,,,53,,,,,,,,,,,,,,1249.8630000238409,,response,,,99,,,,,,Space,keypress(Space),,,,,When -- ----- -- ------ - ------- --- ----------<br>------------- ------ ------ ---- ---- ------- ----- -- ----<br>-------- ------- -- ---------- --- - --- ----- ----- ----<br>---- --- --- ----- --- ---- ---- ------- ----- ---- -------<br>--- --- -- ----- -- --- ---- -- --- ---- -- ------ ------<br>--- ----- -- ----,27202.40000000596,27201.100000023842,25934.567,25940.70000001788,25951.237,27218.363,,0,When
screen,html.Screen,0_2_0_1_1,2021-11-25T16:46:39.856Z,,,,,,,,,,,,,,,,53,,,,,,,,,,,,,,398.3370000178802,,response,,,99,,,,,,Space,keypress(Space),,,,,---- it ----- -- ------ - ------- --- ----------<br>------------- ------ ------ ---- ---- ------- ----- -- ----<br>-------- ------- -- ---------- --- - --- ----- ----- ----<br>---- --- --- ----- --- ---- ---- ------- ----- ---- -------<br>--- --- -- ----- -- --- ---- -- --- ---- -- ------ ------<br>--- ----- -- ----,27617.600000023842,27616.70000001788,27201.692,27202.70000001788,27218.363,27635.155,,1,it
screen,html.Screen,0_2_0_1_2,2021-11-25T16:46:40.368Z,,,,,,,,,,,,,,,,53,,,,,,,,,,,,,,493.445000023843,,response,,,99,,,,,,Space,keypress(Space),,,,,---- -- comes -- ------ - ------- --- ----------<br>------------- ------ ------ ---- ---- ------- ----- -- ----<br>-------- ------- -- ---------- --- - --- ----- ----- ----<br>---- --- --- ----- --- ---- ---- ------- ----- ---- -------<br>--- --- -- ----- -- --- ---- -- --- ---- -- ------ ------<br>--- ----- -- ----,28129.600000023842,28128.600000023842,27618.484,27617.90000000596,27635.155,28135.267,,2,comes
screen,html.Screen,0_2_0_1_3,2021-11-25T16:46:40.800Z,,,,,,,,,,,,,,,,53,,,,,,,,,,,,,,425.33300002384203,,response,,,99,,,,,,Space,keypress(Space),,,,,---- -- ----- to ------ - ------- --- ----------<br>------------- ------ ------ ---- ---- ------- ----- -- ----<br>-------- ------- -- ---------- --- - --- ----- ----- ----<br>---- --- --- ----- --- ---- ---- ------- ----- ---- -------<br>--- --- -- ----- -- --- ---- -- --- ---- -- ------ ------<br>--- ----- -- ----,28561.600000023842,28560.600000023842,28118.597,28129.90000000596,28135.267,28568.7,,3,to
screen,html.Screen,0_2_0_1_4,2021-11-25T16:46:41.329Z,,,,,,,,,,,,,,,,53,,,,,,,,,,,,,,519.9000000238411,,response,,,99,,,,,,Space,keypress(Space),,,,,---- -- ----- -- having - ------- --- ----------<br>------------- ------ ------ ---- ---- ------- ----- -- ----<br>-------- ------- -- ---------- --- - --- ----- ----- ----<br>---- --- --- ----- --- ---- ---- ------- ----- ---- -------<br>--- --- -- ----- -- --- ---- -- --- ---- -- ------ ------<br>--- ----- -- ----,29089.80000001192,29088.600000023842,28552.03,28562,28568.7,29102.172,,4,having
screen,html.Screen,0_2_0_1_5,2021-11-25T16:46:41.848Z,,,,,,,,,,,,,,,,53,,,,,,,,,,,,,,506.4280000238432,,response,,,99,,,,,,Space,keypress(Space),,,,,---- -- ----- -- ------ a ------- --- ----------<br>------------- ------ ------ ---- ---- ------- ----- -- ----<br>-------- ------- -- ---------- --- - --- ----- ----- ----<br>---- --- --- ----- --- ---- ---- ------- ----- ---- -------<br>--- --- -- ----- -- --- ---- -- --- ---- -- ------ ------<br>--- ----- -- ----,29609.5,29608.600000023842,29085.502,29090.100000023842,29102.172,29619.034,,5,a
screen,html.Screen,0_2_0_1_6,2021-11-25T16:46:42.232Z,,,,,,,,,,,,,,,,53,,,,,,,,,,,,,,373.5660000238422,,response,,,99,,,,,,Space,keypress(Space),,,,,---- -- ----- -- ------ - lasting --- ----------<br>------------- ------ ------ ---- ---- ------- ----- -- ----<br>-------- ------- -- ---------- --- - --- ----- ----- ----<br>---- --- --- ----- --- ---- ---- ------- ----- ---- -------<br>--- --- -- ----- -- --- ---- -- --- ---- -- ------ ------<br>--- ----- -- ----,29993.600000023842,29992.600000023842,29602.363,29610,29619.034,30002.296,,6,lasting
screen,html.Screen,0_2_0_1_7,2021-11-25T16:46:42.648Z,,,,,,,,,,,,,,,,53,,,,,,,,,,,,,,406.3040000238434,,response,,,99,,,,,,Space,keypress(Space),,,,,---- -- ----- -- ------ - ------- and ----------<br>------------- ------ ------ ---- ---- ------- ----- -- ----<br>-------- ------- -- ---------- --- - --- ----- ----- ----<br>---- --- --- ----- --- ---- ---- ------- ----- ---- -------<br>--- --- -- ----- -- --- ---- -- --- ---- -- ------ ------<br>--- ----- -- ----,30409.5,30408.600000023842,29985.627,29993.90000000596,30002.296,30419.147,,7,and
screen,html.Screen,0_2_0_1_8,2021-11-25T16:46:43.016Z,,,,,,,,,,,,,,,,53,,,,,,,,,,,,,,357.453000023841,,response,,,99,,,,,,Space,keypress(Space),,,,,---- -- ----- -- ------ - ------- --- fulfilling<br>------------- ------ ------ ---- ---- ------- ----- -- ----<br>-------- ------- -- ---------- --- - --- ----- ----- ----<br>---- --- --- ----- --- ---- ---- ------- ----- ---- -------<br>--- --- -- ----- -- --- ---- -- --- ---- -- ------ ------<br>--- ----- -- ----,30777.70000001788,30776.600000023842,30402.477,30409.80000001192,30419.147,30786.033,,8,fulfilling
screen,html.Screen,0_2_0_1_9,2021-11-25T16:46:43.312Z,,,,,,,,,,,,,,,,53,,,,,,,,,,,,,,286.46700000000055,,response,,,99,,,,,,Space,keypress(Space),,,,,"---- -- ----- -- ------ - ------- --- ----------<br>relationship, ------ ------ ---- ---- ------- ----- -- ----<br>-------- ------- -- ---------- --- - --- ----- ----- ----<br>---- --- --- ----- --- ---- ---- ------- ----- ---- -------<br>--- --- -- ----- -- --- ---- -- --- ---- -- ------ ------<br>--- ----- -- ----",31073.40000000596,31072.5,30769.361,30777.90000000596,30786.033,31086.031,,9,"relationship,"
screen,html.Screen,0_2_0_1_10,2021-11-25T16:46:43.744Z,,,,,,,,,,,,,,,,53,,,,,,,,,,,,,,418.46900000000096,,response,,,99,,,,,,Space,keypress(Space),,,,,---- -- ----- -- ------ - ------- --- ----------<br>------------- common ------ ---- ---- ------- ----- -- ----<br>-------- ------- -- ---------- --- - --- ----- ----- ----<br>---- --- --- ----- --- ---- ---- ------- ----- ---- -------<br>--- --- -- ----- -- --- ---- -- --- ---- -- ------ ------<br>--- ----- -- ----,31505.30000001192,31504.5,31069.361,31073.70000001788,31086.031,31519.387,,10,common
screen,html.Screen,0_2_0_1_11,2021-11-25T16:46:44.224Z,,,,,,,,,,,,,,,,53,,,,,,,,,,,,,,465.01300000596166,,response,,,99,,,,,,Space,keypress(Space),,,,,---- -- ----- -- ------ - ------- --- ----------<br>------------- ------ wisdom ---- ---- ------- ----- -- ----<br>-------- ------- -- ---------- --- - --- ----- ----- ----<br>---- --- --- ----- --- ---- ---- ------- ----- ---- -------<br>--- --- -- ----- -- --- ---- -- --- ---- -- ------ ------<br>--- ----- -- ----,31985.40000000596,31984.40000000596,31502.718,31505.70000001788,31519.387,31986.351,,11,wisdom
screen,html.Screen,0_2_0_1_12,2021-11-25T16:46:44.824Z,,,,,,,,,,,,,,,,53,,,,,,,,,,,,,,598.1490000000013,,response,,,99,,,,,,Space,keypress(Space),,,,,---- -- ----- -- ------ - ------- --- ----------<br>------------- ------ ------ says ---- ------- ----- -- ----<br>-------- ------- -- ---------- --- - --- ----- ----- ----<br>---- --- --- ----- --- ---- ---- ------- ----- ---- -------<br>--- --- -- ----- -- --- ---- -- --- ---- -- ------ ------<br>--- ----- -- ----,32585.30000001192,32584.5,31969.679,31985.600000023842,31986.351,32586.468,,12,says
screen,html.Screen,0_2_0_1_13,2021-11-25T16:46:45.184Z,,,,,,,,,,,,,,,,53,,,,,,,,,,,,,,357.9320000059597,,response,,,99,,,,,,Space,keypress(Space),,,,,---- -- ----- -- ------ - ------- --- ----------<br>------------- ------ ------ ---- that ------- ----- -- ----<br>-------- ------- -- ---------- --- - --- ----- ----- ----<br>---- --- --- ----- --- ---- ---- ------- ----- ---- -------<br>--- --- -- ----- -- --- ---- -- --- ---- -- ------ ------<br>--- ----- -- ----,32945.20000001788,32944.40000000596,32569.797,32585.5,32586.468,32953.016,,13,that
screen,html.Screen,0_2_0_1_14,2021-11-25T16:46:45.480Z,,,,,,,,,,,,,,,,53,,,,,,,,,,,,,,287.28400001191767,,response,,,99,,,,,,Space,keypress(Space),,,,,---- -- ----- -- ------ - ------- --- ----------<br>------------- ------ ------ ---- ---- feeling ----- -- ----<br>-------- ------- -- ---------- --- - --- ----- ----- ----<br>---- --- --- ----- --- ---- ---- ------- ----- ---- -------<br>--- --- -- ----- -- --- ---- -- --- ---- -- ------ ------<br>--- ----- -- ----,33241.20000001788,33240.30000001192,32936.348,32945.5,32953.016,33253.214,,14,feeling
screen,html.Screen,0_2_0_1_15,2021-11-25T16:46:45.768Z,,,,,,,,,,,,,,,,53,,,,,,,,,,,,,,275.1860000059605,,response,,,99,,,,,,Space,keypress(Space),,,,,---- -- ----- -- ------ - ------- --- ----------<br>------------- ------ ------ ---- ---- ------- close -- ----<br>-------- ------- -- ---------- --- - --- ----- ----- ----<br>---- --- --- ----- --- ---- ---- ------- ----- ---- -------<br>--- --- -- ----- -- --- ---- -- --- ---- -- ------ ------<br>--- ----- -- ----,33529.20000001788,33528.40000000596,33236.544,33241.40000000596,33253.214,33536.724,,15,close
screen,html.Screen,0_2_0_1_16,2021-11-25T16:46:46.136Z,,,,,,,,,,,,,,,,53,,,,,,,,,,,,,,359.6760000059585,,response,,,99,,,,,,Space,keypress(Space),,,,,---- -- ----- -- ------ - ------- --- ----------<br>------------- ------ ------ ---- ---- ------- ----- to ----<br>-------- ------- -- ---------- --- - --- ----- ----- ----<br>---- --- --- ----- --- ---- ---- ------- ----- ---- -------<br>--- --- -- ----- -- --- ---- -- --- ---- -- ------ ------<br>--- ----- -- ----,33897.10000002384,33896.40000000596,33520.052,33529.40000000596,33536.724,33903.296,,16,to
screen,html.Screen,0_2_0_1_17,2021-11-25T16:46:46.504Z,,,,,,,,,,,,,,,,53,,,,,,,,,,,,,,361.00400001191883,,response,,,99,,,,,,Space,keypress(Space),,,,,---- -- ----- -- ------ - ------- --- ----------<br>------------- ------ ------ ---- ---- ------- ----- -- your<br>-------- ------- -- ---------- --- - --- ----- ----- ----<br>---- --- --- ----- --- ---- ---- ------- ----- ---- -------<br>--- --- -- ----- -- --- ---- -- --- ---- -- ------ ------<br>--- ----- -- ----,34265.10000002384,34264.30000001192,33886.628,33897.40000000596,33903.296,34270.14,,17,your
screen,html.Screen,0_2_0_1_18,2021-11-25T16:46:46.864Z,,,,,,,,,,,,,,,,53,,,,,,,,,,,,,,354.1600000119215,,response,,,99,,,,,,Space,keypress(Space),,,,,---- -- ----- -- ------ - ------- --- ----------<br>------------- ------ ------ ---- ---- ------- ----- -- ----<br>romantic ------- -- ---------- --- - --- ----- ----- ----<br>---- --- --- ----- --- ---- ---- ------- ----- ---- -------<br>--- --- -- ----- -- --- ---- -- --- ---- -- ------ ------<br>--- ----- -- ----,34625.10000002384,34624.30000001192,34253.47,34265.30000001192,34270.14,34637.03,,18,romantic
screen,html.Screen,0_2_0_1_19,2021-11-25T16:46:47.120Z,,,,,,,,,,,,,,,,53,,,,,,,,,,,,,,243.2700000119221,,response,,,99,,,,,,Space,keypress(Space),,,,,---- -- ----- -- ------ - ------- --- ----------<br>------------- ------ ------ ---- ---- ------- ----- -- ----<br>-------- partner -- ---------- --- - --- ----- ----- ----<br>---- --- --- ----- --- ---- ---- ------- ----- ---- -------<br>--- --- -- ----- -- --- ---- -- --- ---- -- ------ ------<br>--- ----- -- ----,34881.10000002384,34880.30000001192,34620.358,34625.40000000596,34637.03,34887.019,,19,partner
screen,html.Screen,0_2_0_1_20,2021-11-25T16:46:47.408Z,,,,,,,,,,,,,,,,53,,,,,,,,,,,,,,281.2810000119207,,response,,,99,,,,,,Space,keypress(Space),,,,,---- -- ----- -- ------ - ------- --- ----------<br>------------- ------ ------ ---- ---- ------- ----- -- ----<br>-------- ------- is ---------- --- - --- ----- ----- ----<br>---- --- --- ----- --- ---- ---- ------- ----- ---- -------<br>--- --- -- ----- -- --- ---- -- --- ---- -- ------ ------<br>--- ----- -- ----,35169.20000001788,35168.30000001192,34870.349,34881.30000001192,34887.019,35170.407,,20,is
screen,html.Screen,0_2_0_1_21,2021-11-25T16:46:47.720Z,,,,,,,,,,,,,,,,53,,,,,,,,,,,,,,309.79300001788215,,response,,,99,,,,,,Space,keypress(Space),,,,,---- -- ----- -- ------ - ------- --- ----------<br>------------- ------ ------ ---- ---- ------- ----- -- ----<br>-------- ------- -- paramount. --- - --- ----- ----- ----<br>---- --- --- ----- --- ---- ---- ------- ----- ---- -------<br>--- --- -- ----- -- --- ---- -- --- ---- -- ------ ------<br>--- ----- -- ----,35481,35480.20000001788,35153.737,35169.40000000596,35170.407,35487.045,,21,paramount.
screen,html.Screen,0_2_0_1_22,2021-11-25T16:46:50.888Z,,,,,,,,,,,,,,,,53,,,,,,,,,,,,,,3161.355000005962,,response,,,99,,,,,,Space,keypress(Space),,,,,---- -- ----- -- ------ - ------- --- ----------<br>------------- ------ ------ ---- ---- ------- ----- -- ----<br>-------- ------- -- ---------- But - --- ----- ----- ----<br>---- --- --- ----- --- ---- ---- ------- ----- ---- -------<br>--- --- -- ----- -- --- ---- -- --- ---- -- ------ ------<br>--- ----- -- ----,38649.40000000596,38648.40000000596,35470.377,35481.5,35487.045,38655.09,,22,But
screen,html.Screen,0_2_0_1_23,2021-11-25T16:46:51.128Z,,,,,,,,,,,,,,,,53,,,,,,,,,,,,,,233.1100000178849,,response,,,99,,,,,,Space,keypress(Space),,,,,---- -- ----- -- ------ - ------- --- ----------<br>------------- ------ ------ ---- ---- ------- ----- -- ----<br>-------- ------- -- ---------- --- a --- ----- ----- ----<br>---- --- --- ----- --- ---- ---- ------- ----- ---- -------<br>--- --- -- ----- -- --- ---- -- --- ---- -- ------ ------<br>--- ----- -- ----,38889.10000002384,38888.20000001788,38638.417,38649.70000001788,38655.09,38904.242,,23,a
screen,html.Screen,0_2_0_1_24,2021-11-25T16:46:51.320Z,,,,,,,,,,,,,,,,53,,,,,,,,,,,,,,175.75800000000163,,response,,,99,,,,,,Space,keypress(Space),,,,,---- -- ----- -- ------ - ------- --- ----------<br>------------- ------ ------ ---- ---- ------- ----- -- ----<br>-------- ------- -- ---------- --- - new ----- ----- ----<br>---- --- --- ----- --- ---- ---- ------- ----- ---- -------<br>--- --- -- ----- -- --- ---- -- --- ---- -- ------ ------<br>--- ----- -- ----,39080.90000000596,39080,38887.574,38889.30000001192,38904.242,39088.047,,24,new
screen,html.Screen,0_2_0_1_25,2021-11-25T16:46:51.536Z,,,,,,,,,,,,,,,,53,,,,,,,,,,,,,,207.95300000000134,,response,,,99,,,,,,Space,keypress(Space),,,,,---- -- ----- -- ------ - ------- --- ----------<br>------------- ------ ------ ---- ---- ------- ----- -- ----<br>-------- ------- -- ---------- --- - --- study ----- ----<br>---- --- --- ----- --- ---- ---- ------- ----- ---- -------<br>--- --- -- ----- -- --- ---- -- --- ---- -- ------ ------<br>--- ----- -- ----,39296.90000000596,39296,39071.377,39081.20000001788,39088.047,39304.86,,25,study
screen,html.Screen,0_2_0_1_26,2021-11-25T16:46:51.752Z,,,,,,,,,,,,,,,,53,,,,,,,,,,,,,,207.13999999999942,,response,,,99,,,,,,Space,keypress(Space),,,,,---- -- ----- -- ------ - ------- --- ----------<br>------------- ------ ------ ---- ---- ------- ----- -- ----<br>-------- ------- -- ---------- --- - --- ----- finds ----<br>---- --- --- ----- --- ---- ---- ------- ----- ---- -------<br>--- --- -- ----- -- --- ---- -- --- ---- -- ------ ------<br>--- ----- -- ----,39512.90000000596,39512,39288.187,39297.20000001788,39304.86,39521.609,,26,finds
screen,html.Screen,0_2_0_1_27,2021-11-25T16:46:52.218Z,,,,,,,,,,,,,,,,53,,,,,,,,,,,,,,454.39100000000326,,response,,,99,,,,,,Space,keypress(Space),,,,,---- -- ----- -- ------ - ------- --- ----------<br>------------- ------ ------ ---- ---- ------- ----- -- ----<br>-------- ------- -- ---------- --- - --- ----- ----- that<br>---- --- --- ----- --- ---- ---- ------- ----- ---- -------<br>--- --- -- ----- -- --- ---- -- --- ---- -- ------ ------<br>--- ----- -- ----,39976.80000001192,39976,39504.936,39513.20000001788,39521.609,39988.308,,27,that
screen,html.Screen,0_2_0_1_28,2021-11-25T16:46:52.466Z,,,,,,,,,,,,,,,,53,,,,,,,,,,,,,,235.69200000000274,,response,,,99,,,,,,Space,keypress(Space),,,,,---- -- ----- -- ------ - ------- --- ----------<br>------------- ------ ------ ---- ---- ------- ----- -- ----<br>-------- ------- -- ---------- --- - --- ----- ----- ----<br>it's --- --- ----- --- ---- ---- ------- ----- ---- -------<br>--- --- -- ----- -- --- ---- -- --- ---- -- ------ ------<br>--- ----- -- ----,40224.80000001192,40224,39971.638,39977.10000002384,39988.308,40238.423,,28,it's
screen,html.Screen,0_2_0_1_29,2021-11-25T16:46:52.666Z,,,,,,,,,,,,,,,,53,,,,,,,,,,,,,,185.5769999999975,,response,,,99,,,,,,Space,keypress(Space),,,,,---- -- ----- -- ------ - ------- --- ----------<br>------------- ------ ------ ---- ---- ------- ----- -- ----<br>-------- ------- -- ---------- --- - --- ----- ----- ----<br>---- not --- ----- --- ---- ---- ------- ----- ---- -------<br>--- --- -- ----- -- --- ---- -- --- ---- -- ------ ------<br>--- ----- -- ----,40424.70000001788,40424,40221.752,40225.10000002384,40238.423,40438.403,,29,not
screen,html.Screen,0_2_0_1_30,2021-11-25T16:46:53.370Z,,,,,,,,,,,,,,,,53,,,,,,,,,,,,,,689.5970000000016,,response,,,99,,,,,,Space,keypress(Space),,,,,---- -- ----- -- ------ - ------- --- ----------<br>------------- ------ ------ ---- ---- ------- ----- -- ----<br>-------- ------- -- ---------- --- - --- ----- ----- ----<br>---- --- how ----- --- ---- ---- ------- ----- ---- -------<br>--- --- -- ----- -- --- ---- -- --- ---- -- ------ ------<br>--- ----- -- ----,41128.70000001788,41128,40421.734,40425,40438.403,41138.638,,30,how
screen,html.Screen,0_2_0_1_31,2021-11-25T16:46:53.706Z,,,,,,,,,,,,,,,,53,,,,,,,,,,,,,,325.26200000596145,,response,,,99,,,,,,Space,keypress(Space),,,,,---- -- ----- -- ------ - ------- --- ----------<br>------------- ------ ------ ---- ---- ------- ----- -- ----<br>-------- ------- -- ---------- --- - --- ----- ----- ----<br>---- --- --- close --- ---- ---- ------- ----- ---- -------<br>--- --- -- ----- -- --- ---- -- --- ---- -- ------ ------<br>--- ----- -- ----,41464.70000001788,41463.90000000596,41121.967,41129,41138.638,41472.062,,31,close
screen,html.Screen,0_2_0_1_32,2021-11-25T16:46:54.002Z,,,,,,,,,,,,,,,,53,,,,,,,,,,,,,,287.8380000059624,,response,,,99,,,,,,Space,keypress(Space),,,,,---- -- ----- -- ------ - ------- --- ----------<br>------------- ------ ------ ---- ---- ------- ----- -- ----<br>-------- ------- -- ---------- --- - --- ----- ----- ----<br>---- --- --- ----- you ---- ---- ------- ----- ---- -------<br>--- --- -- ----- -- --- ---- -- --- ---- -- ------ ------<br>--- ----- -- ----,41760.90000000596,41759.90000000596,41455.391,41465,41472.062,41772.037,,32,you
screen,html.Screen,0_2_0_1_33,2021-11-25T16:46:54.242Z,,,,,,,,,,,,,,,,53,,,,,,,,,,,,,,227.86300000596384,,response,,,99,,,,,,Space,keypress(Space),,,,,---- -- ----- -- ------ - ------- --- ----------<br>------------- ------ ------ ---- ---- ------- ----- -- ----<br>-------- ------- -- ---------- --- - --- ----- ----- ----<br>---- --- --- ----- --- feel ---- ------- ----- ---- -------<br>--- --- -- ----- -- --- ---- -- --- ---- -- ------ ------<br>--- ----- -- ----,42000.90000000596,41999.90000000596,41755.368,41761.10000002384,41772.037,42005.54,,33,feel
screen,html.Screen,0_2_0_1_34,2021-11-25T16:46:54.466Z,,,,,,,,,,,,,,,,53,,,,,,,,,,,,,,218.3600000059596,,response,,,99,,,,,,Space,keypress(Space),,,,,---- -- ----- -- ------ - ------- --- ----------<br>------------- ------ ------ ---- ---- ------- ----- -- ----<br>-------- ------- -- ---------- --- - --- ----- ----- ----<br>---- --- --- ----- --- ---- that ------- ----- ---- -------<br>--- --- -- ----- -- --- ---- -- --- ---- -- ------ ------<br>--- ----- -- ----,42224.70000001788,42223.90000000596,41988.868,42001.20000001788,42005.54,42238.926,,34,that
screen,html.Screen,0_2_0_1_35,2021-11-25T16:46:55.066Z,,,,,,,,,,,,,,,,53,,,,,,,,,,,,,,584.974000005961,,response,,,99,,,,,,Space,keypress(Space),,,,,---- -- ----- -- ------ - ------- --- ----------<br>------------- ------ ------ ---- ---- ------- ----- -- ----<br>-------- ------- -- ---------- --- - --- ----- ----- ----<br>---- --- --- ----- --- ---- ---- matters ----- ---- -------<br>--- --- -- ----- -- --- ---- -- --- ---- -- ------ ------<br>--- ----- -- ----,42824.60000002384,42823.90000000596,42222.255,42225.10000002384,42238.926,42839.103,,35,matters
screen,html.Screen,0_2_0_1_36,2021-11-25T16:46:55.618Z,,,,,,,,,,,,,,,,53,,,,,,,,,,,,,,536.6970000119181,,response,,,99,,,,,,Space,keypress(Space),,,,,"---- -- ----- -- ------ - ------- --- ----------<br>------------- ------ ------ ---- ---- ------- ----- -- ----<br>-------- ------- -- ---------- --- - --- ----- ----- ----<br>---- --- --- ----- --- ---- ---- ------- most, ---- -------<br>--- --- -- ----- -- --- ---- -- --- ---- -- ------ ------<br>--- ----- -- ----",43376.80000001192,43375.80000001192,42822.432,42824.90000000596,42839.103,43389.095,,36,"most,"
screen,html.Screen,0_2_0_1_37,2021-11-25T16:46:56.090Z,,,,,,,,,,,,,,,,53,,,,,,,,,,,,,,458.70500001191976,,response,,,99,,,,,,Space,keypress(Space),,,,,---- -- ----- -- ------ - ------- --- ----------<br>------------- ------ ------ ---- ---- ------- ----- -- ----<br>-------- ------- -- ---------- --- - --- ----- ----- ----<br>---- --- --- ----- --- ---- ---- ------- ----- it's -------<br>--- --- -- ----- -- --- ---- -- --- ---- -- ------ ------<br>--- ----- -- ----,43848.5,43847.80000001192,43372.426,43377,43389.095,43855.848,,37,it's
screen,html.Screen,0_2_0_1_38,2021-11-25T16:46:56.378Z,,,,,,,,,,,,,,,,53,,,,,,,,,,,,,,279.9520000119228,,response,,,99,,,,,,Space,keypress(Space),,,,,---- -- ----- -- ------ - ------- --- ----------<br>------------- ------ ------ ---- ---- ------- ----- -- ----<br>-------- ------- -- ---------- --- - --- ----- ----- ----<br>---- --- --- ----- --- ---- ---- ------- ----- ---- whether<br>--- --- -- ----- -- --- ---- -- --- ---- -- ------ ------<br>--- ----- -- ----,44136.5,44135.80000001192,43839.179,43848.80000001192,43855.848,44139.486,,38,whether
screen,html.Screen,0_2_0_1_39,2021-11-25T16:46:56.818Z,,,,,,,,,,,,,,,,53,,,,,,,,,,,,,,436.3140000119238,,response,,,99,,,,,,Space,keypress(Space),,,,,---- -- ----- -- ------ - ------- --- ----------<br>------------- ------ ------ ---- ---- ------- ----- -- ----<br>-------- ------- -- ---------- --- - --- ----- ----- ----<br>---- --- --- ----- --- ---- ---- ------- ----- ---- -------<br>you --- -- ----- -- --- ---- -- --- ---- -- ------ ------<br>--- ----- -- ----,44576.60000002384,44575.80000001192,44122.814,44136.80000001192,44139.486,44589.504,,39,you
screen,html.Screen,0_2_0_1_40,2021-11-25T16:46:57.186Z,,,,,,,,,,,,,,,,53,,,,,,,,,,,,,,354.1960000178806,,response,,,99,,,,,,Space,keypress(Space),,,,,---- -- ----- -- ------ - ------- --- ----------<br>------------- ------ ------ ---- ---- ------- ----- -- ----<br>-------- ------- -- ---------- --- - --- ----- ----- ----<br>---- --- --- ----- --- ---- ---- ------- ----- ---- -------<br>--- are -- ----- -- --- ---- -- --- ---- -- ------ ------<br>--- ----- -- ----,44944.5,44943.70000001788,44572.834,44576.80000001192,44589.504,44956.083,,40,are
screen,html.Screen,0_2_0_1_41,2021-11-25T16:46:57.466Z,,,,,,,,,,,,,,,,53,,,,,,,,,,,,,,267.6170000178827,,response,,,99,,,,,,Space,keypress(Space),,,,,---- -- ----- -- ------ - ------- --- ----------<br>------------- ------ ------ ---- ---- ------- ----- -- ----<br>-------- ------- -- ---------- --- - --- ----- ----- ----<br>---- --- --- ----- --- ---- ---- ------- ----- ---- -------<br>--- --- as ----- -- --- ---- -- --- ---- -- ------ ------<br>--- ----- -- ----,45224.40000000596,45223.70000001788,44939.416,44944.70000001788,44956.083,45239.754,,41,as
screen,html.Screen,0_2_0_1_42,2021-11-25T16:46:57.738Z,,,,,,,,,,,,,,,,53,,,,,,,,,,,,,,256.0460000119201,,response,,,99,,,,,,Space,keypress(Space),,,,,---- -- ----- -- ------ - ------- --- ----------<br>------------- ------ ------ ---- ---- ------- ----- -- ----<br>-------- ------- -- ---------- --- - --- ----- ----- ----<br>---- --- --- ----- --- ---- ---- ------- ----- ---- -------<br>--- --- -- close -- --- ---- -- --- ---- -- ------ ------<br>--- ----- -- ----,45496.40000000596,45495.80000001192,45223.082,45224.70000001788,45239.754,45506.337,,42,close
screen,html.Screen,0_2_0_1_43,2021-11-25T16:46:57.986Z,,,,,,,,,,,,,,,,53,,,,,,,,,,,,,,237.36300001788186,,response,,,99,,,,,,Space,keypress(Space),,,,,---- -- ----- -- ------ - ------- --- ----------<br>------------- ------ ------ ---- ---- ------- ----- -- ----<br>-------- ------- -- ---------- --- - --- ----- ----- ----<br>---- --- --- ----- --- ---- ---- ------- ----- ---- -------<br>--- --- -- ----- as --- ---- -- --- ---- -- ------ ------<br>--- ----- -- ----,45744.40000000596,45743.70000001788,45489.668,45496.80000001192,45506.337,45756.534,,43,as
screen,html.Screen,0_2_0_1_44,2021-11-25T16:46:58.482Z,,,,,,,,,,,,,,,,53,,,,,,,,,,,,,,483.16600001788174,,response,,,99,,,,,,Space,keypress(Space),,,,,---- -- ----- -- ------ - ------- --- ----------<br>------------- ------ ------ ---- ---- ------- ----- -- ----<br>-------- ------- -- ---------- --- - --- ----- ----- ----<br>---- --- --- ----- --- ---- ---- ------- ----- ---- -------<br>--- --- -- ----- -- you ---- -- --- ---- -- ------ ------<br>--- ----- -- ----,46240.60000002384,46239.70000001788,45739.862,45744.70000001788,45756.534,46256.584,,44,you
screen,html.Screen,0_2_0_1_45,2021-11-25T16:46:59.106Z,,,,,,,,,,,,,,,,53,,,,,,,,,,,,,,607.0160000238393,,response,,,99,,,,,,Space,keypress(Space),,,,,---- -- ----- -- ------ - ------- --- ----------<br>------------- ------ ------ ---- ---- ------- ----- -- ----<br>-------- ------- -- ---------- --- - --- ----- ----- ----<br>---- --- --- ----- --- ---- ---- ------- ----- ---- -------<br>--- --- -- ----- -- --- want -- --- ---- -- ------ ------<br>--- ----- -- ----,46864.30000001192,46863.60000002384,46239.914,46240.90000000596,46256.584,46873.48,,45,want
screen,html.Screen,0_2_0_1_46,2021-11-25T16:46:59.426Z,,,,,,,,,,,,,,,,53,,,,,,,,,,,,,,310.0199999999968,,response,,,99,,,,,,Space,keypress(Space),,,,,---- -- ----- -- ------ - ------- --- ----------<br>------------- ------ ------ ---- ---- ------- ----- -- ----<br>-------- ------- -- ---------- --- - --- ----- ----- ----<br>---- --- --- ----- --- ---- ---- ------- ----- ---- -------<br>--- --- -- ----- -- --- ---- to --- ---- -- ------ ------<br>--- ----- -- ----,47184.30000001192,47183.5,46856.809,46864.60000002384,46873.48,47190.16,,46,to
screen,html.Screen,0_2_0_1_47,2021-11-25T16:46:59.842Z,,,,,,,,,,,,,,,,53,,,,,,,,,,,,,,409.3399999999965,,response,,,99,,,,,,Space,keypress(Space),,,,,"---- -- ----- -- ------ - ------- --- ----------<br>------------- ------ ------ ---- ---- ------- ----- -- ----<br>-------- ------- -- ---------- --- - --- ----- ----- ----<br>---- --- --- ----- --- ---- ---- ------- ----- ---- -------<br>--- --- -- ----- -- --- ---- -- be, ---- -- ------ ------<br>--- ----- -- ----",47600.30000001192,47599.5,47173.49,47184.5,47190.16,47606.944,,47,"be,"
screen,html.Screen,0_2_0_1_48,2021-11-25T16:47:00.202Z,,,,,,,,,,,,,,,,53,,,,,,,,,,,,,,352.55599999999686,,response,,,99,,,,,,Space,keypress(Space),,,,,---- -- ----- -- ------ - ------- --- ----------<br>------------- ------ ------ ---- ---- ------- ----- -- ----<br>-------- ------- -- ---------- --- - --- ----- ----- ----<br>---- --- --- ----- --- ---- ---- ------- ----- ---- -------<br>--- --- -- ----- -- --- ---- -- --- even -- ------ ------<br>--- ----- -- ----,47960.30000001192,47959.5,47590.274,47600.60000002384,47606.944,47973.709,,48,even
screen,html.Screen,0_2_0_1_49,2021-11-25T16:47:00.506Z,,,,,,,,,,,,,,,,53,,,,,,,,,,,,,,289.6910000059579,,response,,,99,,,,,,Space,keypress(Space),,,,,---- -- ----- -- ------ - ------- --- ----------<br>------------- ------ ------ ---- ---- ------- ----- -- ----<br>-------- ------- -- ---------- --- - --- ----- ----- ----<br>---- --- --- ----- --- ---- ---- ------- ----- ---- -------<br>--- --- -- ----- -- --- ---- -- --- ---- if ------ ------<br>--- ----- -- ----,48264.30000001192,48263.40000000596,47957.039,47960.5,47973.709,48273.822,,49,if
screen,html.Screen,0_2_0_1_50,2021-11-25T16:47:00.730Z,,,,,,,,,,,,,,,,53,,,,,,,,,,,,,,213.67799999999988,,response,,,99,,,,,,Space,keypress(Space),,,,,---- -- ----- -- ------ - ------- --- ----------<br>------------- ------ ------ ---- ---- ------- ----- -- ----<br>-------- ------- -- ---------- --- - --- ----- ----- ----<br>---- --- --- ----- --- ---- ---- ------- ----- ---- -------<br>--- --- -- ----- -- --- ---- -- --- ---- -- that's ------<br>--- ----- -- ----,48488.30000001192,48487.5,48257.151,48264.40000000596,48273.822,48490.518,,50,that's
screen,html.Screen,0_2_0_1_51,2021-11-25T16:47:01.586Z,,,,,,,,,,,,,,,,53,,,,,,,,,,,,,,853.3820000059641,,response,,,99,,,,,,Space,keypress(Space),,,,,---- -- ----- -- ------ - ------- --- ----------<br>------------- ------ ------ ---- ---- ------- ----- -- ----<br>-------- ------- -- ---------- --- - --- ----- ----- ----<br>---- --- --- ----- --- ---- ---- ------- ----- ---- -------<br>--- --- -- ----- -- --- ---- -- --- ---- -- ------ really<br>--- ----- -- ----,49344.70000001788,49343.90000000596,48473.848,48488.5,48490.518,49357.366,,51,really
screen,html.Screen,0_2_0_1_52,2021-11-25T16:47:01.938Z,,,,,,,,,,,,,,,,53,,,,,,,,,,,,,,338.1339999999982,,response,,,99,,,,,,Space,keypress(Space),,,,,---- -- ----- -- ------ - ------- --- ----------<br>------------- ------ ------ ---- ---- ------- ----- -- ----<br>-------- ------- -- ---------- --- - --- ----- ----- ----<br>---- --- --- ----- --- ---- ---- ------- ----- ---- -------<br>--- --- -- ----- -- --- ---- -- --- ---- -- ------ ------<br>not ----- -- ----,49696.30000001192,49695.5,49340.696,49344.90000000596,49357.366,49707.601,,52,not
screen,html.Screen,0_2_0_1_53,2021-11-25T16:47:02.394Z,,,,,,,,,,,,,,,,53,,,,,,,,,,,,,,443.8989999999976,,response,,,99,,,,,,Space,keypress(Space),,,,,---- -- ----- -- ------ - ------- --- ----------<br>------------- ------ ------ ---- ---- ------- ----- -- ----<br>-------- ------- -- ---------- --- - --- ----- ----- ----<br>---- --- --- ----- --- ---- ---- ------- ----- ---- -------<br>--- --- -- ----- -- --- ---- -- --- ---- -- ------ ------<br>--- close -- ----,50152.30000001192,50151.5,49690.929,49696.5,49707.601,50157.589,,53,close
screen,html.Screen,0_2_0_1_54,2021-11-25T16:47:03.018Z,,,,,,,,,,,,,,,,53,,,,,,,,,,,,,,617.8110000059605,,response,,,99,,,,,,Space,keypress(Space),,,,,---- -- ----- -- ------ - ------- --- ----------<br>------------- ------ ------ ---- ---- ------- ----- -- ----<br>-------- ------- -- ---------- --- - --- ----- ----- ----<br>---- --- --- ----- --- ---- ---- ------- ----- ---- -------<br>--- --- -- ----- -- --- ---- -- --- ---- -- ------ ------<br>--- ----- at ----,50776.20000001788,50775.40000000596,50140.919,50152.5,50157.589,50790.958,,54,at
screen,html.Screen,0_2_0_1_55,2021-11-25T16:47:04.242Z,,,,,,,,,,,,,,,,53,,,,,,,,,,,,,,1208.3420000119222,,response,,,99,,,,,,Space,keypress(Space),,,,,---- -- ----- -- ------ - ------- --- ----------<br>------------- ------ ------ ---- ---- ------- ----- -- ----<br>-------- ------- -- ---------- --- - --- ----- ----- ----<br>---- --- --- ----- --- ---- ---- ------- ----- ---- -------<br>--- --- -- ----- -- --- ---- -- --- ---- -- ------ ------<br>--- ----- -- all.,52000.10000002384,51999.30000001192,50774.289,50776.5,50790.958,52007.986,,55,all.
Item 99,flow.Loop,0_2_0_1,2021-11-25T16:47:04.246Z,,,,,,,,,,,,,,,,,,,,,,,,,,,,,,26048.06300001192,,completion,,,,D,,,,,,,,,,silence,,52004.5,51999.30000001192,25934.567,25940.600000023842,25951.237,52007.986,,,
Question 1,html.Screen,0_2_0_2,2021-11-25T16:47:18.529Z,,,,,,,,,,,,,,,,,,,,,,,,,,,true,FALSE,,14278.414000005963,,response,,,99,D,,,,,FALSE,click #choice-2,,,,silence,,66287.80000001192,66286.40000000596,51991.316,52004.70000001788,52007.986,66295.096,,,
Question 2,html.Screen,0_2_0_3,2021-11-25T16:47:26.265Z,,,,,,,,,,,,,,,,,,,,,,,,,,,true,TRUE,,7726.8040000059555,,response,,,99,D,,,,,TRUE,click #choice-1,,,,silence,,74023.20000001788,74021.90000000596,66278.426,66288.10000002384,66295.096,74030.42,,,
Item 99,flow.Sequence,0_2_0,2021-11-25T16:47:26.265Z,,,,,,,,,,,,,,,,,,,,,,,,,,,,,,58073.53400000596,,completion,,,,,,,,,,,,,,,,74023.80000001192,74021.90000000596,15931.701,15947.40000000596,15948.366,74030.42,,,
Holding screen,html.Screen,0_2_1_0,2021-11-25T16:47:36.260Z,,,,,,,,,,,,,,,,,,,,,,,,,,,,,,10002.468000000008,,timeout,,,,,,,,,,,,,,,,84018.10000002384,84016.218,74013.75,74024.20000001788,74030.42,84032.888,,,
screen,html.Screen,0_2_1_1_0,2021-11-25T16:47:37.584Z,,,,,,,,,,,,,,,,54,,,,,,,,,,,,,,1309.1119999999937,,response,,,100,,,,,,Space,keypress(Space),,,,,At --- ---- --- ------ ----- ------- ---- -- --- ------- --<br>------- ---------- ------ -- ----- -- ----- -- ---- ------<br>--- ----- --- --- ------ -------- ----- --- ------ ----- --<br>----- ----- ---------- --- --- ------ ------ ---- -- ------<br>------- --- ------ ----- --- ---- ------- -- ---- --- --<br>------- ------,85343,85342,84016.218,84018.5,84032.888,85350.014,,0,At
screen,html.Screen,0_2_1_1_1,2021-11-25T16:47:37.832Z,,,,,,,,,,,,,,,,54,,,,,,,,,,,,,,239.48600000000442,,response,,,100,,,,,,Space,keypress(Space),,,,,-- the ---- --- ------ ----- ------- ---- -- --- ------- --<br>------- ---------- ------ -- ----- -- ----- -- ---- ------<br>--- ----- --- --- ------ -------- ----- --- ------ ----- --<br>----- ----- ---------- --- --- ------ ------ ---- -- ------<br>------- --- ------ ----- --- ---- ------- -- ---- --- --<br>------- ------,85590.30000001192,85589.5,85333.343,85343.20000001788,85350.014,85600.057,,1,the
screen,html.Screen,0_2_1_1_2,2021-11-25T16:47:38.064Z,,,,,,,,,,,,,,,,54,,,,,,,,,,,,,,221.4429999999993,,response,,,100,,,,,,Space,keypress(Space),,,,,-- --- time --- ------ ----- ------- ---- -- --- ------- --<br>------- ---------- ------ -- ----- -- ----- -- ---- ------<br>--- ----- --- --- ------ -------- ----- --- ------ ----- --<br>----- ----- ---------- --- --- ------ ------ ---- -- ------<br>------- --- ------ ----- --- ---- ------- -- ---- --- --<br>------- ------,85822.30000001192,85821.5,85583.387,85590.60000002384,85600.057,85833.45,,2,time
screen,html.Screen,0_2_1_1_3,2021-11-25T16:47:38.296Z,,,,,,,,,,,,,,,,54,,,,,,,,,,,,,,220.0500000000029,,response,,,100,,,,,,Space,keypress(Space),,,,,-- --- ---- the ------ ----- ------- ---- -- --- ------- --<br>------- ---------- ------ -- ----- -- ----- -- ---- ------<br>--- ----- --- --- ------ -------- ----- --- ------ ----- --<br>----- ----- ---------- --- --- ------ ------ ---- -- ------<br>------- --- ------ ----- --- ---- ------- -- ---- --- --<br>------- ------,86054.30000001192,86053.5,85816.78,85822.5,85833.45,86066.746,,3,the
screen,html.Screen,0_2_1_1_4,2021-11-25T16:47:38.496Z,,,,,,,,,,,,,,,,54,,,,,,,,,,,,,,186.75400000000081,,response,,,100,,,,,,Space,keypress(Space),,,,,-- --- ---- --- French ----- ------- ---- -- --- ------- --<br>------- ---------- ------ -- ----- -- ----- -- ---- ------<br>--- ----- --- --- ------ -------- ----- --- ------ ----- --<br>----- ----- ---------- --- --- ------ ------ ---- -- ------<br>------- --- ------ ----- --- ---- ------- -- ---- --- --<br>------- ------,86254.20000001788,86253.5,86050.078,86054.5,86066.746,86267.02,,4,French
screen,html.Screen,0_2_1_1_5,2021-11-25T16:47:38.712Z,,,,,,,,,,,,,,,,54,,,,,,,,,,,,,,202.3800000059564,,response,,,100,,,,,,Space,keypress(Space),,,,,-- --- ---- --- ------ crown ------- ---- -- --- ------- --<br>------- ---------- ------ -- ----- -- ----- -- ---- ------<br>--- ----- --- --- ------ -------- ----- --- ------ ----- --<br>----- ----- ---------- --- --- ------ ------ ---- -- ------<br>------- --- ------ ----- --- ---- ------- -- ---- --- --<br>------- ------,86470.20000001788,86469.40000000596,86250.346,86254.40000000596,86267.02,86483.625,,5,crown
screen,html.Screen,0_2_1_1_6,2021-11-25T16:47:39.160Z,,,,,,,,,,,,,,,,54,,,,,,,,,,,,,,433.875,,response,,,100,,,,,,Space,keypress(Space),,,,,-- --- ---- --- ------ ----- secured ---- -- --- ------- --<br>------- ---------- ------ -- ----- -- ----- -- ---- ------<br>--- ----- --- --- ------ -------- ----- --- ------ ----- --<br>----- ----- ---------- --- --- ------ ------ ---- -- ------<br>------- --- ------ ----- --- ---- ------- -- ---- --- --<br>------- ------,86918.30000001192,86917.5,86466.955,86470.5,86483.625,86933.728,,6,secured
screen,html.Screen,0_2_1_1_7,2021-11-25T16:47:39.408Z,,,,,,,,,,,,,,,,54,,,,,,,,,,,,,,231.67200000595767,,response,,,100,,,,,,Space,keypress(Space),,,,,-- --- ---- --- ------ ----- ------- much -- --- ------- --<br>------- ---------- ------ -- ----- -- ----- -- ---- ------<br>--- ----- --- --- ------ -------- ----- --- ------ ----- --<br>----- ----- ---------- --- --- ------ ------ ---- -- ------<br>------- --- ------ ----- --- ---- ------- -- ---- --- --<br>------- ------,87166.20000001788,87165.40000000596,86917.058,86918.5,86933.728,87183.756,,7,much
screen,html.Screen,0_2_1_1_8,2021-11-25T16:47:39.752Z,,,,,,,,,,,,,,,,54,,,,,,,,,,,,,,325.6440000059665,,response,,,100,,,,,,Space,keypress(Space),,,,,-- --- ---- --- ------ ----- ------- ---- of --- ------- --<br>------- ---------- ------ -- ----- -- ----- -- ---- ------<br>--- ----- --- --- ------ -------- ----- --- ------ ----- --<br>----- ----- ---------- --- --- ------ ------ ---- -- ------<br>------- --- ------ ----- --- ---- ------- -- ---- --- --<br>------- ------,87510.20000001788,87509.40000000596,87167.087,87166.40000000596,87183.756,87517.239,,8,of
screen,html.Screen,0_2_1_1_9,2021-11-25T16:47:40.224Z,,,,,,,,,,,,,,,,54,,,,,,,,,,,,,,464.16100000595907,,response,,,100,,,,,,Space,keypress(Space),,,,,-- --- ---- --- ------ ----- ------- ---- -- its ------- --<br>------- ---------- ------ -- ----- -- ----- -- ---- ------<br>--- ----- --- --- ------ -------- ----- --- ------ ----- --<br>----- ----- ---------- --- --- ------ ------ ---- -- ------<br>------- --- ------ ----- --- ---- ------- -- ---- --- --<br>------- ------,87982.20000001788,87981.40000000596,87500.568,87510.5,87517.239,87984.033,,9,its
screen,html.Screen,0_2_1_1_10,2021-11-25T16:47:40.472Z,,,,,,,,,,,,,,,,54,,,,,,,,,,,,,,245.26700001192512,,response,,,100,,,,,,Space,keypress(Space),,,,,-- --- ---- --- ------ ----- ------- ---- -- --- revenue --<br>------- ---------- ------ -- ----- -- ----- -- ---- ------<br>--- ----- --- --- ------ -------- ----- --- ------ ----- --<br>----- ----- ---------- --- --- ------ ------ ---- -- ------<br>------- --- ------ ----- --- ---- ------- -- ---- --- --<br>------- ------,88230.20000001788,88229.30000001192,87967.362,87982.30000001192,87984.033,88233.921,,10,revenue
screen,html.Screen,0_2_1_1_11,2021-11-25T16:47:40.712Z,,,,,,,,,,,,,,,,54,,,,,,,,,,,,,,235.47900000595837,,response,,,100,,,,,,Space,keypress(Space),,,,,-- --- ---- --- ------ ----- ------- ---- -- --- ------- by<br>------- ---------- ------ -- ----- -- ----- -- ---- ------<br>--- ----- --- --- ------ -------- ----- --- ------ ----- --<br>----- ----- ---------- --- --- ------ ------ ---- -- ------<br>------- --- ------ ----- --- ---- ------- -- ---- --- --<br>------- ------,88470.20000001788,88469.40000000596,88217.253,88230.40000000596,88233.921,88484.116,,11,by
screen,html.Screen,0_2_1_1_12,2021-11-25T16:47:41.160Z,,,,,,,,,,,,,,,,54,,,,,,,,,,,,,,433.28400000596594,,response,,,100,,,,,,Space,keypress(Space),,,,,-- --- ---- --- ------ ----- ------- ---- -- --- ------- --<br>issuing ---------- ------ -- ----- -- ----- -- ---- ------<br>--- ----- --- --- ------ -------- ----- --- ------ ----- --<br>----- ----- ---------- --- --- ------ ------ ---- -- ------<br>------- --- ------ ----- --- ---- ------- -- ---- --- --<br>------- ------,88918.10000002384,88917.40000000596,88467.445,88470.40000000596,88484.116,88934.399,,12,issuing
screen,html.Screen,0_2_1_1_13,2021-11-25T16:47:41.400Z,,,,,,,,,,,,,,,,54,,,,,,,,,,,,,,223.00100000595558,,response,,,100,,,,,,Space,keypress(Space),,,,,-- --- ---- --- ------ ----- ------- ---- -- --- ------- --<br>------- government ------ -- ----- -- ----- -- ---- ------<br>--- ----- --- --- ------ -------- ----- --- ------ ----- --<br>----- ----- ---------- --- --- ------ ------ ---- -- ------<br>------- --- ------ ----- --- ---- ------- -- ---- --- --<br>------- ------,89158.10000002384,89157.40000000596,88917.725,88918.30000001192,88934.399,89167.631,,13,government
screen,html.Screen,0_2_1_1_14,2021-11-25T16:47:41.632Z,,,,,,,,,,,,,,,,54,,,,,,,,,,,,,,221.66900001192698,,response,,,100,,,,,,Space,keypress(Space),,,,,-- --- ---- --- ------ ----- ------- ---- -- --- ------- --<br>------- ---------- bonds. -- ----- -- ----- -- ---- ------<br>--- ----- --- --- ------ -------- ----- --- ------ ----- --<br>----- ----- ---------- --- --- ------ ------ ---- -- ------<br>------- --- ------ ----- --- ---- ------- -- ---- --- --<br>------- ------,89390.10000002384,89389.30000001192,89150.961,89158.30000001192,89167.631,89401.068,,14,bonds.
screen,html.Screen,0_2_1_1_15,2021-11-25T16:47:42.208Z,,,,,,,,,,,,,,,,54,,,,,,,,,,,,,,564.2320000119216,,response,,,100,,,,,,Space,keypress(Space),,,,,-- --- ---- --- ------ ----- ------- ---- -- --- ------- --<br>------- ---------- ------ In ----- -- ----- -- ---- ------<br>--- ----- --- --- ------ -------- ----- --- ------ ----- --<br>----- ----- ---------- --- --- ------ ------ ---- -- ------<br>------- --- ------ ----- --- ---- ------- -- ---- --- --<br>------- ------,89966.10000002384,89965.30000001192,89384.397,89390.30000001192,89401.068,89967.779,,15,In
screen,html.Screen,0_2_1_1_16,2021-11-25T16:47:42.840Z,,,,,,,,,,,,,,,,54,,,,,,,,,,,,,,629.5210000119259,,response,,,100,,,,,,Space,keypress(Space),,,,,"-- --- ---- --- ------ ----- ------- ---- -- --- ------- --<br>------- ---------- ------ -- 1727, -- ----- -- ---- ------<br>--- ----- --- --- ------ -------- ----- --- ------ ----- --<br>----- ----- ---------- --- --- ------ ------ ---- -- ------<br>------- --- ------ ----- --- ---- ------- -- ---- --- --<br>------- ------",90598,90597.30000001192,89951.11,89966.30000001192,89967.779,90601.399,,16,"1727,"
screen,html.Screen,0_2_1_1_17,2021-11-25T16:47:43.112Z,,,,,,,,,,,,,,,,54,,,,,,,,,,,,,,267.8010000178765,,response,,,100,,,,,,Space,keypress(Space),,,,,-- --- ---- --- ------ ----- ------- ---- -- --- ------- --<br>------- ---------- ------ -- ----- in ----- -- ---- ------<br>--- ----- --- --- ------ -------- ----- --- ------ ----- --<br>----- ----- ---------- --- --- ------ ------ ---- -- ------<br>------- --- ------ ----- --- ---- ------- -- ---- --- --<br>------- ------,90870,90869.20000001788,90584.728,90598.20000001788,90601.399,90884.64,,17,in
screen,html.Screen,0_2_1_1_18,2021-11-25T16:47:43.344Z,,,,,,,,,,,,,,,,54,,,,,,,,,,,,,,216.56000001788198,,response,,,100,,,,,,Space,keypress(Space),,,,,-- --- ---- --- ------ ----- ------- ---- -- --- ------- --<br>------- ---------- ------ -- ----- -- order -- ---- ------<br>--- ----- --- --- ------ -------- ----- --- ------ ----- --<br>----- ----- ---------- --- --- ------ ------ ---- -- ------<br>------- --- ------ ----- --- ---- ------- -- ---- --- --<br>------- ------,91102,91101.20000001788,90867.971,90870.20000001788,90884.64,91118.203,,18,order
screen,html.Screen,0_2_1_1_19,2021-11-25T16:47:43.583Z,,,,,,,,,,,,,,,,54,,,,,,,,,,,,,,222.99700001788733,,response,,,100,,,,,,Space,keypress(Space),,,,,-- --- ---- --- ------ ----- ------- ---- -- --- ------- --<br>------- ---------- ------ -- ----- -- ----- to ---- ------<br>--- ----- --- --- ------ -------- ----- --- ------ ----- --<br>----- ----- ---------- --- --- ------ ------ ---- -- ------<br>------- --- ------ ----- --- ---- ------- -- ---- --- --<br>------- ------,91341.90000000596,91341.20000001788,91101.531,91102.20000001788,91118.203,91351.512,,19,to
screen,html.Screen,0_2_1_1_20,2021-11-25T16:47:43.808Z,,,,,,,,,,,,,,,,54,,,,,,,,,,,,,,213.68800001787895,,response,,,100,,,,,,Space,keypress(Space),,,,,-- --- ---- --- ------ ----- ------- ---- -- --- ------- --<br>------- ---------- ------ -- ----- -- ----- -- save ------<br>--- ----- --- --- ------ -------- ----- --- ------ ----- --<br>----- ----- ---------- --- --- ------ ------ ---- -- ------<br>------- --- ------ ----- --- ---- ------- -- ---- --- --<br>------- ------,91566,91565.20000001788,91334.843,91342.20000001788,91351.512,91568.288,,20,save
screen,html.Screen,0_2_1_1_21,2021-11-25T16:47:44.007Z,,,,,,,,,,,,,,,,54,,,,,,,,,,,,,,196.91200001788093,,response,,,100,,,,,,Space,keypress(Space),,,,,"-- --- ---- --- ------ ----- ------- ---- -- --- ------- --<br>------- ---------- ------ -- ----- -- ----- -- ---- money,<br>--- ----- --- --- ------ -------- ----- --- ------ ----- --<br>----- ----- ---------- --- --- ------ ------ ---- -- ------<br>------- --- ------ ----- --- ---- ------- -- ---- --- --<br>------- ------",91765.90000000596,91765.20000001788,91551.617,91566.20000001788,91568.288,91768.238,,21,"money,"
screen,html.Screen,0_2_1_1_22,2021-11-25T16:47:44.223Z,,,,,,,,,,,,,,,,54,,,,,,,,,,,,,,212.8620000238443,,response,,,100,,,,,,Space,keypress(Space),,,,,-- --- ---- --- ------ ----- ------- ---- -- --- ------- --<br>------- ---------- ------ -- ----- -- ----- -- ---- ------<br>the ----- --- --- ------ -------- ----- --- ------ ----- --<br>----- ----- ---------- --- --- ------ ------ ---- -- ------<br>------- --- ------ ----- --- ---- ------- -- ---- --- --<br>------- ------,91981.90000000596,91981.10000002384,91751.57,91766.20000001788,91768.238,91985.088,,22,the
screen,html.Screen,0_2_1_1_23,2021-11-25T16:47:44.399Z,,,,,,,,,,,,,,,,54,,,,,,,,,,,,,,172.11200001787802,,response,,,100,,,,,,Space,keypress(Space),,,,,-- --- ---- --- ------ ----- ------- ---- -- --- ------- --<br>------- ---------- ------ -- ----- -- ----- -- ---- ------<br>--- state --- --- ------ -------- ----- --- ------ ----- --<br>----- ----- ---------- --- --- ------ ------ ---- -- ------<br>------- --- ------ ----- --- ---- ------- -- ---- --- --<br>------- ------,92157.90000000596,92157.20000001788,91968.416,91982.10000002384,91985.088,92168.442,,23,state
screen,html.Screen,0_2_1_1_24,2021-11-25T16:47:44.631Z,,,,,,,,,,,,,,,,54,,,,,,,,,,,,,,220.6580000238464,,response,,,100,,,,,,Space,keypress(Space),,,,,-- --- ---- --- ------ ----- ------- ---- -- --- ------- --<br>------- ---------- ------ -- ----- -- ----- -- ---- ------<br>--- ----- cut --- ------ -------- ----- --- ------ ----- --<br>----- ----- ---------- --- --- ------ ------ ---- -- ------<br>------- --- ------ ----- --- ---- ------- -- ---- --- --<br>------- ------,92389.90000000596,92389.10000002384,92151.771,92158.20000001788,92168.442,92401.811,,24,cut
screen,html.Screen,0_2_1_1_25,2021-11-25T16:47:44.847Z,,,,,,,,,,,,,,,,54,,,,,,,,,,,,,,203.28900002384034,,response,,,100,,,,,,Space,keypress(Space),,,,,-- --- ---- --- ------ ----- ------- ---- -- --- ------- --<br>------- ---------- ------ -- ----- -- ----- -- ---- ------<br>--- ----- --- the ------ -------- ----- --- ------ ----- --<br>----- ----- ---------- --- --- ------ ------ ---- -- ------<br>------- --- ------ ----- --- ---- ------- -- ---- --- --<br>------- ------,92605.90000000596,92605.10000002384,92385.141,92390.10000002384,92401.811,92618.61,,25,the
screen,html.Screen,0_2_1_1_26,2021-11-25T16:47:45.183Z,,,,,,,,,,,,,,,,54,,,,,,,,,,,,,,322.4900000238413,,response,,,100,,,,,,Space,keypress(Space),,,,,-- --- ---- --- ------ ----- ------- ---- -- --- ------- --<br>------- ---------- ------ -- ----- -- ----- -- ---- ------<br>--- ----- --- --- bonds' -------- ----- --- ------ ----- --<br>----- ----- ---------- --- --- ------ ------ ---- -- ------<br>------- --- ------ ----- --- ---- ------- -- ---- --- --<br>------- ------,92941.90000000596,92941.10000002384,92601.938,92606.20000001788,92618.61,92951.906,,26,bonds'
screen,html.Screen,0_2_1_1_27,2021-11-25T16:47:45.519Z,,,,,,,,,,,,,,,,54,,,,,,,,,,,,,,325.1940000238392,,response,,,100,,,,,,Space,keypress(Space),,,,,-- --- ---- --- ------ ----- ------- ---- -- --- ------- --<br>------- ---------- ------ -- ----- -- ----- -- ---- ------<br>--- ----- --- --- ------ interest ----- --- ------ ----- --<br>----- ----- ---------- --- --- ------ ------ ---- -- ------<br>------- --- ------ ----- --- ---- ------- -- ---- --- --<br>------- ------,93277.90000000596,93277.10000002384,92935.237,92942,92951.906,93285.205,,27,interest
screen,html.Screen,0_2_1_1_28,2021-11-25T16:47:45.831Z,,,,,,,,,,,,,,,,54,,,,,,,,,,,,,,303.8950000238401,,response,,,100,,,,,,Space,keypress(Space),,,,,-- --- ---- --- ------ ----- ------- ---- -- --- ------- --<br>------- ---------- ------ -- ----- -- ----- -- ---- ------<br>--- ----- --- --- ------ -------- rate. --- ------ ----- --<br>----- ----- ---------- --- --- ------ ------ ---- -- ------<br>------- --- ------ ----- --- ---- ------- -- ---- --- --<br>------- ------,93589.90000000596,93589.10000002384,93268.538,93278.20000001788,93285.205,93602.222,,28,rate.
screen,html.Screen,0_2_1_1_29,2021-11-25T16:47:46.183Z,,,,,,,,,,,,,,,,54,,,,,,,,,,,,,,338.7780000000057,,response,,,100,,,,,,Space,keypress(Space),,,,,-- --- ---- --- ------ ----- ------- ---- -- --- ------- --<br>------- ---------- ------ -- ----- -- ----- -- ---- ------<br>--- ----- --- --- ------ -------- ----- The ------ ----- --<br>----- ----- ---------- --- --- ------ ------ ---- -- ------<br>------- --- ------ ----- --- ---- ------- -- ---- --- --<br>------- ------,93941.80000001192,93941,93585.549,93590.10000002384,93602.222,93952.21,,29,The
screen,html.Screen,0_2_1_1_30,2021-11-25T16:47:46.719Z,,,,,,,,,,,,,,,,54,,,,,,,,,,,,,,524.7899999999936,,response,,,100,,,,,,Space,keypress(Space),,,,,-- --- ---- --- ------ ----- ------- ---- -- --- ------- --<br>------- ---------- ------ -- ----- -- ----- -- ---- ------<br>--- ----- --- --- ------ -------- ----- --- market ----- --<br>----- ----- ---------- --- --- ------ ------ ---- -- ------<br>------- --- ------ ----- --- ---- ------- -- ---- --- --<br>------- ------,94477.80000001192,94477,93935.54,93942,93952.21,94485.672,,30,market
screen,html.Screen,0_2_1_1_31,2021-11-25T16:47:47.039Z,,,,,,,,,,,,,,,,54,,,,,,,,,,,,,,311.32799999999406,,response,,,100,,,,,,Space,keypress(Space),,,,,-- --- ---- --- ------ ----- ------- ---- -- --- ------- --<br>------- ---------- ------ -- ----- -- ----- -- ---- ------<br>--- ----- --- --- ------ -------- ----- --- ------ value --<br>----- ----- ---------- --- --- ------ ------ ---- -- ------<br>------- --- ------ ----- --- ---- ------- -- ---- --- --<br>------- ------,94797.80000001192,94797,94469.002,94478,94485.672,94802.43,,31,value
screen,html.Screen,0_2_1_1_32,2021-11-25T16:47:47.327Z,,,,,,,,,,,,,,,,54,,,,,,,,,,,,,,282.570000000007,,response,,,100,,,,,,Space,keypress(Space),,,,,-- --- ---- --- ------ ----- ------- ---- -- --- ------- --<br>------- ---------- ------ -- ----- -- ----- -- ---- ------<br>--- ----- --- --- ------ -------- ----- --- ------ ----- of<br>----- ----- ---------- --- --- ------ ------ ---- -- ------<br>------- --- ------ ----- --- ---- ------- -- ---- --- --<br>------- ------,95085.80000001192,95085,94785.76,94798,94802.43,95102.5,,32,of
screen,html.Screen,0_2_1_1_33,2021-11-25T16:47:47.632Z,,,,,,,,,,,,,,,,54,,,,,,,,,,,,,,286.90000000596046,,response,,,100,,,,,,Space,keypress(Space),,,,,-- --- ---- --- ------ ----- ------- ---- -- --- ------- --<br>------- ---------- ------ -- ----- -- ----- -- ---- ------<br>--- ----- --- --- ------ -------- ----- --- ------ ----- --<br>these ----- ---------- --- --- ------ ------ ---- -- ------<br>------- --- ------ ----- --- ---- ------- -- ---- --- --<br>------- ------,95390.20000001788,95389.40000000596,95085.83,95086,95102.5,95402.58,,33,these
screen,html.Screen,0_2_1_1_34,2021-11-25T16:47:47.927Z,,,,,,,,,,,,,,,,54,,,,,,,,,,,,,,282.3200000059587,,response,,,100,,,,,,Space,keypress(Space),,,,,-- --- ---- --- ------ ----- ------- ---- -- --- ------- --<br>------- ---------- ------ -- ----- -- ----- -- ---- ------<br>--- ----- --- --- ------ -------- ----- --- ------ ----- --<br>----- bonds ---------- --- --- ------ ------ ---- -- ------<br>------- --- ------ ----- --- ---- ------- -- ---- --- --<br>------- ------,95685.70000001788,95684.90000000596,95385.91,95390.40000000596,95402.58,95702.592,,34,bonds
screen,html.Screen,0_2_1_1_35,2021-11-25T16:47:48.199Z,,,,,,,,,,,,,,,,54,,,,,,,,,,,,,,254.30800000595627,,response,,,100,,,,,,Space,keypress(Space),,,,,"-- --- ---- --- ------ ----- ------- ---- -- --- ------- --<br>------- ---------- ------ -- ----- -- ----- -- ---- ------<br>--- ----- --- --- ------ -------- ----- --- ------ ----- --<br>----- ----- plummeted, --- --- ------ ------ ---- -- ------<br>------- --- ------ ----- --- ---- ------- -- ---- --- --<br>------- ------",95957.80000001192,95956.90000000596,95685.923,95685.90000000596,95702.592,95969.318,,35,"plummeted,"
screen,html.Screen,0_2_1_1_36,2021-11-25T16:47:48.479Z,,,,,,,,,,,,,,,,54,,,,,,,,,,,,,,267.4820000119216,,response,,,100,,,,,,Space,keypress(Space),,,,,-- --- ---- --- ------ ----- ------- ---- -- --- ------- --<br>------- ---------- ------ -- ----- -- ----- -- ---- ------<br>--- ----- --- --- ------ -------- ----- --- ------ ----- --<br>----- ----- ---------- and --- ------ ------ ---- -- ------<br>------- --- ------ ----- --- ---- ------- -- ---- --- --<br>------- ------,96237.60000002384,96236.80000001192,95952.649,95958,95969.318,96252.863,,36,and
screen,html.Screen,0_2_1_1_37,2021-11-25T16:47:48.727Z,,,,,,,,,,,,,,,,54,,,,,,,,,,,,,,231.93700001192337,,response,,,100,,,,,,Space,keypress(Space),,,,,-- --- ---- --- ------ ----- ------- ---- -- --- ------- --<br>------- ---------- ------ -- ----- -- ----- -- ---- ------<br>--- ----- --- --- ------ -------- ----- --- ------ ----- --<br>----- ----- ---------- --- the ------ ------ ---- -- ------<br>------- --- ------ ----- --- ---- ------- -- ---- --- --<br>------- ------,96485.60000002384,96484.80000001192,96236.191,96237.90000000596,96252.863,96502.889,,37,the
screen,html.Screen,0_2_1_1_38,2021-11-25T16:47:48.975Z,,,,,,,,,,,,,,,,54,,,,,,,,,,,,,,230.0110000059649,,response,,,100,,,,,,Space,keypress(Space),,,,,-- --- ---- --- ------ ----- ------- ---- -- --- ------- --<br>------- ---------- ------ -- ----- -- ----- -- ---- ------<br>--- ----- --- --- ------ -------- ----- --- ------ ----- --<br>----- ----- ---------- --- --- market ------ ---- -- ------<br>------- --- ------ ----- --- ---- ------- -- ---- --- --<br>------- ------,96733.70000001788,96732.90000000596,96486.218,96485.90000000596,96502.889,96736.286,,38,market
screen,html.Screen,0_2_1_1_39,2021-11-25T16:47:49.199Z,,,,,,,,,,,,,,,,54,,,,,,,,,,,,,,220.51400001192815,,response,,,100,,,,,,Space,keypress(Space),,,,,-- --- ---- --- ------ ----- ------- ---- -- --- ------- --<br>------- ---------- ------ -- ----- -- ----- -- ---- ------<br>--- ----- --- --- ------ -------- ----- --- ------ ----- --<br>----- ----- ---------- --- --- ------ became ---- -- ------<br>------- --- ------ ----- --- ---- ------- -- ---- --- --<br>------- ------,96957.60000002384,96956.80000001192,96719.615,96733.90000000596,96736.286,96969.646,,39,became
screen,html.Screen,0_2_1_1_40,2021-11-25T16:47:49.423Z,,,,,,,,,,,,,,,,54,,,,,,,,,,,,,,211.15400001192756,,response,,,100,,,,,,Space,keypress(Space),,,,,-- --- ---- --- ------ ----- ------- ---- -- --- ------- --<br>------- ---------- ------ -- ----- -- ----- -- ---- ------<br>--- ----- --- --- ------ -------- ----- --- ------ ----- --<br>----- ----- ---------- --- --- ------ ------ wary -- ------<br>------- --- ------ ----- --- ---- ------- -- ---- --- --<br>------- ------,97181.60000002384,97180.80000001192,96952.976,96957.80000001192,96969.646,97186.396,,40,wary
screen,html.Screen,0_2_1_1_41,2021-11-25T16:47:49.639Z,,,,,,,,,,,,,,,,54,,,,,,,,,,,,,,210.40400001192756,,response,,,100,,,,,,Space,keypress(Space),,,,,-- --- ---- --- ------ ----- ------- ---- -- --- ------- --<br>------- ---------- ------ -- ----- -- ----- -- ---- ------<br>--- ----- --- --- ------ -------- ----- --- ------ ----- --<br>----- ----- ---------- --- --- ------ ------ ---- of ------<br>------- --- ------ ----- --- ---- ------- -- ---- --- --<br>------- ------,97397.60000002384,97396.80000001192,97169.725,97181.80000001192,97186.396,97403.095,,41,of
screen,html.Screen,0_2_1_1_42,2021-11-25T16:47:49.823Z,,,,,,,,,,,,,,,,54,,,,,,,,,,,,,,177.8050000059593,,response,,,100,,,,,,Space,keypress(Space),,,,,-- --- ---- --- ------ ----- ------- ---- -- --- ------- --<br>------- ---------- ------ -- ----- -- ----- -- ---- ------<br>--- ----- --- --- ------ -------- ----- --- ------ ----- --<br>----- ----- ---------- --- --- ------ ------ ---- -- French<br>------- --- ------ ----- --- ---- ------- -- ---- --- --<br>------- ------,97581.60000002384,97580.90000000596,97386.425,97397.80000001192,97403.095,97586.483,,42,French
screen,html.Screen,0_2_1_1_43,2021-11-25T16:47:50.063Z,,,,,,,,,,,,,,,,54,,,,,,,,,,,,,,234.31700001192803,,response,,,100,,,,,,Space,keypress(Space),,,,,-- --- ---- --- ------ ----- ------- ---- -- --- ------- --<br>------- ---------- ------ -- ----- -- ----- -- ---- ------<br>--- ----- --- --- ------ -------- ----- --- ------ ----- --<br>----- ----- ---------- --- --- ------ ------ ---- -- ------<br>credit. --- ------ ----- --- ---- ------- -- ---- --- --<br>------- ------,97821.60000002384,97820.80000001192,97569.813,97581.90000000596,97586.483,97836.57,,43,credit.
screen,html.Screen,0_2_1_1_44,2021-11-25T16:47:50.271Z,,,,,,,,,,,,,,,,54,,,,,,,,,,,,,,192.23000001191394,,response,,,100,,,,,,Space,keypress(Space),,,,,-- --- ---- --- ------ ----- ------- ---- -- --- ------- --<br>------- ---------- ------ -- ----- -- ----- -- ---- ------<br>--- ----- --- --- ------ -------- ----- --- ------ ----- --<br>----- ----- ---------- --- --- ------ ------ ---- -- ------<br>------- The ------ ----- --- ---- ------- -- ---- --- --<br>------- ------,98029.60000002384,98028.80000001192,97819.899,97821.80000001192,97836.57,98036.624,,44,The
screen,html.Screen,0_2_1_1_45,2021-11-25T16:47:50.503Z,,,,,,,,,,,,,,,,54,,,,,,,,,,,,,,224.17600001192477,,response,,,100,,,,,,Space,keypress(Space),,,,,-- --- ---- --- ------ ----- ------- ---- -- --- ------- --<br>------- ---------- ------ -- ----- -- ----- -- ---- ------<br>--- ----- --- --- ------ -------- ----- --- ------ ----- --<br>----- ----- ---------- --- --- ------ ------ ---- -- ------<br>------- --- French ----- --- ---- ------- -- ---- --- --<br>------- ------,98261.5,98260.80000001192,98019.953,98029.80000001192,98036.624,98270.063,,45,French
screen,html.Screen,0_2_1_1_46,2021-11-25T16:47:50.727Z,,,,,,,,,,,,,,,,54,,,,,,,,,,,,,,214.73700001192628,,response,,,100,,,,,,Space,keypress(Space),,,,,-- --- ---- --- ------ ----- ------- ---- -- --- ------- --<br>------- ---------- ------ -- ----- -- ----- -- ---- ------<br>--- ----- --- --- ------ -------- ----- --- ------ ----- --<br>----- ----- ---------- --- --- ------ ------ ---- -- ------<br>------- --- ------ state --- ---- ------- -- ---- --- --<br>------- ------,98485.70000001788,98484.80000001192,98253.391,98261.80000001192,98270.063,98503.181,,46,state
screen,html.Screen,0_2_1_1_47,2021-11-25T16:47:50.967Z,,,,,,,,,,,,,,,,54,,,,,,,,,,,,,,221.61900001192407,,response,,,100,,,,,,Space,keypress(Space),,,,,-- --- ---- --- ------ ----- ------- ---- -- --- ------- --<br>------- ---------- ------ -- ----- -- ----- -- ---- ------<br>--- ----- --- --- ------ -------- ----- --- ------ ----- --<br>----- ----- ---------- --- --- ------ ------ ---- -- ------<br>------- --- ------ ----- was ---- ------- -- ---- --- --<br>------- ------,98725.60000002384,98724.80000001192,98486.517,98485.90000000596,98503.181,98736.882,,47,was
screen,html.Screen,0_2_1_1_48,2021-11-25T16:47:51.215Z,,,,,,,,,,,,,,,,54,,,,,,,,,,,,,,235.91800001192314,,response,,,100,,,,,,Space,keypress(Space),,,,,-- --- ---- --- ------ ----- ------- ---- -- --- ------- --<br>------- ---------- ------ -- ----- -- ----- -- ---- ------<br>--- ----- --- --- ------ -------- ----- --- ------ ----- --<br>----- ----- ---------- --- --- ------ ------ ---- -- ------<br>------- --- ------ ----- --- left ------- -- ---- --- --<br>------- ------,98973.5,98972.80000001192,98720.208,98725.80000001192,98736.882,98986.841,,48,left
screen,html.Screen,0_2_1_1_49,2021-11-25T16:47:51.479Z,,,,,,,,,,,,,,,,54,,,,,,,,,,,,,,249.85900001788104,,response,,,100,,,,,,Space,keypress(Space),,,,,-- --- ---- --- ------ ----- ------- ---- -- --- ------- --<br>------- ---------- ------ -- ----- -- ----- -- ---- ------<br>--- ----- --- --- ------ -------- ----- --- ------ ----- --<br>----- ----- ---------- --- --- ------ ------ ---- -- ------<br>------- --- ------ ----- --- ---- without -- ---- --- --<br>------- ------,99237.60000002384,99236.70000001788,98970.171,98973.80000001192,98986.841,99253.481,,49,without
screen,html.Screen,0_2_1_1_50,2021-11-25T16:47:51.807Z,,,,,,,,,,,,,,,,54,,,,,,,,,,,,,,311.2190000178816,,response,,,100,,,,,,Space,keypress(Space),,,,,-- --- ---- --- ------ ----- ------- ---- -- --- ------- --<br>------- ---------- ------ -- ----- -- ----- -- ---- ------<br>--- ----- --- --- ------ -------- ----- --- ------ ----- --<br>----- ----- ---------- --- --- ------ ------ ---- -- ------<br>------- --- ------ ----- --- ---- ------- an ---- --- --<br>------- ------,99565.60000002384,99564.70000001788,99236.813,99237.80000001192,99253.481,99570.373,,50,an
screen,html.Screen,0_2_1_1_51,2021-11-25T16:47:52.095Z,,,,,,,,,,,,,,,,54,,,,,,,,,,,,,,282.3270000178745,,response,,,100,,,,,,Space,keypress(Space),,,,,-- --- ---- --- ------ ----- ------- ---- -- --- ------- --<br>------- ---------- ------ -- ----- -- ----- -- ---- ------<br>--- ----- --- --- ------ -------- ----- --- ------ ----- --<br>----- ----- ---------- --- --- ------ ------ ---- -- ------<br>------- --- ------ ----- --- ---- ------- -- easy --- --<br>------- ------,99853.5,99852.70000001788,99553.701,99565.80000001192,99570.373,99870.419,,51,easy
screen,html.Screen,0_2_1_1_52,2021-11-25T16:47:52.355Z,,,,,,,,,,,,,,,,54,,,,,,,,,,,,,,238.28100001788698,,response,,,100,,,,,,Space,keypress(Space),,,,,-- --- ---- --- ------ ----- ------- ---- -- --- ------- --<br>------- ---------- ------ -- ----- -- ----- -- ---- ------<br>--- ----- --- --- ------ -------- ----- --- ------ ----- --<br>----- ----- ---------- --- --- ------ ------ ---- -- ------<br>------- --- ------ ----- --- ---- ------- -- ---- way --<br>------- ------,100109.5,100108.70000001788,99853.748,99853.80000001192,99870.419,100120.462,,52,way
screen,html.Screen,0_2_1_1_53,2021-11-25T16:47:52.667Z,,,,,,,,,,,,,,,,54,,,,,,,,,,,,,,300.23800001788186,,response,,,100,,,,,,Space,keypress(Space),,,,,-- --- ---- --- ------ ----- ------- ---- -- --- ------- --<br>------- ---------- ------ -- ----- -- ----- -- ---- ------<br>--- ----- --- --- ------ -------- ----- --- ------ ----- --<br>----- ----- ---------- --- --- ------ ------ ---- -- ------<br>------- --- ------ ----- --- ---- ------- -- ---- --- of<br>------- ------,100421.5,100420.70000001788,100103.792,100109.70000001788,100120.462,100437.208,,53,of
screen,html.Screen,0_2_1_1_54,2021-11-25T16:47:53.011Z,,,,,,,,,,,,,,,,54,,,,,,,,,,,,,,327.4920000178827,,response,,,100,,,,,,Space,keypress(Space),,,,,-- --- ---- --- ------ ----- ------- ---- -- --- ------- --<br>------- ---------- ------ -- ----- -- ----- -- ---- ------<br>--- ----- --- --- ------ -------- ----- --- ------ ----- --<br>----- ----- ---------- --- --- ------ ------ ---- -- ------<br>------- --- ------ ----- --- ---- ------- -- ---- --- --<br>raising ------,100765.40000000596,100764.70000001788,100420.538,100421.70000001788,100437.208,100770.658,,54,raising
screen,html.Screen,0_2_1_1_55,2021-11-25T16:47:53.539Z,,,,,,,,,,,,,,,,54,,,,,,,,,,,,,,521.942000023846,,response,,,100,,,,,,Space,keypress(Space),,,,,-- --- ---- --- ------ ----- ------- ---- -- --- ------- --<br>------- ---------- ------ -- ----- -- ----- -- ---- ------<br>--- ----- --- --- ------ -------- ----- --- ------ ----- --<br>----- ----- ---------- --- --- ------ ------ ---- -- ------<br>------- --- ------ ----- --- ---- ------- -- ---- --- --<br>------- money.,101293.5,101292.60000002384,100753.987,100765.70000001788,100770.658,101304.083,,55,money.
Item 100,flow.Loop,0_2_1_1,2021-11-25T16:47:53.539Z,,,,,,,,,,,,,,,,,,,,,,,,,,,,,,17259.712000023836,,completion,,,,D,,,,,,,,,,silence,,101293.80000001192,101292.60000002384,84016.218,84018.40000000596,84032.888,101304.083,,,
Question 1,html.Screen,0_2_1_2,2021-11-25T16:47:56.867Z,,,,,,,,,,,,,,,,,,,,,,,,,,,true,TRUE,,3316.1170000178827,,response,,,100,D,,,,,TRUE,click #choice-1,,,,silence,,104621.40000000596,104620.20000001788,101287.413,101294,101304.083,104621.618,,,
Question 2,html.Screen,0_2_1_3,2021-11-25T16:47:58.035Z,,,,,,,,,,,,,,,,,,,,,,,,,,,true,FALSE,,1166.5820000178792,,response,,,100,D,,,,,FALSE,click #choice-2,,,,silence,,105789.40000000596,105788.20000001788,104604.948,104621.80000001192,104621.618,105805.807,,,
Item 100,flow.Sequence,0_2_1,2021-11-25T16:47:58.035Z,,,,,,,,,,,,,,,,,,,,,,,,,,,,,,31757.780000017883,,completion,,,,,,,,,,,,,,,,105789.80000001192,105788.20000001788,74013.75,74024,74030.42,105805.807,,,
End of Practice,html.Page,0_2_2,2021-11-25T16:48:02.787Z,,,,,,,,,,,,,,,,,,,,,,,,,,,,,,4735.49300001192,,form submission,,,,,,,,,,,,,,,,110541.80000001192,110541.30000001192,105789.091,105790,105805.807,110556.086,,,
Practice,flow.Sequence,0_2,2021-11-25T16:48:02.788Z,,,,,,,,,,,,,,,,,,,,,,,,,,,,,,94592.93400001193,,completion,,,,,,,,,,,,,,,,110542.20000001788,110541.30000001192,15931.701,15947.200000017881,15948.366,110556.086,,,
Trap_instruction,html.Page,0_3_0,2021-11-25T16:48:04.972Z,,,,,,,,,,,,,,,,,,,,,,,,,,,,,,2169.3140000059648,,form submission,,,,,,,,,,,,,,,,112725.80000001192,112725.40000000596,110539.425,110542.40000000596,110556.086,112757.296,,,
trap_trial,html.Screen,0_3_1,2021-11-25T16:48:10.939Z,,,,,,,,,,,,,,,,,,,,,,,,,,,true,1,,5934.203999999998,,response,,,,,,,,,1,click #choice-1,,,,,,118692.90000000596,118691.5,112723.94,112726,112757.296,118706.099,,,
end of trap trial,html.Page,0_3_2,2021-11-25T16:48:13.435Z,,,,,,,,,,,,,,,,,,,,,,,,,,,,,,2482.6010000178794,,form submission,,,,,,,,,,,,,,,,121189.10000002384,121188.70000001788,118689.435,118693.10000002384,118706.099,121192.446,,,
Trap 1,flow.Sequence,0_3,2021-11-25T16:48:13.435Z,,,,,,,,,,,,,,,,,,,,,,,,,,,,,,10632.614000017886,,completion,,,,,,,,,,,,,,,,121189.5,121188.70000001788,110539.425,110542.40000000596,110556.086,121192.446,,,
Standby,html.Page,0_4_0,2021-11-25T16:48:21.425Z,,,,,,,,,,,,,,,,,,,,,,,,,,,,,,8002.229000000007,,timeout,,,,,,,,,,,,,,,,129179,129178.004,121175.776,121189.70000001788,121192.446,129194.675,,,
Holding screen,html.Screen,0_4_1_0_0,2021-11-25T16:48:28.427Z,,,,,,,,,,,,,,,,,,,,,,,,,,,,,,7001.773000000001,,timeout,,,,,,,,,,,,,,,,136181.20000001788,136179.777,129178.004,129179.40000000596,129194.675,136196.448,,,
screen,html.Screen,0_4_1_0_1_0,2021-11-25T16:48:29.506Z,,,,,,,,,,,,,,,,15,,,,,,,,,,,,,,1062.7520000178774,,response,,,7,D,,,,,Space,keypress(Space),,,,silence,Greg --------- ---------- - --- ------- -- --- ------------<br>----- -- -------- ------- ---- ------ - -------- ---- -----<br>--- ------- ---- -- --- -------- --- - ----- ------ ---- --<br>-------- --- -------- -------- --- -------- ---- -- ----- -<br>-------- ---- --- ---------- --------- -- ------- ------ -<br>--------- ----- -----,137260.40000000596,137259.20000001788,136179.777,136181.60000002384,136196.448,137263.297,,0,Greg
screen,html.Screen,0_4_1_0_1_1,2021-11-25T16:48:30.601Z,,,,,,,,,,,,,,,,15,,,,,,,,,,,,,,1091.3030000238505,,response,,,7,D,,,,,Space,keypress(Space),,,,silence,"---- Anderson, ---------- - --- ------- -- --- ------------<br>----- -- -------- ------- ---- ------ - -------- ---- -----<br>--- ------- ---- -- --- -------- --- - ----- ------ ---- --<br>-------- --- -------- -------- --- -------- ---- -- ----- -<br>-------- ---- --- ---------- --------- -- ------- ------ -<br>--------- ----- -----",138355.5,138354.60000002384,137246.627,137260.70000001788,137263.297,138363.56,,1,"Anderson,"
screen,html.Screen,0_4_1_0_1_2,2021-11-25T16:48:31.297Z,,,,,,,,,,,,,,,,15,,,,,,,,,,,,,,687.0400000238442,,response,,,7,D,,,,,Space,keypress(Space),,,,silence,---- --------- considered - --- ------- -- --- ------------<br>----- -- -------- ------- ---- ------ - -------- ---- -----<br>--- ------- ---- -- --- -------- --- - ----- ------ ---- --<br>-------- --- -------- -------- --- -------- ---- -- ----- -<br>-------- ---- --- ---------- --------- -- ------- ------ -<br>--------- ----- -----,139051.40000000596,139050.60000002384,138346.89,138355.80000001192,138363.56,139063.819,,2,considered
screen,html.Screen,0_4_1_0_1_3,2021-11-25T16:48:31.729Z,,,,,,,,,,,,,,,,15,,,,,,,,,,,,,,418.6810000000114,,response,,,7,D,,,,,Space,keypress(Space),,,,silence,---- --------- ---------- a --- ------- -- --- ------------<br>----- -- -------- ------- ---- ------ - -------- ---- -----<br>--- ------- ---- -- --- -------- --- - ----- ------ ---- --<br>-------- --- -------- -------- --- -------- ---- -- ----- -<br>-------- ---- --- ---------- --------- -- ------- ------ -<br>--------- ----- -----,139483.40000000596,139482.5,139047.148,139051.70000001788,139063.819,139497.141,,3,a
screen,html.Screen,0_4_1_0_1_4,2021-11-25T16:48:32.081Z,,,,,,,,,,,,,,,,15,,,,,,,,,,,,,,337.35899999999674,,response,,,7,D,,,,,Space,keypress(Space),,,,silence,---- --------- ---------- - key ------- -- --- ------------<br>----- -- -------- ------- ---- ------ - -------- ---- -----<br>--- ------- ---- -- --- -------- --- - ----- ------ ---- --<br>-------- --- -------- -------- --- -------- ---- -- ----- -<br>-------- ---- --- ---------- --------- -- ------- ------ -<br>--------- ----- -----,139835.40000000596,139834.5,139480.472,139483.60000002384,139497.141,139847.429,,4,key
screen,html.Screen,0_4_1_0_1_5,2021-11-25T16:48:32.489Z,,,,,,,,,,,,,,,,15,,,,,,,,,,,,,,395.0709999999963,,response,,,7,D,,,,,Space,keypress(Space),,,,silence,---- --------- ---------- - --- witness -- --- ------------<br>----- -- -------- ------- ---- ------ - -------- ---- -----<br>--- ------- ---- -- --- -------- --- - ----- ------ ---- --<br>-------- --- -------- -------- --- -------- ---- -- ----- -<br>-------- ---- --- ---------- --------- -- ------- ------ -<br>--------- ----- -----,140243.30000001192,140242.5,139830.757,139835.70000001788,139847.429,140247.487,,5,witness
screen,html.Screen,0_4_1_0_1_6,2021-11-25T16:48:33.097Z,,,,,,,,,,,,,,,,15,,,,,,,,,,,,,,602.9130000059668,,response,,,7,D,,,,,Space,keypress(Space),,,,silence,---- --------- ---------- - --- ------- by --- ------------<br>----- -- -------- ------- ---- ------ - -------- ---- -----<br>--- ------- ---- -- --- -------- --- - ----- ------ ---- --<br>-------- --- -------- -------- --- -------- ---- -- ----- -<br>-------- ---- --- ---------- --------- -- ------- ------ -<br>--------- ----- -----,140851.30000001192,140850.40000000596,140230.816,140243.5,140247.487,140864.246,,6,by
screen,html.Screen,0_4_1_0_1_7,2021-11-25T16:48:33.473Z,,,,,,,,,,,,,,,,15,,,,,,,,,,,,,,362.25399999998626,,response,,,7,D,,,,,Space,keypress(Space),,,,silence,---- --------- ---------- - --- ------- -- the ------------<br>----- -- -------- ------- ---- ------ - -------- ---- -----<br>--- ------- ---- -- --- -------- --- - ----- ------ ---- --<br>-------- --- -------- -------- --- -------- ---- -- ----- -<br>-------- ---- --- ---------- --------- -- ------- ------ -<br>--------- ----- -----,141227.20000001788,141226.5,140847.576,140851.70000001788,140864.246,141231.031,,7,the
screen,html.Screen,0_4_1_0_1_8,2021-11-25T16:48:35.281Z,,,,,,,,,,,,,,,,15,,,,,,,,,,,,,,1803.2690000119328,,response,,,7,D,,,,,Space,keypress(Space),,,,silence,"---- --------- ---------- - --- ------- -- --- prosecution,<br>----- -- -------- ------- ---- ------ - -------- ---- -----<br>--- ------- ---- -- --- -------- --- - ----- ------ ---- --<br>-------- --- -------- -------- --- -------- ---- -- ----- -<br>-------- ---- --- ---------- --------- -- ------- ------ -<br>--------- ----- -----",143035.20000001788,143034.30000001192,141214.361,141227.40000000596,141231.031,143048.09,,8,"prosecution,"
screen,html.Screen,0_4_1_0_1_9,2021-11-25T16:48:35.737Z,,,,,,,,,,,,,,,,15,,,,,,,,,,,,,,442.2100000119244,,response,,,7,D,,,,,Space,keypress(Space),,,,silence,---- --------- ---------- - --- ------- -- --- ------------<br>vowed -- -------- ------- ---- ------ - -------- ---- -----<br>--- ------- ---- -- --- -------- --- - ----- ------ ---- --<br>-------- --- -------- -------- --- -------- ---- -- ----- -<br>-------- ---- --- ---------- --------- -- ------- ------ -<br>--------- ----- -----,143491.10000002384,143490.30000001192,143031.42,143035.5,143048.09,143498.237,,9,vowed
screen,html.Screen,0_4_1_0_1_10,2021-11-25T16:48:37.105Z,,,,,,,,,,,,,,,,15,,,,,,,,,,,,,,1359.9630000178877,,response,,,7,D,,,,,Space,keypress(Space),,,,silence,---- --------- ---------- - --- ------- -- --- ------------<br>----- he -------- ------- ---- ------ - -------- ---- -----<br>--- ------- ---- -- --- -------- --- - ----- ------ ---- --<br>-------- --- -------- -------- --- -------- ---- -- ----- -<br>-------- ---- --- ---------- --------- -- ------- ------ -<br>--------- ----- -----,144859,144858.20000001788,143481.567,143491.30000001192,143498.237,144865.244,,10,he
screen,html.Screen,0_4_1_0_1_11,2021-11-25T16:48:37.641Z,,,,,,,,,,,,,,,,15,,,,,,,,,,,,,,529.0560000119149,,response,,,7,D,,,,,Space,keypress(Space),,,,silence,---- --------- ---------- - --- ------- -- --- ------------<br>----- -- wouldn't ------- ---- ------ - -------- ---- -----<br>--- ------- ---- -- --- -------- --- - ----- ------ ---- --<br>-------- --- -------- -------- --- -------- ---- -- ----- -<br>-------- ---- --- ---------- --------- -- ------- ------ -<br>--------- ----- -----,145395,145394.30000001192,144848.574,144859.30000001192,144865.244,145398.758,,11,wouldn't
screen,html.Screen,0_4_1_0_1_12,2021-11-25T16:48:38.465Z,,,,,,,,,,,,,,,,15,,,,,,,,,,,,,,819.3420000238402,,response,,,7,D,,,,,Space,keypress(Space),,,,silence,---- --------- ---------- - --- ------- -- --- ------------<br>----- -- -------- testify ---- ------ - -------- ---- -----<br>--- ------- ---- -- --- -------- --- - ----- ------ ---- --<br>-------- --- -------- -------- --- -------- ---- -- ----- -<br>-------- ---- --- ---------- --------- -- ------- ------ -<br>--------- ----- -----,146218.90000000596,146218.10000002384,145382.088,145395.20000001788,145398.758,146232.305,,12,testify
screen,html.Screen,0_4_1_0_1_13,2021-11-25T16:48:39.009Z,,,,,,,,,,,,,,,,15,,,,,,,,,,,,,,529.7950000238488,,response,,,7,D,,,,,Space,keypress(Space),,,,silence,---- --------- ---------- - --- ------- -- --- ------------<br>----- -- -------- ------- when ------ - -------- ---- -----<br>--- ------- ---- -- --- -------- --- - ----- ------ ---- --<br>-------- --- -------- -------- --- -------- ---- -- ----- -<br>-------- ---- --- ---------- --------- -- ------- ------ -<br>--------- ----- -----,146762.90000000596,146762.10000002384,146215.635,146219.20000001788,146232.305,146765.789,,13,when
screen,html.Screen,0_4_1_0_1_14,2021-11-25T16:48:39.609Z,,,,,,,,,,,,,,,,15,,,,,,,,,,,,,,596.7110000000102,,response,,,7,D,,,,,Space,keypress(Space),,,,silence,---- --------- ---------- - --- ------- -- --- ------------<br>----- -- -------- ------- ---- served - -------- ---- -----<br>--- ------- ---- -- --- -------- --- - ----- ------ ---- --<br>-------- --- -------- -------- --- -------- ---- -- ----- -<br>-------- ---- --- ---------- --------- -- ------- ------ -<br>--------- ----- -----,147363.30000001192,147362.5,146749.119,146763.20000001788,146765.789,147365.942,,14,served
screen,html.Screen,0_4_1_0_1_15,2021-11-25T16:48:40.081Z,,,,,,,,,,,,,,,,15,,,,,,,,,,,,,,468.15800002383185,,response,,,7,D,,,,,Space,keypress(Space),,,,silence,---- --------- ---------- - --- ------- -- --- ------------<br>----- -- -------- ------- ---- ------ a -------- ---- -----<br>--- ------- ---- -- --- -------- --- - ----- ------ ---- --<br>-------- --- -------- -------- --- -------- ---- -- ----- -<br>-------- ---- --- ---------- --------- -- ------- ------ -<br>--------- ----- -----,147834.90000000596,147834.10000002384,147349.272,147363.5,147365.942,147849.412,,15,a
screen,html.Screen,0_4_1_0_1_16,2021-11-25T16:48:41.984Z,,,,,,,,,,,,,,,,15,,,,,,,,,,,,,,1888.4880000059493,,response,,,7,D,,,,,Space,keypress(Space),,,,silence,---- --------- ---------- - --- ------- -- --- ------------<br>----- -- -------- ------- ---- ------ - subpoena ---- -----<br>--- ------- ---- -- --- -------- --- - ----- ------ ---- --<br>-------- --- -------- -------- --- -------- ---- -- ----- -<br>-------- ---- --- ---------- --------- -- ------- ------ -<br>--------- ----- -----,149738.80000001192,149737.90000000596,147832.742,147835.20000001788,147849.412,149749.656,,16,subpoena
screen,html.Screen,0_4_1_0_1_17,2021-11-25T16:48:42.440Z,,,,,,,,,,,,,,,,15,,,,,,,,,,,,,,444.24400000597234,,response,,,7,D,,,,,Space,keypress(Space),,,,silence,---- --------- ---------- - --- ------- -- --- ------------<br>----- -- -------- ------- ---- ------ - -------- last -----<br>--- ------- ---- -- --- -------- --- - ----- ------ ---- --<br>-------- --- -------- -------- --- -------- ---- -- ----- -<br>-------- ---- --- ---------- --------- -- ------- ------ -<br>--------- ----- -----,150194.90000000596,150193.90000000596,149732.987,149739,149749.656,150200.054,,17,last
screen,html.Screen,0_4_1_0_1_18,2021-11-25T16:48:43.944Z,,,,,,,,,,,,,,,,15,,,,,,,,,,,,,,1497.8460000059567,,response,,,7,D,,,,,Space,keypress(Space),,,,silence,---- --------- ---------- - --- ------- -- --- ------------<br>----- -- -------- ------- ---- ------ - -------- ---- week.<br>--- ------- ---- -- --- -------- --- - ----- ------ ---- --<br>-------- --- -------- -------- --- -------- ---- -- ----- -<br>-------- ---- --- ---------- --------- -- ------- ------ -<br>--------- ----- -----,151698.60000002384,151697.90000000596,150183.383,150195,150200.054,151700.337,,18,week.
screen,html.Screen,0_4_1_0_1_19,2021-11-25T16:48:44.400Z,,,,,,,,,,,,,,,,15,,,,,,,,,,,,,,453.56300000596093,,response,,,7,D,,,,,Space,keypress(Space),,,,silence,---- --------- ---------- - --- ------- -- --- ------------<br>----- -- -------- ------- ---- ------ - -------- ---- -----<br>His ------- ---- -- --- -------- --- - ----- ------ ---- --<br>-------- --- -------- -------- --- -------- ---- -- ----- -<br>-------- ---- --- ---------- --------- -- ------- ------ -<br>--------- ----- -----,152154.70000001788,152153.90000000596,151683.667,151698.90000000596,151700.337,152167.145,,19,His
screen,html.Screen,0_4_1_0_1_20,2021-11-25T16:48:44.736Z,,,,,,,,,,,,,,,,15,,,,,,,,,,,,,,322.6550000119314,,response,,,7,D,,,,,Space,keypress(Space),,,,silence,---- --------- ---------- - --- ------- -- --- ------------<br>----- -- -------- ------- ---- ------ - -------- ---- -----<br>--- lawyers ---- -- --- -------- --- - ----- ------ ---- --<br>-------- --- -------- -------- --- -------- ---- -- ----- -<br>-------- ---- --- ---------- --------- -- ------- ------ -<br>--------- ----- -----,152490.70000001788,152489.80000001192,152150.475,152155,152167.145,152500.524,,20,lawyers
screen,html.Screen,0_4_1_0_1_21,2021-11-25T16:48:45.064Z,,,,,,,,,,,,,,,,15,,,,,,,,,,,,,,317.3760000059556,,response,,,7,D,,,,,Space,keypress(Space),,,,silence,---- --------- ---------- - --- ------- -- --- ------------<br>----- -- -------- ------- ---- ------ - -------- ---- -----<br>--- ------- said -- --- -------- --- - ----- ------ ---- --<br>-------- --- -------- -------- --- -------- ---- -- ----- -<br>-------- ---- --- ---------- --------- -- ------- ------ -<br>--------- ----- -----,152818.70000001788,152817.90000000596,152483.854,152490.90000000596,152500.524,152834.131,,21,said
screen,html.Screen,0_4_1_0_1_22,2021-11-25T16:48:45.368Z,,,,,,,,,,,,,,,,15,,,,,,,,,,,,,,287.669000011927,,response,,,7,D,,,,,Space,keypress(Space),,,,silence,---- --------- ---------- - --- ------- -- --- ------------<br>----- -- -------- ------- ---- ------ - -------- ---- -----<br>--- ------- ---- he --- -------- --- - ----- ------ ---- --<br>-------- --- -------- -------- --- -------- ---- -- ----- -<br>-------- ---- --- ---------- --------- -- ------- ------ -<br>--------- ----- -----,153122.60000002384,153121.80000001192,152817.458,152818.90000000596,152834.131,153133.985,,22,he
screen,html.Screen,0_4_1_0_1_23,2021-11-25T16:48:45.680Z,,,,,,,,,,,,,,,,15,,,,,,,,,,,,,,299.71500001789536,,response,,,7,D,,,,,Space,keypress(Space),,,,silence,---- --------- ---------- - --- ------- -- --- ------------<br>----- -- -------- ------- ---- ------ - -------- ---- -----<br>--- ------- ---- -- was -------- --- - ----- ------ ---- --<br>-------- --- -------- -------- --- -------- ---- -- ----- -<br>-------- ---- --- ---------- --------- -- ------- ------ -<br>--------- ----- -----,153434.5,153433.70000001788,153117.317,153122.80000001192,153133.985,153450.921,,23,was
screen,html.Screen,0_4_1_0_1_24,2021-11-25T16:48:45.945Z,,,,,,,,,,,,,,,,15,,,,,,,,,,,,,,247.2790000178793,,response,,,7,D,,,,,Space,keypress(Space),,,,silence,---- --------- ---------- - --- ------- -- --- ------------<br>----- -- -------- ------- ---- ------ - -------- ---- -----<br>--- ------- ---- -- --- prepared --- - ----- ------ ---- --<br>-------- --- -------- -------- --- -------- ---- -- ----- -<br>-------- ---- --- ---------- --------- -- ------- ------ -<br>--------- ----- -----,153699,153698.20000001788,153434.249,153434.90000000596,153450.921,153700.916,,24,prepared
screen,html.Screen,0_4_1_0_1_25,2021-11-25T16:48:46.328Z,,,,,,,,,,,,,,,,15,,,,,,,,,,,,,,380.78400001788395,,response,,,7,D,,,,,Space,keypress(Space),,,,silence,---- --------- ---------- - --- ------- -- --- ------------<br>----- -- -------- ------- ---- ------ - -------- ---- -----<br>--- ------- ---- -- --- -------- for - ----- ------ ---- --<br>-------- --- -------- -------- --- -------- ---- -- ----- -<br>-------- ---- --- ---------- --------- -- ------- ------ -<br>--------- ----- -----,154082.5,154081.70000001788,153684.246,153699.20000001788,153700.916,154084.341,,25,for
screen,html.Screen,0_4_1_0_1_26,2021-11-25T16:48:46.608Z,,,,,,,,,,,,,,,,15,,,,,,,,,,,,,,277.3590000178956,,response,,,7,D,,,,,Space,keypress(Space),,,,silence,---- --------- ---------- - --- ------- -- --- ------------<br>----- -- -------- ------- ---- ------ - -------- ---- -----<br>--- ------- ---- -- --- -------- --- a ----- ------ ---- --<br>-------- --- -------- -------- --- -------- ---- -- ----- -<br>-------- ---- --- ---------- --------- -- ------- ------ -<br>--------- ----- -----,154362.5,154361.70000001788,154067.671,154082.70000001788,154084.341,154367.68,,26,a
screen,html.Screen,0_4_1_0_1_27,2021-11-25T16:48:46.872Z,,,,,,,,,,,,,,,,15,,,,,,,,,,,,,,258.0200000178884,,response,,,7,D,,,,,Space,keypress(Space),,,,silence,---- --------- ---------- - --- ------- -- --- ------------<br>----- -- -------- ------- ---- ------ - -------- ---- -----<br>--- ------- ---- -- --- -------- --- - third ------ ---- --<br>-------- --- -------- -------- --- -------- ---- -- ----- -<br>-------- ---- --- ---------- --------- -- ------- ------ -<br>--------- ----- -----,154626.5,154625.70000001788,154351.011,154362.70000001788,154367.68,154634.518,,27,third
screen,html.Screen,0_4_1_0_1_28,2021-11-25T16:48:47.296Z,,,,,,,,,,,,,,,,15,,,,,,,,,,,,,,415.18200001787045,,response,,,7,D,,,,,Space,keypress(Space),,,,silence,---- --------- ---------- - --- ------- -- --- ------------<br>----- -- -------- ------- ---- ------ - -------- ---- -----<br>--- ------- ---- -- --- -------- --- - ----- prison ---- --<br>-------- --- -------- -------- --- -------- ---- -- ----- -<br>-------- ---- --- ---------- --------- -- ------- ------ -<br>--------- ----- -----,155050.60000002384,155049.70000001788,154617.847,154626.80000001192,154634.518,155067.926,,28,prison
screen,html.Screen,0_4_1_0_1_29,2021-11-25T16:48:48.320Z,,,,,,,,,,,,,,,,15,,,,,,,,,,,,,,1005.6740000238351,,response,,,7,D,,,,,Space,keypress(Space),,,,silence,---- --------- ---------- - --- ------- -- --- ------------<br>----- -- -------- ------- ---- ------ - -------- ---- -----<br>--- ------- ---- -- --- -------- --- - ----- ------ stay --<br>-------- --- -------- -------- --- -------- ---- -- ----- -<br>-------- ---- --- ---------- --------- -- ------- ------ -<br>--------- ----- -----,156074.5,156073.60000002384,155051.256,155050.80000001192,155067.926,156084.894,,29,stay
screen,html.Screen,0_4_1_0_1_30,2021-11-25T16:48:48.728Z,,,,,,,,,,,,,,,,15,,,,,,,,,,,,,,396.7060000238416,,response,,,7,D,,,,,Space,keypress(Space),,,,silence,---- --------- ---------- - --- ------- -- --- ------------<br>----- -- -------- ------- ---- ------ - -------- ---- -----<br>--- ------- ---- -- --- -------- --- - ----- ------ ---- to<br>-------- --- -------- -------- --- -------- ---- -- ----- -<br>-------- ---- --- ---------- --------- -- ------- ------ -<br>--------- ----- -----,156482.40000000596,156481.60000002384,156068.223,156074.80000001192,156084.894,156484.936,,30,to
screen,html.Screen,0_4_1_0_1_31,2021-11-25T16:48:49.392Z,,,,,,,,,,,,,,,,15,,,,,,,,,,,,,,660.564000000013,,response,,,7,D,,,,,Space,keypress(Space),,,,silence,---- --------- ---------- - --- ------- -- --- ------------<br>----- -- -------- ------- ---- ------ - -------- ---- -----<br>--- ------- ---- -- --- -------- --- - ----- ------ ---- --<br>maintain --- -------- -------- --- -------- ---- -- ----- -<br>-------- ---- --- ---------- --------- -- ------- ------ -<br>--------- ----- -----,157146.40000000596,157145.5,156468.266,156482.60000002384,156484.936,157151.776,,31,maintain
screen,html.Screen,0_4_1_0_1_32,2021-11-25T16:48:50.136Z,,,,,,,,,,,,,,,,15,,,,,,,,,,,,,,738.2239999999874,,response,,,7,D,,,,,Space,keypress(Space),,,,silence,---- --------- ---------- - --- ------- -- --- ------------<br>----- -- -------- ------- ---- ------ - -------- ---- -----<br>--- ------- ---- -- --- -------- --- - ----- ------ ---- --<br>-------- his -------- -------- --- -------- ---- -- ----- -<br>-------- ---- --- ---------- --------- -- ------- ------ -<br>--------- ----- -----,157890.80000001192,157890,157135.106,157146.60000002384,157151.776,157901.942,,32,his
screen,html.Screen,0_4_1_0_1_33,2021-11-25T16:48:50.536Z,,,,,,,,,,,,,,,,15,,,,,,,,,,,,,,387.55799999999,,response,,,7,D,,,,,Space,keypress(Space),,,,silence,---- --------- ---------- - --- ------- -- --- ------------<br>----- -- -------- ------- ---- ------ - -------- ---- -----<br>--- ------- ---- -- --- -------- --- - ----- ------ ---- --<br>-------- --- silence. -------- --- -------- ---- -- ----- -<br>-------- ---- --- ---------- --------- -- ------- ------ -<br>--------- ----- -----,158290.20000001788,158289.5,157885.272,157891,157901.942,158302.129,,33,silence.
screen,html.Screen,0_4_1_0_1_34,2021-11-25T16:48:52.104Z,,,,,,,,,,,,,,,,15,,,,,,,,,,,,,,1555.2710000059742,,response,,,7,D,,,,,Space,keypress(Space),,,,silence,---- --------- ---------- - --- ------- -- --- ------------<br>----- -- -------- ------- ---- ------ - -------- ---- -----<br>--- ------- ---- -- --- -------- --- - ----- ------ ---- --<br>-------- --- -------- Anderson --- -------- ---- -- ----- -<br>-------- ---- --- ---------- --------- -- ------- ------ -<br>--------- ----- -----,159858.20000001788,159857.40000000596,158285.458,158290.60000002384,158302.129,159869.207,,34,Anderson
screen,html.Screen,0_4_1_0_1_35,2021-11-25T16:48:52.490Z,,,,,,,,,,,,,,,,15,,,,,,,,,,,,,,372.1930000059656,,response,,,7,D,,,,,Space,keypress(Space),,,,silence,---- --------- ---------- - --- ------- -- --- ------------<br>----- -- -------- ------- ---- ------ - -------- ---- -----<br>--- ------- ---- -- --- -------- --- - ----- ------ ---- --<br>-------- --- -------- -------- was -------- ---- -- ----- -<br>-------- ---- --- ---------- --------- -- ------- ------ -<br>--------- ----- -----,160242.10000002384,160241.40000000596,159852.536,159858.5,159869.207,160252.596,,35,was
screen,html.Screen,0_4_1_0_1_36,2021-11-25T16:48:52.818Z,,,,,,,,,,,,,,,,15,,,,,,,,,,,,,,316.80400000597,,response,,,7,D,,,,,Space,keypress(Space),,,,silence,---- --------- ---------- - --- ------- -- --- ------------<br>----- -- -------- ------- ---- ------ - -------- ---- -----<br>--- ------- ---- -- --- -------- --- - ----- ------ ---- --<br>-------- --- -------- -------- --- released ---- -- ----- -<br>-------- ---- --- ---------- --------- -- ------- ------ -<br>--------- ----- -----,160570.20000001788,160569.40000000596,160235.926,160242.40000000596,160252.596,160586.019,,36,released
screen,html.Screen,0_4_1_0_1_37,2021-11-25T16:48:53.290Z,,,,,,,,,,,,,,,,15,,,,,,,,,,,,,,455.38100000596023,,response,,,7,D,,,,,Space,keypress(Space),,,,silence,---- --------- ---------- - --- ------- -- --- ------------<br>----- -- -------- ------- ---- ------ - -------- ---- -----<br>--- ------- ---- -- --- -------- --- - ----- ------ ---- --<br>-------- --- -------- -------- --- -------- July -- ----- -<br>-------- ---- --- ---------- --------- -- ------- ------ -<br>--------- ----- -----,161042.10000002384,161041.40000000596,160569.349,160570.5,160586.019,161052.713,,37,July
screen,html.Screen,0_4_1_0_1_38,2021-11-25T16:48:53.994Z,,,,,,,,,,,,,,,,15,,,,,,,,,,,,,,692.5870000119321,,response,,,7,D,,,,,Space,keypress(Space),,,,silence,---- --------- ---------- - --- ------- -- --- ------------<br>----- -- -------- ------- ---- ------ - -------- ---- -----<br>--- ------- ---- -- --- -------- --- - ----- ------ ---- --<br>-------- --- -------- -------- --- -------- ---- 20 ----- -<br>-------- ---- --- ---------- --------- -- ------- ------ -<br>--------- ----- -----,161746.10000002384,161745.30000001192,161036.044,161042.40000000596,161052.713,161753.077,,38,20
screen,html.Screen,0_4_1_0_1_39,2021-11-25T16:48:54.618Z,,,,,,,,,,,,,,,,15,,,,,,,,,,,,,,616.2230000119307,,response,,,7,D,,,,,Space,keypress(Space),,,,silence,---- --------- ---------- - --- ------- -- --- ------------<br>----- -- -------- ------- ---- ------ - -------- ---- -----<br>--- ------- ---- -- --- -------- --- - ----- ------ ---- --<br>-------- --- -------- -------- --- -------- ---- -- after -<br>-------- ---- --- ---------- --------- -- ------- ------ -<br>--------- ----- -----,162370.10000002384,162369.30000001192,161736.405,161746.30000001192,161753.077,162386.519,,39,after
screen,html.Screen,0_4_1_0_1_40,2021-11-25T16:48:55.290Z,,,,,,,,,,,,,,,,15,,,,,,,,,,,,,,654.6810000178812,,response,,,7,D,,,,,Space,keypress(Space),,,,silence,---- --------- ---------- - --- ------- -- --- ------------<br>----- -- -------- ------- ---- ------ - -------- ---- -----<br>--- ------- ---- -- --- -------- --- - ----- ------ ---- --<br>-------- --- -------- -------- --- -------- ---- -- ----- a<br>-------- ---- --- ---------- --------- -- ------- ------ -<br>--------- ----- -----,163042,163041.20000001788,162369.848,162370.40000000596,162386.519,163053.198,,40,a
screen,html.Screen,0_4_1_0_1_41,2021-11-25T16:48:55.706Z,,,,,,,,,,,,,,,,15,,,,,,,,,,,,,,404.00200001787744,,response,,,7,D,,,,,Space,keypress(Space),,,,silence,---- --------- ---------- - --- ------- -- --- ------------<br>----- -- -------- ------- ---- ------ - -------- ---- -----<br>--- ------- ---- -- --- -------- --- - ----- ------ ---- --<br>-------- --- -------- -------- --- -------- ---- -- ----- -<br>two-week ---- --- ---------- --------- -- ------- ------ -<br>--------- ----- -----,163457.90000000596,163457.20000001788,163036.529,163042.30000001192,163053.198,163470.184,,41,two-week
screen,html.Screen,0_4_1_0_1_42,2021-11-25T16:48:56.266Z,,,,,,,,,,,,,,,,15,,,,,,,,,,,,,,547.016000017873,,response,,,7,D,,,,,Space,keypress(Space),,,,silence,---- --------- ---------- - --- ------- -- --- ------------<br>----- -- -------- ------- ---- ------ - -------- ---- -----<br>--- ------- ---- -- --- -------- --- - ----- ------ ---- --<br>-------- --- -------- -------- --- -------- ---- -- ----- -<br>-------- stay --- ---------- --------- -- ------- ------ -<br>--------- ----- -----,164017.90000000596,164017.20000001788,163453.512,163458.20000001788,163470.184,164020.221,,42,stay
screen,html.Screen,0_4_1_0_1_43,2021-11-25T16:48:56.674Z,,,,,,,,,,,,,,,,15,,,,,,,,,,,,,,404.8790000238514,,response,,,7,D,,,,,Space,keypress(Space),,,,silence,---- --------- ---------- - --- ------- -- --- ------------<br>----- -- -------- ------- ---- ------ - -------- ---- -----<br>--- ------- ---- -- --- -------- --- - ----- ------ ---- --<br>-------- --- -------- -------- --- -------- ---- -- ----- -<br>-------- ---- for ---------- --------- -- ------- ------ -<br>--------- ----- -----,164425.90000000596,164425.10000002384,164003.551,164018.20000001788,164020.221,164436.991,,43,for
screen,html.Screen,0_4_1_0_1_44,2021-11-25T16:48:57.082Z,,,,,,,,,,,,,,,,15,,,,,,,,,,,,,,396.2090000178723,,response,,,7,D,,,,,Space,keypress(Space),,,,silence,---- --------- ---------- - --- ------- -- --- ------------<br>----- -- -------- ------- ---- ------ - -------- ---- -----<br>--- ------- ---- -- --- -------- --- - ----- ------ ---- --<br>-------- --- -------- -------- --- -------- ---- -- ----- -<br>-------- ---- --- previously --------- -- ------- ------ -<br>--------- ----- -----,164834,164833.20000001788,164420.321,164426.20000001788,164436.991,164837.147,,44,previously
screen,html.Screen,0_4_1_0_1_45,2021-11-25T16:48:57.738Z,,,,,,,,,,,,,,,,15,,,,,,,,,,,,,,651.9530000238447,,response,,,7,D,,,,,Space,keypress(Space),,,,silence,---- --------- ---------- - --- ------- -- --- ------------<br>----- -- -------- ------- ---- ------ - -------- ---- -----<br>--- ------- ---- -- --- -------- --- - ----- ------ ---- --<br>-------- --- -------- -------- --- -------- ---- -- ----- -<br>-------- ---- --- ---------- declining -- ------- ------ -<br>--------- ----- -----,165489.90000000596,165489.10000002384,164820.476,164834.30000001192,164837.147,165503.938,,45,declining
screen,html.Screen,0_4_1_0_1_46,2021-11-25T16:48:58.106Z,,,,,,,,,,,,,,,,15,,,,,,,,,,,,,,353.1620000238472,,response,,,7,D,,,,,Space,keypress(Space),,,,silence,---- --------- ---------- - --- ------- -- --- ------------<br>----- -- -------- ------- ---- ------ - -------- ---- -----<br>--- ------- ---- -- --- -------- --- - ----- ------ ---- --<br>-------- --- -------- -------- --- -------- ---- -- ----- -<br>-------- ---- --- ---------- --------- to ------- ------ -<br>--------- ----- -----,165858,165857.10000002384,165487.268,165490.10000002384,165503.938,165870.698,,46,to
screen,html.Screen,0_4_1_0_1_47,2021-11-25T16:48:58.522Z,,,,,,,,,,,,,,,,15,,,,,,,,,,,,,,402.30199999999604,,response,,,7,D,,,,,Space,keypress(Space),,,,silence,---- --------- ---------- - --- ------- -- --- ------------<br>----- -- -------- ------- ---- ------ - -------- ---- -----<br>--- ------- ---- -- --- -------- --- - ----- ------ ---- --<br>-------- --- -------- -------- --- -------- ---- -- ----- -<br>-------- ---- --- ---------- --------- -- testify ------ -<br>--------- ----- -----,166273.90000000596,166273,165854.028,165858.20000001788,165870.698,166287.486,,47,testify
screen,html.Screen,0_4_1_0_1_48,2021-11-25T16:48:58.962Z,,,,,,,,,,,,,,,,15,,,,,,,,,,,,,,425.61400002383743,,response,,,7,D,,,,,Space,keypress(Space),,,,silence,---- --------- ---------- - --- ------- -- --- ------------<br>----- -- -------- ------- ---- ------ - -------- ---- -----<br>--- ------- ---- -- --- -------- --- - ----- ------ ---- --<br>-------- --- -------- -------- --- -------- ---- -- ----- -<br>-------- ---- --- ---------- --------- -- ------- before -<br>--------- ----- -----,166713.80000001192,166713.10000002384,166270.816,166274.20000001788,166287.486,166720.906,,48,before
screen,html.Screen,0_4_1_0_1_49,2021-11-25T16:48:59.402Z,,,,,,,,,,,,,,,,15,,,,,,,,,,,,,,432.19400002385373,,response,,,7,D,,,,,Space,keypress(Space),,,,silence,---- --------- ---------- - --- ------- -- --- ------------<br>----- -- -------- ------- ---- ------ - -------- ---- -----<br>--- ------- ---- -- --- -------- --- - ----- ------ ---- --<br>-------- --- -------- -------- --- -------- ---- -- ----- -<br>-------- ---- --- ---------- --------- -- ------- ------ a<br>--------- ----- -----,167153.80000001192,167153.10000002384,166704.236,166714.10000002384,166720.906,167171.104,,49,a
screen,html.Screen,0_4_1_0_1_50,2021-11-25T16:48:59.834Z,,,,,,,,,,,,,,,,15,,,,,,,,,,,,,,413.8960000000079,,response,,,7,D,,,,,Space,keypress(Space),,,,silence,---- --------- ---------- - --- ------- -- --- ------------<br>----- -- -------- ------- ---- ------ - -------- ---- -----<br>--- ------- ---- -- --- -------- --- - ----- ------ ---- --<br>-------- --- -------- -------- --- -------- ---- -- ----- -<br>-------- ---- --- ---------- --------- -- ------- ------ -<br>different ----- -----,167585.80000001192,167585,167154.433,167154,167171.104,167587.715,,50,different
screen,html.Screen,0_4_1_0_1_51,2021-11-25T16:49:00.354Z,,,,,,,,,,,,,,,,15,,,,,,,,,,,,,,517.5850000119244,,response,,,7,D,,,,,Space,keypress(Space),,,,silence,---- --------- ---------- - --- ------- -- --- ------------<br>----- -- -------- ------- ---- ------ - -------- ---- -----<br>--- ------- ---- -- --- -------- --- - ----- ------ ---- --<br>-------- --- -------- -------- --- -------- ---- -- ----- -<br>-------- ---- --- ---------- --------- -- ------- ------ -<br>--------- grand -----,168106.20000001788,168105.30000001192,167571.046,167586,167587.715,168121.329,,51,grand
screen,html.Screen,0_4_1_0_1_52,2021-11-25T16:49:01.370Z,,,,,,,,,,,,,,,,15,,,,,,,,,,,,,,999.5710000059626,,response,,,7,D,,,,,Space,keypress(Space),,,,silence,---- --------- ---------- - --- ------- -- --- ------------<br>----- -- -------- ------- ---- ------ - -------- ---- -----<br>--- ------- ---- -- --- -------- --- - ----- ------ ---- --<br>-------- --- -------- -------- --- -------- ---- -- ----- -<br>-------- ---- --- ---------- --------- -- ------- ------ -<br>--------- ----- jury.,169121.70000001788,169120.90000000596,168104.658,168106.30000001192,168121.329,169138.393,,52,jury.
Item 7,flow.Loop,0_4_1_0_1,2021-11-25T16:49:01.370Z,,,,,,,,,,,,,,,,,,,,,,,,,,,,,,32924.45200000596,,completion,,,,,,,,,,,,,,,,169122.10000002384,169120.90000000596,136179.777,136181.40000000596,136196.448,169138.393,,,
Question 1,html.Screen,0_4_1_0_2,2021-11-25T16:49:04.858Z,,,,,,,,,,,,,,,,,,,,,,,,,,,true,FALSE,,3470.207000023831,,response,,,7,D,,,,,FALSE,click #choice-2,,,,silence,,172609.70000001788,172608.60000002384,169121.72,169122.30000001192,169138.393,172622.45,,,
