sender,sender_type,sender_id,timestamp,meta,,Blues,Classical,Country,Dance,Electronic,Folk,Gospel,Hip-Hop,Jazz,Latin,Musical/Film,New-age,Pop,Provo_ID,R&B,Rap,Reggae,Religious,Rock,Soul,Swing,Traditional,age,artist_name,correct,correctResponse,distraction,duration,education,ended_on,familiarity,gender,item,list,music_frequency,offensiveness,pleasantness,preference,response,response_action,snippet_file,song_name,song_rating,sound,text,time_commit,time_end,time_render,time_run,time_show,time_switch,url,word,word_ID
Instructions,html.Page,0_0,2021-11-19T09:59:03.015Z,"{""labjs_version"":""20.2.3"",""labjs_build"":{""flavor"":""production"",""commit"":""7ea907d66ca8aeef8054924ca5d82ffbe11e34e5""},""location"":""https://run.pavlovia.org/mvasilev/lab_music_f/"",""userAgent"":""Mozilla/5.0 (Windows NT 6.1; Win64; x64) AppleWebKit/537.36 (KHTML, like Gecko) Chrome/96.0.4664.45 Safari/537.36"",""platform"":""Win32"",""language"":""en-US"",""locale"":""en-US"",""timeZone"":""Europe/London"",""timezoneOffset"":0,""screen_width"":1920,""screen_height"":1080,""scroll_width"":1920,""scroll_height"":959,""window_innerWidth"":1920,""window_innerHeight"":1007,""devicePixelRatio"":1}",,,,,,,,,,,,,,,,,,,,,,,,,,,,,22516.130000047684,,form submission,,,,,,,,,,,,,,,,30304,30303.200000047684,7753.74,7763.200000047684,7787.07,30315.515,{},,
Headphones,html.Page,0_1,2021-11-19T09:59:06.190Z,,,,,,,,,,,,,,,,,,,,,,,,,,,,,,3163.4850000000006,,form submission,,,,,,,,,,,,,,,,33479.300000071526,33479,30298.853,30304.5,30315.515,33485.643,,,
Holding screen,html.Screen,0_2_0_0,2021-11-19T09:59:16.183Z,,,,,,,,,,,,,,,,,,,,,,,,,,,,,,9999.344000000005,,timeout,,,,,,,,,,,,,,,,43472,43468.322,33468.978,33479.700000047684,33485.643,43484.987,,,
screen,html.Screen,0_2_0_1_0,2021-11-19T09:59:16.972Z,,,,,,,,,,,,,,,,53,,,,,,,,,,,,,,775.2130000476827,,response,,,99,,,,,,Space,keypress(Space),,,,,When -- ----- -- ------ - ------- --- ----------<br>------------- ------ ------ ---- ---- ------- ----- -- ----<br>-------- ------- -- ---------- --- - --- ----- ----- ----<br>---- --- --- ----- --- ---- ---- ------- ----- ---- -------<br>--- --- -- ----- -- --- ---- -- --- ---- -- ------ ------<br>--- ----- -- ----,44261.200000047684,44260.200000047684,43468.322,43472.200000047684,43484.987,44268.28,,0,When
screen,html.Screen,0_2_0_1_1,2021-11-19T09:59:17.508Z,,,,,,,,,,,,,,,,53,,,,,,,,,,,,,,527.7200000000012,,response,,,99,,,,,,Space,keypress(Space),,,,,---- it ----- -- ------ - ------- --- ----------<br>------------- ------ ------ ---- ---- ------- ----- -- ----<br>-------- ------- -- ---------- --- - --- ----- ----- ----<br>---- --- --- ----- --- ---- ---- ------- ----- ---- -------<br>--- --- -- ----- -- --- ---- -- --- ---- -- ------ ------<br>--- ----- -- ----,44796.60000002384,44796,44251.615,44261.39999997616,44268.28,44801.591,,1,it
screen,html.Screen,0_2_0_1_2,2021-11-19T09:59:17.996Z,,,,,,,,,,,,,,,,53,,,,,,,,,,,,,,482.40899999999965,,response,,,99,,,,,,Space,keypress(Space),,,,,---- -- comes -- ------ - ------- --- ----------<br>------------- ------ ------ ---- ---- ------- ----- -- ----<br>-------- ------- -- ---------- --- - --- ----- ----- ----<br>---- --- --- ----- --- ---- ---- ------- ----- ---- -------<br>--- --- -- ----- -- --- ---- -- --- ---- -- ------ ------<br>--- ----- -- ----,45284.60000002384,45284,44784.926,44796.89999997616,44801.591,45301.554,,2,comes
screen,html.Screen,0_2_0_1_3,2021-11-19T09:59:18.491Z,,,,,,,,,,,,,,,,53,,,,,,,,,,,,,,478.44600000000355,,response,,,99,,,,,,Space,keypress(Space),,,,,---- -- ----- to ------ - ------- --- ----------<br>------------- ------ ------ ---- ---- ------- ----- -- ----<br>-------- ------- -- ---------- --- - --- ----- ----- ----<br>---- --- --- ----- --- ---- ---- ------- ----- ---- -------<br>--- --- -- ----- -- --- ---- -- --- ---- -- ------ ------<br>--- ----- -- ----,45780.60000002384,45780,45284.889,45284.800000071526,45301.554,45784.879,,3,to
screen,html.Screen,0_2_0_1_4,2021-11-19T09:59:18.940Z,,,,,,,,,,,,,,,,53,,,,,,,,,,,,,,443.1209999999992,,response,,,99,,,,,,Space,keypress(Space),,,,,---- -- ----- -- having - ------- --- ----------<br>------------- ------ ------ ---- ---- ------- ----- -- ----<br>-------- ------- -- ---------- --- - --- ----- ----- ----<br>---- --- --- ----- --- ---- ---- ------- ----- ---- -------<br>--- --- -- ----- -- --- ---- -- --- ---- -- ------ ------<br>--- ----- -- ----,46228.800000071526,46228,45768.214,45781,45784.879,46234.843,,4,having
screen,html.Screen,0_2_0_1_5,2021-11-19T09:59:19.379Z,,,,,,,,,,,,,,,,53,,,,,,,,,,,,,,433.0569999761574,,response,,,99,,,,,,Space,keypress(Space),,,,,---- -- ----- -- ------ a ------- --- ----------<br>------------- ------ ------ ---- ---- ------- ----- -- ----<br>-------- ------- -- ---------- --- - --- ----- ----- ----<br>---- --- --- ----- --- ---- ---- ------- ----- ---- -------<br>--- --- -- ----- -- --- ---- -- --- ---- -- ------ ------<br>--- ----- -- ----,46668.60000002384,46667.89999997616,46218.178,46229,46234.843,46684.828,,5,a
screen,html.Screen,0_2_0_1_6,2021-11-19T09:59:19.860Z,,,,,,,,,,,,,,,,53,,,,,,,,,,,,,,463.17199999999866,,response,,,99,,,,,,Space,keypress(Space),,,,,---- -- ----- -- ------ - lasting --- ----------<br>------------- ------ ------ ---- ---- ------- ----- -- ----<br>-------- ------- -- ---------- --- - --- ----- ----- ----<br>---- --- --- ----- --- ---- ---- ------- ----- ---- -------<br>--- --- -- ----- -- --- ---- -- --- ---- -- ------ ------<br>--- ----- -- ----,47148.700000047684,47148,46668.163,46668.89999997616,46684.828,47151.458,,6,lasting
screen,html.Screen,0_2_0_1_7,2021-11-19T09:59:20.307Z,,,,,,,,,,,,,,,,53,,,,,,,,,,,,,,444.4419999761594,,response,,,99,,,,,,Space,keypress(Space),,,,,---- -- ----- -- ------ - ------- and ----------<br>------------- ------ ------ ---- ---- ------- ----- -- ----<br>-------- ------- -- ---------- --- - --- ----- ----- ----<br>---- --- --- ----- --- ---- ---- ------- ----- ---- -------<br>--- --- -- ----- -- --- ---- -- --- ---- -- ------ ------<br>--- ----- -- ----,47596.60000002384,47595.89999997616,47134.793,47148.89999997616,47151.458,47601.43,,7,and
screen,html.Screen,0_2_0_1_8,2021-11-19T09:59:20.780Z,,,,,,,,,,,,,,,,53,,,,,,,,,,,,,,466.3700000715253,,response,,,99,,,,,,Space,keypress(Space),,,,,---- -- ----- -- ------ - ------- --- fulfilling<br>------------- ------ ------ ---- ---- ------- ----- -- ----<br>-------- ------- -- ---------- --- - --- ----- ----- ----<br>---- --- --- ----- --- ---- ---- ------- ----- ---- -------<br>--- --- -- ----- -- --- ---- -- --- ---- -- ------ ------<br>--- ----- -- ----,48068.700000047684,48067.800000071526,47584.765,47596.800000071526,47601.43,48084.589,,8,fulfilling
screen,html.Screen,0_2_0_1_9,2021-11-19T09:59:21.275Z,,,,,,,,,,,,,,,,53,,,,,,,,,,,,,,479.21100007152563,,response,,,99,,,,,,Space,keypress(Space),,,,,"---- -- ----- -- ------ - ------- --- ----------<br>relationship, ------ ------ ---- ---- ------- ----- -- ----<br>-------- ------- -- ---------- --- - --- ----- ----- ----<br>---- --- --- ----- --- ---- ---- ------- ----- ---- -------<br>--- --- -- ----- -- --- ---- -- --- ---- -- ------ ------<br>--- ----- -- ----",48564.5,48563.800000071526,48067.926,48068.89999997616,48084.589,48568.081,,9,"relationship,"
screen,html.Screen,0_2_0_1_10,2021-11-19T09:59:21.739Z,,,,,,,,,,,,,,,,53,,,,,,,,,,,,,,459.71900007152726,,response,,,99,,,,,,Space,keypress(Space),,,,,---- -- ----- -- ------ - ------- --- ----------<br>------------- common ------ ---- ---- ------- ----- -- ----<br>-------- ------- -- ---------- --- - --- ----- ----- ----<br>---- --- --- ----- --- ---- ---- ------- ----- ---- -------<br>--- --- -- ----- -- --- ---- -- --- ---- -- ------ ------<br>--- ----- -- ----,49028.5,49027.800000071526,48551.415,48564.700000047684,48568.081,49034.72,,10,common
screen,html.Screen,0_2_0_1_11,2021-11-19T09:59:22.219Z,,,,,,,,,,,,,,,,53,,,,,,,,,,,,,,472.98000004768255,,response,,,99,,,,,,Space,keypress(Space),,,,,---- -- ----- -- ------ - ------- --- ----------<br>------------- ------ wisdom ---- ---- ------- ----- -- ----<br>-------- ------- -- ---------- --- - --- ----- ----- ----<br>---- --- --- ----- --- ---- ---- ------- ----- ---- -------<br>--- --- -- ----- -- --- ---- -- --- ---- -- ------ ------<br>--- ----- -- ----,49508.5,49507.700000047684,49018.054,49028.700000047684,49034.72,49517.993,,11,wisdom
screen,html.Screen,0_2_0_1_12,2021-11-19T09:59:23.843Z,,,,,,,,,,,,,,,,53,,,,,,,,,,,,,,1613.906999976156,,response,,,99,,,,,,Space,keypress(Space),,,,,---- -- ----- -- ------ - ------- --- ----------<br>------------- ------ ------ says ---- ------- ----- -- ----<br>-------- ------- -- ---------- --- - --- ----- ----- ----<br>---- --- --- ----- --- ---- ---- ------- ----- ---- -------<br>--- --- -- ----- -- --- ---- -- --- ---- -- ------ ------<br>--- ----- -- ----,51132.60000002384,51131.89999997616,49501.328,49508.700000047684,49517.993,51134.502,,12,says
screen,html.Screen,0_2_0_1_13,2021-11-19T09:59:24.435Z,,,,,,,,,,,,,,,,53,,,,,,,,,,,,,,589.1980000476833,,response,,,99,,,,,,Space,keypress(Space),,,,,---- -- ----- -- ------ - ------- --- ----------<br>------------- ------ ------ ---- that ------- ----- -- ----<br>-------- ------- -- ---------- --- - --- ----- ----- ----<br>---- --- --- ----- --- ---- ---- ------- ----- ---- -------<br>--- --- -- ----- -- --- ---- -- --- ---- -- ------ ------<br>--- ----- -- ----,51724.300000071526,51723.700000047684,51117.837,51132.700000047684,51134.502,51734.335,,13,that
screen,html.Screen,0_2_0_1_14,2021-11-19T09:59:25.235Z,,,,,,,,,,,,,,,,53,,,,,,,,,,,,,,789.2650000238427,,response,,,99,,,,,,Space,keypress(Space),,,,,---- -- ----- -- ------ - ------- --- ----------<br>------------- ------ ------ ---- ---- feeling ----- -- ----<br>-------- ------- -- ---------- --- - --- ----- ----- ----<br>---- --- --- ----- --- ---- ---- ------- ----- ---- -------<br>--- --- -- ----- -- --- ---- -- --- ---- -- ------ ------<br>--- ----- -- ----,52524.300000071526,52523.60000002384,51717.671,51724.5,51734.335,52534.453,,14,feeling
screen,html.Screen,0_2_0_1_15,2021-11-19T09:59:26.019Z,,,,,,,,,,,,,,,,53,,,,,,,,,,,,,,773.1470000238405,,response,,,99,,,,,,Space,keypress(Space),,,,,---- -- ----- -- ------ - ------- --- ----------<br>------------- ------ ------ ---- ---- ------- close -- ----<br>-------- ------- -- ---------- --- - --- ----- ----- ----<br>---- --- --- ----- --- ---- ---- ------- ----- ---- -------<br>--- --- -- ----- -- --- ---- -- --- ---- -- ------ ------<br>--- ----- -- ----,53308.200000047684,53307.60000002384,52517.788,52524.5,52534.453,53317.578,,15,close
screen,html.Screen,0_2_0_1_16,2021-11-19T09:59:26.491Z,,,,,,,,,,,,,,,,53,,,,,,,,,,,,,,461.92199999999866,,response,,,99,,,,,,Space,keypress(Space),,,,,---- -- ----- -- ------ - ------- --- ----------<br>------------- ------ ------ ---- ---- ------- ----- to ----<br>-------- ------- -- ---------- --- - --- ----- ----- ----<br>---- --- --- ----- --- ---- ---- ------- ----- ---- -------<br>--- --- -- ----- -- --- ---- -- --- ---- -- ------ ------<br>--- ----- -- ----,53780.10000002384,53779.5,53300.914,53308.300000071526,53317.578,53784.332,,16,to
screen,html.Screen,0_2_0_1_17,2021-11-19T09:59:27.083Z,,,,,,,,,,,,,,,,53,,,,,,,,,,,,,,587.1679999999978,,response,,,99,,,,,,Space,keypress(Space),,,,,---- -- ----- -- ------ - ------- --- ----------<br>------------- ------ ------ ---- ---- ------- ----- -- your<br>-------- ------- -- ---------- --- - --- ----- ----- ----<br>---- --- --- ----- --- ---- ---- ------- ----- ---- -------<br>--- --- -- ----- -- --- ---- -- --- ---- -- ------ ------<br>--- ----- -- ----,54372,54371.5,53767.667,53780.200000047684,53784.332,54384.367,,17,your
screen,html.Screen,0_2_0_1_18,2021-11-19T09:59:27.563Z,,,,,,,,,,,,,,,,53,,,,,,,,,,,,,,467.0329999761598,,response,,,99,,,,,,Space,keypress(Space),,,,,---- -- ----- -- ------ - ------- --- ----------<br>------------- ------ ------ ---- ---- ------- ----- -- ----<br>romantic ------- -- ---------- --- - --- ----- ----- ----<br>---- --- --- ----- --- ---- ---- ------- ----- ---- -------<br>--- --- -- ----- -- --- ---- -- --- ---- -- ------ ------<br>--- ----- -- ----,54852,54851.39999997616,54367.701,54372.300000071526,54384.367,54867.709,,18,romantic
screen,html.Screen,0_2_0_1_19,2021-11-19T09:59:28.139Z,,,,,,,,,,,,,,,,53,,,,,,,,,,,,,,559.7909999999974,,response,,,99,,,,,,Space,keypress(Space),,,,,---- -- ----- -- ------ - ------- --- ----------<br>------------- ------ ------ ---- ---- ------- ----- -- ----<br>-------- partner -- ---------- --- - --- ----- ----- ----<br>---- --- --- ----- --- ---- ---- ------- ----- ---- -------<br>--- --- -- ----- -- --- ---- -- --- ---- -- ------ ------<br>--- ----- -- ----,55428,55427.5,54851.043,54852.200000047684,54867.709,55434.278,,19,partner
screen,html.Screen,0_2_0_1_20,2021-11-19T09:59:28.539Z,,,,,,,,,,,,,,,,53,,,,,,,,,,,,,,393.02200007152715,,response,,,99,,,,,,Space,keypress(Space),,,,,---- -- ----- -- ------ - ------- --- ----------<br>------------- ------ ------ ---- ---- ------- ----- -- ----<br>-------- ------- is ---------- --- - --- ----- ----- ----<br>---- --- --- ----- --- ---- ---- ------- ----- ---- -------<br>--- --- -- ----- -- --- ---- -- --- ---- -- ------ ------<br>--- ----- -- ----,55827.89999997616,55827.300000071526,55417.613,55428.200000047684,55434.278,55834.191,,20,is
screen,html.Screen,0_2_0_1_21,2021-11-19T09:59:29.571Z,,,,,,,,,,,,,,,,53,,,,,,,,,,,,,,1025.2089999761592,,response,,,99,,,,,,Space,keypress(Space),,,,,---- -- ----- -- ------ - ------- --- ----------<br>------------- ------ ------ ---- ---- ------- ----- -- ----<br>-------- ------- -- paramount. --- - --- ----- ----- ----<br>---- --- --- ----- --- ---- ---- ------- ----- ---- -------<br>--- --- -- ----- -- --- ---- -- --- ---- -- ------ ------<br>--- ----- -- ----,56860,56859.39999997616,55817.527,55828.10000002384,55834.191,56867.59,,21,paramount.
screen,html.Screen,0_2_0_1_22,2021-11-19T09:59:30.123Z,,,,,,,,,,,,,,,,53,,,,,,,,,,,,,,543.8099999761616,,response,,,99,,,,,,Space,keypress(Space),,,,,---- -- ----- -- ------ - ------- --- ----------<br>------------- ------ ------ ---- ---- ------- ----- -- ----<br>-------- ------- -- ---------- But - --- ----- ----- ----<br>---- --- --- ----- --- ---- ---- ------- ----- ---- -------<br>--- --- -- ----- -- --- ---- -- --- ---- -- ------ ------<br>--- ----- -- ----,57411.89999997616,57411.39999997616,56850.924,56860.300000071526,56867.59,57417.482,,22,But
screen,html.Screen,0_2_0_1_23,2021-11-19T09:59:30.531Z,,,,,,,,,,,,,,,,53,,,,,,,,,,,,,,401.7180000476801,,response,,,99,,,,,,Space,keypress(Space),,,,,---- -- ----- -- ------ - ------- --- ----------<br>------------- ------ ------ ---- ---- ------- ----- -- ----<br>-------- ------- -- ---------- --- a --- ----- ----- ----<br>---- --- --- ----- --- ---- ---- ------- ----- ---- -------<br>--- --- -- ----- -- --- ---- -- --- ---- -- ------ ------<br>--- ----- -- ----,57819.800000071526,57819.200000047684,57400.817,57412.200000047684,57417.482,57834.099,,23,a
screen,html.Screen,0_2_0_1_24,2021-11-19T09:59:30.994Z,,,,,,,,,,,,,,,,53,,,,,,,,,,,,,,449.10100004768174,,response,,,99,,,,,,Space,keypress(Space),,,,,---- -- ----- -- ------ - ------- --- ----------<br>------------- ------ ------ ---- ---- ------- ----- -- ----<br>-------- ------- -- ---------- --- - new ----- ----- ----<br>---- --- --- ----- --- ---- ---- ------- ----- ---- -------<br>--- --- -- ----- -- --- ---- -- --- ---- -- ------ ------<br>--- ----- -- ----,58283.60000002384,58283.200000047684,57817.434,57820,57834.099,58300.757,,24,new
screen,html.Screen,0_2_0_1_25,2021-11-19T09:59:31.507Z,,,,,,,,,,,,,,,,53,,,,,,,,,,,,,,494.4430000476859,,response,,,99,,,,,,Space,keypress(Space),,,,,---- -- ----- -- ------ - ------- --- ----------<br>------------- ------ ------ ---- ---- ------- ----- -- ----<br>-------- ------- -- ---------- --- - --- study ----- ----<br>---- --- --- ----- --- ---- ---- ------- ----- ---- -------<br>--- --- -- ----- -- --- ---- -- --- ---- -- ------ ------<br>--- ----- -- ----,58795.800000071526,58795.200000047684,58284.092,58283.700000047684,58300.757,58800.735,,25,study
screen,html.Screen,0_2_0_1_26,2021-11-19T09:59:31.947Z,,,,,,,,,,,,,,,,53,,,,,,,,,,,,,,434.3650000238413,,response,,,99,,,,,,Space,keypress(Space),,,,,---- -- ----- -- ------ - ------- --- ----------<br>------------- ------ ------ ---- ---- ------- ----- -- ----<br>-------- ------- -- ---------- --- - --- ----- finds ----<br>---- --- --- ----- --- ---- ---- ------- ----- ---- -------<br>--- --- -- ----- -- --- ---- -- --- ---- -- ------ ------<br>--- ----- -- ----,59235.700000047684,59235.10000002384,58784.069,58796,58800.735,59250.568,,26,finds
screen,html.Screen,0_2_0_1_27,2021-11-19T09:59:32.667Z,,,,,,,,,,,,,,,,53,,,,,,,,,,,,,,704.6320000476844,,response,,,99,,,,,,Space,keypress(Space),,,,,---- -- ----- -- ------ - ------- --- ----------<br>------------- ------ ------ ---- ---- ------- ----- -- ----<br>-------- ------- -- ---------- --- - --- ----- ----- that<br>---- --- --- ----- --- ---- ---- ------- ----- ---- -------<br>--- --- -- ----- -- --- ---- -- --- ---- -- ------ ------<br>--- ----- -- ----,59955.800000071526,59955.200000047684,59233.905,59235.800000071526,59250.568,59967.394,,27,that
screen,html.Screen,0_2_0_1_28,2021-11-19T09:59:33.183Z,,,,,,,,,,,,,,,,53,,,,,,,,,,,,,,499.7060000238416,,response,,,99,,,,,,Space,keypress(Space),,,,,---- -- ----- -- ------ - ------- --- ----------<br>------------- ------ ------ ---- ---- ------- ----- -- ----<br>-------- ------- -- ---------- --- - --- ----- ----- ----<br>it's --- --- ----- --- ---- ---- ------- ----- ---- -------<br>--- --- -- ----- -- --- ---- -- --- ---- -- ------ ------<br>--- ----- -- ----,60467.700000047684,60467.10000002384,59950.728,59956,59967.394,60483.966,,28,it's
screen,html.Screen,0_2_0_1_29,2021-11-19T09:59:33.639Z,,,,,,,,,,,,,,,,53,,,,,,,,,,,,,,439.1340000238415,,response,,,99,,,,,,Space,keypress(Space),,,,,---- -- ----- -- ------ - ------- --- ----------<br>------------- ------ ------ ---- ---- ------- ----- -- ----<br>-------- ------- -- ---------- --- - --- ----- ----- ----<br>---- not --- ----- --- ---- ---- ------- ----- ---- -------<br>--- --- -- ----- -- --- ---- -- --- ---- -- ------ ------<br>--- ----- -- ----,60923.700000047684,60923.10000002384,60467.301,60467.89999997616,60483.966,60933.959,,29,not
screen,html.Screen,0_2_0_1_30,2021-11-19T09:59:34.119Z,,,,,,,,,,,,,,,,53,,,,,,,,,,,,,,469.24100004768115,,response,,,99,,,,,,Space,keypress(Space),,,,,---- -- ----- -- ------ - ------- --- ----------<br>------------- ------ ------ ---- ---- ------- ----- -- ----<br>-------- ------- -- ---------- --- - --- ----- ----- ----<br>---- --- how ----- --- ---- ---- ------- ----- ---- -------<br>--- --- -- ----- -- --- ---- -- --- ---- -- ------ ------<br>--- ----- -- ----,61403.800000071526,61403.200000047684,60917.294,60923.800000071526,60933.959,61417.254,,30,how
screen,html.Screen,0_2_0_1_31,2021-11-19T09:59:34.671Z,,,,,,,,,,,,,,,,53,,,,,,,,,,,,,,537.7459999999992,,response,,,99,,,,,,Space,keypress(Space),,,,,---- -- ----- -- ------ - ------- --- ----------<br>------------- ------ ------ ---- ---- ------- ----- -- ----<br>-------- ------- -- ---------- --- - --- ----- ----- ----<br>---- --- --- close --- ---- ---- ------- ----- ---- -------<br>--- --- -- ----- -- --- ---- -- --- ---- -- ------ ------<br>--- ----- -- ----,61955.60000002384,61955,61400.589,61404,61417.254,61967.211,,31,close
screen,html.Screen,0_2_0_1_32,2021-11-19T09:59:35.127Z,,,,,,,,,,,,,,,,53,,,,,,,,,,,,,,443.78899999999703,,response,,,99,,,,,,Space,keypress(Space),,,,,---- -- ----- -- ------ - ------- --- ----------<br>------------- ------ ------ ---- ---- ------- ----- -- ----<br>-------- ------- -- ---------- --- - --- ----- ----- ----<br>---- --- --- ----- you ---- ---- ------- ----- ---- -------<br>--- --- -- ----- -- --- ---- -- --- ---- -- ------ ------<br>--- ----- -- ----,62411.60000002384,62411,61950.546,61955.800000071526,61967.211,62417.116,,32,you
screen,html.Screen,0_2_0_1_33,2021-11-19T09:59:35.543Z,,,,,,,,,,,,,,,,53,,,,,,,,,,,,,,409.78399997615634,,response,,,99,,,,,,Space,keypress(Space),,,,,---- -- ----- -- ------ - ------- --- ----------<br>------------- ------ ------ ---- ---- ------- ----- -- ----<br>-------- ------- -- ---------- --- - --- ----- ----- ----<br>---- --- --- ----- --- feel ---- ------- ----- ---- -------<br>--- --- -- ----- -- --- ---- -- --- ---- -- ------ ------<br>--- ----- -- ----,62827.5,62826.89999997616,62400.452,62411.800000071526,62417.116,62833.884,,33,feel
screen,html.Screen,0_2_0_1_34,2021-11-19T09:59:35.935Z,,,,,,,,,,,,,,,,53,,,,,,,,,,,,,,385.01599997615995,,response,,,99,,,,,,Space,keypress(Space),,,,,---- -- ----- -- ------ - ------- --- ----------<br>------------- ------ ------ ---- ---- ------- ----- -- ----<br>-------- ------- -- ---------- --- - --- ----- ----- ----<br>---- --- --- ----- --- ---- that ------- ----- ---- -------<br>--- --- -- ----- -- --- ---- -- --- ---- -- ------ ------<br>--- ----- -- ----,63219.39999997616,63218.89999997616,62817.218,62827.700000047684,62833.884,63233.737,,34,that
screen,html.Screen,0_2_0_1_35,2021-11-19T09:59:36.351Z,,,,,,,,,,,,,,,,53,,,,,,,,,,,,,,401.16299997615715,,response,,,99,,,,,,Space,keypress(Space),,,,,---- -- ----- -- ------ - ------- --- ----------<br>------------- ------ ------ ---- ---- ------- ----- -- ----<br>-------- ------- -- ---------- --- - --- ----- ----- ----<br>---- --- --- ----- --- ---- ---- matters ----- ---- -------<br>--- --- -- ----- -- --- ---- -- --- ---- -- ------ ------<br>--- ----- -- ----,63635.5,63634.89999997616,63217.073,63219.700000047684,63233.737,63650.487,,35,matters
screen,html.Screen,0_2_0_1_36,2021-11-19T09:59:36.855Z,,,,,,,,,,,,,,,,53,,,,,,,,,,,,,,488.41299997615715,,response,,,99,,,,,,Space,keypress(Space),,,,,"---- -- ----- -- ------ - ------- --- ----------<br>------------- ------ ------ ---- ---- ------- ----- -- ----<br>-------- ------- -- ---------- --- - --- ----- ----- ----<br>---- --- --- ----- --- ---- ---- ------- most, ---- -------<br>--- --- -- ----- -- --- ---- -- --- ---- -- ------ ------<br>--- ----- -- ----",64139.700000047684,64138.89999997616,63633.821,63635.60000002384,63650.487,64150.412,,36,"most,"
screen,html.Screen,0_2_0_1_37,2021-11-19T09:59:37.303Z,,,,,,,,,,,,,,,,53,,,,,,,,,,,,,,436.38800007152895,,response,,,99,,,,,,Space,keypress(Space),,,,,---- -- ----- -- ------ - ------- --- ----------<br>------------- ------ ------ ---- ---- ------- ----- -- ----<br>-------- ------- -- ---------- --- - --- ----- ----- ----<br>---- --- --- ----- --- ---- ---- ------- ----- it's -------<br>--- --- -- ----- -- --- ---- -- --- ---- -- ------ ------<br>--- ----- -- ----,64587.5,64586.800000071526,64133.747,64139.800000071526,64150.412,64600.444,,37,it's
screen,html.Screen,0_2_0_1_38,2021-11-19T09:59:37.807Z,,,,,,,,,,,,,,,,53,,,,,,,,,,,,,,490.35600007152243,,response,,,99,,,,,,Space,keypress(Space),,,,,---- -- ----- -- ------ - ------- --- ----------<br>------------- ------ ------ ---- ---- ------- ----- -- ----<br>-------- ------- -- ---------- --- - --- ----- ----- ----<br>---- --- --- ----- --- ---- ---- ------- ----- ---- whether<br>--- --- -- ----- -- --- ---- -- --- ---- -- ------ ------<br>--- ----- -- ----,65091.39999997616,65090.800000071526,64583.778,64587.700000047684,64600.444,65100.366,,38,whether
screen,html.Screen,0_2_0_1_39,2021-11-19T09:59:38.222Z,,,,,,,,,,,,,,,,53,,,,,,,,,,,,,,406.3340000476819,,response,,,99,,,,,,Space,keypress(Space),,,,,---- -- ----- -- ------ - ------- --- ----------<br>------------- ------ ------ ---- ---- ------- ----- -- ----<br>-------- ------- -- ---------- --- - --- ----- ----- ----<br>---- --- --- ----- --- ---- ---- ------- ----- ---- -------<br>you --- -- ----- -- --- ---- -- --- ---- -- ------ ------<br>--- ----- -- ----,65507.39999997616,65506.700000047684,65083.701,65091.60000002384,65100.366,65517.02,,39,you
screen,html.Screen,0_2_0_1_40,2021-11-19T09:59:38.638Z,,,,,,,,,,,,,,,,53,,,,,,,,,,,,,,405.6800000476869,,response,,,99,,,,,,Space,keypress(Space),,,,,---- -- ----- -- ------ - ------- --- ----------<br>------------- ------ ------ ---- ---- ------- ----- -- ----<br>-------- ------- -- ---------- --- - --- ----- ----- ----<br>---- --- --- ----- --- ---- ---- ------- ----- ---- -------<br>--- are -- ----- -- --- ---- -- --- ---- -- ------ ------<br>--- ----- -- ----,65923.30000007153,65922.70000004768,65500.355,65507.5,65517.02,65933.652,,40,are
screen,html.Screen,0_2_0_1_41,2021-11-19T09:59:39.102Z,,,,,,,,,,,,,,,,53,,,,,,,,,,,,,,453.04800004768185,,response,,,99,,,,,,Space,keypress(Space),,,,,---- -- ----- -- ------ - ------- --- ----------<br>------------- ------ ------ ---- ---- ------- ----- -- ----<br>-------- ------- -- ---------- --- - --- ----- ----- ----<br>---- --- --- ----- --- ---- ---- ------- ----- ---- -------<br>--- --- as ----- -- --- ---- -- --- ---- -- ------ ------<br>--- ----- -- ----,66387.30000007153,66386.70000004768,65916.987,65923.5,65933.652,66400.271,,41,as
screen,html.Screen,0_2_0_1_42,2021-11-19T09:59:39.526Z,,,,,,,,,,,,,,,,53,,,,,,,,,,,,,,410.42900004769035,,response,,,99,,,,,,Space,keypress(Space),,,,,---- -- ----- -- ------ - ------- --- ----------<br>------------- ------ ------ ---- ---- ------- ----- -- ----<br>-------- ------- -- ---------- --- - --- ----- ----- ----<br>---- --- --- ----- --- ---- ---- ------- ----- ---- -------<br>--- --- -- close -- --- ---- -- --- ---- -- ------ ------<br>--- ----- -- ----,66811.20000004768,66810.70000004768,66383.606,66387.39999997616,66400.271,66816.92,,42,close
screen,html.Screen,0_2_0_1_43,2021-11-19T09:59:39.950Z,,,,,,,,,,,,,,,,53,,,,,,,,,,,,,,417.78000004768546,,response,,,99,,,,,,Space,keypress(Space),,,,,---- -- ----- -- ------ - ------- --- ----------<br>------------- ------ ------ ---- ---- ------- ----- -- ----<br>-------- ------- -- ---------- --- - --- ----- ----- ----<br>---- --- --- ----- --- ---- ---- ------- ----- ---- -------<br>--- --- -- ----- as --- ---- -- --- ---- -- ------ ------<br>--- ----- -- ----,67235.30000007153,67234.70000004768,66800.255,66811.30000007153,66816.92,67250.223,,43,as
screen,html.Screen,0_2_0_1_44,2021-11-19T09:59:40.382Z,,,,,,,,,,,,,,,,53,,,,,,,,,,,,,,416.4770000476856,,response,,,99,,,,,,Space,keypress(Space),,,,,---- -- ----- -- ------ - ------- --- ----------<br>------------- ------ ------ ---- ---- ------- ----- -- ----<br>-------- ------- -- ---------- --- - --- ----- ----- ----<br>---- --- --- ----- --- ---- ---- ------- ----- ---- -------<br>--- --- -- ----- -- you ---- -- --- ---- -- ------ ------<br>--- ----- -- ----,67667.20000004768,67666.70000004768,67233.558,67235.5,67250.223,67683.466,,44,you
screen,html.Screen,0_2_0_1_45,2021-11-19T09:59:40.790Z,,,,,,,,,,,,,,,,53,,,,,,,,,,,,,,391.23400004768337,,response,,,99,,,,,,Space,keypress(Space),,,,,---- -- ----- -- ------ - ------- --- ----------<br>------------- ------ ------ ---- ---- ------- ----- -- ----<br>-------- ------- -- ---------- --- - --- ----- ----- ----<br>---- --- --- ----- --- ---- ---- ------- ----- ---- -------<br>--- --- -- ----- -- --- want -- --- ---- -- ------ ------<br>--- ----- -- ----,68075.30000007153,68074.70000004768,67666.802,67667.39999997616,67683.466,68083.541,,45,want
screen,html.Screen,0_2_0_1_46,2021-11-19T09:59:41.198Z,,,,,,,,,,,,,,,,53,,,,,,,,,,,,,,399.0590000238444,,response,,,99,,,,,,Space,keypress(Space),,,,,---- -- ----- -- ------ - ------- --- ----------<br>------------- ------ ------ ---- ---- ------- ----- -- ----<br>-------- ------- -- ---------- --- - --- ----- ----- ----<br>---- --- --- ----- --- ---- ---- ------- ----- ---- -------<br>--- --- -- ----- -- --- ---- to --- ---- -- ------ ------<br>--- ----- -- ----,68483.20000004768,68482.60000002384,68066.875,68075.5,68083.541,68500.093,,46,to
screen,html.Screen,0_2_0_1_47,2021-11-19T09:59:41.598Z,,,,,,,,,,,,,,,,53,,,,,,,,,,,,,,382.5070000238484,,response,,,99,,,,,,Space,keypress(Space),,,,,"---- -- ----- -- ------ - ------- --- ----------<br>------------- ------ ------ ---- ---- ------- ----- -- ----<br>-------- ------- -- ---------- --- - --- ----- ----- ----<br>---- --- --- ----- --- ---- ---- ------- ----- ---- -------<br>--- --- -- ----- -- --- ---- -- be, ---- -- ------ ------<br>--- ----- -- ----",68883.10000002384,68882.60000002384,68483.429,68483.39999997616,68500.093,68900.159,,47,"be,"
screen,html.Screen,0_2_0_1_48,2021-11-19T09:59:42.134Z,,,,,,,,,,,,,,,,53,,,,,,,,,,,,,,518.3410000000003,,response,,,99,,,,,,Space,keypress(Space),,,,,---- -- ----- -- ------ - ------- --- ----------<br>------------- ------ ------ ---- ---- ------- ----- -- ----<br>-------- ------- -- ---------- --- - --- ----- ----- ----<br>---- --- --- ----- --- ---- ---- ------- ----- ---- -------<br>--- --- -- ----- -- --- ---- -- --- even -- ------ ------<br>--- ----- -- ----,69419.20000004768,69418.5,68883.493,68883.30000007153,68900.159,69433.425,,48,even
screen,html.Screen,0_2_0_1_49,2021-11-19T09:59:42.606Z,,,,,,,,,,,,,,,,53,,,,,,,,,,,,,,457.17500002383895,,response,,,99,,,,,,Space,keypress(Space),,,,,---- -- ----- -- ------ - ------- --- ----------<br>------------- ------ ------ ---- ---- ------- ----- -- ----<br>-------- ------- -- ---------- --- - --- ----- ----- ----<br>---- --- --- ----- --- ---- ---- ------- ----- ---- -------<br>--- --- -- ----- -- --- ---- -- --- ---- if ------ ------<br>--- ----- -- ----,69891.20000004768,69890.60000002384,69416.76,69419.20000004768,69433.425,69900.074,,49,if
screen,html.Screen,0_2_0_1_50,2021-11-19T09:59:43.054Z,,,,,,,,,,,,,,,,53,,,,,,,,,,,,,,438.42600000000675,,response,,,99,,,,,,Space,keypress(Space),,,,,---- -- ----- -- ------ - ------- --- ----------<br>------------- ------ ------ ---- ---- ------- ----- -- ----<br>-------- ------- -- ---------- --- - --- ----- ----- ----<br>---- --- --- ----- --- ---- ---- ------- ----- ---- -------<br>--- --- -- ----- -- --- ---- -- --- ---- -- that's ------<br>--- ----- -- ----,70339.10000002384,70338.5,69883.409,69891.30000007153,69900.074,70350.037,,50,that's
screen,html.Screen,0_2_0_1_51,2021-11-19T09:59:43.502Z,,,,,,,,,,,,,,,,53,,,,,,,,,,,,,,436.4630000000034,,response,,,99,,,,,,Space,keypress(Space),,,,,---- -- ----- -- ------ - ------- --- ----------<br>------------- ------ ------ ---- ---- ------- ----- -- ----<br>-------- ------- -- ---------- --- - --- ----- ----- ----<br>---- --- --- ----- --- ---- ---- ------- ----- ---- -------<br>--- --- -- ----- -- --- ---- -- --- ---- -- ------ really<br>--- ----- -- ----,70787,70786.5,70333.372,70339.20000004768,70350.037,70800.003,,51,really
screen,html.Screen,0_2_0_1_52,2021-11-19T09:59:43.950Z,,,,,,,,,,,,,,,,53,,,,,,,,,,,,,,434.39699997616117,,response,,,99,,,,,,Space,keypress(Space),,,,,---- -- ----- -- ------ - ------- --- ----------<br>------------- ------ ------ ---- ---- ------- ----- -- ----<br>-------- ------- -- ---------- --- - --- ----- ----- ----<br>---- --- --- ----- --- ---- ---- ------- ----- ---- -------<br>--- --- -- ----- -- --- ---- -- --- ---- -- ------ ------<br>not ----- -- ----,71235.10000002384,71234.39999997616,70783.338,70787.10000002384,70800.003,71249.975,,52,not
screen,html.Screen,0_2_0_1_53,2021-11-19T09:59:44.430Z,,,,,,,,,,,,,,,,53,,,,,,,,,,,,,,464.62500002383604,,response,,,99,,,,,,Space,keypress(Space),,,,,---- -- ----- -- ------ - ------- --- ----------<br>------------- ------ ------ ---- ---- ------- ----- -- ----<br>-------- ------- -- ---------- --- - --- ----- ----- ----<br>---- --- --- ----- --- ---- ---- ------- ----- ---- -------<br>--- --- -- ----- -- --- ---- -- --- ---- -- ------ ------<br>--- close -- ----,71715.10000002384,71714.60000002384,71233.31,71235.30000007153,71249.975,71716.612,,53,close
screen,html.Screen,0_2_0_1_54,2021-11-19T09:59:44.854Z,,,,,,,,,,,,,,,,53,,,,,,,,,,,,,,421.78799997616443,,response,,,99,,,,,,Space,keypress(Space),,,,,---- -- ----- -- ------ - ------- --- ----------<br>------------- ------ ------ ---- ---- ------- ----- -- ----<br>-------- ------- -- ---------- --- - --- ----- ----- ----<br>---- --- --- ----- --- ---- ---- ------- ----- ---- -------<br>--- --- -- ----- -- --- ---- -- --- ---- -- ------ ------<br>--- ----- at ----,72138.89999997616,72138.39999997616,71699.947,71715.30000007153,71716.612,72149.921,,54,at
screen,html.Screen,0_2_0_1_55,2021-11-19T09:59:47.366Z,,,,,,,,,,,,,,,,53,,,,,,,,,,,,,,2500.3790000715235,,response,,,99,,,,,,Space,keypress(Space),,,,,---- -- ----- -- ------ - ------- --- ----------<br>------------- ------ ------ ---- ---- ------- ----- -- ----<br>-------- ------- -- ---------- --- - --- ----- ----- ----<br>---- --- --- ----- --- ---- ---- ------- ----- ---- -------<br>--- --- -- ----- -- --- ---- -- --- ---- -- ------ ------<br>--- ----- -- all.,74650.80000007153,74650.30000007153,72133.256,72139.10000002384,72149.921,74666.331,,55,all.
Item 99,flow.Loop,0_2_0_1,2021-11-19T09:59:47.369Z,,,,,,,,,,,,,,,,,,,,,,,,,,,,,,31165.313000071525,,completion,,,,F,,,,,,,,,,silence,,74653.70000004768,74650.30000007153,43468.322,43472.10000002384,43484.987,74666.331,,,
Question 1,html.Screen,0_2_0_2,2021-11-19T09:59:51.630Z,,,,,,,,,,,,,,,,,,,,,,,,,,,true,FALSE,,4247.568999976153,,response,,,99,F,,,,,FALSE,click #choice-2,,,,silence,,78914.89999997616,78913.89999997616,74649.666,74653.89999997616,74666.331,78916.257,,,
Question 2,html.Screen,0_2_0_3,2021-11-19T10:00:00.391Z,,,,,,,,,,,,,,,,,,,,,,,,,,,true,TRUE,,8758.743000000002,,response,,,99,F,,,,,TRUE,click #choice-1,,,,silence,,87675.70000004768,87675,78899.591,78915.20000004768,78916.257,87682.205,,,
Item 99,flow.Sequence,0_2_0,2021-11-19T10:00:00.391Z,,,,,,,,,,,,,,,,,,,,,,,,,,,,,,54189.357,,completion,,,,,,,,,,,,,,,,87675.80000007153,87675,33468.978,33479.60000002384,33485.643,87682.205,,,
Holding screen,html.Screen,0_2_1_0,2021-11-19T10:00:10.382Z,,,,,,,,,,,,,,,,,,,,,,,,,,,,,,9999.455999999991,,timeout,,,,,,,,,,,,,,,,97666.5,97664.996,87665.541,87676,87682.205,97681.661,,,
screen,html.Screen,0_2_1_1_0,2021-11-19T10:00:11.085Z,,,,,,,,,,,,,,,,54,,,,,,,,,,,,,,687.4390000238491,,response,,,100,,,,,,Space,keypress(Space),,,,,At --- ---- --- ------ ----- ------- ---- -- --- ------- --<br>------- ---------- ------ -- ----- -- ----- -- ---- ------<br>--- ----- --- --- ------ -------- ----- --- ------ ----- --<br>----- ----- ---------- --- --- ------ ------ ---- -- ------<br>------- --- ------ ----- --- ---- ------- -- ---- --- --<br>------- ------,98369.80000007153,98369.10000002384,97664.996,97666.80000007153,97681.661,98381.654,,0,At
screen,html.Screen,0_2_1_1_1,2021-11-19T10:00:11.900Z,,,,,,,,,,,,,,,,54,,,,,,,,,,,,,,803.0460000476887,,response,,,100,,,,,,Space,keypress(Space),,,,,-- the ---- --- ------ ----- ------- ---- -- --- ------- --<br>------- ---------- ------ -- ----- -- ----- -- ---- ------<br>--- ----- --- --- ------ -------- ----- --- ------ ----- --<br>----- ----- ---------- --- --- ------ ------ ---- -- ------<br>------- --- ------ ----- --- ---- ------- -- ---- --- --<br>------- ------,99185.30000007153,99184.70000004768,98364.989,98370,98381.654,99198.243,,1,the
screen,html.Screen,0_2_1_1_2,2021-11-19T10:00:12.572Z,,,,,,,,,,,,,,,,54,,,,,,,,,,,,,,658.3570000238396,,response,,,100,,,,,,Space,keypress(Space),,,,,-- --- time --- ------ ----- ------- ---- -- --- ------- --<br>------- ---------- ------ -- ----- -- ----- -- ---- ------<br>--- ----- --- --- ------ -------- ----- --- ------ ----- --<br>----- ----- ---------- --- --- ------ ------ ---- -- ------<br>------- --- ------ ----- --- ---- ------- -- ---- --- --<br>------- ------,99857.30000007153,99856.60000002384,99181.578,99185.39999997616,99198.243,99864.869,,2,time
screen,html.Screen,0_2_1_1_3,2021-11-19T10:00:13.276Z,,,,,,,,,,,,,,,,54,,,,,,,,,,,,,,695.8310000476777,,response,,,100,,,,,,Space,keypress(Space),,,,,-- --- ---- the ------ ----- ------- ---- -- --- ------- --<br>------- ---------- ------ -- ----- -- ----- -- ---- ------<br>--- ----- --- --- ------ -------- ----- --- ------ ----- --<br>----- ----- ---------- --- --- ------ ------ ---- -- ------<br>------- --- ------ ----- --- ---- ------- -- ---- --- --<br>------- ------,100561.30000007153,100560.70000004768,99848.204,99857.39999997616,99864.869,100564.844,,3,the
screen,html.Screen,0_2_1_1_4,2021-11-19T10:00:13.956Z,,,,,,,,,,,,,,,,54,,,,,,,,,,,,,,675.7560000238445,,response,,,100,,,,,,Space,keypress(Space),,,,,-- --- ---- --- French ----- ------- ---- -- --- ------- --<br>------- ---------- ------ -- ----- -- ----- -- ---- ------<br>--- ----- --- --- ------ -------- ----- --- ------ ----- --<br>----- ----- ---------- --- --- ------ ------ ---- -- ------<br>------- --- ------ ----- --- ---- ------- -- ---- --- --<br>------- ------,101241.20000004768,101240.60000002384,100548.179,100561.39999997616,100564.844,101248.034,,4,French
screen,html.Screen,0_2_1_1_5,2021-11-19T10:00:14.436Z,,,,,,,,,,,,,,,,54,,,,,,,,,,,,,,472.5660000238422,,response,,,100,,,,,,Space,keypress(Space),,,,,-- --- ---- --- ------ crown ------- ---- -- --- ------- --<br>------- ---------- ------ -- ----- -- ----- -- ---- ------<br>--- ----- --- --- ------ -------- ----- --- ------ ----- --<br>----- ----- ---------- --- --- ------ ------ ---- -- ------<br>------- --- ------ ----- --- ---- ------- -- ---- --- --<br>------- ------,101721.20000004768,101720.60000002384,101231.37,101241.39999997616,101248.034,101731.413,,5,crown
screen,html.Screen,0_2_1_1_6,2021-11-19T10:00:14.860Z,,,,,,,,,,,,,,,,54,,,,,,,,,,,,,,413.1870000238414,,response,,,100,,,,,,Space,keypress(Space),,,,,-- --- ---- --- ------ ----- secured ---- -- --- ------- --<br>------- ---------- ------ -- ----- -- ----- -- ---- ------<br>--- ----- --- --- ------ -------- ----- --- ------ ----- --<br>----- ----- ---------- --- --- ------ ------ ---- -- ------<br>------- --- ------ ----- --- ---- ------- -- ---- --- --<br>------- ------,102145.10000002384,102144.60000002384,101714.748,101721.30000007153,101731.413,102148.124,,6,secured
screen,html.Screen,0_2_1_1_7,2021-11-19T10:00:15.292Z,,,,,,,,,,,,,,,,54,,,,,,,,,,,,,,428.4760000238457,,response,,,100,,,,,,Space,keypress(Space),,,,,-- --- ---- --- ------ ----- ------- much -- --- ------- --<br>------- ---------- ------ -- ----- -- ----- -- ---- ------<br>--- ----- --- --- ------ -------- ----- --- ------ ----- --<br>----- ----- ---------- --- --- ------ ------ ---- -- ------<br>------- --- ------ ----- --- ---- ------- -- ---- --- --<br>------- ------,102577.10000002384,102576.60000002384,102131.458,102145.39999997616,102148.124,102581.399,,7,much
screen,html.Screen,0_2_1_1_8,2021-11-19T10:00:15.740Z,,,,,,,,,,,,,,,,54,,,,,,,,,,,,,,443.20100002383697,,response,,,100,,,,,,Space,keypress(Space),,,,,-- --- ---- --- ------ ----- ------- ---- of --- ------- --<br>------- ---------- ------ -- ----- -- ----- -- ---- ------<br>--- ----- --- --- ------ -------- ----- --- ------ ----- --<br>----- ----- ---------- --- --- ------ ------ ---- -- ------<br>------- --- ------ ----- --- ---- ------- -- ---- --- --<br>------- ------,103025.10000002384,103024.60000002384,102564.734,102577.30000007153,102581.399,103031.359,,8,of
screen,html.Screen,0_2_1_1_9,2021-11-19T10:00:16.180Z,,,,,,,,,,,,,,,,54,,,,,,,,,,,,,,433.14100000000326,,response,,,100,,,,,,Space,keypress(Space),,,,,-- --- ---- --- ------ ----- ------- ---- -- its ------- --<br>------- ---------- ------ -- ----- -- ----- -- ---- ------<br>--- ----- --- --- ------ -------- ----- --- ------ ----- --<br>----- ----- ---------- --- --- ------ ------ ---- -- ------<br>------- --- ------ ----- --- ---- ------- -- ---- --- --<br>------- ------,103465,103464.5,103014.694,103025.20000004768,103031.359,103481.342,,9,its
screen,html.Screen,0_2_1_1_10,2021-11-19T10:00:16.780Z,,,,,,,,,,,,,,,,54,,,,,,,,,,,,,,583.1579999999958,,response,,,100,,,,,,Space,keypress(Space),,,,,-- --- ---- --- ------ ----- ------- ---- -- --- revenue --<br>------- ---------- ------ -- ----- -- ----- -- ---- ------<br>--- ----- --- --- ------ -------- ----- --- ------ ----- --<br>----- ----- ---------- --- --- ------ ------ ---- -- ------<br>------- --- ------ ----- --- ---- ------- -- ---- --- --<br>------- ------,104065.10000002384,104064.5,103464.677,103465.20000004768,103481.342,104081.291,,10,revenue
screen,html.Screen,0_2_1_1_11,2021-11-19T10:00:17.204Z,,,,,,,,,,,,,,,,54,,,,,,,,,,,,,,407.1089999761607,,response,,,100,,,,,,Space,keypress(Space),,,,,-- --- ---- --- ------ ----- ------- ---- -- --- ------- by<br>------- ---------- ------ -- ----- -- ----- -- ---- ------<br>--- ----- --- --- ------ -------- ----- --- ------ ----- --<br>----- ----- ---------- --- --- ------ ------ ---- -- ------<br>------- --- ------ ----- --- ---- ------- -- ---- --- --<br>------- ------,104489,104488.39999997616,104064.626,104065.30000007153,104081.291,104497.937,,11,by
screen,html.Screen,0_2_1_1_12,2021-11-19T10:00:17.660Z,,,,,,,,,,,,,,,,54,,,,,,,,,,,,,,446.4629999761528,,response,,,100,,,,,,Space,keypress(Space),,,,,-- --- ---- --- ------ ----- ------- ---- -- --- ------- --<br>issuing ---------- ------ -- ----- -- ----- -- ---- ------<br>--- ----- --- --- ------ -------- ----- --- ------ ----- --<br>----- ----- ---------- --- --- ------ ------ ---- -- ------<br>------- --- ------ ----- --- ---- ------- -- ---- --- --<br>------- ------,104945,104944.39999997616,104481.272,104489.10000002384,104497.937,104947.921,,12,issuing
screen,html.Screen,0_2_1_1_13,2021-11-19T10:00:18.132Z,,,,,,,,,,,,,,,,54,,,,,,,,,,,,,,468.3790000715235,,response,,,100,,,,,,Space,keypress(Space),,,,,-- --- ---- --- ------ ----- ------- ---- -- --- ------- --<br>------- government ------ -- ----- -- ----- -- ---- ------<br>--- ----- --- --- ------ -------- ----- --- ------ ----- --<br>----- ----- ---------- --- --- ------ ------ ---- -- ------<br>------- --- ------ ----- --- ---- ------- -- ---- --- --<br>------- ------,105416.80000007153,105416.30000007153,104931.256,104945.10000002384,104947.921,105431.211,,13,government
screen,html.Screen,0_2_1_1_14,2021-11-19T10:00:18.556Z,,,,,,,,,,,,,,,,54,,,,,,,,,,,,,,409.0890000715299,,response,,,100,,,,,,Space,keypress(Space),,,,,-- --- ---- --- ------ ----- ------- ---- -- --- ------- --<br>------- ---------- bonds. -- ----- -- ----- -- ---- ------<br>--- ----- --- --- ------ -------- ----- --- ------ ----- --<br>----- ----- ---------- --- --- ------ ------ ---- -- ------<br>------- --- ------ ----- --- ---- ------- -- ---- --- --<br>------- ------,105841,105840.30000007153,105414.546,105417,105431.211,105847.855,,14,bonds.
screen,html.Screen,0_2_1_1_15,2021-11-19T10:00:20.756Z,,,,,,,,,,,,,,,,54,,,,,,,,,,,,,,2192.345000047688,,response,,,100,,,,,,Space,keypress(Space),,,,,-- --- ---- --- ------ ----- ------- ---- -- --- ------- --<br>------- ---------- ------ In ----- -- ----- -- ---- ------<br>--- ----- --- --- ------ -------- ----- --- ------ ----- --<br>----- ----- ---------- --- --- ------ ------ ---- -- ------<br>------- --- ------ ----- --- ---- ------- -- ---- --- --<br>------- ------,108040.80000007153,108040.20000004768,105831.19,105841.10000002384,105847.855,108047.653,,15,In
screen,html.Screen,0_2_1_1_16,2021-11-19T10:00:22.116Z,,,,,,,,,,,,,,,,54,,,,,,,,,,,,,,1352.6470000715199,,response,,,100,,,,,,Space,keypress(Space),,,,,"-- --- ---- --- ------ ----- ------- ---- -- --- ------- --<br>------- ---------- ------ -- 1727, -- ----- -- ---- ------<br>--- ----- --- --- ------ -------- ----- --- ------ ----- --<br>----- ----- ---------- --- --- ------ ------ ---- -- ------<br>------- --- ------ ----- --- ---- ------- -- ---- --- --<br>------- ------",109401.10000002384,109400.30000007153,108030.988,108040.89999997616,108047.653,109414.24,,16,"1727,"
screen,html.Screen,0_2_1_1_17,2021-11-19T10:00:22.716Z,,,,,,,,,,,,,,,,54,,,,,,,,,,,,,,585.8600000238366,,response,,,100,,,,,,Space,keypress(Space),,,,,-- --- ---- --- ------ ----- ------- ---- -- --- ------- --<br>------- ---------- ------ -- ----- in ----- -- ---- ------<br>--- ----- --- --- ------ -------- ----- --- ------ ----- --<br>----- ----- ---------- --- --- ------ ------ ---- -- ------<br>------- --- ------ ----- --- ---- ------- -- ---- --- --<br>------- ------,110000.70000004768,110000.10000002384,109397.575,109401.30000007153,109414.24,110014.252,,17,in
screen,html.Screen,0_2_1_1_18,2021-11-19T10:00:23.196Z,,,,,,,,,,,,,,,,54,,,,,,,,,,,,,,465.8480000238487,,response,,,100,,,,,,Space,keypress(Space),,,,,-- --- ---- --- ------ ----- ------- ---- -- --- ------- --<br>------- ---------- ------ -- ----- -- order -- ---- ------<br>--- ----- --- --- ------ -------- ----- --- ------ ----- --<br>----- ----- ---------- --- --- ------ ------ ---- -- ------<br>------- --- ------ ----- --- ---- ------- -- ---- --- --<br>------- ------,110480.5,110480.10000002384,109997.587,110001,110014.252,110497.533,,18,order
screen,html.Screen,0_2_1_1_19,2021-11-19T10:00:23.580Z,,,,,,,,,,,,,,,,54,,,,,,,,,,,,,,366.36699997616233,,response,,,100,,,,,,Space,keypress(Space),,,,,-- --- ---- --- ------ ----- ------- ---- -- --- ------- --<br>------- ---------- ------ -- ----- -- ----- to ---- ------<br>--- ----- --- --- ------ -------- ----- --- ------ ----- --<br>----- ----- ---------- --- --- ------ ------ ---- -- ------<br>------- --- ------ ----- --- ---- ------- -- ---- --- --<br>------- ------,110864.60000002384,110863.89999997616,110480.868,110480.80000007153,110497.533,110880.857,,19,to
screen,html.Screen,0_2_1_1_20,2021-11-19T10:00:24.052Z,,,,,,,,,,,,,,,,54,,,,,,,,,,,,,,455.1429999999964,,response,,,100,,,,,,Space,keypress(Space),,,,,-- --- ---- --- ------ ----- ------- ---- -- --- ------- --<br>------- ---------- ------ -- ----- -- ----- -- save ------<br>--- ----- --- --- ------ -------- ----- --- ------ ----- --<br>----- ----- ---------- --- --- ------ ------ ---- -- ------<br>------- --- ------ ----- --- ---- ------- -- ---- --- --<br>------- ------,111336.60000002384,111336,110864.192,110864.80000007153,110880.857,111347.583,,20,save
screen,html.Screen,0_2_1_1_21,2021-11-19T10:00:24.492Z,,,,,,,,,,,,,,,,54,,,,,,,,,,,,,,428.3169999761594,,response,,,100,,,,,,Space,keypress(Space),,,,,"-- --- ---- --- ------ ----- ------- ---- -- --- ------- --<br>------- ---------- ------ -- ----- -- ----- -- ---- money,<br>--- ----- --- --- ------ -------- ----- --- ------ ----- --<br>----- ----- ---------- --- --- ------ ------ ---- -- ------<br>------- --- ------ ----- --- ---- ------- -- ---- --- --<br>------- ------",111776.5,111775.89999997616,111330.917,111336.70000004768,111347.583,111780.819,,21,"money,"
screen,html.Screen,0_2_1_1_22,2021-11-19T10:00:24.884Z,,,,,,,,,,,,,,,,54,,,,,,,,,,,,,,387.18099999999686,,response,,,100,,,,,,Space,keypress(Space),,,,,-- --- ---- --- ------ ----- ------- ---- -- --- ------- --<br>------- ---------- ------ -- ----- -- ----- -- ---- ------<br>the ----- --- --- ------ -------- ----- --- ------ ----- --<br>----- ----- ---------- --- --- ------ ------ ---- -- ------<br>------- --- ------ ----- --- ---- ------- -- ---- --- --<br>------- ------,112168.5,112168,111764.154,111776.70000004768,111780.819,112180.857,,22,the
screen,html.Screen,0_2_1_1_23,2021-11-19T10:00:25.324Z,,,,,,,,,,,,,,,,54,,,,,,,,,,,,,,427.04299997615453,,response,,,100,,,,,,Space,keypress(Space),,,,,-- --- ---- --- ------ ----- ------- ---- -- --- ------- --<br>------- ---------- ------ -- ----- -- ----- -- ---- ------<br>--- state --- --- ------ -------- ----- --- ------ ----- --<br>----- ----- ---------- --- --- ------ ------ ---- -- ------<br>------- --- ------ ----- --- ---- ------- -- ---- --- --<br>------- ------,112608.5,112607.89999997616,112164.191,112168.70000004768,112180.857,112614.069,,23,state
screen,html.Screen,0_2_1_1_24,2021-11-19T10:00:25.780Z,,,,,,,,,,,,,,,,54,,,,,,,,,,,,,,449.830999976155,,response,,,100,,,,,,Space,keypress(Space),,,,,-- --- ---- --- ------ ----- ------- ---- -- --- ------- --<br>------- ---------- ------ -- ----- -- ----- -- ---- ------<br>--- ----- cut --- ------ -------- ----- --- ------ ----- --<br>----- ----- ---------- --- --- ------ ------ ---- -- ------<br>------- --- ------ ----- --- ---- ------- -- ---- --- --<br>------- ------,113064.5,113063.89999997616,112597.405,112608.80000007153,112614.069,113080.745,,24,cut
screen,html.Screen,0_2_1_1_25,2021-11-19T10:00:26.164Z,,,,,,,,,,,,,,,,54,,,,,,,,,,,,,,367.05500007153023,,response,,,100,,,,,,Space,keypress(Space),,,,,-- --- ---- --- ------ ----- ------- ---- -- --- ------- --<br>------- ---------- ------ -- ----- -- ----- -- ---- ------<br>--- ----- --- the ------ -------- ----- --- ------ ----- --<br>----- ----- ---------- --- --- ------ ------ ---- -- ------<br>------- --- ------ ----- --- ---- ------- -- ---- --- --<br>------- ------,113448.5,113447.80000007153,113064.08,113064.60000002384,113080.745,113463.984,,25,the
screen,html.Screen,0_2_1_1_26,2021-11-19T10:00:26.604Z,,,,,,,,,,,,,,,,54,,,,,,,,,,,,,,423.9159999761614,,response,,,100,,,,,,Space,keypress(Space),,,,,-- --- ---- --- ------ ----- ------- ---- -- --- ------- --<br>------- ---------- ------ -- ----- -- ----- -- ---- ------<br>--- ----- --- --- bonds' -------- ----- --- ------ ----- --<br>----- ----- ---------- --- --- ------ ------ ---- -- ------<br>------- --- ------ ----- --- ---- ------- -- ---- --- --<br>------- ------,113888.5,113887.89999997616,113447.32,113448.70000004768,113463.984,113897.41,,26,bonds'
screen,html.Screen,0_2_1_1_27,2021-11-19T10:00:27.524Z,,,,,,,,,,,,,,,,54,,,,,,,,,,,,,,910.3900000715221,,response,,,100,,,,,,Space,keypress(Space),,,,,-- --- ---- --- ------ ----- ------- ---- -- --- ------- --<br>------- ---------- ------ -- ----- -- ----- -- ---- ------<br>--- ----- --- --- ------ interest ----- --- ------ ----- --<br>----- ----- ---------- --- --- ------ ------ ---- -- ------<br>------- --- ------ ----- --- ---- ------- -- ---- --- --<br>------- ------,114808.5,114807.80000007153,113880.744,113888.80000007153,113897.41,114813.843,,27,interest
screen,html.Screen,0_2_1_1_28,2021-11-19T10:00:28.395Z,,,,,,,,,,,,,,,,54,,,,,,,,,,,,,,865.9570000715321,,response,,,100,,,,,,Space,keypress(Space),,,,,-- --- ---- --- ------ ----- ------- ---- -- --- ------- --<br>------- ---------- ------ -- ----- -- ----- -- ---- ------<br>--- ----- --- --- ------ -------- rate. --- ------ ----- --<br>----- ----- ---------- --- --- ------ ------ ---- -- ------<br>------- --- ------ ----- --- ---- ------- -- ---- --- --<br>------- ------,115680.30000007153,115679.80000007153,114797.179,114808.70000004768,114813.843,115697.326,,28,rate.
screen,html.Screen,0_2_1_1_29,2021-11-19T10:00:29.219Z,,,,,,,,,,,,,,,,54,,,,,,,,,,,,,,806.3740000476828,,response,,,100,,,,,,Space,keypress(Space),,,,,-- --- ---- --- ------ ----- ------- ---- -- --- ------- --<br>------- ---------- ------ -- ----- -- ----- -- ---- ------<br>--- ----- --- --- ------ -------- ----- The ------ ----- --<br>----- ----- ---------- --- --- ------ ------ ---- -- ------<br>------- --- ------ ----- --- ---- ------- -- ---- --- --<br>------- ------,116504.30000007153,116503.70000004768,115680.66,115680.5,115697.326,116513.805,,29,The
screen,html.Screen,0_2_1_1_30,2021-11-19T10:00:29.907Z,,,,,,,,,,,,,,,,54,,,,,,,,,,,,,,677.8950000476907,,response,,,100,,,,,,Space,keypress(Space),,,,,-- --- ---- --- ------ ----- ------- ---- -- --- ------- --<br>------- ---------- ------ -- ----- -- ----- -- ---- ------<br>--- ----- --- --- ------ -------- ----- --- market ----- --<br>----- ----- ---------- --- --- ------ ------ ---- -- ------<br>------- --- ------ ----- --- ---- ------- -- ---- --- --<br>------- ------,117192.39999997616,117191.70000004768,116497.14,116504.5,116513.805,117197.22,,30,market
screen,html.Screen,0_2_1_1_31,2021-11-19T10:00:30.419Z,,,,,,,,,,,,,,,,54,,,,,,,,,,,,,,506.3800000238407,,response,,,100,,,,,,Space,keypress(Space),,,,,-- --- ---- --- ------ ----- ------- ---- -- --- ------- --<br>------- ---------- ------ -- ----- -- ----- -- ---- ------<br>--- ----- --- --- ------ -------- ----- --- ------ value --<br>----- ----- ---------- --- --- ------ ------ ---- -- ------<br>------- --- ------ ----- --- ---- ------- -- ---- --- --<br>------- ------,117704.10000002384,117703.60000002384,117180.554,117192.5,117197.22,117713.707,,31,value
screen,html.Screen,0_2_1_1_32,2021-11-19T10:00:30.915Z,,,,,,,,,,,,,,,,54,,,,,,,,,,,,,,485.893000023847,,response,,,100,,,,,,Space,keypress(Space),,,,,-- --- ---- --- ------ ----- ------- ---- -- --- ------- --<br>------- ---------- ------ -- ----- -- ----- -- ---- ------<br>--- ----- --- --- ------ -------- ----- --- ------ ----- of<br>----- ----- ---------- --- --- ------ ------ ---- -- ------<br>------- --- ------ ----- --- ---- ------- -- ---- --- --<br>------- ------,118200.10000002384,118199.60000002384,117697.043,117704.30000007153,117713.707,118213.809,,32,of
screen,html.Screen,0_2_1_1_33,2021-11-19T10:00:31.339Z,,,,,,,,,,,,,,,,54,,,,,,,,,,,,,,409.69100000000617,,response,,,100,,,,,,Space,keypress(Space),,,,,-- --- ---- --- ------ ----- ------- ---- -- --- ------- --<br>------- ---------- ------ -- ----- -- ----- -- ---- ------<br>--- ----- --- --- ------ -------- ----- --- ------ ----- --<br>these ----- ---------- --- --- ------ ------ ---- -- ------<br>------- --- ------ ----- --- ---- ------- -- ---- --- --<br>------- ------,118624,118623.5,118197.143,118200.30000007153,118213.809,118630.338,,33,these
screen,html.Screen,0_2_1_1_34,2021-11-19T10:00:31.755Z,,,,,,,,,,,,,,,,54,,,,,,,,,,,,,,409.2620000238385,,response,,,100,,,,,,Space,keypress(Space),,,,,-- --- ---- --- ------ ----- ------- ---- -- --- ------- --<br>------- ---------- ------ -- ----- -- ----- -- ---- ------<br>--- ----- --- --- ------ -------- ----- --- ------ ----- --<br>----- bonds ---------- --- --- ------ ------ ---- -- ------<br>------- --- ------ ----- --- ---- ------- -- ---- --- --<br>------- ------,119040.20000004768,119039.60000002384,118613.674,118624.30000007153,118630.338,119047.034,,34,bonds
screen,html.Screen,0_2_1_1_35,2021-11-19T10:00:32.132Z,,,,,,,,,,,,,,,,54,,,,,,,,,,,,,,368.66600004768407,,response,,,100,,,,,,Space,keypress(Space),,,,,"-- --- ---- --- ------ ----- ------- ---- -- --- ------- --<br>------- ---------- ------ -- ----- -- ----- -- ---- ------<br>--- ----- --- --- ------ -------- ----- --- ------ ----- --<br>----- ----- plummeted, --- --- ------ ------ ---- -- ------<br>------- --- ------ ----- --- ---- ------- -- ---- --- --<br>------- ------",119416.89999997616,119415.70000004768,119030.369,119040.30000007153,119047.034,119430.403,,35,"plummeted,"
screen,html.Screen,0_2_1_1_36,2021-11-19T10:00:32.643Z,,,,,,,,,,,,,,,,54,,,,,,,,,,,,,,497.0969999999943,,response,,,100,,,,,,Space,keypress(Space),,,,,-- --- ---- --- ------ ----- ------- ---- -- --- ------- --<br>------- ---------- ------ -- ----- -- ----- -- ---- ------<br>--- ----- --- --- ------ -------- ----- --- ------ ----- --<br>----- ----- ---------- and --- ------ ------ ---- -- ------<br>------- --- ------ ----- --- ---- ------- -- ---- --- --<br>------- ------,119928,119927.5,119413.737,119417.20000004768,119430.403,119930.322,,36,and
screen,html.Screen,0_2_1_1_37,2021-11-19T10:00:33.051Z,,,,,,,,,,,,,,,,54,,,,,,,,,,,,,,405.077999976158,,response,,,100,,,,,,Space,keypress(Space),,,,,-- --- ---- --- ------ ----- ------- ---- -- --- ------- --<br>------- ---------- ------ -- ----- -- ----- -- ---- ------<br>--- ----- --- --- ------ -------- ----- --- ------ ----- --<br>----- ----- ---------- --- the ------ ------ ---- -- ------<br>------- --- ------ ----- --- ---- ------- -- ---- --- --<br>------- ------,120336,120335.39999997616,119913.657,119928.20000004768,119930.322,120346.961,,37,the
screen,html.Screen,0_2_1_1_38,2021-11-19T10:00:33.478Z,,,,,,,,,,,,,,,,54,,,,,,,,,,,,,,412.43899997616245,,response,,,100,,,,,,Space,keypress(Space),,,,,-- --- ---- --- ------ ----- ------- ---- -- --- ------- --<br>------- ---------- ------ -- ----- -- ----- -- ---- ------<br>--- ----- --- --- ------ -------- ----- --- ------ ----- --<br>----- ----- ---------- --- --- market ------ ---- -- ------<br>------- --- ------ ----- --- ---- ------- -- ---- --- --<br>------- ------,120760.10000002384,120759.39999997616,120330.296,120336.10000002384,120346.961,120763.61,,38,market
screen,html.Screen,0_2_1_1_39,2021-11-19T10:00:33.862Z,,,,,,,,,,,,,,,,54,,,,,,,,,,,,,,379.78999997615756,,response,,,100,,,,,,Space,keypress(Space),,,,,-- --- ---- --- ------ ----- ------- ---- -- --- ------- --<br>------- ---------- ------ -- ----- -- ----- -- ---- ------<br>--- ----- --- --- ------ -------- ----- --- ------ ----- --<br>----- ----- ---------- --- --- ------ became ---- -- ------<br>------- --- ------ ----- --- ---- ------- -- ---- --- --<br>------- ------,121144,121143.39999997616,120746.945,120760.30000007153,120763.61,121146.918,,39,became
screen,html.Screen,0_2_1_1_40,2021-11-19T10:00:34.334Z,,,,,,,,,,,,,,,,54,,,,,,,,,,,,,,468.38200007152045,,response,,,100,,,,,,Space,keypress(Space),,,,,-- --- ---- --- ------ ----- ------- ---- -- --- ------- --<br>------- ---------- ------ -- ----- -- ----- -- ---- ------<br>--- ----- --- --- ------ -------- ----- --- ------ ----- --<br>----- ----- ---------- --- --- ------ ------ wary -- ------<br>------- --- ------ ----- --- ---- ------- -- ---- --- --<br>------- ------,121615.80000007153,121615.30000007153,121130.253,121144.20000004768,121146.918,121630.27,,40,wary
screen,html.Screen,0_2_1_1_41,2021-11-19T10:00:34.806Z,,,,,,,,,,,,,,,,54,,,,,,,,,,,,,,457.12999997615407,,response,,,100,,,,,,Space,keypress(Space),,,,,-- --- ---- --- ------ ----- ------- ---- -- --- ------- --<br>------- ---------- ------ -- ----- -- ----- -- ---- ------<br>--- ----- --- --- ------ -------- ----- --- ------ ----- --<br>----- ----- ---------- --- --- ------ ------ ---- of ------<br>------- --- ------ ----- --- ---- ------- -- ---- --- --<br>------- ------,122088,122087.39999997616,121613.604,121616,121630.27,122096.848,,41,of
screen,html.Screen,0_2_1_1_42,2021-11-19T10:00:35.254Z,,,,,,,,,,,,,,,,54,,,,,,,,,,,,,,438.45200007152744,,response,,,100,,,,,,Space,keypress(Space),,,,,-- --- ---- --- ------ ----- ------- ---- -- --- ------- --<br>------- ---------- ------ -- ----- -- ----- -- ---- ------<br>--- ----- --- --- ------ -------- ----- --- ------ ----- --<br>----- ----- ---------- --- --- ------ ------ ---- -- French<br>------- --- ------ ----- --- ---- ------- -- ---- --- --<br>------- ------,122535.89999997616,122535.30000007153,122080.183,122088.20000004768,122096.848,122546.831,,42,French
screen,html.Screen,0_2_1_1_43,2021-11-19T10:00:35.782Z,,,,,,,,,,,,,,,,54,,,,,,,,,,,,,,516.3690000476781,,response,,,100,,,,,,Space,keypress(Space),,,,,-- --- ---- --- ------ ----- ------- ---- -- --- ------- --<br>------- ---------- ------ -- ----- -- ----- -- ---- ------<br>--- ----- --- --- ------ -------- ----- --- ------ ----- --<br>----- ----- ---------- --- --- ------ ------ ---- -- ------<br>credit. --- ------ ----- --- ---- ------- -- ---- --- --<br>------- ------,123063.89999997616,123063.20000004768,122530.166,122536.10000002384,122546.831,123080.063,,43,credit.
screen,html.Screen,0_2_1_1_44,2021-11-19T10:00:36.246Z,,,,,,,,,,,,,,,,54,,,,,,,,,,,,,,447.13700004768907,,response,,,100,,,,,,Space,keypress(Space),,,,,-- --- ---- --- ------ ----- ------- ---- -- --- ------- --<br>------- ---------- ------ -- ----- -- ----- -- ---- ------<br>--- ----- --- --- ------ -------- ----- --- ------ ----- --<br>----- ----- ---------- --- --- ------ ------ ---- -- ------<br>------- The ------ ----- --- ---- ------- -- ---- --- --<br>------- ------,123527.80000007153,123527.20000004768,123063.399,123064.10000002384,123080.063,123530.145,,44,The
screen,html.Screen,0_2_1_1_45,2021-11-19T10:00:36.766Z,,,,,,,,,,,,,,,,54,,,,,,,,,,,,,,517.0550000476796,,response,,,100,,,,,,Space,keypress(Space),,,,,-- --- ---- --- ------ ----- ------- ---- -- --- ------- --<br>------- ---------- ------ -- ----- -- ----- -- ---- ------<br>--- ----- --- --- ------ -------- ----- --- ------ ----- --<br>----- ----- ---------- --- --- ------ ------ ---- -- ------<br>------- --- French ----- --- ---- ------- -- ---- --- --<br>------- ------,124047.70000004768,124047.20000004768,123513.479,123528,123530.145,124063.409,,45,French
screen,html.Screen,0_2_1_1_46,2021-11-19T10:00:37.230Z,,,,,,,,,,,,,,,,54,,,,,,,,,,,,,,447.79100004768407,,response,,,100,,,,,,Space,keypress(Space),,,,,-- --- ---- --- ------ ----- ------- ---- -- --- ------- --<br>------- ---------- ------ -- ----- -- ----- -- ---- ------<br>--- ----- --- --- ------ -------- ----- --- ------ ----- --<br>----- ----- ---------- --- --- ------ ------ ---- -- ------<br>------- --- ------ state --- ---- ------- -- ---- --- --<br>------- ------,124511.80000007153,124511.20000004768,124046.744,124047.89999997616,124063.409,124513.375,,46,state
screen,html.Screen,0_2_1_1_47,2021-11-19T10:00:37.630Z,,,,,,,,,,,,,,,,54,,,,,,,,,,,,,,397.8250000476837,,response,,,100,,,,,,Space,keypress(Space),,,,,-- --- ---- --- ------ ----- ------- ---- -- --- ------- --<br>------- ---------- ------ -- ----- -- ----- -- ---- ------<br>--- ----- --- --- ------ -------- ----- --- ------ ----- --<br>----- ----- ---------- --- --- ------ ------ ---- -- ------<br>------- --- ------ ----- was ---- ------- -- ---- --- --<br>------- ------,124911.70000004768,124911.20000004768,124496.71,124512,124513.375,124913.368,,47,was
screen,html.Screen,0_2_1_1_48,2021-11-19T10:00:38.110Z,,,,,,,,,,,,,,,,54,,,,,,,,,,,,,,477.73200002383965,,response,,,100,,,,,,Space,keypress(Space),,,,,-- --- ---- --- ------ ----- ------- ---- -- --- ------- --<br>------- ---------- ------ -- ----- -- ----- -- ---- ------<br>--- ----- --- --- ------ -------- ----- --- ------ ----- --<br>----- ----- ---------- --- --- ------ ------ ---- -- ------<br>------- --- ------ ----- --- left ------- -- ---- --- --<br>------- ------,125391.60000002384,125391.10000002384,124896.703,124911.89999997616,124913.368,125396.658,,48,left
screen,html.Screen,0_2_1_1_49,2021-11-19T10:00:38.534Z,,,,,,,,,,,,,,,,54,,,,,,,,,,,,,,418.3420000000042,,response,,,100,,,,,,Space,keypress(Space),,,,,-- --- ---- --- ------ ----- ------- ---- -- --- ------- --<br>------- ---------- ------ -- ----- -- ----- -- ---- ------<br>--- ----- --- --- ------ -------- ----- --- ------ ----- --<br>----- ----- ---------- --- --- ------ ------ ---- -- ------<br>------- --- ------ ----- --- ---- without -- ---- --- --<br>------- ------,125815.60000002384,125815,125379.993,125391.80000007153,125396.658,125829.965,,49,without
screen,html.Screen,0_2_1_1_50,2021-11-19T10:00:38.998Z,,,,,,,,,,,,,,,,54,,,,,,,,,,,,,,449.13500002384535,,response,,,100,,,,,,Space,keypress(Space),,,,,-- --- ---- --- ------ ----- ------- ---- -- --- ------- --<br>------- ---------- ------ -- ----- -- ----- -- ---- ------<br>--- ----- --- --- ------ -------- ----- --- ------ ----- --<br>----- ----- ---------- --- --- ------ ------ ---- -- ------<br>------- --- ------ ----- --- ---- ------- an ---- --- --<br>------- ------,126279.70000004768,126279.10000002384,125813.3,125815.80000007153,125829.965,126296.535,,50,an
screen,html.Screen,0_2_1_1_51,2021-11-19T10:00:39.454Z,,,,,,,,,,,,,,,,54,,,,,,,,,,,,,,438.4649999999965,,response,,,100,,,,,,Space,keypress(Space),,,,,-- --- ---- --- ------ ----- ------- ---- -- --- ------- --<br>------- ---------- ------ -- ----- -- ----- -- ---- ------<br>--- ----- --- --- ------ -------- ----- --- ------ ----- --<br>----- ----- ---------- --- --- ------ ------ ---- -- ------<br>------- --- ------ ----- --- ---- ------- -- easy --- --<br>------- ------,126735.60000002384,126735,126279.871,126279.80000007153,126296.535,126746.624,,51,easy
screen,html.Screen,0_2_1_1_52,2021-11-19T10:00:39.894Z,,,,,,,,,,,,,,,,54,,,,,,,,,,,,,,428.37600000000384,,response,,,100,,,,,,Space,keypress(Space),,,,,-- --- ---- --- ------ ----- ------- ---- -- --- ------- --<br>------- ---------- ------ -- ----- -- ----- -- ---- ------<br>--- ----- --- --- ------ -------- ----- --- ------ ----- --<br>----- ----- ---------- --- --- ------ ------ ---- -- ------<br>------- --- ------ ----- --- ---- ------- -- ---- way --<br>------- ------,127175.60000002384,127175,126729.958,126735.80000007153,126746.624,127179.881,,52,way
screen,html.Screen,0_2_1_1_53,2021-11-19T10:00:40.262Z,,,,,,,,,,,,,,,,54,,,,,,,,,,,,,,363.11900000000605,,response,,,100,,,,,,Space,keypress(Space),,,,,-- --- ---- --- ------ ----- ------- ---- -- --- ------- --<br>------- ---------- ------ -- ----- -- ----- -- ---- ------<br>--- ----- --- --- ------ -------- ----- --- ------ ----- --<br>----- ----- ---------- --- --- ------ ------ ---- -- ------<br>------- --- ------ ----- --- ---- ------- -- ---- --- of<br>------- ------,127543.60000002384,127543,127163.216,127175.80000007153,127179.881,127546.578,,53,of
screen,html.Screen,0_2_1_1_54,2021-11-19T10:00:40.702Z,,,,,,,,,,,,,,,,54,,,,,,,,,,,,,,436.42200000000594,,response,,,100,,,,,,Space,keypress(Space),,,,,-- --- ---- --- ------ ----- ------- ---- -- --- ------- --<br>------- ---------- ------ -- ----- -- ----- -- ---- ------<br>--- ----- --- --- ------ -------- ----- --- ------ ----- --<br>----- ----- ---------- --- --- ------ ------ ---- -- ------<br>------- --- ------ ----- --- ---- ------- -- ---- --- --<br>raising ------,127983.5,127983,127529.912,127543.70000004768,127546.578,127996.491,,54,raising
screen,html.Screen,0_2_1_1_55,2021-11-19T10:00:41.806Z,,,,,,,,,,,,,,,,54,,,,,,,,,,,,,,1090.5090000000055,,response,,,100,,,,,,Space,keypress(Space),,,,,-- --- ---- --- ------ ----- ------- ---- -- --- ------- --<br>------- ---------- ------ -- ----- -- ----- -- ---- ------<br>--- ----- --- --- ------ -------- ----- --- ------ ----- --<br>----- ----- ---------- --- --- ------ ------ ---- -- ------<br>------- --- ------ ----- --- ---- ------- -- ---- --- --<br>------- money.,129087.60000002384,129087,127979.826,127983.70000004768,127996.491,129096.496,,55,money.
Item 100,flow.Loop,0_2_1_1,2021-11-19T10:00:41.806Z,,,,,,,,,,,,,,,,,,,,,,,,,,,,,,31405.339000000007,,completion,,,,F,,,,,,,,,,silence,,129087.80000007153,129087,97664.996,97666.70000004768,97681.661,129096.496,,,
Question 1,html.Screen,0_2_1_2,2021-11-19T10:00:45.538Z,,,,,,,,,,,,,,,,,,,,,,,,,,,true,TRUE,,3722.7040000476845,,response,,,100,F,,,,,TRUE,click #choice-1,,,,silence,,132820.10000002384,132819.20000004768,129079.83,129088,129096.496,132829.511,,,
Question 2,html.Screen,0_2_1_3,2021-11-19T10:00:48.570Z,,,,,,,,,,,,,,,,,,,,,,,,,,,true,FALSE,,3021.3889999761595,,response,,,100,F,,,,,FALSE,click #choice-2,,,,silence,,135851.80000007153,135850.89999997616,132812.846,132820.20000004768,132829.511,135862.651,,,
Item 100,flow.Sequence,0_2_1,2021-11-19T10:00:48.570Z,,,,,,,,,,,,,,,,,,,,,,,,,,,,,,48168.69499997616,,completion,,,,,,,,,,,,,,,,135852.10000002384,135850.89999997616,87665.541,87676,87682.205,135862.651,,,
End of Practice,html.Page,0_2_2,2021-11-19T10:00:57.121Z,,,,,,,,,,,,,,,,,,,,,,,,,,,,,,8540.248999976146,,form submission,,,,,,,,,,,,,,,,144403.30000007153,144402.89999997616,135845.986,135852.20000004768,135862.651,144412.489,,,
Practice,flow.Sequence,0_2,2021-11-19T10:00:57.122Z,,,,,,,,,,,,,,,,,,,,,,,,,,,,,,110917.25699997616,,completion,,,,,,,,,,,,,,,,144403.70000004768,144402.89999997616,33468.978,33479.5,33485.643,144412.489,,,
Trap_instruction,html.Page,0_3_0,2021-11-19T10:01:05.358Z,,,,,,,,,,,,,,,,,,,,,,,,,,,,,,8226.711000047682,,form submission,,,,,,,,,,,,,,,,152639.60000002384,152639.20000004768,144395.81,144403.80000007153,144412.489,152661.392,,,
trap_trial,html.Screen,0_3_1,2021-11-19T10:01:08.751Z,,,,,,,,,,,,,,,,,,,,,,,,,,,true,1,,3370.408000071533,,response,,,,,,,,,1,click #choice-1,,,,,,156032.70000004768,156031.80000007153,152628.064,152639.80000007153,152661.392,156038.5,,,
end of trap trial,html.Page,0_3_2,2021-11-19T10:01:11.085Z,,,,,,,,,,,,,,,,,,,,,,,,,,,,,,2328.5,,form submission,,,,,,,,,,,,,,,,158367.39999997616,158367,156021.782,156032.89999997616,156038.5,158377.903,,,
Trap 1,flow.Sequence,0_3,2021-11-19T10:01:11.086Z,,,,,,,,,,,,,,,,,,,,,,,,,,,,,,13954.510999999999,,completion,,,,,,,,,,,,,,,,158367.60000002384,158367,144395.81,144403.80000007153,144412.489,158377.903,,,
Standby,html.Page,0_4_0,2021-11-19T10:01:19.080Z,,,,,,,,,,,,,,,,,,,,,,,,,,,,,,7999.238000000012,,timeout,,,,,,,,,,,,,,,,166361.70000004768,166360.476,158361.238,158367.80000007153,158377.903,166377.141,,,
Holding screen,html.Screen,0_4_1_0_0,2021-11-19T10:01:26.080Z,,,,,,,,,,,,,,,,,,,,,,,,,,,,,,6999.829999999987,,timeout,,,,,,,,,,,,,,,,173361.60000002384,173360.306,166360.476,166362,166377.141,173376.971,,,
screen,html.Screen,0_4_1_0_1_0,2021-11-19T10:01:27.803Z,,,,,,,,,,,,,,,,11,,,,,,,,,,,,,,1707.4289999761677,,response,,,4,F,,,,,Space,keypress(Space),,,,instrumental,Known -- ---- --- -- --- -------- ------------ ---------- --<br>- ------- ------ --------- -- ------------ -- --- ---- -----<br>------ ---- ---- ------ ------ ------- --- ----- ---------<br>---- --- -------- -------- --- --- -- ------- --- --- -----<br>-- --- ------ ------- --- --- -------- ---- --------- --<br>---------- -- -------- ----------------,175085.20000004768,175084.39999997616,173360.306,173361.89999997616,173376.971,175093.519,,0,Known
screen,html.Screen,0_4_1_0_1_1,2021-11-19T10:01:28.331Z,,,,,,,,,,,,,,,,11,,,,,,,,,,,,,,518.5810000238416,,response,,,4,F,,,,,Space,keypress(Space),,,,instrumental,----- as ---- --- -- --- -------- ------------ ---------- --<br>- ------- ------ --------- -- ------------ -- --- ---- -----<br>------ ---- ---- ------ ------ ------- --- ----- ---------<br>---- --- -------- -------- --- --- -- ------- --- --- -----<br>-- --- ------ ------- --- --- -------- ---- --------- --<br>---------- -- -------- ----------------,175612.60000002384,175612.10000002384,175076.854,175085.30000007153,175093.519,175626.978,,1,as
screen,html.Screen,0_4_1_0_1_2,2021-11-19T10:01:29.019Z,,,,,,,,,,,,,,,,11,,,,,,,,,,,,,,673.0219999999972,,response,,,4,F,,,,,Space,keypress(Space),,,,instrumental,----- -- Rapa --- -- --- -------- ------------ ---------- --<br>- ------- ------ --------- -- ------------ -- --- ---- -----<br>------ ---- ---- ------ ------ ------- --- ----- ---------<br>---- --- -------- -------- --- --- -- ------- --- --- -----<br>-- --- ------ ------- --- --- -------- ---- --------- --<br>---------- -- -------- ----------------,176300.60000002384,176300,175610.312,175612.80000007153,175626.978,176310.127,,2,Rapa
screen,html.Screen,0_4_1_0_1_3,2021-11-19T10:01:29.475Z,,,,,,,,,,,,,,,,11,,,,,,,,,,,,,,445.8729999999923,,response,,,4,F,,,,,Space,keypress(Space),,,,instrumental,----- -- ---- Nui -- --- -------- ------------ ---------- --<br>- ------- ------ --------- -- ------------ -- --- ---- -----<br>------ ---- ---- ------ ------ ------- --- ----- ---------<br>---- --- -------- -------- --- --- -- ------- --- --- -----<br>-- --- ------ ------- --- --- -------- ---- --------- --<br>---------- -- -------- ----------------,176756.5,176756,176293.462,176300.80000007153,176310.127,176760.239,,3,Nui
screen,html.Screen,0_4_1_0_1_4,2021-11-19T10:01:29.955Z,,,,,,,,,,,,,,,,11,,,,,,,,,,,,,,475.7609999999986,,response,,,4,F,,,,,Space,keypress(Space),,,,instrumental,----- -- ---- --- to --- -------- ------------ ---------- --<br>- ------- ------ --------- -- ------------ -- --- ---- -----<br>------ ---- ---- ------ ------ ------- --- ----- ---------<br>---- --- -------- -------- --- --- -- ------- --- --- -----<br>-- --- ------ ------- --- --- -------- ---- --------- --<br>---------- -- -------- ----------------,177236.60000002384,177236,176743.573,176756.80000007153,176760.239,177243.387,,4,to
screen,html.Screen,0_4_1_0_1_5,2021-11-19T10:01:30.411Z,,,,,,,,,,,,,,,,11,,,,,,,,,,,,,,448.51299997617025,,response,,,4,F,,,,,Space,keypress(Space),,,,instrumental,----- -- ---- --- -- the -------- ------------ ---------- --<br>- ------- ------ --------- -- ------------ -- --- ---- -----<br>------ ---- ---- ------ ------ ------- --- ----- ---------<br>---- --- -------- -------- --- --- -- ------- --- --- -----<br>-- --- ------ ------- --- --- -------- ---- --------- --<br>---------- -- -------- ----------------,177692.5,177691.89999997616,177226.723,177236.80000007153,177243.387,177693.477,,5,the
screen,html.Screen,0_4_1_0_1_6,2021-11-19T10:01:31.059Z,,,,,,,,,,,,,,,,11,,,,,,,,,,,,,,646.4229999761446,,response,,,4,F,,,,,Space,keypress(Space),,,,instrumental,----- -- ---- --- -- --- island's ------------ ---------- --<br>- ------- ------ --------- -- ------------ -- --- ---- -----<br>------ ---- ---- ------ ------ ------- --- ----- ---------<br>---- --- -------- -------- --- --- -- ------- --- --- -----<br>-- --- ------ ------- --- --- -------- ---- --------- --<br>---------- -- -------- ----------------,178340.5,178339.89999997616,177676.811,177692.70000004768,177693.477,178343.45,,6,island's
screen,html.Screen,0_4_1_0_1_7,2021-11-19T10:01:31.875Z,,,,,,,,,,,,,,,,11,,,,,,,,,,,,,,812.3500000715139,,response,,,4,F,,,,,Space,keypress(Space),,,,instrumental,"----- -- ---- --- -- --- -------- inhabitants, ---------- --<br>- ------- ------ --------- -- ------------ -- --- ---- -----<br>------ ---- ---- ------ ------ ------- --- ----- ---------<br>---- --- -------- -------- --- --- -- ------- --- --- -----<br>-- --- ------ ------- --- --- -------- ---- --------- --<br>---------- -- -------- ----------------",179156.39999997616,179155.80000007153,178326.784,178340.60000002384,178343.45,179160.001,,7,"inhabitants,"
screen,html.Screen,0_4_1_0_1_8,2021-11-19T10:01:33.059Z,,,,,,,,,,,,,,,,11,,,,,,,,,,,,,,1179.7990000715363,,response,,,4,F,,,,,Space,keypress(Space),,,,instrumental,----- -- ---- --- -- --- -------- ------------ Rongorongo --<br>- ------- ------ --------- -- ------------ -- --- ---- -----<br>------ ---- ---- ------ ------ ------- --- ----- ---------<br>---- --- -------- -------- --- --- -- ------- --- --- -----<br>-- --- ------ ------- --- --- -------- ---- --------- --<br>---------- -- -------- ----------------,180340.5,180339.80000007153,179143.336,179156.70000004768,179160.001,180343.218,,8,Rongorongo
screen,html.Screen,0_4_1_0_1_9,2021-11-19T10:01:33.526Z,,,,,,,,,,,,,,,,11,,,,,,,,,,,,,,460.48200004769024,,response,,,4,F,,,,,Space,keypress(Space),,,,instrumental,----- -- ---- --- -- --- -------- ------------ ---------- is<br>- ------- ------ --------- -- ------------ -- --- ---- -----<br>------ ---- ---- ------ ------ ------- --- ----- ---------<br>---- --- -------- -------- --- --- -- ------- --- --- -----<br>-- --- ------ ------- --- --- -------- ---- --------- --<br>---------- -- -------- ----------------,180804.39999997616,180803.70000004768,180326.553,180340.60000002384,180343.218,180809.885,,9,is
screen,html.Screen,0_4_1_0_1_10,2021-11-19T10:01:33.958Z,,,,,,,,,,,,,,,,11,,,,,,,,,,,,,,425.8150000476744,,response,,,4,F,,,,,Space,keypress(Space),,,,instrumental,----- -- ---- --- -- --- -------- ------------ ---------- --<br>a ------- ------ --------- -- ------------ -- --- ---- -----<br>------ ---- ---- ------ ------ ------- --- ----- ---------<br>---- --- -------- -------- --- --- -- ------- --- --- -----<br>-- --- ------ ------- --- --- -------- ---- --------- --<br>---------- -- -------- ----------------,181236.30000007153,181235.70000004768,180793.22,180804.60000002384,180809.885,181243.187,,10,a
screen,html.Screen,0_4_1_0_1_11,2021-11-19T10:01:34.478Z,,,,,,,,,,,,,,,,11,,,,,,,,,,,,,,512.5130000476784,,response,,,4,F,,,,,Space,keypress(Space),,,,instrumental,----- -- ---- --- -- --- -------- ------------ ---------- --<br>- writing ------ --------- -- ------------ -- --- ---- -----<br>------ ---- ---- ------ ------ ------- --- ----- ---------<br>---- --- -------- -------- --- --- -- ------- --- --- -----<br>-- --- ------ ------- --- --- -------- ---- --------- --<br>---------- -- -------- ----------------,181756.30000007153,181755.70000004768,181226.522,181236.39999997616,181243.187,181759.836,,11,writing
screen,html.Screen,0_4_1_0_1_12,2021-11-19T10:01:35.222Z,,,,,,,,,,,,,,,,11,,,,,,,,,,,,,,739.8640000476735,,response,,,4,F,,,,,Space,keypress(Space),,,,instrumental,----- -- ---- --- -- --- -------- ------------ ---------- --<br>- ------- system --------- -- ------------ -- --- ---- -----<br>------ ---- ---- ------ ------ ------- --- ----- ---------<br>---- --- -------- -------- --- --- -- ------- --- --- -----<br>-- --- ------ ------- --- --- -------- ---- --------- --<br>---------- -- -------- ----------------,182500.20000004768,182499.70000004768,181743.171,181756.5,181759.836,182509.883,,12,system
screen,html.Screen,0_4_1_0_1_13,2021-11-19T10:01:35.869Z,,,,,,,,,,,,,,,,11,,,,,,,,,,,,,,637.7170000238402,,response,,,4,F,,,,,Space,keypress(Space),,,,instrumental,----- -- ---- --- -- --- -------- ------------ ---------- --<br>- ------- ------ comprised -- ------------ -- --- ---- -----<br>------ ---- ---- ------ ------ ------- --- ----- ---------<br>---- --- -------- -------- --- --- -- ------- --- --- -----<br>-- --- ------ ------- --- --- -------- ---- --------- --<br>---------- -- -------- ----------------,183148.20000004768,183147.60000002384,182493.217,182500.5,182509.883,183159.733,,13,comprised
screen,html.Screen,0_4_1_0_1_14,2021-11-19T10:01:36.309Z,,,,,,,,,,,,,,,,11,,,,,,,,,,,,,,427.76699999999255,,response,,,4,F,,,,,Space,keypress(Space),,,,instrumental,----- -- ---- --- -- --- -------- ------------ ---------- --<br>- ------- ------ --------- of ------------ -- --- ---- -----<br>------ ---- ---- ------ ------ ------- --- ----- ---------<br>---- --- -------- -------- --- --- -- ------- --- --- -----<br>-- --- ------ ------- --- --- -------- ---- --------- --<br>---------- -- -------- ----------------,183588,183587.5,183143.068,183148.30000007153,183159.733,183593.028,,14,of
screen,html.Screen,0_4_1_0_1_15,2021-11-19T10:01:37.701Z,,,,,,,,,,,,,,,,11,,,,,,,,,,,,,,1386.4720000000088,,response,,,4,F,,,,,Space,keypress(Space),,,,instrumental,----- -- ---- --- -- --- -------- ------------ ---------- --<br>- ------- ------ --------- -- pictographs. -- --- ---- -----<br>------ ---- ---- ------ ------ ------- --- ----- ---------<br>---- --- -------- -------- --- --- -- ------- --- --- -----<br>-- --- ------ ------- --- --- -------- ---- --------- --<br>---------- -- -------- ----------------,184980.20000004768,184979.5,183576.363,183588.20000004768,183593.028,184993.081,,15,pictographs.
screen,html.Screen,0_4_1_0_1_16,2021-11-19T10:01:38.205Z,,,,,,,,,,,,,,,,11,,,,,,,,,,,,,,490.51900002383627,,response,,,4,F,,,,,Space,keypress(Space),,,,instrumental,----- -- ---- --- -- --- -------- ------------ ---------- --<br>- ------- ------ --------- -- ------------ It --- ---- -----<br>------ ---- ---- ------ ------ ------- --- ----- ---------<br>---- --- -------- -------- --- --- -- ------- --- --- -----<br>-- --- ------ ------- --- --- -------- ---- --------- --<br>---------- -- -------- ----------------,185484.20000004768,185483.60000002384,184976.415,184980.30000007153,184993.081,185492.957,,16,It
screen,html.Screen,0_4_1_0_1_17,2021-11-19T10:01:38.669Z,,,,,,,,,,,,,,,,11,,,,,,,,,,,,,,454.44299997616326,,response,,,4,F,,,,,Space,keypress(Space),,,,instrumental,----- -- ---- --- -- --- -------- ------------ ---------- --<br>- ------- ------ --------- -- ------------ -- has ---- -----<br>------ ---- ---- ------ ------ ------- --- ----- ---------<br>---- --- -------- -------- --- --- -- ------- --- --- -----<br>-- --- ------ ------- --- --- -------- ---- --------- --<br>---------- -- -------- ----------------,185948,185947.39999997616,185476.292,185484.30000007153,185492.957,185959.578,,17,has
screen,html.Screen,0_4_1_0_1_18,2021-11-19T10:01:39.109Z,,,,,,,,,,,,,,,,11,,,,,,,,,,,,,,427.8219999761495,,response,,,4,F,,,,,Space,keypress(Space),,,,instrumental,----- -- ---- --- -- --- -------- ------------ ---------- --<br>- ------- ------ --------- -- ------------ -- --- been -----<br>------ ---- ---- ------ ------ ------- --- ----- ---------<br>---- --- -------- -------- --- --- -- ------- --- --- -----<br>-- --- ------ ------- --- --- -------- ---- --------- --<br>---------- -- -------- ----------------,186387.89999997616,186387.39999997616,185942.913,185948.20000004768,185959.578,186392.954,,18,been
screen,html.Screen,0_4_1_0_1_19,2021-11-19T10:01:39.637Z,,,,,,,,,,,,,,,,11,,,,,,,,,,,,,,522.3460000715277,,response,,,4,F,,,,,Space,keypress(Space),,,,instrumental,----- -- ---- --- -- --- -------- ------------ ---------- --<br>- ------- ------ --------- -- ------------ -- --- ---- found<br>------ ---- ---- ------ ------ ------- --- ----- ---------<br>---- --- -------- -------- --- --- -- ------- --- --- -----<br>-- --- ------ ------- --- --- -------- ---- --------- --<br>---------- -- -------- ----------------,186916,186915.30000007153,186376.288,186388.20000004768,186392.954,186926.129,,19,found
screen,html.Screen,0_4_1_0_1_20,2021-11-19T10:01:40.533Z,,,,,,,,,,,,,,,,11,,,,,,,,,,,,,,885.1710000715393,,response,,,4,F,,,,,Space,keypress(Space),,,,instrumental,----- -- ---- --- -- --- -------- ------------ ---------- --<br>- ------- ------ --------- -- ------------ -- --- ---- -----<br>carved ---- ---- ------ ------ ------- --- ----- ---------<br>---- --- -------- -------- --- --- -- ------- --- --- -----<br>-- --- ------ ------- --- --- -------- ---- --------- --<br>---------- -- -------- ----------------,187812,187811.30000007153,186909.465,186916.10000002384,186926.129,187826.124,,20,carved
screen,html.Screen,0_4_1_0_1_21,2021-11-19T10:01:41.005Z,,,,,,,,,,,,,,,,11,,,,,,,,,,,,,,457.076000047673,,response,,,4,F,,,,,Space,keypress(Space),,,,instrumental,----- -- ---- --- -- --- -------- ------------ ---------- --<br>- ------- ------ --------- -- ------------ -- --- ---- -----<br>------ into ---- ------ ------ ------- --- ----- ---------<br>---- --- -------- -------- --- --- -- ------- --- --- -----<br>-- --- ------ ------- --- --- -------- ---- --------- --<br>---------- -- -------- ----------------,188283.89999997616,188283.20000004768,187809.459,187812.20000004768,187826.124,188292.864,,21,into
screen,html.Screen,0_4_1_0_1_22,2021-11-19T10:01:41.469Z,,,,,,,,,,,,,,,,11,,,,,,,,,,,,,,454.3360000476823,,response,,,4,F,,,,,Space,keypress(Space),,,,instrumental,----- -- ---- --- -- --- -------- ------------ ---------- --<br>- ------- ------ --------- -- ------------ -- --- ---- -----<br>------ ---- many ------ ------ ------- --- ----- ---------<br>---- --- -------- -------- --- --- -- ------- --- --- -----<br>-- --- ------ ------- --- --- -------- ---- --------- --<br>---------- -- -------- ----------------,188747.89999997616,188747.20000004768,188276.198,188284,188292.864,188759.432,,22,many
screen,html.Screen,0_4_1_0_1_23,2021-11-19T10:01:42.469Z,,,,,,,,,,,,,,,,11,,,,,,,,,,,,,,987.768000047683,,response,,,4,F,,,,,Space,keypress(Space),,,,instrumental,----- -- ---- --- -- --- -------- ------------ ---------- --<br>- ------- ------ --------- -- ------------ -- --- ---- -----<br>------ ---- ---- oblong ------ ------- --- ----- ---------<br>---- --- -------- -------- --- --- -- ------- --- --- -----<br>-- --- ------ ------- --- --- -------- ---- --------- --<br>---------- -- -------- ----------------,189747.80000007153,189747.20000004768,188742.767,188748.10000002384,188759.432,189759.367,,23,oblong
screen,html.Screen,0_4_1_0_1_24,2021-11-19T10:01:43.157Z,,,,,,,,,,,,,,,,11,,,,,,,,,,,,,,675.8330000476853,,response,,,4,F,,,,,Space,keypress(Space),,,,instrumental,----- -- ---- --- -- --- -------- ------------ ---------- --<br>- ------- ------ --------- -- ------------ -- --- ---- -----<br>------ ---- ---- ------ wooden ------- --- ----- ---------<br>---- --- -------- -------- --- --- -- ------- --- --- -----<br>-- --- ------ ------- --- --- -------- ---- --------- --<br>---------- -- -------- ----------------,190435.80000007153,190435.20000004768,189742.702,189748,189759.367,190442.433,,24,wooden
screen,html.Screen,0_4_1_0_1_25,2021-11-19T10:01:43.941Z,,,,,,,,,,,,,,,,11,,,,,,,,,,,,,,776.7670000476937,,response,,,4,F,,,,,Space,keypress(Space),,,,instrumental,----- -- ---- --- -- --- -------- ------------ ---------- --<br>- ------- ------ --------- -- ------------ -- --- ---- -----<br>------ ---- ---- ------ ------ tablets --- ----- ---------<br>---- --- -------- -------- --- --- -- ------- --- --- -----<br>-- --- ------ ------- --- --- -------- ---- --------- --<br>---------- -- -------- ----------------,191219.70000004768,191219.20000004768,190425.77,190435.89999997616,190442.433,191225.919,,25,tablets
screen,html.Screen,0_4_1_0_1_26,2021-11-19T10:01:44.469Z,,,,,,,,,,,,,,,,11,,,,,,,,,,,,,,521.1810000238474,,response,,,4,F,,,,,Space,keypress(Space),,,,instrumental,----- -- ---- --- -- --- -------- ------------ ---------- --<br>- ------- ------ --------- -- ------------ -- --- ---- -----<br>------ ---- ---- ------ ------ ------- and ----- ---------<br>---- --- -------- -------- --- --- -- ------- --- --- -----<br>-- --- ------ ------- --- --- -------- ---- --------- --<br>---------- -- -------- ----------------,191747.70000004768,191747.10000002384,191209.254,191219.89999997616,191225.919,191759.297,,26,and
screen,html.Screen,0_4_1_0_1_27,2021-11-19T10:01:44.981Z,,,,,,,,,,,,,,,,11,,,,,,,,,,,,,,499.7030000000086,,response,,,4,F,,,,,Space,keypress(Space),,,,instrumental,----- -- ---- --- -- --- -------- ------------ ---------- --<br>- ------- ------ --------- -- ------------ -- --- ---- -----<br>------ ---- ---- ------ ------ ------- --- other ---------<br>---- --- -------- -------- --- --- -- ------- --- --- -----<br>-- --- ------ ------- --- --- -------- ---- --------- --<br>---------- -- -------- ----------------,192259.60000002384,192259,191742.631,191747.89999997616,191759.297,192275.852,,27,other
screen,html.Screen,0_4_1_0_1_28,2021-11-19T10:01:45.573Z,,,,,,,,,,,,,,,,11,,,,,,,,,,,,,,575.1479999999865,,response,,,4,F,,,,,Space,keypress(Space),,,,instrumental,----- -- ---- --- -- --- -------- ------------ ---------- --<br>- ------- ------ --------- -- ------------ -- --- ---- -----<br>------ ---- ---- ------ ------ ------- --- ----- artifacts<br>---- --- -------- -------- --- --- -- ------- --- --- -----<br>-- --- ------ ------- --- --- -------- ---- --------- --<br>---------- -- -------- ----------------,192851.60000002384,192851,192259.187,192259.89999997616,192275.852,192859.149,,28,artifacts
screen,html.Screen,0_4_1_0_1_29,2021-11-19T10:01:46.173Z,,,,,,,,,,,,,,,,11,,,,,,,,,,,,,,591.8509999999951,,response,,,4,F,,,,,Space,keypress(Space),,,,instrumental,----- -- ---- --- -- --- -------- ------------ ---------- --<br>- ------- ------ --------- -- ------------ -- --- ---- -----<br>------ ---- ---- ------ ------ ------- --- ----- ---------<br>from --- -------- -------- --- --- -- ------- --- --- -----<br>-- --- ------ ------- --- --- -------- ---- --------- --<br>---------- -- -------- ----------------,193451.60000002384,193451,192842.484,192851.80000007153,192859.149,193459.112,,29,from
screen,html.Screen,0_4_1_0_1_30,2021-11-19T10:01:46.557Z,,,,,,,,,,,,,,,,11,,,,,,,,,,,,,,375.68800007153186,,response,,,4,F,,,,,Space,keypress(Space),,,,instrumental,----- -- ---- --- -- --- -------- ------------ ---------- --<br>- ------- ------ --------- -- ------------ -- --- ---- -----<br>------ ---- ---- ------ ------ ------- --- ----- ---------<br>---- the -------- -------- --- --- -- ------- --- --- -----<br>-- --- ------ ------- --- --- -------- ---- --------- --<br>---------- -- -------- ----------------,193835.39999997616,193834.80000007153,193442.447,193451.80000007153,193459.112,193842.429,,30,the
screen,html.Screen,0_4_1_0_1_31,2021-11-19T10:01:46.997Z,,,,,,,,,,,,,,,,11,,,,,,,,,,,,,,432.4709999761544,,response,,,4,F,,,,,Space,keypress(Space),,,,instrumental,----- -- ---- --- -- --- -------- ------------ ---------- --<br>- ------- ------ --------- -- ------------ -- --- ---- -----<br>------ ---- ---- ------ ------ ------- --- ----- ---------<br>---- --- island's -------- --- --- -- ------- --- --- -----<br>-- --- ------ ------- --- --- -------- ---- --------- --<br>---------- -- -------- ----------------,194275.5,194274.89999997616,193825.764,193835.70000004768,193842.429,194292.411,,31,island's
screen,html.Screen,0_4_1_0_1_32,2021-11-19T10:01:47.429Z,,,,,,,,,,,,,,,,11,,,,,,,,,,,,,,414.3890000715328,,response,,,4,F,,,,,Space,keypress(Space),,,,instrumental,----- -- ---- --- -- --- -------- ------------ ---------- --<br>- ------- ------ --------- -- ------------ -- --- ---- -----<br>------ ---- ---- ------ ------ ------- --- ----- ---------<br>---- --- -------- history. --- --- -- ------- --- --- -----<br>-- --- ------ ------- --- --- -------- ---- --------- --<br>---------- -- -------- ----------------,194707.5,194706.80000007153,194275.746,194275.70000004768,194292.411,194709.115,,32,history.
screen,html.Screen,0_4_1_0_1_33,2021-11-19T10:01:47.869Z,,,,,,,,,,,,,,,,11,,,,,,,,,,,,,,437.6850000715349,,response,,,4,F,,,,,Space,keypress(Space),,,,instrumental,----- -- ---- --- -- --- -------- ------------ ---------- --<br>- ------- ------ --------- -- ------------ -- --- ---- -----<br>------ ---- ---- ------ ------ ------- --- ----- ---------<br>---- --- -------- -------- The --- -- ------- --- --- -----<br>-- --- ------ ------- --- --- -------- ---- --------- --<br>---------- -- -------- ----------------,195147.39999997616,195146.80000007153,194692.449,194707.60000002384,194709.115,195159.018,,33,The
screen,html.Screen,0_4_1_0_1_34,2021-11-19T10:01:48.981Z,,,,,,,,,,,,,,,,11,,,,,,,,,,,,,,1099.981999999989,,response,,,4,F,,,,,Space,keypress(Space),,,,instrumental,----- -- ---- --- -- --- -------- ------------ ---------- --<br>- ------- ------ --------- -- ------------ -- --- ---- -----<br>------ ---- ---- ------ ------ ------- --- ----- ---------<br>---- --- -------- -------- --- art -- ------- --- --- -----<br>-- --- ------ ------- --- --- -------- ---- --------- --<br>---------- -- -------- ----------------,196259.70000004768,196259,195142.353,195147.60000002384,195159.018,196275.483,,34,art
screen,html.Screen,0_4_1_0_1_35,2021-11-19T10:01:49.541Z,,,,,,,,,,,,,,,,11,,,,,,,,,,,,,,543.3170000715181,,response,,,4,F,,,,,Space,keypress(Space),,,,instrumental,----- -- ---- --- -- --- -------- ------------ ---------- --<br>- ------- ------ --------- -- ------------ -- --- ---- -----<br>------ ---- ---- ------ ------ ------- --- ----- ---------<br>---- --- -------- -------- --- --- of ------- --- --- -----<br>-- --- ------ ------- --- --- -------- ---- --------- --<br>---------- -- -------- ----------------,196819.39999997616,196818.80000007153,196258.819,196259.80000007153,196275.483,196825.627,,35,of
screen,html.Screen,0_4_1_0_1_36,2021-11-19T10:01:50.189Z,,,,,,,,,,,,,,,,11,,,,,,,,,,,,,,641.073000047676,,response,,,4,F,,,,,Space,keypress(Space),,,,instrumental,----- -- ---- --- -- --- -------- ------------ ---------- --<br>- ------- ------ --------- -- ------------ -- --- ---- -----<br>------ ---- ---- ------ ------ ------- --- ----- ---------<br>---- --- -------- -------- --- --- -- writing --- --- -----<br>-- --- ------ ------- --- --- -------- ---- --------- --<br>---------- -- -------- ----------------,197467.30000007153,197466.70000004768,196808.961,196819.60000002384,196825.627,197475.615,,36,writing
screen,html.Screen,0_4_1_0_1_37,2021-11-19T10:01:50.933Z,,,,,,,,,,,,,,,,11,,,,,,,,,,,,,,735.085000047693,,response,,,4,F,,,,,Space,keypress(Space),,,,instrumental,----- -- ---- --- -- --- -------- ------------ ---------- --<br>- ------- ------ --------- -- ------------ -- --- ---- -----<br>------ ---- ---- ------ ------ ------- --- ----- ---------<br>---- --- -------- -------- --- --- -- ------- was --- -----<br>-- --- ------ ------- --- --- -------- ---- --------- --<br>---------- -- -------- ----------------,198211.39999997616,198210.70000004768,197458.949,197467.5,197475.615,198225.477,,37,was
screen,html.Screen,0_4_1_0_1_38,2021-11-19T10:01:51.548Z,,,,,,,,,,,,,,,,11,,,,,,,,,,,,,,601.1230000238284,,response,,,4,F,,,,,Space,keypress(Space),,,,instrumental,----- -- ---- --- -- --- -------- ------------ ---------- --<br>- ------- ------ --------- -- ------------ -- --- ---- -----<br>------ ---- ---- ------ ------ ------- --- ----- ---------<br>---- --- -------- -------- --- --- -- ------- --- not -----<br>-- --- ------ ------- --- --- -------- ---- --------- --<br>---------- -- -------- ----------------,198827.20000004768,198826.60000002384,198208.812,198211.5,198225.477,198842.192,,38,not
screen,html.Screen,0_4_1_0_1_39,2021-11-19T10:01:52.300Z,,,,,,,,,,,,,,,,11,,,,,,,,,,,,,,736.4080000238318,,response,,,4,F,,,,,Space,keypress(Space),,,,instrumental,----- -- ---- --- -- --- -------- ------------ ---------- --<br>- ------- ------ --------- -- ------------ -- --- ---- -----<br>------ ---- ---- ------ ------ ------- --- ----- ---------<br>---- --- -------- -------- --- --- -- ------- --- --- known<br>-- --- ------ ------- --- --- -------- ---- --------- --<br>---------- -- -------- ----------------,199579.20000004768,199578.60000002384,198825.526,198827.30000007153,198842.192,199592.061,,39,known
screen,html.Screen,0_4_1_0_1_40,2021-11-19T10:01:52.772Z,,,,,,,,,,,,,,,,11,,,,,,,,,,,,,,458.43900000001304,,response,,,4,F,,,,,Space,keypress(Space),,,,instrumental,----- -- ---- --- -- --- -------- ------------ ---------- --<br>- ------- ------ --------- -- ------------ -- --- ---- -----<br>------ ---- ---- ------ ------ ------- --- ----- ---------<br>---- --- -------- -------- --- --- -- ------- --- --- -----<br>in --- ------ ------- --- --- -------- ---- --------- --<br>---------- -- -------- ----------------,200051.10000002384,200050.5,199575.396,199579.39999997616,199592.061,200058.745,,40,in
screen,html.Screen,0_4_1_0_1_41,2021-11-19T10:01:53.260Z,,,,,,,,,,,,,,,,11,,,,,,,,,,,,,,479.75500000000466,,response,,,4,F,,,,,Space,keypress(Space),,,,instrumental,----- -- ---- --- -- --- -------- ------------ ---------- --<br>- ------- ------ --------- -- ------------ -- --- ---- -----<br>------ ---- ---- ------ ------ ------- --- ----- ---------<br>---- --- -------- -------- --- --- -- ------- --- --- -----<br>-- any ------ ------- --- --- -------- ---- --------- --<br>---------- -- -------- ----------------,200539.20000004768,200538.5,200042.08,200051.30000007153,200058.745,200542.039,,41,any
screen,html.Screen,0_4_1_0_1_42,2021-11-19T10:01:54.020Z,,,,,,,,,,,,,,,,11,,,,,,,,,,,,,,756.4610000000102,,response,,,4,F,,,,,Space,keypress(Space),,,,instrumental,----- -- ---- --- -- --- -------- ------------ ---------- --<br>- ------- ------ --------- -- ------------ -- --- ---- -----<br>------ ---- ---- ------ ------ ------- --- ----- ---------<br>---- --- -------- -------- --- --- -- ------- --- --- -----<br>-- --- nearby ------- --- --- -------- ---- --------- --<br>---------- -- -------- ----------------,201299.10000002384,201298.5,200525.374,200539.30000007153,200542.039,201308.665,,42,nearby
screen,html.Screen,0_4_1_0_1_43,2021-11-19T10:01:54.460Z,,,,,,,,,,,,,,,,11,,,,,,,,,,,,,,429.73499997615,,response,,,4,F,,,,,Space,keypress(Space),,,,instrumental,----- -- ---- --- -- --- -------- ------------ ---------- --<br>- ------- ------ --------- -- ------------ -- --- ---- -----<br>------ ---- ---- ------ ------ ------- --- ----- ---------<br>---- --- -------- -------- --- --- -- ------- --- --- -----<br>-- --- ------ islands --- --- -------- ---- --------- --<br>---------- -- -------- ----------------,201739,201738.39999997616,201292,201299.30000007153,201308.665,201741.969,,43,islands
screen,html.Screen,0_4_1_0_1_44,2021-11-19T10:01:55.012Z,,,,,,,,,,,,,,,,11,,,,,,,,,,,,,,548.4309999761463,,response,,,4,F,,,,,Space,keypress(Space),,,,instrumental,----- -- ---- --- -- --- -------- ------------ ---------- --<br>- ------- ------ --------- -- ------------ -- --- ---- -----<br>------ ---- ---- ------ ------ ------- --- ----- ---------<br>---- --- -------- -------- --- --- -- ------- --- --- -----<br>-- --- ------ ------- and --- -------- ---- --------- --<br>---------- -- -------- ----------------,202291.10000002384,202290.39999997616,201725.304,201739.20000004768,201741.969,202291.935,,44,and
screen,html.Screen,0_4_1_0_1_45,2021-11-19T10:01:55.500Z,,,,,,,,,,,,,,,,11,,,,,,,,,,,,,,486.46499997616047,,response,,,4,F,,,,,Space,keypress(Space),,,,instrumental,----- -- ---- --- -- --- -------- ------------ ---------- --<br>- ------- ------ --------- -- ------------ -- --- ---- -----<br>------ ---- ---- ------ ------ ------- --- ----- ---------<br>---- --- -------- -------- --- --- -- ------- --- --- -----<br>-- --- ------ ------- --- the -------- ---- --------- --<br>---------- -- -------- ----------------,202779,202778.39999997616,202275.27,202291.30000007153,202291.935,202791.816,,45,the
screen,html.Screen,0_4_1_0_1_46,2021-11-19T10:01:56.012Z,,,,,,,,,,,,,,,,11,,,,,,,,,,,,,,498.48400007153396,,response,,,4,F,,,,,Space,keypress(Space),,,,instrumental,----- -- ---- --- -- --- -------- ------------ ---------- --<br>- ------- ------ --------- -- ------------ -- --- ---- -----<br>------ ---- ---- ------ ------ ------- --- ----- ---------<br>---- --- -------- -------- --- --- -- ------- --- --- -----<br>-- --- ------ ------- --- --- script's ---- --------- --<br>---------- -- -------- ----------------,203291,203290.30000007153,202775.152,202779.10000002384,202791.816,203291.856,,46,script's
screen,html.Screen,0_4_1_0_1_47,2021-11-19T10:01:56.412Z,,,,,,,,,,,,,,,,11,,,,,,,,,,,,,,398.4440000715258,,response,,,4,F,,,,,Space,keypress(Space),,,,instrumental,----- -- ---- --- -- --- -------- ------------ ---------- --<br>- ------- ------ --------- -- ------------ -- --- ---- -----<br>------ ---- ---- ------ ------ ------- --- ----- ---------<br>---- --- -------- -------- --- --- -- ------- --- --- -----<br>-- --- ------ ------- --- --- -------- mere --------- --<br>---------- -- -------- ----------------,203690.89999997616,203690.30000007153,203275.191,203291.20000004768,203291.856,203691.759,,47,mere
screen,html.Screen,0_4_1_0_1_48,2021-11-19T10:01:56.884Z,,,,,,,,,,,,,,,,11,,,,,,,,,,,,,,470.54100007153465,,response,,,4,F,,,,,Space,keypress(Space),,,,instrumental,----- -- ---- --- -- --- -------- ------------ ---------- --<br>- ------- ------ --------- -- ------------ -- --- ---- -----<br>------ ---- ---- ------ ------ ------- --- ----- ---------<br>---- --- -------- -------- --- --- -- ------- --- --- -----<br>-- --- ------ ------- --- --- -------- ---- existence --<br>---------- -- -------- ----------------,204162.89999997616,204162.30000007153,203675.095,203691,203691.759,204175.193,,48,existence
screen,html.Screen,0_4_1_0_1_49,2021-11-19T10:01:57.284Z,,,,,,,,,,,,,,,,11,,,,,,,,,,,,,,387.0070000476844,,response,,,4,F,,,,,Space,keypress(Space),,,,instrumental,----- -- ---- --- -- --- -------- ------------ ---------- --<br>- ------- ------ --------- -- ------------ -- --- ---- -----<br>------ ---- ---- ------ ------ ------- --- ----- ---------<br>---- --- -------- -------- --- --- -- ------- --- --- -----<br>-- --- ------ ------- --- --- -------- ---- --------- is<br>---------- -- -------- ----------------,204562.89999997616,204562.20000004768,204158.527,204163,204175.193,204575.165,,49,is
screen,html.Screen,0_4_1_0_1_50,2021-11-19T10:01:57.772Z,,,,,,,,,,,,,,,,11,,,,,,,,,,,,,,475.1350000715174,,response,,,4,F,,,,,Space,keypress(Space),,,,instrumental,----- -- ---- --- -- --- -------- ------------ ---------- --<br>- ------- ------ --------- -- ------------ -- --- ---- -----<br>------ ---- ---- ------ ------ ------- --- ----- ---------<br>---- --- -------- -------- --- --- -- ------- --- --- -----<br>-- --- ------ ------- --- --- -------- ---- --------- --<br>sufficient -- -------- ----------------,205050.80000007153,205050.30000007153,204558.499,204563,204575.165,205058.432,,50,sufficient
