sender,sender_type,sender_id,timestamp,meta,,Blues,Classical,Country,Dance,Electronic,Folk,Gospel,Hip-Hop,Jazz,Latin,Musical/Film,New-age,Pop,Provo_ID,R&B,Rap,Reggae,Religious,Rock,Soul,Swing,Traditional,age,artist_name,correct,correctResponse,duration,education,ended_on,familiarity,gender,item,list,music_frequency,response,response_action,snippet_file,song_name,song_rating,sound,text,time_commit,time_end,time_render,time_run,time_show,time_switch,url,word,word_ID
Instructions,html.Page,0_0,2021-12-13T14:29:18.536Z,"{""labjs_version"":""20.2.3"",""labjs_build"":{""flavor"":""production"",""commit"":""7ea907d66ca8aeef8054924ca5d82ffbe11e34e5""},""location"":""https://run.pavlovia.org/mvasilev/lab_music_e/"",""userAgent"":""Mozilla/5.0 (Windows NT 6.1; Win64; x64) AppleWebKit/537.36 (KHTML, like Gecko) Chrome/96.0.4664.93 Safari/537.36"",""platform"":""Win32"",""language"":""en-US"",""locale"":""en-US"",""timeZone"":""Europe/London"",""timezoneOffset"":0,""screen_width"":1920,""screen_height"":1080,""scroll_width"":1920,""scroll_height"":959,""window_innerWidth"":1920,""window_innerHeight"":1007,""devicePixelRatio"":1}",,,,,,,,,,,,,,,,,,,,,,,,,,,,18321.86400000894,,form submission,,,,,,,,,,,,,30845.40000000596,30844.10000000894,12488.894,12505.70000000298,12522.236,30843.806,{},,
Headphones,html.Page,0_1,2021-12-13T14:29:22.015Z,,,,,,,,,,,,,,,,,,,,,,,,,,,,,3479.4939999970193,,form submission,,,,,,,,,,,,,34323.79999999702,34323.29999999702,30827.172,30846.10000000894,30843.806,34329.748,,,
Holding screen,html.Screen,0_2_0_0,2021-12-13T14:29:32.012Z,,,,,,,,,,,,,,,,,,,,,,,,,,,,,10002.154999999999,,timeout,,,,,,,,,,,,,44321.5,44315.233,34313.061,34324.29999999702,34329.748,44331.903,,,
screen,html.Screen,0_2_0_1_0,2021-12-13T14:29:33.138Z,,,,,,,,,,,,,,,,53,,,,,,,,,,,,,1114.1970000089423,,response,,,99,,,Space,keypress(Space),,,,,When -- ----- -- ------ - ------- --- ----------<br>------------- ------ ------ ---- ---- ------- ----- -- ----<br>-------- ------- -- ---------- --- - --- ----- ----- ----<br>---- --- --- ----- --- ---- ---- ------- ----- ---- -------<br>--- --- -- ----- -- --- ---- -- --- ---- -- ------ ------<br>--- ----- -- ----,45447.60000000894,45446.10000000894,44315.233,44322,44331.903,45449.186,,0,When
screen,html.Screen,0_2_0_1_1,2021-12-13T14:29:33.649Z,,,,,,,,,,,,,,,,53,,,,,,,,,,,,,508.3139999999985,,response,,,99,,,Space,keypress(Space),,,,,---- it ----- -- ------ - ------- --- ----------<br>------------- ------ ------ ---- ---- ------- ----- -- ----<br>-------- ------- -- ---------- --- - --- ----- ----- ----<br>---- --- --- ----- --- ---- ---- ------- ----- ---- -------<br>--- --- -- ----- -- --- ---- -- --- ---- -- ------ ------<br>--- ----- -- ----,45958.60000000894,45957.5,45432.514,45447.90000000596,45449.186,45965.941,,1,it
screen,html.Screen,0_2_0_1_2,2021-12-13T14:29:34.281Z,,,,,,,,,,,,,,,,53,,,,,,,,,,,,,623.5590000000011,,response,,,99,,,Space,keypress(Space),,,,,---- -- comes -- ------ - ------- --- ----------<br>------------- ------ ------ ---- ---- ------- ----- -- ----<br>-------- ------- -- ---------- --- - --- ----- ----- ----<br>---- --- --- ----- --- ---- ---- ------- ----- ---- -------<br>--- --- -- ----- -- --- ---- -- --- ---- -- ------ ------<br>--- ----- -- ----,46590.5,46589.5,45949.27,45958.79999999702,45965.941,46599.364,,2,comes
screen,html.Screen,0_2_0_1_3,2021-12-13T14:29:34.770Z,,,,,,,,,,,,,,,,53,,,,,,,,,,,,,478.1359999999986,,response,,,99,,,Space,keypress(Space),,,,,---- -- ----- to ------ - ------- --- ----------<br>------------- ------ ------ ---- ---- ------- ----- -- ----<br>-------- ------- -- ---------- --- - --- ----- ----- ----<br>---- --- --- ----- --- ---- ---- ------- ----- ---- -------<br>--- --- -- ----- -- --- ---- -- --- ---- -- ------ ------<br>--- ----- -- ----,47078.79999999702,47077.5,46582.694,46590.79999999702,46599.364,47083.079,,3,to
screen,html.Screen,0_2_0_1_4,2021-12-13T14:29:35.626Z,,,,,,,,,,,,,,,,53,,,,,,,,,,,,,850.4210000000021,,response,,,99,,,Space,keypress(Space),,,,,---- -- ----- -- having - ------- --- ----------<br>------------- ------ ------ ---- ---- ------- ----- -- ----<br>-------- ------- -- ---------- --- - --- ----- ----- ----<br>---- --- --- ----- --- ---- ---- ------- ----- ---- -------<br>--- --- -- ----- -- --- ---- -- --- ---- -- ------ ------<br>--- ----- -- ----,47934.90000000596,47933.5,47066.406,47079.40000000596,47083.079,47949.883,,4,having
screen,html.Screen,0_2_0_1_5,2021-12-13T14:29:36.234Z,,,,,,,,,,,,,,,,53,,,,,,,,,,,,,591.6169999999984,,response,,,99,,,Space,keypress(Space),,,,,---- -- ----- -- ------ a ------- --- ----------<br>------------- ------ ------ ---- ---- ------- ----- -- ----<br>-------- ------- -- ---------- --- - --- ----- ----- ----<br>---- --- --- ----- --- ---- ---- ------- ----- ---- -------<br>--- --- -- ----- -- --- ---- -- --- ---- -- ------ ------<br>--- ----- -- ----,48542.60000000894,48541.5,47933.212,47935.29999999702,47949.883,48549.994,,5,a
screen,html.Screen,0_2_0_1_6,2021-12-13T14:29:37.113Z,,,,,,,,,,,,,,,,53,,,,,,,,,,,,,871.5060000000012,,response,,,99,,,Space,keypress(Space),,,,,---- -- ----- -- ------ - lasting --- ----------<br>------------- ------ ------ ---- ---- ------- ----- -- ----<br>-------- ------- -- ---------- --- - --- ----- ----- ----<br>---- --- --- ----- --- ---- ---- ------- ----- ---- -------<br>--- --- -- ----- -- --- ---- -- --- ---- -- ------ ------<br>--- ----- -- ----,49422.5,49421.5,48533.324,48543.29999999702,48549.994,49433.654,,6,lasting
screen,html.Screen,0_2_0_1_7,2021-12-13T14:29:37.801Z,,,,,,,,,,,,,,,,53,,,,,,,,,,,,,675.8459999999977,,response,,,99,,,Space,keypress(Space),,,,,---- -- ----- -- ------ - ------- and ----------<br>------------- ------ ------ ---- ---- ------- ----- -- ----<br>-------- ------- -- ---------- --- - --- ----- ----- ----<br>---- --- --- ----- --- ---- ---- ------- ----- ---- -------<br>--- --- -- ----- -- --- ---- -- --- ---- -- ------ ------<br>--- ----- -- ----,50110.5,50109.5,49416.983,49422.79999999702,49433.654,50117.199,,7,and
screen,html.Screen,0_2_0_1_8,2021-12-13T14:29:38.490Z,,,,,,,,,,,,,,,,53,,,,,,,,,,,,,680.3009999999995,,response,,,99,,,Space,keypress(Space),,,,,---- -- ----- -- ------ - ------- --- fulfilling<br>------------- ------ ------ ---- ---- ------- ----- -- ----<br>-------- ------- -- ---------- --- - --- ----- ----- ----<br>---- --- --- ----- --- ---- ---- ------- ----- ---- -------<br>--- --- -- ----- -- --- ---- -- --- ---- -- ------ ------<br>--- ----- -- ----,50798.70000000298,50797.5,50100.528,50110.90000000596,50117.199,50800.714,,8,fulfilling
screen,html.Screen,0_2_0_1_9,2021-12-13T14:29:39.353Z,,,,,,,,,,,,,,,,53,,,,,,,,,,,,,860.7860000000001,,response,,,99,,,Space,keypress(Space),,,,,"---- -- ----- -- ------ - ------- --- ----------<br>relationship, ------ ------ ---- ---- ------- ----- -- ----<br>-------- ------- -- ---------- --- - --- ----- ----- ----<br>---- --- --- ----- --- ---- ---- ------- ----- ---- -------<br>--- --- -- ----- -- --- ---- -- --- ---- -- ------ ------<br>--- ----- -- ----",51662.5,51661.5,50784.043,50799,50800.714,51667.674,,9,"relationship,"
screen,html.Screen,0_2_0_1_10,2021-12-13T14:29:40.081Z,,,,,,,,,,,,,,,,53,,,,,,,,,,,,,721.8260000000009,,response,,,99,,,Space,keypress(Space),,,,,---- -- ----- -- ------ - ------- --- ----------<br>------------- common ------ ---- ---- ------- ----- -- ----<br>-------- ------- -- ---------- --- - --- ----- ----- ----<br>---- --- --- ----- --- ---- ---- ------- ----- ---- -------<br>--- --- -- ----- -- --- ---- -- --- ---- -- ------ ------<br>--- ----- -- ----,52390.40000000596,52389.5,51651.003,51662.79999999702,51667.674,52401.2,,10,common
screen,html.Screen,0_2_0_1_11,2021-12-13T14:29:40.857Z,,,,,,,,,,,,,,,,53,,,,,,,,,,,,,764.3000000000029,,response,,,99,,,Space,keypress(Space),,,,,---- -- ----- -- ------ - ------- --- ----------<br>------------- ------ wisdom ---- ---- ------- ----- -- ----<br>-------- ------- -- ---------- --- - --- ----- ----- ----<br>---- --- --- ----- --- ---- ---- ------- ----- ---- -------<br>--- --- -- ----- -- --- ---- -- --- ---- -- ------ ------<br>--- ----- -- ----,53166.5,53165.5,52384.529,52390.70000000298,52401.2,53168.116,,11,wisdom
screen,html.Screen,0_2_0_1_12,2021-12-13T14:29:41.625Z,,,,,,,,,,,,,,,,53,,,,,,,,,,,,,765.3839999999982,,response,,,99,,,Space,keypress(Space),,,,,---- -- ----- -- ------ - ------- --- ----------<br>------------- ------ ------ says ---- ------- ----- -- ----<br>-------- ------- -- ---------- --- - --- ----- ----- ----<br>---- --- --- ----- --- ---- ---- ------- ----- ---- -------<br>--- --- -- ----- -- --- ---- -- --- ---- -- ------ ------<br>--- ----- -- ----,53934.40000000596,53933.5,53151.445,53166.70000000298,53168.116,53951.664,,12,says
screen,html.Screen,0_2_0_1_13,2021-12-13T14:29:42.313Z,,,,,,,,,,,,,,,,53,,,,,,,,,,,,,669.836000000003,,response,,,99,,,Space,keypress(Space),,,,,---- -- ----- -- ------ - ------- --- ----------<br>------------- ------ ------ ---- that ------- ----- -- ----<br>-------- ------- -- ---------- --- - --- ----- ----- ----<br>---- --- --- ----- --- ---- ---- ------- ----- ---- -------<br>--- --- -- ----- -- --- ---- -- --- ---- -- ------ ------<br>--- ----- -- ----,54622.29999999702,54621.5,53934.993,53934.60000000894,53951.664,54635.094,,13,that
screen,html.Screen,0_2_0_1_14,2021-12-13T14:29:43.065Z,,,,,,,,,,,,,,,,53,,,,,,,,,,,,,738.4060000000027,,response,,,99,,,Space,keypress(Space),,,,,---- -- ----- -- ------ - ------- --- ----------<br>------------- ------ ------ ---- ---- feeling ----- -- ----<br>-------- ------- -- ---------- --- - --- ----- ----- ----<br>---- --- --- ----- --- ---- ---- ------- ----- ---- -------<br>--- --- -- ----- -- --- ---- -- --- ---- -- ------ ------<br>--- ----- -- ----,55374.29999999702,55373.5,54618.424,54622.60000000894,54635.094,55385.498,,14,feeling
screen,html.Screen,0_2_0_1_15,2021-12-13T14:29:43.714Z,,,,,,,,,,,,,,,,53,,,,,,,,,,,,,636.4020000059609,,response,,,99,,,Space,keypress(Space),,,,,---- -- ----- -- ------ - ------- --- ----------<br>------------- ------ ------ ---- ---- ------- close -- ----<br>-------- ------- -- ---------- --- - --- ----- ----- ----<br>---- --- --- ----- --- ---- ---- ------- ----- ---- -------<br>--- --- -- ----- -- --- ---- -- --- ---- -- ------ ------<br>--- ----- -- ----,56022.90000000596,56021.90000000596,55368.826,55374.60000000894,55385.498,56035.651,,15,close
screen,html.Screen,0_2_0_1_16,2021-12-13T14:29:44.337Z,,,,,,,,,,,,,,,,53,,,,,,,,,,,,,609.7490000059624,,response,,,99,,,Space,keypress(Space),,,,,---- -- ----- -- ------ - ------- --- ----------<br>------------- ------ ------ ---- ---- ------- ----- to ----<br>-------- ------- -- ---------- --- - --- ----- ----- ----<br>---- --- --- ----- --- ---- ---- ------- ----- ---- -------<br>--- --- -- ----- -- --- ---- -- --- ---- -- ------ ------<br>--- ----- -- ----,56646.5,56645.40000000596,56018.98,56023.20000000298,56035.651,56652.497,,16,to
screen,html.Screen,0_2_0_1_17,2021-12-13T14:29:44.873Z,,,,,,,,,,,,,,,,53,,,,,,,,,,,,,529.002999999997,,response,,,99,,,Space,keypress(Space),,,,,---- -- ----- -- ------ - ------- --- ----------<br>------------- ------ ------ ---- ---- ------- ----- -- your<br>-------- ------- -- ---------- --- - --- ----- ----- ----<br>---- --- --- ----- --- ---- ---- ------- ----- ---- -------<br>--- --- -- ----- -- --- ---- -- --- ---- -- ------ ------<br>--- ----- -- ----,57182.29999999702,57181.5,56635.826,56646.70000000298,56652.497,57185.995,,17,your
screen,html.Screen,0_2_0_1_18,2021-12-13T14:29:45.401Z,,,,,,,,,,,,,,,,53,,,,,,,,,,,,,523.4050000059578,,response,,,99,,,Space,keypress(Space),,,,,---- -- ----- -- ------ - ------- --- ----------<br>------------- ------ ------ ---- ---- ------- ----- -- ----<br>romantic ------- -- ---------- --- - --- ----- ----- ----<br>---- --- --- ----- --- ---- ---- ------- ----- ---- -------<br>--- --- -- ----- -- --- ---- -- --- ---- -- ------ ------<br>--- ----- -- ----,57710.20000000298,57709.40000000596,57169.324,57182.60000000894,57185.995,57719.49,,18,romantic
screen,html.Screen,0_2_0_1_19,2021-12-13T14:29:45.841Z,,,,,,,,,,,,,,,,53,,,,,,,,,,,,,429.9100000059625,,response,,,99,,,Space,keypress(Space),,,,,---- -- ----- -- ------ - ------- --- ----------<br>------------- ------ ------ ---- ---- ------- ----- -- ----<br>-------- partner -- ---------- --- - --- ----- ----- ----<br>---- --- --- ----- --- ---- ---- ------- ----- ---- -------<br>--- --- -- ----- -- --- ---- -- --- ---- -- ------ ------<br>--- ----- -- ----,58150.29999999702,58149.40000000596,57702.819,57710.70000000298,57719.49,58152.942,,19,partner
screen,html.Screen,0_2_0_1_20,2021-12-13T14:29:46.497Z,,,,,,,,,,,,,,,,53,,,,,,,,,,,,,652.4580000059577,,response,,,99,,,Space,keypress(Space),,,,,---- -- ----- -- ------ - ------- --- ----------<br>------------- ------ ------ ---- ---- ------- ----- -- ----<br>-------- ------- is ---------- --- - --- ----- ----- ----<br>---- --- --- ----- --- ---- ---- ------- ----- ---- -------<br>--- --- -- ----- -- --- ---- -- --- ---- -- ------ ------<br>--- ----- -- ----,58806.29999999702,58805.40000000596,58136.271,58150.5,58152.942,58819.817,,20,is
screen,html.Screen,0_2_0_1_21,2021-12-13T14:29:46.993Z,,,,,,,,,,,,,,,,53,,,,,,,,,,,,,481.68299999999726,,response,,,99,,,Space,keypress(Space),,,,,---- -- ----- -- ------ - ------- --- ----------<br>------------- ------ ------ ---- ---- ------- ----- -- ----<br>-------- ------- -- paramount. --- - --- ----- ----- ----<br>---- --- --- ----- --- ---- ---- ------- ----- ---- -------<br>--- --- -- ----- -- --- ---- -- --- ---- -- ------ ------<br>--- ----- -- ----,59302.29999999702,59301.5,58803.146,58806.5,58819.817,59319.955,,21,paramount.
screen,html.Screen,0_2_0_1_22,2021-12-13T14:29:47.529Z,,,,,,,,,,,,,,,,53,,,,,,,,,,,,,517.4450000059587,,response,,,99,,,Space,keypress(Space),,,,,---- -- ----- -- ------ - ------- --- ----------<br>------------- ------ ------ ---- ---- ------- ----- -- ----<br>-------- ------- -- ---------- But - --- ----- ----- ----<br>---- --- --- ----- --- ---- ---- ------- ----- ---- -------<br>--- --- -- ----- -- --- ---- -- --- ---- -- ------ ------<br>--- ----- -- ----,59838.29999999702,59837.40000000596,59303.284,59302.79999999702,59319.955,59853.368,,22,But
screen,html.Screen,0_2_0_1_23,2021-12-13T14:29:47.954Z,,,,,,,,,,,,,,,,53,,,,,,,,,,,,,408.03200000595825,,response,,,99,,,Space,keypress(Space),,,,,---- -- ----- -- ------ - ------- --- ----------<br>------------- ------ ------ ---- ---- ------- ----- -- ----<br>-------- ------- -- ---------- --- a --- ----- ----- ----<br>---- --- --- ----- --- ---- ---- ------- ----- ---- -------<br>--- --- -- ----- -- --- ---- -- --- ---- -- ------ ------<br>--- ----- -- ----,60262.29999999702,60261.40000000596,59836.698,59838.40000000596,59853.368,60270.304,,23,a
screen,html.Screen,0_2_0_1_24,2021-12-13T14:29:48.474Z,,,,,,,,,,,,,,,,53,,,,,,,,,,,,,511.096000005964,,response,,,99,,,Space,keypress(Space),,,,,---- -- ----- -- ------ - ------- --- ----------<br>------------- ------ ------ ---- ---- ------- ----- -- ----<br>-------- ------- -- ---------- --- - new ----- ----- ----<br>---- --- --- ----- --- ---- ---- ------- ----- ---- -------<br>--- --- -- ----- -- --- ---- -- --- ---- -- ------ ------<br>--- ----- -- ----,60782.20000000298,60781.40000000596,60253.632,60262.60000000894,60270.304,60787.064,,24,new
screen,html.Screen,0_2_0_1_25,2021-12-13T14:29:48.938Z,,,,,,,,,,,,,,,,53,,,,,,,,,,,,,458.336000005962,,response,,,99,,,Space,keypress(Space),,,,,---- -- ----- -- ------ - ------- --- ----------<br>------------- ------ ------ ---- ---- ------- ----- -- ----<br>-------- ------- -- ---------- --- - --- study ----- ----<br>---- --- --- ----- --- ---- ---- ------- ----- ---- -------<br>--- --- -- ----- -- --- ---- -- --- ---- -- ------ ------<br>--- ----- -- ----,61246.29999999702,61245.40000000596,60770.393,60782.5,60787.064,61253.733,,25,study
screen,html.Screen,0_2_0_1_26,2021-12-13T14:29:49.394Z,,,,,,,,,,,,,,,,53,,,,,,,,,,,,,447.6670000059603,,response,,,99,,,Space,keypress(Space),,,,,---- -- ----- -- ------ - ------- --- ----------<br>------------- ------ ------ ---- ---- ------- ----- -- ----<br>-------- ------- -- ---------- --- - --- ----- finds ----<br>---- --- --- ----- --- ---- ---- ------- ----- ---- -------<br>--- --- -- ----- -- --- ---- -- --- ---- -- ------ ------<br>--- ----- -- ----,61702.20000000298,61701.40000000596,61237.064,61246.60000000894,61253.733,61704.053,,26,finds
screen,html.Screen,0_2_0_1_27,2021-12-13T14:29:49.826Z,,,,,,,,,,,,,,,,53,,,,,,,,,,,,,429.3470000059606,,response,,,99,,,Space,keypress(Space),,,,,---- -- ----- -- ------ - ------- --- ----------<br>------------- ------ ------ ---- ---- ------- ----- -- ----<br>-------- ------- -- ---------- --- - --- ----- ----- that<br>---- --- --- ----- --- ---- ---- ------- ----- ---- -------<br>--- --- -- ----- -- --- ---- -- --- ---- -- ------ ------<br>--- ----- -- ----,62134.20000000298,62133.40000000596,61687.381,61702.60000000894,61704.053,62137.497,,27,that
screen,html.Screen,0_2_0_1_28,2021-12-13T14:29:50.450Z,,,,,,,,,,,,,,,,53,,,,,,,,,,,,,619.8029999970167,,response,,,99,,,Space,keypress(Space),,,,,---- -- ----- -- ------ - ------- --- ----------<br>------------- ------ ------ ---- ---- ------- ----- -- ----<br>-------- ------- -- ---------- --- - --- ----- ----- ----<br>it's --- --- ----- --- ---- ---- ------- ----- ---- -------<br>--- --- -- ----- -- --- ---- -- --- ---- -- ------ ------<br>--- ----- -- ----,62758.20000000298,62757.29999999702,62120.826,62134.5,62137.497,62770.992,,28,it's
screen,html.Screen,0_2_0_1_29,2021-12-13T14:29:50.946Z,,,,,,,,,,,,,,,,53,,,,,,,,,,,,,482.3079999970214,,response,,,99,,,Space,keypress(Space),,,,,---- -- ----- -- ------ - ------- --- ----------<br>------------- ------ ------ ---- ---- ------- ----- -- ----<br>-------- ------- -- ---------- --- - --- ----- ----- ----<br>---- not --- ----- --- ---- ---- ------- ----- ---- -------<br>--- --- -- ----- -- --- ---- -- --- ---- -- ------ ------<br>--- ----- -- ----,63254.10000000894,63253.29999999702,62754.321,62758.40000000596,62770.992,63271.138,,29,not
screen,html.Screen,0_2_0_1_30,2021-12-13T14:29:51.402Z,,,,,,,,,,,,,,,,53,,,,,,,,,,,,,438.26200000596145,,response,,,99,,,Space,keypress(Space),,,,,---- -- ----- -- ------ - ------- --- ----------<br>------------- ------ ------ ---- ---- ------- ----- -- ----<br>-------- ------- -- ---------- --- - --- ----- ----- ----<br>---- --- how ----- --- ---- ---- ------- ----- ---- -------<br>--- --- -- ----- -- --- ---- -- --- ---- -- ------ ------<br>--- ----- -- ----,63710.29999999702,63709.40000000596,63254.467,63254.40000000596,63271.138,63721.205,,30,how
screen,html.Screen,0_2_0_1_31,2021-12-13T14:29:51.930Z,,,,,,,,,,,,,,,,53,,,,,,,,,,,,,516.094999997018,,response,,,99,,,Space,keypress(Space),,,,,---- -- ----- -- ------ - ------- --- ----------<br>------------- ------ ------ ---- ---- ------- ----- -- ----<br>-------- ------- -- ---------- --- - --- ----- ----- ----<br>---- --- --- close --- ---- ---- ------- ----- ---- -------<br>--- --- -- ----- -- --- ---- -- --- ---- -- ------ ------<br>--- ----- -- ----,64238.20000000298,64237.29999999702,63704.535,63710.60000000894,63721.205,64254.81,,31,close
screen,html.Screen,0_2_0_1_32,2021-12-13T14:29:52.378Z,,,,,,,,,,,,,,,,53,,,,,,,,,,,,,430.4899999970221,,response,,,99,,,Space,keypress(Space),,,,,---- -- ----- -- ------ - ------- --- ----------<br>------------- ------ ------ ---- ---- ------- ----- -- ----<br>-------- ------- -- ---------- --- - --- ----- ----- ----<br>---- --- --- ----- you ---- ---- ------- ----- ---- -------<br>--- --- -- ----- -- --- ---- -- --- ---- -- ------ ------<br>--- ----- -- ----,64686.29999999702,64685.29999999702,64238.138,64238.40000000596,64254.81,64688.287,,32,you
screen,html.Screen,0_2_0_1_33,2021-12-13T14:29:52.898Z,,,,,,,,,,,,,,,,53,,,,,,,,,,,,,517.0129999970231,,response,,,99,,,Space,keypress(Space),,,,,---- -- ----- -- ------ - ------- --- ----------<br>------------- ------ ------ ---- ---- ------- ----- -- ----<br>-------- ------- -- ---------- --- - --- ----- ----- ----<br>---- --- --- ----- --- feel ---- ------- ----- ---- -------<br>--- --- -- ----- -- --- ---- -- --- ---- -- ------ ------<br>--- ----- -- ----,65206.20000000298,65205.29999999702,64671.615,64686.60000000894,64688.287,65221.753,,33,feel
screen,html.Screen,0_2_0_1_34,2021-12-13T14:29:53.474Z,,,,,,,,,,,,,,,,53,,,,,,,,,,,,,559.5469999970228,,response,,,99,,,Space,keypress(Space),,,,,---- -- ----- -- ------ - ------- --- ----------<br>------------- ------ ------ ---- ---- ------- ----- -- ----<br>-------- ------- -- ---------- --- - --- ----- ----- ----<br>---- --- --- ----- --- ---- that ------- ----- ---- -------<br>--- --- -- ----- -- --- ---- -- --- ---- -- ------ ------<br>--- ----- -- ----,65782.10000000894,65781.29999999702,65205.082,65206.40000000596,65221.753,65788.565,,34,that
screen,html.Screen,0_2_0_1_35,2021-12-13T14:29:54.370Z,,,,,,,,,,,,,,,,53,,,,,,,,,,,,,889.2349999970174,,response,,,99,,,Space,keypress(Space),,,,,---- -- ----- -- ------ - ------- --- ----------<br>------------- ------ ------ ---- ---- ------- ----- -- ----<br>-------- ------- -- ---------- --- - --- ----- ----- ----<br>---- --- --- ----- --- ---- ---- matters ----- ---- -------<br>--- --- -- ----- -- --- ---- -- --- ---- -- ------ ------<br>--- ----- -- ----,66678.60000000894,66677.79999999702,65771.894,65782.40000000596,65788.565,66688.831,,35,matters
screen,html.Screen,0_2_0_1_36,2021-12-13T14:29:55.178Z,,,,,,,,,,,,,,,,53,,,,,,,,,,,,,796.4689999970142,,response,,,99,,,Space,keypress(Space),,,,,"---- -- ----- -- ------ - ------- --- ----------<br>------------- ------ ------ ---- ---- ------- ----- -- ----<br>-------- ------- -- ---------- --- - --- ----- ----- ----<br>---- --- --- ----- --- ---- ---- ------- most, ---- -------<br>--- --- -- ----- -- --- ---- -- --- ---- -- ------ ------<br>--- ----- -- ----",67486.20000000298,67485.29999999702,66672.16,66678.79999999702,66688.831,67489.049,,36,"most,"
screen,html.Screen,0_2_0_1_37,2021-12-13T14:29:56.130Z,,,,,,,,,,,,,,,,53,,,,,,,,,,,,,948.3510000059614,,response,,,99,,,Space,keypress(Space),,,,,---- -- ----- -- ------ - ------- --- ----------<br>------------- ------ ------ ---- ---- ------- ----- -- ----<br>-------- ------- -- ---------- --- - --- ----- ----- ----<br>---- --- --- ----- --- ---- ---- ------- ----- it's -------<br>--- --- -- ----- -- --- ---- -- --- ---- -- ------ ------<br>--- ----- -- ----,68438.20000000298,68437.40000000596,67472.378,67486.40000000596,67489.049,68439.374,,37,it's
screen,html.Screen,0_2_0_1_38,2021-12-13T14:29:56.698Z,,,,,,,,,,,,,,,,53,,,,,,,,,,,,,565.8260000029841,,response,,,99,,,Space,keypress(Space),,,,,---- -- ----- -- ------ - ------- --- ----------<br>------------- ------ ------ ---- ---- ------- ----- -- ----<br>-------- ------- -- ---------- --- - --- ----- ----- ----<br>---- --- --- ----- --- ---- ---- ------- ----- ---- whether<br>--- --- -- ----- -- --- ---- -- --- ---- -- ------ ------<br>--- ----- -- ----,69006,69005.20000000298,68422.703,68438.40000000596,68439.374,69022.878,,38,whether
screen,html.Screen,0_2_0_1_39,2021-12-13T14:29:57.250Z,,,,,,,,,,,,,,,,53,,,,,,,,,,,,,534.4219999970228,,response,,,99,,,Space,keypress(Space),,,,,---- -- ----- -- ------ - ------- --- ----------<br>------------- ------ ------ ---- ---- ------- ----- -- ----<br>-------- ------- -- ---------- --- - --- ----- ----- ----<br>---- --- --- ----- --- ---- ---- ------- ----- ---- -------<br>you --- -- ----- -- --- ---- -- --- ---- -- ------ ------<br>--- ----- -- ----,69558,69557.29999999702,69006.207,69006.29999999702,69022.878,69573.047,,39,you
screen,html.Screen,0_2_0_1_40,2021-12-13T14:29:57.762Z,,,,,,,,,,,,,,,,53,,,,,,,,,,,,,496.25299999701383,,response,,,99,,,Space,keypress(Space),,,,,---- -- ----- -- ------ - ------- --- ----------<br>------------- ------ ------ ---- ---- ------- ----- -- ----<br>-------- ------- -- ---------- --- - --- ----- ----- ----<br>---- --- --- ----- --- ---- ---- ------- ----- ---- -------<br>--- are -- ----- -- --- ---- -- --- ---- -- ------ ------<br>--- ----- -- ----,70070.10000000894,70069.29999999702,69556.376,69558.29999999702,69573.047,70073.2,,40,are
screen,html.Screen,0_2_0_1_41,2021-12-13T14:29:58.266Z,,,,,,,,,,,,,,,,53,,,,,,,,,,,,,500.0999999970227,,response,,,99,,,Space,keypress(Space),,,,,---- -- ----- -- ------ - ------- --- ----------<br>------------- ------ ------ ---- ---- ------- ----- -- ----<br>-------- ------- -- ---------- --- - --- ----- ----- ----<br>---- --- --- ----- --- ---- ---- ------- ----- ---- -------<br>--- --- as ----- -- --- ---- -- --- ---- -- ------ ------<br>--- ----- -- ----,70574.10000000894,70573.29999999702,70056.529,70070.40000000596,70073.2,70590.006,,41,as
screen,html.Screen,0_2_0_1_42,2021-12-13T14:29:58.785Z,,,,,,,,,,,,,,,,53,,,,,,,,,,,,,502.8940000059665,,response,,,99,,,Space,keypress(Space),,,,,---- -- ----- -- ------ - ------- --- ----------<br>------------- ------ ------ ---- ---- ------- ----- -- ----<br>-------- ------- -- ---------- --- - --- ----- ----- ----<br>---- --- --- ----- --- ---- ---- ------- ----- ---- -------<br>--- --- -- close -- --- ---- -- --- ---- -- ------ ------<br>--- ----- -- ----,71093.29999999702,71092.90000000596,70573.335,70574.29999999702,70590.006,71106.835,,42,close
screen,html.Screen,0_2_0_1_43,2021-12-13T14:29:59.250Z,,,,,,,,,,,,,,,,53,,,,,,,,,,,,,450.46499999701336,,response,,,99,,,Space,keypress(Space),,,,,---- -- ----- -- ------ - ------- --- ----------<br>------------- ------ ------ ---- ---- ------- ----- -- ----<br>-------- ------- -- ---------- --- - --- ----- ----- ----<br>---- --- --- ----- --- ---- ---- ------- ----- ---- -------<br>--- --- -- ----- as --- ---- -- --- ---- -- ------ ------<br>--- ----- -- ----,71558.10000000894,71557.29999999702,71090.164,71093.40000000596,71106.835,71573.6,,43,as
screen,html.Screen,0_2_0_1_44,2021-12-13T14:29:59.706Z,,,,,,,,,,,,,,,,53,,,,,,,,,,,,,439.69999999701395,,response,,,99,,,Space,keypress(Space),,,,,---- -- ----- -- ------ - ------- --- ----------<br>------------- ------ ------ ---- ---- ------- ----- -- ----<br>-------- ------- -- ---------- --- - --- ----- ----- ----<br>---- --- --- ----- --- ---- ---- ------- ----- ---- -------<br>--- --- -- ----- -- you ---- -- --- ---- -- ------ ------<br>--- ----- -- ----,72014.10000000894,72013.29999999702,71556.929,71558.40000000596,71573.6,72023.605,,44,you
screen,html.Screen,0_2_0_1_45,2021-12-13T14:30:00.162Z,,,,,,,,,,,,,,,,53,,,,,,,,,,,,,445.69499999702384,,response,,,99,,,Space,keypress(Space),,,,,---- -- ----- -- ------ - ------- --- ----------<br>------------- ------ ------ ---- ---- ------- ----- -- ----<br>-------- ------- -- ---------- --- - --- ----- ----- ----<br>---- --- --- ----- --- ---- ---- ------- ----- ---- -------<br>--- --- -- ----- -- --- want -- --- ---- -- ------ ------<br>--- ----- -- ----,72470.10000000894,72469.29999999702,72006.936,72014.29999999702,72023.605,72474.002,,45,want
screen,html.Screen,0_2_0_1_46,2021-12-13T14:30:00.626Z,,,,,,,,,,,,,,,,53,,,,,,,,,,,,,459.1980000029871,,response,,,99,,,Space,keypress(Space),,,,,---- -- ----- -- ------ - ------- --- ----------<br>------------- ------ ------ ---- ---- ------- ----- -- ----<br>-------- ------- -- ---------- --- - --- ----- ----- ----<br>---- --- --- ----- --- ---- ---- ------- ----- ---- -------<br>--- --- -- ----- -- --- ---- to --- ---- -- ------ ------<br>--- ----- -- ----,72934.10000000894,72933.20000000298,72457.329,72470.29999999702,72474.002,72940.642,,46,to
screen,html.Screen,0_2_0_1_47,2021-12-13T14:30:01.050Z,,,,,,,,,,,,,,,,53,,,,,,,,,,,,,416.65799999701267,,response,,,99,,,Space,keypress(Space),,,,,"---- -- ----- -- ------ - ------- --- ----------<br>------------- ------ ------ ---- ---- ------- ----- -- ----<br>-------- ------- -- ---------- --- - --- ----- ----- ----<br>---- --- --- ----- --- ---- ---- ------- ----- ---- -------<br>--- --- -- ----- -- --- ---- -- be, ---- -- ------ ------<br>--- ----- -- ----",73358,73357.29999999702,72923.972,72934.40000000596,72940.642,73374.233,,47,"be,"
screen,html.Screen,0_2_0_1_48,2021-12-13T14:30:01.498Z,,,,,,,,,,,,,,,,53,,,,,,,,,,,,,430.8670000089478,,response,,,99,,,Space,keypress(Space),,,,,---- -- ----- -- ------ - ------- --- ----------<br>------------- ------ ------ ---- ---- ------- ----- -- ----<br>-------- ------- -- ---------- --- - --- ----- ----- ----<br>---- --- --- ----- --- ---- ---- ------- ----- ---- -------<br>--- --- -- ----- -- --- ---- -- --- even -- ------ ------<br>--- ----- -- ----,73806.10000000894,73805.10000000894,73357.561,73358.40000000596,73374.233,73807.661,,48,even
screen,html.Screen,0_2_0_1_49,2021-12-13T14:30:01.978Z,,,,,,,,,,,,,,,,53,,,,,,,,,,,,,477.53900000298745,,response,,,99,,,Space,keypress(Space),,,,,---- -- ----- -- ------ - ------- --- ----------<br>------------- ------ ------ ---- ---- ------- ----- -- ----<br>-------- ------- -- ---------- --- - --- ----- ----- ----<br>---- --- --- ----- --- ---- ---- ------- ----- ---- -------<br>--- --- -- ----- -- --- ---- -- --- ---- if ------ ------<br>--- ----- -- ----,74286.10000000894,74285.20000000298,73790.99,73806.29999999702,73807.661,74290.99,,49,if
screen,html.Screen,0_2_0_1_50,2021-12-13T14:30:02.466Z,,,,,,,,,,,,,,,,53,,,,,,,,,,,,,482.210000002975,,response,,,99,,,Space,keypress(Space),,,,,---- -- ----- -- ------ - ------- --- ----------<br>------------- ------ ------ ---- ---- ------- ----- -- ----<br>-------- ------- -- ---------- --- - --- ----- ----- ----<br>---- --- --- ----- --- ---- ---- ------- ----- ---- -------<br>--- --- -- ----- -- --- ---- -- --- ---- -- that's ------<br>--- ----- -- ----,74774.29999999702,74773.20000000298,74274.321,74286.29999999702,74290.99,74791.336,,50,that's
screen,html.Screen,0_2_0_1_51,2021-12-13T14:30:02.882Z,,,,,,,,,,,,,,,,53,,,,,,,,,,,,,397.9639999970241,,response,,,99,,,Space,keypress(Space),,,,,---- -- ----- -- ------ - ------- --- ----------<br>------------- ------ ------ ---- ---- ------- ----- -- ----<br>-------- ------- -- ---------- --- - --- ----- ----- ----<br>---- --- --- ----- --- ---- ---- ------- ----- ---- -------<br>--- --- -- ----- -- --- ---- -- --- ---- -- ------ really<br>--- ----- -- ----,75190,75189.29999999702,74774.664,74774.60000000894,74791.336,75191.382,,51,really
screen,html.Screen,0_2_0_1_52,2021-12-13T14:30:03.314Z,,,,,,,,,,,,,,,,53,,,,,,,,,,,,,429.81800000298244,,response,,,99,,,Space,keypress(Space),,,,,---- -- ----- -- ------ - ------- --- ----------<br>------------- ------ ------ ---- ---- ------- ----- -- ----<br>-------- ------- -- ---------- --- - --- ----- ----- ----<br>---- --- --- ----- --- ---- ---- ------- ----- ---- -------<br>--- --- -- ----- -- --- ---- -- --- ---- -- ------ ------<br>not ----- -- ----,75622,75621.20000000298,75174.711,75190.29999999702,75191.382,75624.872,,52,not
screen,html.Screen,0_2_0_1_53,2021-12-13T14:30:03.754Z,,,,,,,,,,,,,,,,53,,,,,,,,,,,,,436.3280000029772,,response,,,99,,,Space,keypress(Space),,,,,---- -- ----- -- ------ - ------- --- ----------<br>------------- ------ ------ ---- ---- ------- ----- -- ----<br>-------- ------- -- ---------- --- - --- ----- ----- ----<br>---- --- --- ----- --- ---- ---- ------- ----- ---- -------<br>--- --- -- ----- -- --- ---- -- --- ---- -- ------ ------<br>--- close -- ----,76062,76061.20000000298,75608.201,75622.29999999702,75624.872,76075.057,,53,close
screen,html.Screen,0_2_0_1_54,2021-12-13T14:30:04.138Z,,,,,,,,,,,,,,,,53,,,,,,,,,,,,,370.14300000297953,,response,,,99,,,Space,keypress(Space),,,,,---- -- ----- -- ------ - ------- --- ----------<br>------------- ------ ------ ---- ---- ------- ----- -- ----<br>-------- ------- -- ---------- --- - --- ----- ----- ----<br>---- --- --- ----- --- ---- ---- ------- ----- ---- -------<br>--- --- -- ----- -- --- ---- -- --- ---- -- ------ ------<br>--- ----- at ----,76446.10000000894,76445.20000000298,76058.385,76062.29999999702,76075.057,76458.4,,54,at
screen,html.Screen,0_2_0_1_55,2021-12-13T14:30:04.594Z,,,,,,,,,,,,,,,,53,,,,,,,,,,,,,443.30000000298605,,response,,,99,,,Space,keypress(Space),,,,,---- -- ----- -- ------ - ------- --- ----------<br>------------- ------ ------ ---- ---- ------- ----- -- ----<br>-------- ------- -- ---------- --- - --- ----- ----- ----<br>---- --- --- ----- --- ---- ---- ------- ----- ---- -------<br>--- --- -- ----- -- --- ---- -- --- ---- -- ------ ------<br>--- ----- -- all.,76902.60000000894,76901.70000000298,76441.73,76446.29999999702,76458.4,76908.632,,55,all.
Item 99,flow.Loop,0_2_0_1,2021-12-13T14:30:04.599Z,,,,,,,,,,,,,,,,,,,,,,,,,,,,,32569.79700000298,,completion,,,,E,,,,,,,silence,,76907.10000000894,76901.70000000298,44315.233,44321.79999999702,44331.903,76908.632,,,
Question 1,html.Screen,0_2_0_2,2021-12-13T14:30:09.673Z,,,,,,,,,,,,,,,,,,,,,,,,,,,true,FALSE,5071.667999997022,,response,,,99,E,,FALSE,click #choice-2,,,,silence,,81981.79999999702,81980.29999999702,76891.96,76907.29999999702,76908.632,81993.427,,,
Question 2,html.Screen,0_2_0_3,2021-12-13T14:30:09.920Z,,,,,,,,,,,,,,,,,,,,,,,,,,,false,TRUE,233.87299999702373,,response,,,99,E,,FALSE,click #choice-2,,,,silence,,82228.5,82227.29999999702,81976.756,81982,81993.427,82243.527,,,
Item 99,flow.Sequence,0_2_0,2021-12-13T14:30:09.921Z,,,,,,,,,,,,,,,,,,,,,,,,,,,,,47897.55199999702,,completion,,,,,,,,,,,,,82229,82227.29999999702,34313.061,34324.20000000298,34329.748,82243.527,,,
Holding screen,html.Screen,0_2_1_0,2021-12-13T14:30:19.923Z,,,,,,,,,,,,,,,,,,,,,,,,,,,,,10002.876000000004,,timeout,,,,,,,,,,,,,92231.40000000596,92229.732,82226.856,82229.29999999702,82243.527,92246.403,,,
screen,html.Screen,0_2_1_1_0,2021-12-13T14:30:20.634Z,,,,,,,,,,,,,,,,54,,,,,,,,,,,,,694.9970000059548,,response,,,100,,,Space,keypress(Space),,,,,At --- ---- --- ------ ----- ------- ---- -- --- ------- --<br>------- ---------- ------ -- ----- -- ----- -- ---- ------<br>--- ----- --- --- ------ -------- ----- --- ------ ----- --<br>----- ----- ---------- --- --- ------ ------ ---- -- ------<br>------- --- ------ ----- --- ---- ------- -- ---- --- --<br>------- ------,92942.5,92941.40000000596,92229.732,92231.90000000596,92246.403,92946.812,,0,At
screen,html.Screen,0_2_1_1_1,2021-12-13T14:30:21.018Z,,,,,,,,,,,,,,,,54,,,,,,,,,,,,,378.18799999999464,,response,,,100,,,Space,keypress(Space),,,,,-- the ---- --- ------ ----- ------- ---- -- --- ------- --<br>------- ---------- ------ -- ----- -- ----- -- ---- ------<br>--- ----- --- --- ------ -------- ----- --- ------ ----- --<br>----- ----- ---------- --- --- ------ ------ ---- -- ------<br>------- --- ------ ----- --- ---- ------- -- ---- --- --<br>------- ------,93325.79999999702,93325,92930.14,92942.79999999702,92946.812,93330.15,,1,the
screen,html.Screen,0_2_1_1_2,2021-12-13T14:30:21.522Z,,,,,,,,,,,,,,,,54,,,,,,,,,,,,,498.7500000059663,,response,,,100,,,Space,keypress(Space),,,,,-- --- time --- ------ ----- ------- ---- -- --- ------- --<br>------- ---------- ------ -- ----- -- ----- -- ---- ------<br>--- ----- --- --- ------ -------- ----- --- ------ ----- --<br>----- ----- ---------- --- --- ------ ------ ---- -- ------<br>------- --- ------ ----- --- ---- ------- -- ---- --- --<br>------- ------,93829.79999999702,93828.90000000596,93313.479,93326.20000000298,93330.15,93846.999,,2,time
screen,html.Screen,0_2_1_1_3,2021-12-13T14:30:22.145Z,,,,,,,,,,,,,,,,54,,,,,,,,,,,,,606.0010000000038,,response,,,100,,,Space,keypress(Space),,,,,-- --- ---- the ------ ----- ------- ---- -- --- ------- --<br>------- ---------- ------ -- ----- -- ----- -- ---- ------<br>--- ----- --- --- ------ -------- ----- --- ------ ----- --<br>----- ----- ---------- --- --- ------ ------ ---- -- ------<br>------- --- ------ ----- --- ---- ------- -- ---- --- --<br>------- ------,94453.79999999702,94453,93830.328,93830.20000000298,93846.999,94463.908,,3,the
screen,html.Screen,0_2_1_1_4,2021-12-13T14:30:22.650Z,,,,,,,,,,,,,,,,54,,,,,,,,,,,,,493.0920000000042,,response,,,100,,,Space,keypress(Space),,,,,-- --- ---- --- French ----- ------- ---- -- --- ------- --<br>------- ---------- ------ -- ----- -- ----- -- ---- ------<br>--- ----- --- --- ------ -------- ----- --- ------ ----- --<br>----- ----- ---------- --- --- ------ ------ ---- -- ------<br>------- --- ------ ----- --- ---- ------- -- ---- --- --<br>------- ------,94957.90000000596,94957,94447.236,94454,94463.908,94963.801,,4,French
screen,html.Screen,0_2_1_1_5,2021-12-13T14:30:23.297Z,,,,,,,,,,,,,,,,54,,,,,,,,,,,,,641.0990000059537,,response,,,100,,,Space,keypress(Space),,,,,-- --- ---- --- ------ crown ------- ---- -- --- ------- --<br>------- ---------- ------ -- ----- -- ----- -- ---- ------<br>--- ----- --- --- ------ -------- ----- --- ------ ----- --<br>----- ----- ---------- --- --- ------ ------ ---- -- ------<br>------- --- ------ ----- --- ---- ------- -- ---- --- --<br>------- ------,95605.79999999702,95604.90000000596,94947.132,94958.20000000298,94963.801,95614.238,,5,crown
screen,html.Screen,0_2_1_1_6,2021-12-13T14:30:24.049Z,,,,,,,,,,,,,,,,54,,,,,,,,,,,,,742.7620000000024,,response,,,100,,,Space,keypress(Space),,,,,-- --- ---- --- ------ ----- secured ---- -- --- ------- --<br>------- ---------- ------ -- ----- -- ----- -- ---- ------<br>--- ----- --- --- ------ -------- ----- --- ------ ----- --<br>----- ----- ---------- --- --- ------ ------ ---- -- ------<br>------- --- ------ ----- --- ---- ------- -- ---- --- --<br>------- ------,96357.70000000298,96357,95597.566,95606,95614.238,96364.393,,6,secured
screen,html.Screen,0_2_1_1_7,2021-12-13T14:30:24.673Z,,,,,,,,,,,,,,,,54,,,,,,,,,,,,,616.5070000059641,,response,,,100,,,Space,keypress(Space),,,,,-- --- ---- --- ------ ----- ------- much -- --- ------- --<br>------- ---------- ------ -- ----- -- ----- -- ---- ------<br>--- ----- --- --- ------ -------- ----- --- ------ ----- --<br>----- ----- ---------- --- --- ------ ------ ---- -- ------<br>------- --- ------ ----- --- ---- ------- -- ---- --- --<br>------- ------,96981.70000000298,96980.90000000596,96347.722,96358,96364.393,96997.921,,7,much
screen,html.Screen,0_2_1_1_8,2021-12-13T14:30:25.209Z,,,,,,,,,,,,,,,,54,,,,,,,,,,,,,518.9790000059584,,response,,,100,,,Space,keypress(Space),,,,,-- --- ---- --- ------ ----- ------- ---- of --- ------- --<br>------- ---------- ------ -- ----- -- ----- -- ---- ------<br>--- ----- --- --- ------ -------- ----- --- ------ ----- --<br>----- ----- ---------- --- --- ------ ------ ---- -- ------<br>------- --- ------ ----- --- ---- ------- -- ---- --- --<br>------- ------,97517.70000000298,97516.90000000596,96981.25,96982,96997.921,97531.334,,8,of
screen,html.Screen,0_2_1_1_9,2021-12-13T14:30:25.777Z,,,,,,,,,,,,,,,,54,,,,,,,,,,,,,553.6659999999974,,response,,,100,,,Space,keypress(Space),,,,,-- --- ---- --- ------ ----- ------- ---- -- its ------- --<br>------- ---------- ------ -- ----- -- ----- -- ---- ------<br>--- ----- --- --- ------ -------- ----- --- ------ ----- --<br>----- ----- ---------- --- --- ------ ------ ---- -- ------<br>------- --- ------ ----- --- ---- ------- -- ---- --- --<br>------- ------,98085.70000000298,98085,97514.664,97518,97531.334,98098.327,,9,its
screen,html.Screen,0_2_1_1_10,2021-12-13T14:30:26.441Z,,,,,,,,,,,,,,,,54,,,,,,,,,,,,,650.5730000059557,,response,,,100,,,Space,keypress(Space),,,,,-- --- ---- --- ------ ----- ------- ---- -- --- revenue --<br>------- ---------- ------ -- ----- -- ----- -- ---- ------<br>--- ----- --- --- ------ -------- ----- --- ------ ----- --<br>----- ----- ---------- --- --- ------ ------ ---- -- ------<br>------- --- ------ ----- --- ---- ------- -- ---- --- --<br>------- ------,98749.79999999702,98748.90000000596,98081.655,98086,98098.327,98765.133,,10,revenue
screen,html.Screen,0_2_1_1_11,2021-12-13T14:30:26.849Z,,,,,,,,,,,,,,,,54,,,,,,,,,,,,,391.76700000595883,,response,,,100,,,Space,keypress(Space),,,,,-- --- ---- --- ------ ----- ------- ---- -- --- ------- by<br>------- ---------- ------ -- ----- -- ----- -- ---- ------<br>--- ----- --- --- ------ -------- ----- --- ------ ----- --<br>----- ----- ---------- --- --- ------ ------ ---- -- ------<br>------- --- ------ ----- --- ---- ------- -- ---- --- --<br>------- ------,99157.79999999702,99156.90000000596,98748.462,98750,98765.133,99165.241,,11,by
screen,html.Screen,0_2_1_1_12,2021-12-13T14:30:27.465Z,,,,,,,,,,,,,,,,54,,,,,,,,,,,,,607.6590000059659,,response,,,100,,,Space,keypress(Space),,,,,-- --- ---- --- ------ ----- ------- ---- -- --- ------- --<br>issuing ---------- ------ -- ----- -- ----- -- ---- ------<br>--- ----- --- --- ------ -------- ----- --- ------ ----- --<br>----- ----- ---------- --- --- ------ ------ ---- -- ------<br>------- --- ------ ----- --- ---- ------- -- ---- --- --<br>------- ------,99773.70000000298,99772.90000000596,99148.57,99158,99165.241,99782.116,,12,issuing
screen,html.Screen,0_2_1_1_13,2021-12-13T14:30:28.081Z,,,,,,,,,,,,,,,,54,,,,,,,,,,,,,606.7840000059659,,response,,,100,,,Space,keypress(Space),,,,,-- --- ---- --- ------ ----- ------- ---- -- --- ------- --<br>------- government ------ -- ----- -- ----- -- ---- ------<br>--- ----- --- --- ------ -------- ----- --- ------ ----- --<br>----- ----- ---------- --- --- ------ ------ ---- -- ------<br>------- --- ------ ----- --- ---- ------- -- ---- --- --<br>------- ------,100389.70000000298,100388.90000000596,99765.445,99773.90000000596,99782.116,100398.94,,13,government
screen,html.Screen,0_2_1_1_14,2021-12-13T14:30:28.817Z,,,,,,,,,,,,,,,,54,,,,,,,,,,,,,726.0599999999977,,response,,,100,,,Space,keypress(Space),,,,,-- --- ---- --- ------ ----- ------- ---- -- --- ------- --<br>------- ---------- bonds. -- ----- -- ----- -- ---- ------<br>--- ----- --- --- ------ -------- ----- --- ------ ----- --<br>----- ----- ---------- --- --- ------ ------ ---- -- ------<br>------- --- ------ ----- --- ---- ------- -- ---- --- --<br>------- ------,101125.70000000298,101125,100382.269,100390,100398.94,101132.493,,14,bonds.
screen,html.Screen,0_2_1_1_15,2021-12-13T14:30:30.137Z,,,,,,,,,,,,,,,,54,,,,,,,,,,,,,1312.4070000059583,,response,,,100,,,Space,keypress(Space),,,,,-- --- ---- --- ------ ----- ------- ---- -- --- ------- --<br>------- ---------- ------ In ----- -- ----- -- ---- ------<br>--- ----- --- --- ------ -------- ----- --- ------ ----- --<br>----- ----- ---------- --- --- ------ ------ ---- -- ------<br>------- --- ------ ----- --- ---- ------- -- ---- --- --<br>------- ------,102445.70000000298,102444.90000000596,101115.822,101126,101132.493,102449.549,,15,In
screen,html.Screen,0_2_1_1_16,2021-12-13T14:30:31.674Z,,,,,,,,,,,,,,,,54,,,,,,,,,,,,,1531.7509999970207,,response,,,100,,,Space,keypress(Space),,,,,"-- --- ---- --- ------ ----- ------- ---- -- --- ------- --<br>------- ---------- ------ -- 1727, -- ----- -- ---- ------<br>--- ----- --- --- ------ -------- ----- --- ------ ----- --<br>----- ----- ---------- --- --- ------ ------ ---- -- ------<br>------- --- ------ ----- --- ---- ------- -- ---- --- --<br>------- ------",103982,103981.29999999702,102432.878,102445.90000000596,102449.549,103983.137,,16,"1727,"
screen,html.Screen,0_2_1_1_17,2021-12-13T14:30:32.337Z,,,,,,,,,,,,,,,,54,,,,,,,,,,,,,661.6629999970173,,response,,,100,,,Space,keypress(Space),,,,,-- --- ---- --- ------ ----- ------- ---- -- --- ------- --<br>------- ---------- ------ -- ----- in ----- -- ---- ------<br>--- ----- --- --- ------ -------- ----- --- ------ ----- --<br>----- ----- ---------- --- --- ------ ------ ---- -- ------<br>------- --- ------ ----- --- ---- ------- -- ---- --- --<br>------- ------,104645.60000000894,104644.79999999702,103966.467,103982.29999999702,103983.137,104650.205,,17,in
screen,html.Screen,0_2_1_1_18,2021-12-13T14:30:32.849Z,,,,,,,,,,,,,,,,54,,,,,,,,,,,,,506.594999997018,,response,,,100,,,Space,keypress(Space),,,,,-- --- ---- --- ------ ----- ------- ---- -- --- ------- --<br>------- ---------- ------ -- ----- -- order -- ---- ------<br>--- ----- --- --- ------ -------- ----- --- ------ ----- --<br>----- ----- ---------- --- --- ------ ------ ---- -- ------<br>------- --- ------ ----- --- ---- ------- -- ---- --- --<br>------- ------,105157.70000000298,105156.79999999702,104633.534,104645.79999999702,104650.205,105166.93,,18,order
screen,html.Screen,0_2_1_1_19,2021-12-13T14:30:33.441Z,,,,,,,,,,,,,,,,54,,,,,,,,,,,,,581.8699999970268,,response,,,100,,,Space,keypress(Space),,,,,-- --- ---- --- ------ ----- ------- ---- -- --- ------- --<br>------- ---------- ------ -- ----- -- ----- to ---- ------<br>--- ----- --- --- ------ -------- ----- --- ------ ----- --<br>----- ----- ---------- --- --- ------ ------ ---- -- ------<br>------- --- ------ ----- --- ---- ------- -- ---- --- --<br>------- ------,105749.60000000894,105748.79999999702,105150.26,105157.90000000596,105166.93,105750.677,,19,to
screen,html.Screen,0_2_1_1_20,2021-12-13T14:30:33.945Z,,,,,,,,,,,,,,,,54,,,,,,,,,,,,,502.1229999970237,,response,,,100,,,Space,keypress(Space),,,,,-- --- ---- --- ------ ----- ------- ---- -- --- ------- --<br>------- ---------- ------ -- ----- -- ----- -- save ------<br>--- ----- --- --- ------ -------- ----- --- ------ ----- --<br>----- ----- ---------- --- --- ------ ------ ---- -- ------<br>------- --- ------ ----- --- ---- ------- -- ---- --- --<br>------- ------,106253.60000000894,106252.79999999702,105734.004,105749.79999999702,105750.677,106267.284,,20,save
screen,html.Screen,0_2_1_1_21,2021-12-13T14:30:34.409Z,,,,,,,,,,,,,,,,54,,,,,,,,,,,,,449.4160000029806,,response,,,100,,,Space,keypress(Space),,,,,"-- --- ---- --- ------ ----- ------- ---- -- --- ------- --<br>------- ---------- ------ -- ----- -- ----- -- ---- money,<br>--- ----- --- --- ------ -------- ----- --- ------ ----- --<br>----- ----- ---------- --- --- ------ ------ ---- -- ------<br>------- --- ------ ----- --- ---- ------- -- ---- --- --<br>------- ------",106717.60000000894,106716.70000000298,106250.614,106253.79999999702,106267.284,106734.263,,21,"money,"
screen,html.Screen,0_2_1_1_22,2021-12-13T14:30:34.929Z,,,,,,,,,,,,,,,,54,,,,,,,,,,,,,502.5369999970135,,response,,,100,,,Space,keypress(Space),,,,,-- --- ---- --- ------ ----- ------- ---- -- --- ------- --<br>------- ---------- ------ -- ----- -- ----- -- ---- ------<br>the ----- --- --- ------ -------- ----- --- ------ ----- --<br>----- ----- ---------- --- --- ------ ------ ---- -- ------<br>------- --- ------ ----- --- ---- ------- -- ---- --- --<br>------- ------,107237.60000000894,107236.79999999702,106717.591,106717.90000000596,106734.263,107251.083,,22,the
screen,html.Screen,0_2_1_1_23,2021-12-13T14:30:35.425Z,,,,,,,,,,,,,,,,54,,,,,,,,,,,,,481.81700000596175,,response,,,100,,,Space,keypress(Space),,,,,-- --- ---- --- ------ ----- ------- ---- -- --- ------- --<br>------- ---------- ------ -- ----- -- ----- -- ---- ------<br>--- state --- --- ------ -------- ----- --- ------ ----- --<br>----- ----- ---------- --- --- ------ ------ ---- -- ------<br>------- --- ------ ----- --- ---- ------- -- ---- --- --<br>------- ------,107733.70000000298,107732.90000000596,107234.411,107237.79999999702,107251.083,107751.108,,23,state
screen,html.Screen,0_2_1_1_24,2021-12-13T14:30:36.001Z,,,,,,,,,,,,,,,,54,,,,,,,,,,,,,557.5920000029873,,response,,,100,,,Space,keypress(Space),,,,,-- --- ---- --- ------ ----- ------- ---- -- --- ------- --<br>------- ---------- ------ -- ----- -- ----- -- ---- ------<br>--- ----- cut --- ------ -------- ----- --- ------ ----- --<br>----- ----- ---------- --- --- ------ ------ ---- -- ------<br>------- --- ------ ----- --- ---- ------- -- ---- --- --<br>------- ------,108309.5,108308.70000000298,107734.438,107733.90000000596,107751.108,108318.019,,24,cut
screen,html.Screen,0_2_1_1_25,2021-12-13T14:30:36.505Z,,,,,,,,,,,,,,,,54,,,,,,,,,,,,,494.78099999701953,,response,,,100,,,Space,keypress(Space),,,,,-- --- ---- --- ------ ----- ------- ---- -- --- ------- --<br>------- ---------- ------ -- ----- -- ----- -- ---- ------<br>--- ----- --- the ------ -------- ----- --- ------ ----- --<br>----- ----- ---------- --- --- ------ ------ ---- -- ------<br>------- --- ------ ----- --- ---- ------- -- ---- --- --<br>------- ------,108813.60000000894,108812.79999999702,108301.348,108309.79999999702,108318.019,108818.138,,25,the
screen,html.Screen,0_2_1_1_26,2021-12-13T14:30:36.961Z,,,,,,,,,,,,,,,,54,,,,,,,,,,,,,450.56200000297395,,response,,,100,,,Space,keypress(Space),,,,,-- --- ---- --- ------ ----- ------- ---- -- --- ------- --<br>------- ---------- ------ -- ----- -- ----- -- ---- ------<br>--- ----- --- --- bonds' -------- ----- --- ------ ----- --<br>----- ----- ---------- --- --- ------ ------ ---- -- ------<br>------- --- ------ ----- --- ---- ------- -- ---- --- --<br>------- ------,109269.60000000894,109268.70000000298,108801.467,108813.90000000596,108818.138,109284.907,,26,bonds'
screen,html.Screen,0_2_1_1_27,2021-12-13T14:30:37.425Z,,,,,,,,,,,,,,,,54,,,,,,,,,,,,,447.89299999701325,,response,,,100,,,Space,keypress(Space),,,,,-- --- ---- --- ------ ----- ------- ---- -- --- ------- --<br>------- ---------- ------ -- ----- -- ----- -- ---- ------<br>--- ----- --- --- ------ interest ----- --- ------ ----- --<br>----- ----- ---------- --- --- ------ ------ ---- -- ------<br>------- --- ------ ----- --- ---- ------- -- ---- --- --<br>------- ------,109733.60000000894,109732.79999999702,109268.237,109269.90000000596,109284.907,109735.103,,27,interest
screen,html.Screen,0_2_1_1_28,2021-12-13T14:30:38.209Z,,,,,,,,,,,,,,,,54,,,,,,,,,,,,,781.696999997017,,response,,,100,,,Space,keypress(Space),,,,,-- --- ---- --- ------ ----- ------- ---- -- --- ------- --<br>------- ---------- ------ -- ----- -- ----- -- ---- ------<br>--- ----- --- --- ------ -------- rate. --- ------ ----- --<br>----- ----- ---------- --- --- ------ ------ ---- -- ------<br>------- --- ------ ----- --- ---- ------- -- ---- --- --<br>------- ------,110517.60000000894,110516.79999999702,109718.432,109733.79999999702,109735.103,110535.322,,28,rate.
screen,html.Screen,0_2_1_1_29,2021-12-13T14:30:39.209Z,,,,,,,,,,,,,,,,54,,,,,,,,,,,,,981.4779999970197,,response,,,100,,,Space,keypress(Space),,,,,-- --- ---- --- ------ ----- ------- ---- -- --- ------- --<br>------- ---------- ------ -- ----- -- ----- -- ---- ------<br>--- ----- --- --- ------ -------- ----- The ------ ----- --<br>----- ----- ---------- --- --- ------ ------ ---- -- ------<br>------- --- ------ ----- --- ---- ------- -- ---- --- --<br>------- ------,111517.60000000894,111516.79999999702,110518.651,110517.90000000596,110535.322,111518.94,,29,The
screen,html.Screen,0_2_1_1_30,2021-12-13T14:30:39.673Z,,,,,,,,,,,,,,,,54,,,,,,,,,,,,,461.7600000029779,,response,,,100,,,Space,keypress(Space),,,,,-- --- ---- --- ------ ----- ------- ---- -- --- ------- --<br>------- ---------- ------ -- ----- -- ----- -- ---- ------<br>--- ----- --- --- ------ -------- ----- --- market ----- --<br>----- ----- ---------- --- --- ------ ------ ---- -- ------<br>------- --- ------ ----- --- ---- ------- -- ---- --- --<br>------- ------,111981.60000000894,111980.70000000298,111502.269,111517.79999999702,111518.94,111985.794,,30,market
screen,html.Screen,0_2_1_1_31,2021-12-13T14:30:40.161Z,,,,,,,,,,,,,,,,54,,,,,,,,,,,,,483.00599999702536,,response,,,100,,,Space,keypress(Space),,,,,-- --- ---- --- ------ ----- ------- ---- -- --- ------- --<br>------- ---------- ------ -- ----- -- ----- -- ---- ------<br>--- ----- --- --- ------ -------- ----- --- ------ value --<br>----- ----- ---------- --- --- ------ ------ ---- -- ------<br>------- --- ------ ----- --- ---- ------- -- ---- --- --<br>------- ------,112469.60000000894,112468.79999999702,111969.123,111981.79999999702,111985.794,112485.928,,31,value
screen,html.Screen,0_2_1_1_32,2021-12-13T14:30:40.569Z,,,,,,,,,,,,,,,,54,,,,,,,,,,,,,390.77200000298035,,response,,,100,,,Space,keypress(Space),,,,,-- --- ---- --- ------ ----- ------- ---- -- --- ------- --<br>------- ---------- ------ -- ----- -- ----- -- ---- ------<br>--- ----- --- --- ------ -------- ----- --- ------ ----- of<br>----- ----- ---------- --- --- ------ ------ ---- -- ------<br>------- --- ------ ----- --- ---- ------- -- ---- --- --<br>------- ------,112877.60000000894,112876.70000000298,112469.257,112469.79999999702,112485.928,112886.035,,32,of
screen,html.Screen,0_2_1_1_33,2021-12-13T14:30:41.113Z,,,,,,,,,,,,,,,,54,,,,,,,,,,,,,534.6650000029767,,response,,,100,,,Space,keypress(Space),,,,,-- --- ---- --- ------ ----- ------- ---- -- --- ------- --<br>------- ---------- ------ -- ----- -- ----- -- ---- ------<br>--- ----- --- --- ------ -------- ----- --- ------ ----- --<br>these ----- ---------- --- --- ------ ------ ---- -- ------<br>------- --- ------ ----- --- ---- ------- -- ---- --- --<br>------- ------,113421.60000000894,113420.70000000298,112869.364,112877.79999999702,112886.035,113436.189,,33,these
screen,html.Screen,0_2_1_1_34,2021-12-13T14:30:41.633Z,,,,,,,,,,,,,,,,54,,,,,,,,,,,,,504.51100000298175,,response,,,100,,,Space,keypress(Space),,,,,-- --- ---- --- ------ ----- ------- ---- -- --- ------- --<br>------- ---------- ------ -- ----- -- ----- -- ---- ------<br>--- ----- --- --- ------ -------- ----- --- ------ ----- --<br>----- bonds ---------- --- --- ------ ------ ---- -- ------<br>------- --- ------ ----- --- ---- ------- -- ---- --- --<br>------- ------,113941.5,113940.70000000298,113419.518,113421.90000000596,113436.189,113953.042,,34,bonds
screen,html.Screen,0_2_1_1_35,2021-12-13T14:30:42.378Z,,,,,,,,,,,,,,,,54,,,,,,,,,,,,,732.158000002979,,response,,,100,,,Space,keypress(Space),,,,,"-- --- ---- --- ------ ----- ------- ---- -- --- ------- --<br>------- ---------- ------ -- ----- -- ----- -- ---- ------<br>--- ----- --- --- ------ -------- ----- --- ------ ----- --<br>----- ----- plummeted, --- --- ------ ------ ---- -- ------<br>------- --- ------ ----- --- ---- ------- -- ---- --- --<br>------- ------",114686,114685.20000000298,113936.371,113941.79999999702,113953.042,114703.234,,35,"plummeted,"
screen,html.Screen,0_2_1_1_36,2021-12-13T14:30:43.121Z,,,,,,,,,,,,,,,,54,,,,,,,,,,,,,725.4660000029835,,response,,,100,,,Space,keypress(Space),,,,,-- --- ---- --- ------ ----- ------- ---- -- --- ------- --<br>------- ---------- ------ -- ----- -- ----- -- ---- ------<br>--- ----- --- --- ------ -------- ----- --- ------ ----- --<br>----- ----- ---------- and --- ------ ------ ---- -- ------<br>------- --- ------ ----- --- ---- ------- -- ---- --- --<br>------- ------,115429.60000000894,115428.70000000298,114686.563,114686.20000000298,114703.234,115436.646,,36,and
screen,html.Screen,0_2_1_1_37,2021-12-13T14:30:43.585Z,,,,,,,,,,,,,,,,54,,,,,,,,,,,,,456.05400000298687,,response,,,100,,,Space,keypress(Space),,,,,-- --- ---- --- ------ ----- ------- ---- -- --- ------- --<br>------- ---------- ------ -- ----- -- ----- -- ---- ------<br>--- ----- --- --- ------ -------- ----- --- ------ ----- --<br>----- ----- ---------- --- the ------ ------ ---- -- ------<br>------- --- ------ ----- --- ---- ------- -- ---- --- --<br>------- ------,115893.60000000894,115892.70000000298,115419.976,115429.79999999702,115436.646,115903.66,,37,the
screen,html.Screen,0_2_1_1_38,2021-12-13T14:30:44.025Z,,,,,,,,,,,,,,,,54,,,,,,,,,,,,,429.04000000297674,,response,,,100,,,Space,keypress(Space),,,,,-- --- ---- --- ------ ----- ------- ---- -- --- ------- --<br>------- ---------- ------ -- ----- -- ----- -- ---- ------<br>--- ----- --- --- ------ -------- ----- --- ------ ----- --<br>----- ----- ---------- --- --- market ------ ---- -- ------<br>------- --- ------ ----- --- ---- ------- -- ---- --- --<br>------- ------,116333.5,116332.70000000298,115886.988,115893.79999999702,115903.66,116337.074,,38,market
screen,html.Screen,0_2_1_1_39,2021-12-13T14:30:44.425Z,,,,,,,,,,,,,,,,54,,,,,,,,,,,,,395.626000002987,,response,,,100,,,Space,keypress(Space),,,,,-- --- ---- --- ------ ----- ------- ---- -- --- ------- --<br>------- ---------- ------ -- ----- -- ----- -- ---- ------<br>--- ----- --- --- ------ -------- ----- --- ------ ----- --<br>----- ----- ---------- --- --- ------ became ---- -- ------<br>------- --- ------ ----- --- ---- ------- -- ---- --- --<br>------- ------,116733.5,116732.70000000298,116320.403,116333.79999999702,116337.074,116737.209,,39,became
screen,html.Screen,0_2_1_1_40,2021-12-13T14:30:44.833Z,,,,,,,,,,,,,,,,54,,,,,,,,,,,,,403.49100000297767,,response,,,100,,,Space,keypress(Space),,,,,-- --- ---- --- ------ ----- ------- ---- -- --- ------- --<br>------- ---------- ------ -- ----- -- ----- -- ---- ------<br>--- ----- --- --- ------ -------- ----- --- ------ ----- --<br>----- ----- ---------- --- --- ------ ------ wary -- ------<br>------- --- ------ ----- --- ---- ------- -- ---- --- --<br>------- ------,117141.5,117140.70000000298,116720.538,116733.79999999702,116737.209,117153.989,,40,wary
screen,html.Screen,0_2_1_1_41,2021-12-13T14:30:45.233Z,,,,,,,,,,,,,,,,54,,,,,,,,,,,,,386.71100000297884,,response,,,100,,,Space,keypress(Space),,,,,-- --- ---- --- ------ ----- ------- ---- -- --- ------- --<br>------- ---------- ------ -- ----- -- ----- -- ---- ------<br>--- ----- --- --- ------ -------- ----- --- ------ ----- --<br>----- ----- ---------- --- --- ------ ------ ---- of ------<br>------- --- ------ ----- --- ---- ------- -- ---- --- --<br>------- ------,117541.5,117540.70000000298,117137.318,117141.79999999702,117153.989,117554.169,,41,of
screen,html.Screen,0_2_1_1_42,2021-12-13T14:30:45.633Z,,,,,,,,,,,,,,,,54,,,,,,,,,,,,,386.5310000029858,,response,,,100,,,Space,keypress(Space),,,,,-- --- ---- --- ------ ----- ------- ---- -- --- ------- --<br>------- ---------- ------ -- ----- -- ----- -- ---- ------<br>--- ----- --- --- ------ -------- ----- --- ------ ----- --<br>----- ----- ---------- --- --- ------ ------ ---- -- French<br>------- --- ------ ----- --- ---- ------- -- ---- --- --<br>------- ------,117941.40000000596,117940.70000000298,117537.497,117541.79999999702,117554.169,117954.107,,42,French
screen,html.Screen,0_2_1_1_43,2021-12-13T14:30:46.017Z,,,,,,,,,,,,,,,,54,,,,,,,,,,,,,370.5930000029766,,response,,,100,,,Space,keypress(Space),,,,,-- --- ---- --- ------ ----- ------- ---- -- --- ------- --<br>------- ---------- ------ -- ----- -- ----- -- ---- ------<br>--- ----- --- --- ------ -------- ----- --- ------ ----- --<br>----- ----- ---------- --- --- ------ ------ ---- -- ------<br>credit. --- ------ ----- --- ---- ------- -- ---- --- --<br>------- ------,118325.5,118324.70000000298,117937.438,117941.70000000298,117954.107,118337.727,,43,credit.
screen,html.Screen,0_2_1_1_44,2021-12-13T14:30:46.729Z,,,,,,,,,,,,,,,,54,,,,,,,,,,,,,698.9730000029813,,response,,,100,,,Space,keypress(Space),,,,,-- --- ---- --- ------ ----- ------- ---- -- --- ------- --<br>------- ---------- ------ -- ----- -- ----- -- ---- ------<br>--- ----- --- --- ------ -------- ----- --- ------ ----- --<br>----- ----- ---------- --- --- ------ ------ ---- -- ------<br>------- The ------ ----- --- ---- ------- -- ---- --- --<br>------- ------,119037.5,119036.70000000298,118321.055,118325.70000000298,118337.727,119054.549,,44,The
screen,html.Screen,0_2_1_1_45,2021-12-13T14:30:47.233Z,,,,,,,,,,,,,,,,54,,,,,,,,,,,,,485.95100000000093,,response,,,100,,,Space,keypress(Space),,,,,-- --- ---- --- ------ ----- ------- ---- -- --- ------- --<br>------- ---------- ------ -- ----- -- ----- -- ---- ------<br>--- ----- --- --- ------ -------- ----- --- ------ ----- --<br>----- ----- ---------- --- --- ------ ------ ---- -- ------<br>------- --- French ----- --- ---- ------- -- ---- --- --<br>------- ------,119541.40000000596,119540.5,119037.878,119037.70000000298,119054.549,119554.71,,45,French
screen,html.Screen,0_2_1_1_46,2021-12-13T14:30:47.681Z,,,,,,,,,,,,,,,,54,,,,,,,,,,,,,433.99000000297383,,response,,,100,,,Space,keypress(Space),,,,,-- --- ---- --- ------ ----- ------- ---- -- --- ------- --<br>------- ---------- ------ -- ----- -- ----- -- ---- ------<br>--- ----- --- --- ------ -------- ----- --- ------ ----- --<br>----- ----- ---------- --- --- ------ ------ ---- -- ------<br>------- --- ------ state --- ---- ------- -- ---- --- --<br>------- ------,119989.60000000894,119988.70000000298,119538.039,119541.60000000894,119554.71,120004.849,,46,state
screen,html.Screen,0_2_1_1_47,2021-12-13T14:30:48.066Z,,,,,,,,,,,,,,,,54,,,,,,,,,,,,,367.7510000089387,,response,,,100,,,Space,keypress(Space),,,,,-- --- ---- --- ------ ----- ------- ---- -- --- ------- --<br>------- ---------- ------ -- ----- -- ----- -- ---- ------<br>--- ----- --- --- ------ -------- ----- --- ------ ----- --<br>----- ----- ---------- --- --- ------ ------ ---- -- ------<br>------- --- ------ ----- was ---- ------- -- ---- --- --<br>------- ------,120373.5,120372.60000000894,119988.178,119989.79999999702,120004.849,120388.305,,47,was
screen,html.Screen,0_2_1_1_48,2021-12-13T14:30:48.482Z,,,,,,,,,,,,,,,,54,,,,,,,,,,,,,400.2950000089477,,response,,,100,,,Space,keypress(Space),,,,,-- --- ---- --- ------ ----- ------- ---- -- --- ------- --<br>------- ---------- ------ -- ----- -- ----- -- ---- ------<br>--- ----- --- --- ------ -------- ----- --- ------ ----- --<br>----- ----- ---------- --- --- ------ ------ ---- -- ------<br>------- --- ------ ----- --- left ------- -- ---- --- --<br>------- ------,120789.5,120788.60000000894,120371.634,120373.60000000894,120388.305,120805.094,,48,left
screen,html.Screen,0_2_1_1_49,2021-12-13T14:30:48.882Z,,,,,,,,,,,,,,,,54,,,,,,,,,,,,,383.6060000029829,,response,,,100,,,Space,keypress(Space),,,,,-- --- ---- --- ------ ----- ------- ---- -- --- ------- --<br>------- ---------- ------ -- ----- -- ----- -- ---- ------<br>--- ----- --- --- ------ -------- ----- --- ------ ----- --<br>----- ----- ---------- --- --- ------ ------ ---- -- ------<br>------- --- ------ ----- --- ---- without -- ---- --- --<br>------- ------,121189.40000000596,121188.70000000298,120788.423,120789.70000000298,120805.094,121205.07,,49,without
screen,html.Screen,0_2_1_1_50,2021-12-13T14:30:49.290Z,,,,,,,,,,,,,,,,54,,,,,,,,,,,,,391.63000000297325,,response,,,100,,,Space,keypress(Space),,,,,-- --- ---- --- ------ ----- ------- ---- -- --- ------- --<br>------- ---------- ------ -- ----- -- ----- -- ---- ------<br>--- ----- --- --- ------ -------- ----- --- ------ ----- --<br>----- ----- ---------- --- --- ------ ------ ---- -- ------<br>------- --- ------ ----- --- ---- ------- an ---- --- --<br>------- ------,121597.5,121596.70000000298,121188.401,121189.70000000298,121205.07,121605.449,,50,an
screen,html.Screen,0_2_1_1_51,2021-12-13T14:30:49.682Z,,,,,,,,,,,,,,,,54,,,,,,,,,,,,,383.15100000894745,,response,,,100,,,Space,keypress(Space),,,,,-- --- ---- --- ------ ----- ------- ---- -- --- ------- --<br>------- ---------- ------ -- ----- -- ----- -- ---- ------<br>--- ----- --- --- ------ -------- ----- --- ------ ----- --<br>----- ----- ---------- --- --- ------ ------ ---- -- ------<br>------- --- ------ ----- --- ---- ------- -- easy --- --<br>------- ------,121989.70000000298,121988.60000000894,121588.776,121597.70000000298,121605.449,122005.254,,51,easy
screen,html.Screen,0_2_1_1_52,2021-12-13T14:30:50.082Z,,,,,,,,,,,,,,,,54,,,,,,,,,,,,,383.2459999999992,,response,,,100,,,Space,keypress(Space),,,,,-- --- ---- --- ------ ----- ------- ---- -- --- ------- --<br>------- ---------- ------ -- ----- -- ----- -- ---- ------<br>--- ----- --- --- ------ -------- ----- --- ------ ----- --<br>----- ----- ---------- --- --- ------ ------ ---- -- ------<br>------- --- ------ ----- --- ---- ------- -- ---- way --<br>------- ------,122389,122388.5,121988.586,121990,122005.254,122405.675,,52,way
screen,html.Screen,0_2_1_1_53,2021-12-13T14:30:50.426Z,,,,,,,,,,,,,,,,54,,,,,,,,,,,,,326.9250000089378,,response,,,100,,,Space,keypress(Space),,,,,-- --- ---- --- ------ ----- ------- ---- -- --- ------- --<br>------- ---------- ------ -- ----- -- ----- -- ---- ------<br>--- ----- --- --- ------ -------- ----- --- ------ ----- --<br>----- ----- ---------- --- --- ------ ------ ---- -- ------<br>------- --- ------ ----- --- ---- ------- -- ---- --- of<br>------- ------,122733.40000000596,122732.60000000894,122389.002,122389.10000000894,122405.675,122739.007,,53,of
screen,html.Screen,0_2_1_1_54,2021-12-13T14:30:50.826Z,,,,,,,,,,,,,,,,54,,,,,,,,,,,,,393.69300000298244,,response,,,100,,,Space,keypress(Space),,,,,-- --- ---- --- ------ ----- ------- ---- -- --- ------- --<br>------- ---------- ------ -- ----- -- ----- -- ---- ------<br>--- ----- --- --- ------ -------- ----- --- ------ ----- --<br>----- ----- ---------- --- --- ------ ------ ---- -- ------<br>------- --- ------ ----- --- ---- ------- -- ---- --- --<br>raising ------,123133.40000000596,123132.70000000298,122722.336,122733.70000000298,122739.007,123139.133,,54,raising
screen,html.Screen,0_2_1_1_55,2021-12-13T14:30:51.314Z,,,,,,,,,,,,,,,,54,,,,,,,,,,,,,481.36699999999837,,response,,,100,,,Space,keypress(Space),,,,,-- --- ---- --- ------ ----- ------- ---- -- --- ------- --<br>------- ---------- ------ -- ----- -- ----- -- ---- ------<br>--- ----- --- --- ------ -------- ----- --- ------ ----- --<br>----- ----- ---------- --- --- ------ ------ ---- -- ------<br>------- --- ------ ----- --- ---- ------- -- ---- --- --<br>------- money.,123621.29999999702,123620.5,123122.462,123133.70000000298,123139.133,123639.225,,55,money.
Item 100,flow.Loop,0_2_1_1,2021-12-13T14:30:51.314Z,,,,,,,,,,,,,,,,,,,,,,,,,,,,,31374.096999999994,,completion,,,,E,,,,,,,silence,,123621.70000000298,123620.5,92229.732,92231.70000000298,92246.403,123639.225,,,
Question 1,html.Screen,0_2_1_2,2021-12-13T14:30:56.691Z,,,,,,,,,,,,,,,,,,,,,,,,,,,true,TRUE,5357.975000002974,,response,,,100,E,,TRUE,click #choice-1,,,,silence,,128998.29999999702,128997.20000000298,123622.555,123621.90000000596,123639.225,129007.774,,,
Question 2,html.Screen,0_2_1_3,2021-12-13T14:30:57.492Z,,,,,,,,,,,,,,,,,,,,,,,,,,,false,FALSE,790.3260000089358,,response,,,100,E,,TRUE,click #choice-1,,,,silence,,129799.29999999702,129798.10000000894,128991.099,128998.60000000894,129007.774,129807.782,,,
Item 100,flow.Sequence,0_2_1,2021-12-13T14:30:57.492Z,,,,,,,,,,,,,,,,,,,,,,,,,,,,,47554.57300000894,,completion,,,,,,,,,,,,,129799.60000000894,129798.10000000894,82226.856,82229.20000000298,82243.527,129807.782,,,
End of Practice,html.Page,0_2_2,2021-12-13T14:31:03.700Z,,,,,,,,,,,,,,,,,,,,,,,,,,,,,6199.418000002974,,form submission,,,,,,,,,,,,,136007.90000000596,136007.20000000298,129791.111,129799.79999999702,129807.782,136009.448,,,
Practice,flow.Sequence,0_2,2021-12-13T14:31:03.701Z,,,,,,,,,,,,,,,,,,,,,,,,,,,,,101677.45200000299,,completion,,,,,,,,,,,,,136008.40000000596,136007.20000000298,34313.061,34324.10000000894,34329.748,136009.448,,,
Trap_instruction,html.Page,0_3_0,2021-12-13T14:31:07.382Z,,,,,,,,,,,,,,,,,,,,,,,,,,,,,3679.551999999996,,form submission,,,,,,,,,,,,,139689.10000000894,139689,135992.777,136008.70000000298,136009.448,139693.89,,,
trap_trial,html.Screen,0_3_1,2021-12-13T14:31:11.785Z,,,,,,,,,,,,,,,,,,,,,,,,,,,true,1,4396.909999997006,,response,,,,,,1,click #choice-1,,,,,,144092.20000000298,144090.79999999702,139677.219,139689.20000000298,139693.89,144095.194,,,
end of trap trial,html.Page,0_3_2,2021-12-13T14:31:14.629Z,,,,,,,,,,,,,,,,,,,,,,,,,,,,,2840.406000008952,,form submission,,,,,,,,,,,,,146936.10000000894,146935.60000000894,144078.523,144092.60000000894,144095.194,146944.454,,,
Trap 1,flow.Sequence,0_3,2021-12-13T14:31:14.629Z,,,,,,,,,,,,,,,,,,,,,,,,,,,,,10926.152000008937,,completion,,,,,,,,,,,,,146936.5,146935.60000000894,135992.777,136008.70000000298,136009.448,146944.454,,,
Standby,html.Page,0_4_0,2021-12-13T14:31:22.625Z,,,,,,,,,,,,,,,,,,,,,,,,,,,,,8003.858999999997,,timeout,,,,,,,,,,,,,154932.90000000596,154931.642,146927.835,146936.79999999702,146944.454,154948.313,,,
Holding screen,html.Screen,0_4_1_0_0,2021-12-13T14:31:29.629Z,,,,,,,,,,,,,,,,,,,,,,,,,,,,,7002.396999999997,,timeout,,,,,,,,,,,,,161935.90000000596,161934.039,154931.642,154933.29999999702,154948.313,161950.71,,,
screen,html.Screen,0_4_1_0_1_0,2021-12-13T14:31:31.346Z,,,,,,,,,,,,,,,,48,,,,,,,,,,,,,1701.9900000029884,,response,,,10,E,,Space,keypress(Space),,,,lyrical,As -- --- ------ ------- --------- ----------- --------<br>--------- -------- --- ------- -- ------- ---- -- ------<br>-- --- -------- -------- ---------- ---- ---- ---- ------<br>-- --------- -- ---- -- --- -- --- ------- -- - -----<br>---------- -- -- -- ---- ----- -- ------ -- --- ------<br>-------,163653.70000000298,163652.70000000298,161934.039,161936.40000000596,161950.71,163667.667,,0,As
screen,html.Screen,0_4_1_0_1_1,2021-12-13T14:31:32.026Z,,,,,,,,,,,,,,,,48,,,,,,,,,,,,,664.5330000029935,,response,,,10,E,,Space,keypress(Space),,,,lyrical,-- in --- ------ ------- --------- ----------- --------<br>--------- -------- --- ------- -- ------- ---- -- ------<br>-- --- -------- -------- ---------- ---- ---- ---- ------<br>-- --------- -- ---- -- --- -- --- ------- -- - -----<br>---------- -- -- -- ---- ----- -- ------ -- --- ------<br>-------,164333,164332.20000000298,163650.997,163654,163667.667,164334.944,,1,in
screen,html.Screen,0_4_1_0_1_2,2021-12-13T14:31:32.665Z,,,,,,,,,,,,,,,,48,,,,,,,,,,,,,637.1560000089521,,response,,,10,E,,Space,keypress(Space),,,,lyrical,-- -- the ------ ------- --------- ----------- --------<br>--------- -------- --- ------- -- ------- ---- -- ------<br>-- --- -------- -------- ---------- ---- ---- ---- ------<br>-- --------- -- ---- -- --- -- --- ------- -- - -----<br>---------- -- -- -- ---- ----- -- ------ -- --- ------<br>-------,164972.90000000596,164972.10000000894,164318.272,164333.20000000298,164334.944,164984.99,,2,the
screen,html.Screen,0_4_1_0_1_3,2021-12-13T14:31:33.162Z,,,,,,,,,,,,,,,,48,,,,,,,,,,,,,483.21000000298955,,response,,,10,E,,Space,keypress(Space),,,,lyrical,-- -- --- United ------- --------- ----------- --------<br>--------- -------- --- ------- -- ------- ---- -- ------<br>-- --- -------- -------- ---------- ---- ---- ---- ------<br>-- --------- -- ---- -- --- -- --- ------- -- - -----<br>---------- -- -- -- ---- ----- -- ------ -- --- ------<br>-------,165468.90000000596,165468.20000000298,164968.319,164973.20000000298,164984.99,165485.055,,3,United
screen,html.Screen,0_4_1_0_1_4,2021-12-13T14:31:33.769Z,,,,,,,,,,,,,,,,48,,,,,,,,,,,,,591.0450000089477,,response,,,10,E,,Space,keypress(Space),,,,lyrical,"-- -- --- ------ States, --------- ----------- --------<br>--------- -------- --- ------- -- ------- ---- -- ------<br>-- --- -------- -------- ---------- ---- ---- ---- ------<br>-- --------- -- ---- -- --- -- --- ------- -- - -----<br>---------- -- -- -- ---- ----- -- ------ -- --- ------<br>-------",166076.90000000596,166076.10000000894,165468.385,165469.20000000298,165485.055,166085.295,,4,"States,"
screen,html.Screen,0_4_1_0_1_5,2021-12-13T14:31:34.482Z,,,,,,,,,,,,,,,,48,,,,,,,,,,,,,703.004999997007,,response,,,10,E,,Space,keypress(Space),,,,lyrical,-- -- --- ------ ------- Colombian ----------- --------<br>--------- -------- --- ------- -- ------- ---- -- ------<br>-- --- -------- -------- ---------- ---- ---- ---- ------<br>-- --------- -- ---- -- --- -- --- ------- -- - -----<br>---------- -- -- -- ---- ----- -- ------ -- --- ------<br>-------,166789.10000000894,166788.29999999702,166068.624,166077.10000000894,166085.295,166802.359,,5,Colombian
screen,html.Screen,0_4_1_0_1_6,2021-12-13T14:31:35.209Z,,,,,,,,,,,,,,,,48,,,,,,,,,,,,,713.741000008944,,response,,,10,E,,Space,keypress(Space),,,,lyrical,-- -- --- ------ ------- --------- legislation --------<br>--------- -------- --- ------- -- ------- ---- -- ------<br>-- --- -------- -------- ---------- ---- ---- ---- ------<br>-- --------- -- ---- -- --- -- --- ------- -- - -----<br>---------- -- -- -- ---- ----- -- ------ -- --- ------<br>-------,167516.90000000596,167516.10000000894,166785.686,166789.29999999702,166802.359,167518.949,,6,legislation
screen,html.Screen,0_4_1_0_1_7,2021-12-13T14:31:35.657Z,,,,,,,,,,,,,,,,48,,,,,,,,,,,,,445.15100000894745,,response,,,10,E,,Space,keypress(Space),,,,lyrical,-- -- --- ------ ------- --------- ----------- requires<br>--------- -------- --- ------- -- ------- ---- -- ------<br>-- --- -------- -------- ---------- ---- ---- ---- ------<br>-- --------- -- ---- -- --- -- --- ------- -- - -----<br>---------- -- -- -- ---- ----- -- ------ -- --- ------<br>-------,167964.79999999702,167964.10000000894,167502.279,167517.10000000894,167518.949,167969.205,,7,requires
screen,html.Screen,0_4_1_0_1_8,2021-12-13T14:31:36.337Z,,,,,,,,,,,,,,,,48,,,,,,,,,,,,,674.7950000000128,,response,,,10,E,,Space,keypress(Space),,,,lyrical,-- -- --- ------ ------- --------- ----------- --------<br>travelers -------- --- ------- -- ------- ---- -- ------<br>-- --- -------- -------- ---------- ---- ---- ---- ------<br>-- --------- -- ---- -- --- -- --- ------- -- - -----<br>---------- -- -- -- ---- ----- -- ------ -- --- ------<br>-------,168644.90000000596,168644,167952.534,167965.10000000894,167969.205,168652.824,,8,travelers
screen,html.Screen,0_4_1_0_1_9,2021-12-13T14:31:37.089Z,,,,,,,,,,,,,,,,48,,,,,,,,,,,,,743.2760000089474,,response,,,10,E,,Space,keypress(Space),,,,lyrical,-- -- --- ------ ------- --------- ----------- --------<br>--------- entering --- ------- -- ------- ---- -- ------<br>-- --- -------- -------- ---------- ---- ---- ---- ------<br>-- --------- -- ---- -- --- -- --- ------- -- - -----<br>---------- -- -- -- ---- ----- -- ------ -- --- ------<br>-------,169396.90000000596,169396.10000000894,168636.152,168645.10000000894,168652.824,169402.844,,9,entering
screen,html.Screen,0_4_1_0_1_10,2021-12-13T14:31:37.650Z,,,,,,,,,,,,,,,,48,,,,,,,,,,,,,553.1559999999881,,response,,,10,E,,Space,keypress(Space),,,,lyrical,-- -- --- ------ ------- --------- ----------- --------<br>--------- -------- the ------- -- ------- ---- -- ------<br>-- --- -------- -------- ---------- ---- ---- ---- ------<br>-- --------- -- ---- -- --- -- --- ------- -- - -----<br>---------- -- -- -- ---- ----- -- ------ -- --- ------<br>-------,169957,169956,169386.174,169397.10000000894,169402.844,169969.904,,10,the
screen,html.Screen,0_4_1_0_1_11,2021-12-13T14:31:38.385Z,,,,,,,,,,,,,,,,48,,,,,,,,,,,,,722.0959999999905,,response,,,10,E,,Space,keypress(Space),,,,lyrical,-- -- --- ------ ------- --------- ----------- --------<br>--------- -------- --- country -- ------- ---- -- ------<br>-- --- -------- -------- ---------- ---- ---- ---- ------<br>-- --------- -- ---- -- --- -- --- ------- -- - -----<br>---------- -- -- -- ---- ----- -- ------ -- --- ------<br>-------,170692.90000000596,170692,169953.232,169957.20000000298,169969.904,170703.381,,11,country
screen,html.Screen,0_4_1_0_1_12,2021-12-13T14:31:38.841Z,,,,,,,,,,,,,,,,48,,,,,,,,,,,,,444.61900000000605,,response,,,10,E,,Space,keypress(Space),,,,lyrical,-- -- --- ------ ------- --------- ----------- --------<br>--------- -------- --- ------- to ------- ---- -- ------<br>-- --- -------- -------- ---------- ---- ---- ---- ------<br>-- --------- -- ---- -- --- -- --- ------- -- - -----<br>---------- -- -- -- ---- ----- -- ------ -- --- ------<br>-------,171148.90000000596,171148,170686.71,170693.10000000894,170703.381,171153.549,,12,to
screen,html.Screen,0_4_1_0_1_13,2021-12-13T14:31:39.409Z,,,,,,,,,,,,,,,,48,,,,,,,,,,,,,562.4510000000009,,response,,,10,E,,Space,keypress(Space),,,,lyrical,-- -- --- ------ ------- --------- ----------- --------<br>--------- -------- --- ------- -- declare ---- -- ------<br>-- --- -------- -------- ---------- ---- ---- ---- ------<br>-- --------- -- ---- -- --- -- --- ------- -- - -----<br>---------- -- -- -- ---- ----- -- ------ -- --- ------<br>-------,171716.79999999702,171716,171136.878,171149.10000000894,171153.549,171720.257,,13,declare
screen,html.Screen,0_4_1_0_1_14,2021-12-13T14:31:39.945Z,,,,,,,,,,,,,,,,48,,,,,,,,,,,,,531.7429999999877,,response,,,10,E,,Space,keypress(Space),,,,lyrical,-- -- --- ------ ------- --------- ----------- --------<br>--------- -------- --- ------- -- ------- cash -- ------<br>-- --- -------- -------- ---------- ---- ---- ---- ------<br>-- --------- -- ---- -- --- -- --- ------- -- - -----<br>---------- -- -- -- ---- ----- -- ------ -- --- ------<br>-------,172252.79999999702,172252,171703.587,171717.10000000894,171720.257,172253.971,,14,cash
screen,html.Screen,0_4_1_0_1_15,2021-12-13T14:31:40.385Z,,,,,,,,,,,,,,,,48,,,,,,,,,,,,,438.02900000000955,,response,,,10,E,,Space,keypress(Space),,,,lyrical,-- -- --- ------ ------- --------- ----------- --------<br>--------- -------- --- ------- -- ------- ---- in ------<br>-- --- -------- -------- ---------- ---- ---- ---- ------<br>-- --------- -- ---- -- --- -- --- ------- -- - -----<br>---------- -- -- -- ---- ----- -- ------ -- --- ------<br>-------,172692.90000000596,172692,172237.298,172253,172253.971,172703.985,,15,in
screen,html.Screen,0_4_1_0_1_16,2021-12-13T14:31:40.913Z,,,,,,,,,,,,,,,,48,,,,,,,,,,,,,515.9150000059744,,response,,,10,E,,Space,keypress(Space),,,,lyrical,-- -- --- ------ ------- --------- ----------- --------<br>--------- -------- --- ------- -- ------- ---- -- excess<br>-- --- -------- -------- ---------- ---- ---- ---- ------<br>-- --------- -- ---- -- --- -- --- ------- -- - -----<br>---------- -- -- -- ---- ----- -- ------ -- --- ------<br>-------,173220.70000000298,173219.90000000596,172687.314,172693.10000000894,172703.985,173237.482,,16,excess
screen,html.Screen,0_4_1_0_1_17,2021-12-13T14:31:41.402Z,,,,,,,,,,,,,,,,48,,,,,,,,,,,,,471.01800000001094,,response,,,10,E,,Space,keypress(Space),,,,lyrical,-- -- --- ------ ------- --------- ----------- --------<br>--------- -------- --- ------- -- ------- ---- -- ------<br>of --- -------- -------- ---------- ---- ---- ---- ------<br>-- --------- -- ---- -- --- -- --- ------- -- - -----<br>---------- -- -- -- ---- ----- -- ------ -- --- ------<br>-------,173709.40000000596,173708.5,173220.811,173221,173237.482,173720.969,,17,of
screen,html.Screen,0_4_1_0_1_18,2021-12-13T14:31:41.809Z,,,,,,,,,,,,,,,,48,,,,,,,,,,,,,395.0309999999881,,response,,,10,E,,Space,keypress(Space),,,,lyrical,-- -- --- ------ ------- --------- ----------- --------<br>--------- -------- --- ------- -- ------- ---- -- ------<br>-- ten -------- -------- ---------- ---- ---- ---- ------<br>-- --------- -- ---- -- --- -- --- ------- -- - -----<br>---------- -- -- -- ---- ----- -- ------ -- --- ------<br>-------,174116.79999999702,174116,173704.298,173709.60000000894,173720.969,174121.08,,18,ten
screen,html.Screen,0_4_1_0_1_19,2021-12-13T14:31:42.641Z,,,,,,,,,,,,,,,,48,,,,,,,,,,,,,826.9200000000128,,response,,,10,E,,Space,keypress(Space),,,,lyrical,-- -- --- ------ ------- --------- ----------- --------<br>--------- -------- --- ------- -- ------- ---- -- ------<br>-- --- thousand -------- ---------- ---- ---- ---- ------<br>-- --------- -- ---- -- --- -- --- ------- -- - -----<br>---------- -- -- -- ---- ----- -- ------ -- --- ------<br>-------,174948.79999999702,174948,174104.409,174117.10000000894,174121.08,174954.657,,19,thousand
screen,html.Screen,0_4_1_0_1_20,2021-12-13T14:31:43.665Z,,,,,,,,,,,,,,,,48,,,,,,,,,,,,,1017.3429999999935,,response,,,10,E,,Space,keypress(Space),,,,lyrical,-- -- --- ------ ------- --------- ----------- --------<br>--------- -------- --- ------- -- ------- ---- -- ------<br>-- --- -------- dollars. ---------- ---- ---- ---- ------<br>-- --------- -- ---- -- --- -- --- ------- -- - -----<br>---------- -- -- -- ---- ----- -- ------ -- --- ------<br>-------,175972.90000000596,175972,174937.986,174949.10000000894,174954.657,175988.294,,20,dollars.
screen,html.Screen,0_4_1_0_1_21,2021-12-13T14:31:44.353Z,,,,,,,,,,,,,,,,48,,,,,,,,,,,,,671.606000005966,,response,,,10,E,,Space,keypress(Space),,,,lyrical,-- -- --- ------ ------- --------- ----------- --------<br>--------- -------- --- ------- -- ------- ---- -- ------<br>-- --- -------- -------- Concealing ---- ---- ---- ------<br>-- --------- -- ---- -- --- -- --- ------- -- - -----<br>---------- -- -- -- ---- ----- -- ------ -- --- ------<br>-------,176660.79999999702,176659.90000000596,175971.623,175973,175988.294,176671.809,,21,Concealing
screen,html.Screen,0_4_1_0_1_22,2021-12-13T14:31:44.905Z,,,,,,,,,,,,,,,,48,,,,,,,,,,,,,540.1909999999916,,response,,,10,E,,Space,keypress(Space),,,,lyrical,-- -- --- ------ ------- --------- ----------- --------<br>--------- -------- --- ------- -- ------- ---- -- ------<br>-- --- -------- -------- ---------- more ---- ---- ------<br>-- --------- -- ---- -- --- -- --- ------- -- - -----<br>---------- -- -- -- ---- ----- -- ------ -- --- ------<br>-------,177212.79999999702,177212,176655.138,176661,176671.809,177221.998,,22,more
screen,html.Screen,0_4_1_0_1_23,2021-12-13T14:31:45.929Z,,,,,,,,,,,,,,,,48,,,,,,,,,,,,,1014.0020000000077,,response,,,10,E,,Space,keypress(Space),,,,lyrical,-- -- --- ------ ------- --------- ----------- --------<br>--------- -------- --- ------- -- ------- ---- -- ------<br>-- --- -------- -------- ---------- ---- than ---- ------<br>-- --------- -- ---- -- --- -- --- ------- -- - -----<br>---------- -- -- -- ---- ----- -- ------ -- --- ------<br>-------,178236.79999999702,178236,177205.327,177213,177221.998,178238.814,,23,than
screen,html.Screen,0_4_1_0_1_24,2021-12-13T14:31:46.329Z,,,,,,,,,,,,,,,,48,,,,,,,,,,,,,397.0860000059474,,response,,,10,E,,Space,keypress(Space),,,,lyrical,-- -- --- ------ ------- --------- ----------- --------<br>--------- -------- --- ------- -- ------- ---- -- ------<br>-- --- -------- -------- ---------- ---- ---- that ------<br>-- --------- -- ---- -- --- -- --- ------- -- - -----<br>---------- -- -- -- ---- ----- -- ------ -- --- ------<br>-------,178636.70000000298,178635.90000000596,178222.144,178237,178238.814,178639.206,,24,that
screen,html.Screen,0_4_1_0_1_25,2021-12-13T14:31:46.729Z,,,,,,,,,,,,,,,,48,,,,,,,,,,,,,396.6940000059549,,response,,,10,E,,Space,keypress(Space),,,,lyrical,-- -- --- ------ ------- --------- ----------- --------<br>--------- -------- --- ------- -- ------- ---- -- ------<br>-- --- -------- -------- ---------- ---- ---- ---- amount<br>-- --------- -- ---- -- --- -- --- ------- -- - -----<br>---------- -- -- -- ---- ----- -- ------ -- --- ------<br>-------,179036.79999999702,179035.90000000596,178622.534,178637,178639.206,179039.239,,25,amount
screen,html.Screen,0_4_1_0_1_26,2021-12-13T14:31:47.305Z,,,,,,,,,,,,,,,,48,,,,,,,,,,,,,572.6610000059591,,response,,,10,E,,Space,keypress(Space),,,,lyrical,-- -- --- ------ ------- --------- ----------- --------<br>--------- -------- --- ------- -- ------- ---- -- ------<br>-- --- -------- -------- ---------- ---- ---- ---- ------<br>to --------- -- ---- -- --- -- --- ------- -- - -----<br>---------- -- -- -- ---- ----- -- ------ -- --- ------<br>-------,179612.79999999702,179611.90000000596,179022.568,179037,179039.239,179622.739,,26,to
screen,html.Screen,0_4_1_0_1_27,2021-12-13T14:31:48.017Z,,,,,,,,,,,,,,,,48,,,,,,,,,,,,,701.1610000059591,,response,,,10,E,,Space,keypress(Space),,,,lyrical,-- -- --- ------ ------- --------- ----------- --------<br>--------- -------- --- ------- -- ------- ---- -- ------<br>-- --- -------- -------- ---------- ---- ---- ---- ------<br>-- transport -- ---- -- --- -- --- ------- -- - -----<br>---------- -- -- -- ---- ----- -- ------ -- --- ------<br>-------,180324.70000000298,180323.90000000596,179606.068,179613,179622.739,180339.63,,27,transport
screen,html.Screen,0_4_1_0_1_28,2021-12-13T14:31:48.526Z,,,,,,,,,,,,,,,,48,,,,,,,,,,,,,496.2700000059558,,response,,,10,E,,Space,keypress(Space),,,,lyrical,-- -- --- ------ ------- --------- ----------- --------<br>--------- -------- --- ------- -- ------- ---- -- ------<br>-- --- -------- -------- ---------- ---- ---- ---- ------<br>-- --------- it ---- -- --- -- --- ------- -- - -----<br>---------- -- -- -- ---- ----- -- ------ -- --- ------<br>-------,180836.79999999702,180835.90000000596,180322.959,180325,180339.63,180839.59,,28,it
screen,html.Screen,0_4_1_0_1_29,2021-12-13T14:31:49.022Z,,,,,,,,,,,,,,,,48,,,,,,,,,,,,,492.31000000596396,,response,,,10,E,,Space,keypress(Space),,,,lyrical,-- -- --- ------ ------- --------- ----------- --------<br>--------- -------- --- ------- -- ------- ---- -- ------<br>-- --- -------- -------- ---------- ---- ---- ---- ------<br>-- --------- -- into -- --- -- --- ------- -- - -----<br>---------- -- -- -- ---- ----- -- ------ -- --- ------<br>-------,181332.79999999702,181331.90000000596,180822.921,180837,180839.59,181339.972,,29,into
screen,html.Screen,0_4_1_0_1_30,2021-12-13T14:31:49.470Z,,,,,,,,,,,,,,,,48,,,,,,,,,,,,,439.8279999970109,,response,,,10,E,,Space,keypress(Space),,,,lyrical,-- -- --- ------ ------- --------- ----------- --------<br>--------- -------- --- ------- -- ------- ---- -- ------<br>-- --- -------- -------- ---------- ---- ---- ---- ------<br>-- --------- -- ---- or --- -- --- ------- -- - -----<br>---------- -- -- -- ---- ----- -- ------ -- --- ------<br>-------,181780.60000000894,181779.79999999702,181323.3,181333,181339.972,181790.038,,30,or
screen,html.Screen,0_4_1_0_1_31,2021-12-13T14:31:49.942Z,,,,,,,,,,,,,,,,48,,,,,,,,,,,,,461.96199999999953,,response,,,10,E,,Space,keypress(Space),,,,lyrical,-- -- --- ------ ------- --------- ----------- --------<br>--------- -------- --- ------- -- ------- ---- -- ------<br>-- --- -------- -------- ---------- ---- ---- ---- ------<br>-- --------- -- ---- -- out -- --- ------- -- - -----<br>---------- -- -- -- ---- ----- -- ------ -- --- ------<br>-------,182252.70000000298,182252,181773.367,181780.90000000596,181790.038,182256.845,,31,out
screen,html.Screen,0_4_1_0_1_32,2021-12-13T14:31:50.295Z,,,,,,,,,,,,,,,,48,,,,,,,,,,,,,347.0550000059593,,response,,,10,E,,Space,keypress(Space),,,,lyrical,-- -- --- ------ ------- --------- ----------- --------<br>--------- -------- --- ------- -- ------- ---- -- ------<br>-- --- -------- -------- ---------- ---- ---- ---- ------<br>-- --------- -- ---- -- --- of --- ------- -- - -----<br>---------- -- -- -- ---- ----- -- ------ -- --- ------<br>-------,182605.90000000596,182603.90000000596,182240.174,182252.90000000596,182256.845,182606.971,,32,of
screen,html.Screen,0_4_1_0_1_33,2021-12-13T14:31:50.630Z,,,,,,,,,,,,,,,,48,,,,,,,,,,,,,332.8289999970293,,response,,,10,E,,Space,keypress(Space),,,,lyrical,-- -- --- ------ ------- --------- ----------- --------<br>--------- -------- --- ------- -- ------- ---- -- ------<br>-- --- -------- -------- ---------- ---- ---- ---- ------<br>-- --------- -- ---- -- --- -- the ------- -- - -----<br>---------- -- -- -- ---- ----- -- ------ -- --- ------<br>-------,182940.60000000894,182939.79999999702,182590.3,182606.20000000298,182606.971,182957.089,,33,the
screen,html.Screen,0_4_1_0_1_34,2021-12-13T14:31:50.982Z,,,,,,,,,,,,,,,,48,,,,,,,,,,,,,334.81100000595325,,response,,,10,E,,Space,keypress(Space),,,,lyrical,-- -- --- ------ ------- --------- ----------- --------<br>--------- -------- --- ------- -- ------- ---- -- ------<br>-- --- -------- -------- ---------- ---- ---- ---- ------<br>-- --------- -- ---- -- --- -- --- country -- - -----<br>---------- -- -- -- ---- ----- -- ------ -- --- ------<br>-------,183292.70000000298,183291.90000000596,182940.418,182940.90000000596,182957.089,183307.198,,34,country
screen,html.Screen,0_4_1_0_1_35,2021-12-13T14:31:51.334Z,,,,,,,,,,,,,,,,48,,,,,,,,,,,,,336.7020000059565,,response,,,10,E,,Space,keypress(Space),,,,lyrical,-- -- --- ------ ------- --------- ----------- --------<br>--------- -------- --- ------- -- ------- ---- -- ------<br>-- --- -------- -------- ---------- ---- ---- ---- ------<br>-- --------- -- ---- -- --- -- --- ------- is - -----<br>---------- -- -- -- ---- ----- -- ------ -- --- ------<br>-------,183644.70000000298,183643.90000000596,183290.527,183293,183307.198,183657.296,,35,is
screen,html.Screen,0_4_1_0_1_36,2021-12-13T14:31:51.694Z,,,,,,,,,,,,,,,,48,,,,,,,,,,,,,347.0039999970177,,response,,,10,E,,Space,keypress(Space),,,,lyrical,-- -- --- ------ ------- --------- ----------- --------<br>--------- -------- --- ------- -- ------- ---- -- ------<br>-- --- -------- -------- ---------- ---- ---- ---- ------<br>-- --------- -- ---- -- --- -- --- ------- -- a -----<br>---------- -- -- -- ---- ----- -- ------ -- --- ------<br>-------,184005,184004.29999999702,183640.625,183644.90000000596,183657.296,184007.29,,36,a
screen,html.Screen,0_4_1_0_1_37,2021-12-13T14:31:52.110Z,,,,,,,,,,,,,,,,48,,,,,,,,,,,,,412.5099999970116,,response,,,10,E,,Space,keypress(Space),,,,lyrical,-- -- --- ------ ------- --------- ----------- --------<br>--------- -------- --- ------- -- ------- ---- -- ------<br>-- --- -------- -------- ---------- ---- ---- ---- ------<br>-- --------- -- ---- -- --- -- --- ------- -- - crime<br>---------- -- -- -- ---- ----- -- ------ -- --- ------<br>-------,184420.60000000894,184419.79999999702,183990.621,184005.29999999702,184007.29,184424.228,,37,crime
screen,html.Screen,0_4_1_0_1_38,2021-12-13T14:31:52.854Z,,,,,,,,,,,,,,,,48,,,,,,,,,,,,,739.6720000059577,,response,,,10,E,,Space,keypress(Space),,,,lyrical,-- -- --- ------ ------- --------- ----------- --------<br>--------- -------- --- ------- -- ------- ---- -- ------<br>-- --- -------- -------- ---------- ---- ---- ---- ------<br>-- --------- -- ---- -- --- -- --- ------- -- - -----<br>punishable -- -- -- ---- ----- -- ------ -- --- ------<br>-------,185164.90000000596,185163.90000000596,184407.556,184420.79999999702,184424.228,185174.394,,38,punishable
screen,html.Screen,0_4_1_0_1_39,2021-12-13T14:31:53.278Z,,,,,,,,,,,,,,,,48,,,,,,,,,,,,,413.50600000596023,,response,,,10,E,,Space,keypress(Space),,,,lyrical,-- -- --- ------ ------- --------- ----------- --------<br>--------- -------- --- ------- -- ------- ---- -- ------<br>-- --- -------- -------- ---------- ---- ---- ---- ------<br>-- --------- -- ---- -- --- -- --- ------- -- - -----<br>---------- by -- -- ---- ----- -- ------ -- --- ------<br>-------,185588.79999999702,185587.90000000596,185157.723,185165,185174.394,185591.169,,39,by
screen,html.Screen,0_4_1_0_1_40,2021-12-13T14:31:53.734Z,,,,,,,,,,,,,,,,48,,,,,,,,,,,,,452.73100000596605,,response,,,10,E,,Space,keypress(Space),,,,lyrical,-- -- --- ------ ------- --------- ----------- --------<br>--------- -------- --- ------- -- ------- ---- -- ------<br>-- --- -------- -------- ---------- ---- ---- ---- ------<br>-- --------- -- ---- -- --- -- --- ------- -- - -----<br>---------- -- up -- ---- ----- -- ------ -- --- ------<br>-------,186044.70000000298,186043.90000000596,185574.498,185588.90000000596,185591.169,186058.018,,40,up
screen,html.Screen,0_4_1_0_1_41,2021-12-13T14:31:54.158Z,,,,,,,,,,,,,,,,48,,,,,,,,,,,,,409.7819999970088,,response,,,10,E,,Space,keypress(Space),,,,lyrical,-- -- --- ------ ------- --------- ----------- --------<br>--------- -------- --- ------- -- ------- ---- -- ------<br>-- --- -------- -------- ---------- ---- ---- ---- ------<br>-- --------- -- ---- -- --- -- --- ------- -- - -----<br>---------- -- -- to ---- ----- -- ------ -- --- ------<br>-------,186468.60000000894,186467.79999999702,186041.347,186045,186058.018,186474.806,,41,to
screen,html.Screen,0_4_1_0_1_42,2021-12-13T14:31:54.550Z,,,,,,,,,,,,,,,,48,,,,,,,,,,,,,384.99399999700836,,response,,,10,E,,Space,keypress(Space),,,,lyrical,-- -- --- ------ ------- --------- ----------- --------<br>--------- -------- --- ------- -- ------- ---- -- ------<br>-- --- -------- -------- ---------- ---- ---- ---- ------<br>-- --------- -- ---- -- --- -- --- ------- -- - -----<br>---------- -- -- -- five ----- -- ------ -- --- ------<br>-------,186860.60000000894,186859.79999999702,186458.135,186468.79999999702,186474.806,186874.916,,42,five
screen,html.Screen,0_4_1_0_1_43,2021-12-13T14:31:54.902Z,,,,,,,,,,,,,,,,48,,,,,,,,,,,,,336.88399999702233,,response,,,10,E,,Space,keypress(Space),,,,lyrical,-- -- --- ------ ------- --------- ----------- --------<br>--------- -------- --- ------- -- ------- ---- -- ------<br>-- --- -------- -------- ---------- ---- ---- ---- ------<br>-- --------- -- ---- -- --- -- --- ------- -- - -----<br>---------- -- -- -- ---- years -- ------ -- --- ------<br>-------,187212.70000000298,187211.79999999702,186858.245,186860.79999999702,186874.916,187224.892,,43,years
screen,html.Screen,0_4_1_0_1_44,2021-12-13T14:31:55.254Z,,,,,,,,,,,,,,,,48,,,,,,,,,,,,,339.0080000059679,,response,,,10,E,,Space,keypress(Space),,,,lyrical,-- -- --- ------ ------- --------- ----------- --------<br>--------- -------- --- ------- -- ------- ---- -- ------<br>-- --- -------- -------- ---------- ---- ---- ---- ------<br>-- --------- -- ---- -- --- -- --- ------- -- - -----<br>---------- -- -- -- ---- ----- in ------ -- --- ------<br>-------,187564.70000000298,187563.90000000596,187208.223,187212.90000000596,187224.892,187575.205,,44,in
screen,html.Screen,0_4_1_0_1_45,2021-12-13T14:31:55.670Z,,,,,,,,,,,,,,,,48,,,,,,,,,,,,,404.49500000299304,,response,,,10,E,,Space,keypress(Space),,,,lyrical,-- -- --- ------ ------- --------- ----------- --------<br>--------- -------- --- ------- -- ------- ---- -- ------<br>-- --- -------- -------- ---------- ---- ---- ---- ------<br>-- --------- -- ---- -- --- -- --- ------- -- - -----<br>---------- -- -- -- ---- ----- -- prison -- --- ------<br>-------,187980.60000000894,187979.70000000298,187558.532,187564.90000000596,187575.205,187991.917,,45,prison
screen,html.Screen,0_4_1_0_1_46,2021-12-13T14:31:56.062Z,,,,,,,,,,,,,,,,48,,,,,,,,,,,,,379.88299999703304,,response,,,10,E,,Space,keypress(Space),,,,lyrical,-- -- --- ------ ------- --------- ----------- --------<br>--------- -------- --- ------- -- ------- ---- -- ------<br>-- --- -------- -------- ---------- ---- ---- ---- ------<br>-- --------- -- ---- -- --- -- --- ------- -- - -----<br>---------- -- -- -- ---- ----- -- ------ in --- ------<br>-------,188372.60000000894,188371.79999999702,187975.246,187980.79999999702,187991.917,188375.366,,46,in
screen,html.Screen,0_4_1_0_1_47,2021-12-13T14:31:56.526Z,,,,,,,,,,,,,,,,48,,,,,,,,,,,,,460.5340000059514,,response,,,10,E,,Space,keypress(Space),,,,lyrical,-- -- --- ------ ------- --------- ----------- --------<br>--------- -------- --- ------- -- ------- ---- -- ------<br>-- --- -------- -------- ---------- ---- ---- ---- ------<br>-- --------- -- ---- -- --- -- --- ------- -- - -----<br>---------- -- -- -- ---- ----- -- ------ -- the ------<br>-------,188836.70000000298,188835.90000000596,188358.695,188372.90000000596,188375.366,188842.036,,47,the
screen,html.Screen,0_4_1_0_1_48,2021-12-13T14:31:56.862Z,,,,,,,,,,,,,,,,48,,,,,,,,,,,,,329.763999997027,,response,,,10,E,,Space,keypress(Space),,,,lyrical,-- -- --- ------ ------- --------- ----------- --------<br>--------- -------- --- ------- -- ------- ---- -- ------<br>-- --- -------- -------- ---------- ---- ---- ---- ------<br>-- --------- -- ---- -- --- -- --- ------- -- - -----<br>---------- -- -- -- ---- ----- -- ------ -- --- United<br>-------,189172.60000000894,189171.79999999702,188825.367,188836.90000000596,188842.036,189175.584,,48,United
screen,html.Screen,0_4_1_0_1_49,2021-12-13T14:31:57.430Z,,,,,,,,,,,,,,,,48,,,,,,,,,,,,,564.1160000029777,,response,,,10,E,,Space,keypress(Space),,,,lyrical,-- -- --- ------ ------- --------- ----------- --------<br>--------- -------- --- ------- -- ------- ---- -- ------<br>-- --- -------- -------- ---------- ---- ---- ---- ------<br>-- --------- -- ---- -- --- -- --- ------- -- - -----<br>---------- -- -- -- ---- ----- -- ------ -- --- ------<br>States.,189740.60000000894,189739.70000000298,189158.913,189172.79999999702,189175.584,189742.493,,49,States.
Item 10,flow.Loop,0_4_1_0_1,2021-12-13T14:31:57.430Z,,,,,,,,,,,,,,,,,,,,,,,,,,,,,27788.99000000299,,completion,,,,,,,,,,,,,189740.90000000596,189739.70000000298,161934.039,161936.29999999702,161950.71,189742.493,,,
Question 1,html.Screen,0_4_1_0_2,2021-12-13T14:32:00.841Z,,,,,,,,,,,,,,,,,,,,,,,,,,,false,TRUE,3408.5070000000123,,response,,,10,E,,FALSE,click #choice-2,,,,lyrical,,193152.10000000894,193151,189725.821,189741.20000000298,189742.493,193160.172,,,
Question 2,html.Screen,0_4_1_0_3,2021-12-13T14:32:05.951Z,,,,,,,,,,,,,,,,,,,,,,,,,,,true,TRUE,5100.928000008949,,response,,,10,E,,TRUE,click #choice-1,,,,lyrical,,198262.29999999702,198261.10000000894,193143.5,193152.29999999702,193160.172,198278.544,,,
Item 10,flow.Sequence,0_4_1_0,2021-12-13T14:32:05.952Z,,,,,,,,,,,,,,,,,,,,,,,,,,,,,43312.787000008946,,completion,,,,,,,,,,,,,198262.70000000298,198261.10000000894,154931.642,154933.20000000298,154948.313,198278.544,,,
Holding screen,html.Screen,0_4_1_1_0,2021-12-13T14:32:12.954Z,,,,,,,,,,,,,,,,,,,,,,,,,,,,,7001.8429999999935,,timeout,,,,,,,,,,,,,205264.79999999702,205263.716,198261.861,198262.90000000596,198278.544,205280.387,,,
screen,html.Screen,0_4_1_1_1_0,2021-12-13T14:32:14.582Z,,,,,,,,,,,,,,,,11,,,,,,,,,,,,,1611.3130000029923,,response,,,4,E,,Space,keypress(Space),,,,lyrical,Known -- ---- --- -- --- -------- ------------ ---------- --<br>- ------- ------ --------- -- ------------ -- --- ---- -----<br>------ ---- ---- ------ ------ ------- --- ----- ---------<br>---- --- -------- -------- --- --- -- ------- --- --- -----<br>-- --- ------ ------- --- --- -------- ---- --------- --<br>---------- -- -------- ----------------,206892.60000000894,206891.70000000298,205263.716,205265.29999999702,205280.387,206897.523,,0,Known
screen,html.Screen,0_4_1_1_1_1,2021-12-13T14:32:15.078Z,,,,,,,,,,,,,,,,11,,,,,,,,,,,,,490.0770000089542,,response,,,4,E,,Space,keypress(Space),,,,lyrical,----- as ---- --- -- --- -------- ------------ ---------- --<br>- ------- ------ --------- -- ------------ -- --- ---- -----<br>------ ---- ---- ------ ------ ------- --- ----- ---------<br>---- --- -------- -------- --- --- -- ------- --- --- -----<br>-- --- ------ ------- --- --- -------- ---- --------- --<br>---------- -- -------- ----------------,207388.40000000596,207387.60000000894,206880.852,206892.90000000596,206897.523,207397.696,,1,as
screen,html.Screen,0_4_1_1_1_2,2021-12-13T14:32:15.510Z,,,,,,,,,,,,,,,,11,,,,,,,,,,,,,421.8040000000037,,response,,,4,E,,Space,keypress(Space),,,,lyrical,----- -- Rapa --- -- --- -------- ------------ ---------- --<br>- ------- ------ --------- -- ------------ -- --- ---- -----<br>------ ---- ---- ------ ------ ------- --- ----- ---------<br>---- --- -------- -------- --- --- -- ------- --- --- -----<br>-- --- ------ ------- --- --- -------- ---- --------- --<br>---------- -- -------- ----------------,207820.40000000596,207819.5,207381.025,207388.70000000298,207397.696,207831.184,,2,Rapa
screen,html.Screen,0_4_1_1_1_3,2021-12-13T14:32:16.326Z,,,,,,,,,,,,,,,,11,,,,,,,,,,,,,804.8159999999916,,response,,,4,E,,Space,keypress(Space),,,,lyrical,----- -- ---- Nui -- --- -------- ------------ ---------- --<br>- ------- ------ --------- -- ------------ -- --- ---- -----<br>------ ---- ---- ------ ------ ------- --- ----- ---------<br>---- --- -------- -------- --- --- -- ------- --- --- -----<br>-- --- ------ ------- --- --- -------- ---- --------- --<br>---------- -- -------- ----------------,208636.79999999702,208636,207814.513,207820.60000000894,207831.184,208648.094,,3,Nui
screen,html.Screen,0_4_1_1_1_4,2021-12-13T14:32:16.926Z,,,,,,,,,,,,,,,,11,,,,,,,,,,,,,587.5060000089288,,response,,,4,E,,Space,keypress(Space),,,,lyrical,----- -- ---- --- to --- -------- ------------ ---------- --<br>- ------- ------ --------- -- ------------ -- --- ---- -----<br>------ ---- ---- ------ ------ ------- --- ----- ---------<br>---- --- -------- -------- --- --- -- ------- --- --- -----<br>-- --- ------ ------- --- --- -------- ---- --------- --<br>---------- -- -------- ----------------,209236.40000000596,209235.60000000894,208631.423,208637.10000000894,208648.094,209248.375,,4,to
