sender,sender_type,sender_id,timestamp,meta,,Blues,Classical,Country,Dance,Electronic,Folk,Gospel,Hip-Hop,Jazz,Latin,Musical/Film,New-age,Pop,Provo_ID,R&B,Rap,Reggae,Religious,Rock,Soul,Swing,Traditional,age,artist_name,correct,correctResponse,distraction,duration,education,ended_on,familiarity,gender,item,list,music_frequency,offensiveness,pleasantness,preference,response,response_action,snippet_file,song_name,song_rating,sound,text,time_commit,time_end,time_render,time_run,time_show,time_switch,url,word,word_ID
Instructions,html.Page,0_0,2021-12-03T12:37:59.738Z,"{""labjs_version"":""20.2.3"",""labjs_build"":{""flavor"":""production"",""commit"":""7ea907d66ca8aeef8054924ca5d82ffbe11e34e5""},""location"":""https://run.pavlovia.org/mvasilev/lab_music_a/"",""userAgent"":""Mozilla/5.0 (Windows NT 6.1; Win64; x64) AppleWebKit/537.36 (KHTML, like Gecko) Chrome/96.0.4664.45 Safari/537.36"",""platform"":""Win32"",""language"":""en-US"",""locale"":""en-US"",""timeZone"":""Europe/London"",""timezoneOffset"":0,""screen_width"":1920,""screen_height"":1080,""scroll_width"":1920,""scroll_height"":959,""window_innerWidth"":1920,""window_innerHeight"":1007,""devicePixelRatio"":1}",,,,,,,,,,,,,,,,,,,,,,,,,,,,,28758.10799998808,,form submission,,,,,,,,,,,,,,,,46824.89999999106,46823.69999998808,18032.252,18047.59999999404,18065.592,46823.858,{},,
Headphones,html.Page,0_1,2021-12-03T12:38:02.924Z,,,,,,,,,,,,,,,,,,,,,,,,,,,,,,3186.642,,form submission,,,,,,,,,,,,,,,,50010.89999999106,50010.5,46807.229,46825.59999999404,46823.858,50025.27,,,
Holding screen,html.Screen,0_2_0_0,2021-12-03T12:38:12.933Z,,,,,,,,,,,,,,,,,,,,,,,,,,,,,,10002.275000000001,,timeout,,,,,,,,,,,,,,,,60017.29999999702,60010.875,50008.595,50011.39999999106,50025.27,60027.545,,,
screen,html.Screen,0_2_0_1_0,2021-12-03T12:38:14.606Z,,,,,,,,,,,,,,,,53,,,,,,,,,,,,,,1661.354999991061,,response,,,99,,,,,,Space,keypress(Space),,,,,When -- ----- -- ------ - ------- --- ----------<br>------------- ------ ------ ---- ---- ------- ----- -- ----<br>-------- ------- -- ---------- --- - --- ----- ----- ----<br>---- --- --- ----- --- ---- ---- ------- ----- ---- -------<br>--- --- -- ----- -- --- ---- -- --- ---- -- ------ ------<br>--- ----- -- ----,61690.29999999702,61688.89999999106,60010.875,60017.69999998808,60027.545,61694.833,,0,When
screen,html.Screen,0_2_0_1_1,2021-12-03T12:38:15.262Z,,,,,,,,,,,,,,,,53,,,,,,,,,,,,,,650.0669999910606,,response,,,99,,,,,,Space,keypress(Space),,,,,---- it ----- -- ------ - ------- --- ----------<br>------------- ------ ------ ---- ---- ------- ----- -- ----<br>-------- ------- -- ---------- --- - --- ----- ----- ----<br>---- --- --- ----- --- ---- ---- ------- ----- ---- -------<br>--- --- -- ----- -- --- ---- -- --- ---- -- ------ ------<br>--- ----- -- ----,62345.79999999702,62344.89999999106,61678.162,61690.59999999404,61694.833,62361.594,,1,it
screen,html.Screen,0_2_0_1_2,2021-12-03T12:38:15.950Z,,,,,,,,,,,,,,,,53,,,,,,,,,,,,,,671.1059999880817,,response,,,99,,,,,,Space,keypress(Space),,,,,---- -- comes -- ------ - ------- --- ----------<br>------------- ------ ------ ---- ---- ------- ----- -- ----<br>-------- ------- -- ---------- --- - --- ----- ----- ----<br>---- --- --- ----- --- ---- ---- ------- ----- ---- -------<br>--- --- -- ----- -- --- ---- -- --- ---- -- ------ ------<br>--- ----- -- ----,63033.69999998808,63032.69999998808,62344.924,62346,62361.594,63045.145,,2,comes
screen,html.Screen,0_2_0_1_3,2021-12-03T12:38:16.502Z,,,,,,,,,,,,,,,,53,,,,,,,,,,,,,,539.654999997023,,response,,,99,,,,,,Space,keypress(Space),,,,,---- -- ----- to ------ - ------- --- ----------<br>------------- ------ ------ ---- ---- ------- ----- -- ----<br>-------- ------- -- ---------- --- - --- ----- ----- ----<br>---- --- --- ----- --- ---- ---- ------- ----- ---- -------<br>--- --- -- ----- -- --- ---- -- --- ---- -- ------ ------<br>--- ----- -- ----,63585.69999998808,63584.79999999702,63028.475,63033.89999999106,63045.145,63595.304,,3,to
screen,html.Screen,0_2_0_1_4,2021-12-03T12:38:17.374Z,,,,,,,,,,,,,,,,53,,,,,,,,,,,,,,861.4959999970233,,response,,,99,,,,,,Space,keypress(Space),,,,,---- -- ----- -- having - ------- --- ----------<br>------------- ------ ------ ---- ---- ------- ----- -- ----<br>-------- ------- -- ---------- --- - --- ----- ----- ----<br>---- --- --- ----- --- ---- ---- ------- ----- ---- -------<br>--- --- -- ----- -- --- ---- -- --- ---- -- ------ ------<br>--- ----- -- ----,64458,64456.79999999702,63578.634,63586.19999998808,63595.304,64462.149,,4,having
screen,html.Screen,0_2_0_1_5,2021-12-03T12:38:17.966Z,,,,,,,,,,,,,,,,53,,,,,,,,,,,,,,586.6509999970222,,response,,,99,,,,,,Space,keypress(Space),,,,,---- -- ----- -- ------ a ------- --- ----------<br>------------- ------ ------ ---- ---- ------- ----- -- ----<br>-------- ------- -- ---------- --- - --- ----- ----- ----<br>---- --- --- ----- --- ---- ---- ------- ----- ---- -------<br>--- --- -- ----- -- --- ---- -- --- ---- -- ------ ------<br>--- ----- -- ----,65049.79999999702,65048.79999999702,64445.479,64458.19999998808,64462.149,65062.308,,5,a
screen,html.Screen,0_2_0_1_6,2021-12-03T12:38:18.638Z,,,,,,,,,,,,,,,,53,,,,,,,,,,,,,,658.3919999880818,,response,,,99,,,,,,Space,keypress(Space),,,,,---- -- ----- -- ------ - lasting --- ----------<br>------------- ------ ------ ---- ---- ------- ----- -- ----<br>-------- ------- -- ---------- --- - --- ----- ----- ----<br>---- --- --- ----- --- ---- ---- ------- ----- ---- -------<br>--- --- -- ----- -- --- ---- -- --- ---- -- ------ ------<br>--- ----- -- ----,65721.69999998808,65720.69999998808,65045.638,65050.29999999702,65062.308,65729.272,,6,lasting
screen,html.Screen,0_2_0_1_7,2021-12-03T12:38:19.326Z,,,,,,,,,,,,,,,,53,,,,,,,,,,,,,,679.4279999880819,,response,,,99,,,,,,Space,keypress(Space),,,,,---- -- ----- -- ------ - ------- and ----------<br>------------- ------ ------ ---- ---- ------- ----- -- ----<br>-------- ------- -- ---------- --- - --- ----- ----- ----<br>---- --- --- ----- --- ---- ---- ------- ----- ---- -------<br>--- --- -- ----- -- --- ---- -- --- ---- -- ------ ------<br>--- ----- -- ----,66409.59999999404,66408.69999998808,65712.601,65722,65729.272,66412.686,,7,and
screen,html.Screen,0_2_0_1_8,2021-12-03T12:38:20.134Z,,,,,,,,,,,,,,,,53,,,,,,,,,,,,,,803.913999994038,,response,,,99,,,,,,Space,keypress(Space),,,,,---- -- ----- -- ------ - ------- --- fulfilling<br>------------- ------ ------ ---- ---- ------- ----- -- ----<br>-------- ------- -- ---------- --- - --- ----- ----- ----<br>---- --- --- ----- --- ---- ---- ------- ----- ---- -------<br>--- --- -- ----- -- --- ---- -- --- ---- -- ------ ------<br>--- ----- -- ----,67217.69999998808,67216.59999999404,66396.016,66409.89999999106,66412.686,67229.66,,8,fulfilling
screen,html.Screen,0_2_0_1_9,2021-12-03T12:38:20.926Z,,,,,,,,,,,,,,,,53,,,,,,,,,,,,,,778.939999994036,,response,,,99,,,,,,Space,keypress(Space),,,,,"---- -- ----- -- ------ - ------- --- ----------<br>relationship, ------ ------ ---- ---- ------- ----- -- ----<br>-------- ------- -- ---------- --- - --- ----- ----- ----<br>---- --- --- ----- --- ---- ---- ------- ----- ---- -------<br>--- --- -- ----- -- --- ---- -- --- ---- -- ------ ------<br>--- ----- -- ----",68009.59999999404,68008.59999999404,67212.989,67218,67229.66,68013.097,,9,"relationship,"
screen,html.Screen,0_2_0_1_10,2021-12-03T12:38:21.654Z,,,,,,,,,,,,,,,,53,,,,,,,,,,,,,,723.4030000000057,,response,,,99,,,,,,Space,keypress(Space),,,,,---- -- ----- -- ------ - ------- --- ----------<br>------------- common ------ ---- ---- ------- ----- -- ----<br>-------- ------- -- ---------- --- - --- ----- ----- ----<br>---- --- --- ----- --- ---- ---- ------- ----- ---- -------<br>--- --- -- ----- -- --- ---- -- --- ---- -- ------ ------<br>--- ----- -- ----,68737.39999999106,68736.5,67996.427,68009.79999999702,68013.097,68746.661,,10,common
screen,html.Screen,0_2_0_1_11,2021-12-03T12:38:22.318Z,,,,,,,,,,,,,,,,53,,,,,,,,,,,,,,653.7389999910665,,response,,,99,,,,,,Space,keypress(Space),,,,,---- -- ----- -- ------ - ------- --- ----------<br>------------- ------ wisdom ---- ---- ------- ----- -- ----<br>-------- ------- -- ---------- --- - --- ----- ----- ----<br>---- --- --- ----- --- ---- ---- ------- ----- ---- -------<br>--- --- -- ----- -- --- ---- -- --- ---- -- ------ ------<br>--- ----- -- ----,69401.39999999106,69400.39999999106,68729.991,68737.69999998808,68746.661,69413.465,,11,wisdom
screen,html.Screen,0_2_0_1_12,2021-12-03T12:38:22.925Z,,,,,,,,,,,,,,,,53,,,,,,,,,,,,,,594.9349999910628,,response,,,99,,,,,,Space,keypress(Space),,,,,---- -- ----- -- ------ - ------- --- ----------<br>------------- ------ ------ says ---- ------- ----- -- ----<br>-------- ------- -- ---------- --- - --- ----- ----- ----<br>---- --- --- ----- --- ---- ---- ------- ----- ---- -------<br>--- --- -- ----- -- --- ---- -- --- ---- -- ------ ------<br>--- ----- -- ----,70009.29999999702,70008.39999999106,69396.795,69401.69999998808,69413.465,70013.673,,12,says
screen,html.Screen,0_2_0_1_13,2021-12-03T12:38:23.549Z,,,,,,,,,,,,,,,,53,,,,,,,,,,,,,,618.7269999910641,,response,,,99,,,,,,Space,keypress(Space),,,,,---- -- ----- -- ------ - ------- --- ----------<br>------------- ------ ------ ---- that ------- ----- -- ----<br>-------- ------- -- ---------- --- - --- ----- ----- ----<br>---- --- --- ----- --- ---- ---- ------- ----- ---- -------<br>--- --- -- ----- -- --- ---- -- --- ---- -- ------ ------<br>--- ----- -- ----,70633.19999998808,70632.39999999106,69997.003,70009.59999999404,70013.673,70647.171,,13,that
screen,html.Screen,0_2_0_1_14,2021-12-03T12:38:24.221Z,,,,,,,,,,,,,,,,53,,,,,,,,,,,,,,657.2289999910572,,response,,,99,,,,,,Space,keypress(Space),,,,,---- -- ----- -- ------ - ------- --- ----------<br>------------- ------ ------ ---- ---- feeling ----- -- ----<br>-------- ------- -- ---------- --- - --- ----- ----- ----<br>---- --- --- ----- --- ---- ---- ------- ----- ---- -------<br>--- --- -- ----- -- --- ---- -- --- ---- -- ------ ------<br>--- ----- -- ----,71305.09999999404,71304.39999999106,70630.501,70633.5,70647.171,71314.01,,14,feeling
screen,html.Screen,0_2_0_1_15,2021-12-03T12:38:24.885Z,,,,,,,,,,,,,,,,53,,,,,,,,,,,,,,654.3899999910645,,response,,,99,,,,,,Space,keypress(Space),,,,,---- -- ----- -- ------ - ------- --- ----------<br>------------- ------ ------ ---- ---- ------- close -- ----<br>-------- ------- -- ---------- --- - --- ----- ----- ----<br>---- --- --- ----- --- ---- ---- ------- ----- ---- -------<br>--- --- -- ----- -- --- ---- -- --- ---- -- ------ ------<br>--- ----- -- ----,71969.19999998808,71968.39999999106,71297.34,71305.39999999106,71314.01,71980.814,,15,close
screen,html.Screen,0_2_0_1_16,2021-12-03T12:38:25.517Z,,,,,,,,,,,,,,,,53,,,,,,,,,,,,,,619.5859999910608,,response,,,99,,,,,,Space,keypress(Space),,,,,---- -- ----- -- ------ - ------- --- ----------<br>------------- ------ ------ ---- ---- ------- ----- to ----<br>-------- ------- -- ---------- --- - --- ----- ----- ----<br>---- --- --- ----- --- ---- ---- ------- ----- ---- -------<br>--- --- -- ----- -- --- ---- -- --- ---- -- ------ ------<br>--- ----- -- ----,72601.19999998808,72600.39999999106,71964.144,71969.39999999106,71980.814,72614.422,,16,to
screen,html.Screen,0_2_0_1_17,2021-12-03T12:38:26.197Z,,,,,,,,,,,,,,,,53,,,,,,,,,,,,,,665.8779999970138,,response,,,99,,,,,,Space,keypress(Space),,,,,---- -- ----- -- ------ - ------- --- ----------<br>------------- ------ ------ ---- ---- ------- ----- -- your<br>-------- ------- -- ---------- --- - --- ----- ----- ----<br>---- --- --- ----- --- ---- ---- ------- ----- ---- -------<br>--- --- -- ----- -- --- ---- -- --- ---- -- ------ ------<br>--- ----- -- ----,73281.09999999404,73280.29999999702,72597.751,72601.39999999106,72614.422,73297.868,,17,your
screen,html.Screen,0_2_0_1_18,2021-12-03T12:38:26.941Z,,,,,,,,,,,,,,,,53,,,,,,,,,,,,,,726.4319999970176,,response,,,99,,,,,,Space,keypress(Space),,,,,---- -- ----- -- ------ - ------- --- ----------<br>------------- ------ ------ ---- ---- ------- ----- -- ----<br>romantic ------- -- ---------- --- - --- ----- ----- ----<br>---- --- --- ----- --- ---- ---- ------- ----- ---- -------<br>--- --- -- ----- -- --- ---- -- --- ---- -- ------ ------<br>--- ----- -- ----,74025.09999999404,74024.29999999702,73281.198,73281.39999999106,73297.868,74031.402,,18,romantic
screen,html.Screen,0_2_0_1_19,2021-12-03T12:38:27.589Z,,,,,,,,,,,,,,,,53,,,,,,,,,,,,,,640.8979999970179,,response,,,99,,,,,,Space,keypress(Space),,,,,---- -- ----- -- ------ - ------- --- ----------<br>------------- ------ ------ ---- ---- ------- ----- -- ----<br>-------- partner -- ---------- --- - --- ----- ----- ----<br>---- --- --- ----- --- ---- ---- ------- ----- ---- -------<br>--- --- -- ----- -- --- ---- -- --- ---- -- ------ ------<br>--- ----- -- ----,74673.09999999404,74672.29999999702,74014.732,74025.39999999106,74031.402,74681.578,,19,partner
screen,html.Screen,0_2_0_1_20,2021-12-03T12:38:28.198Z,,,,,,,,,,,,,,,,53,,,,,,,,,,,,,,599.0219999940455,,response,,,99,,,,,,Space,keypress(Space),,,,,---- -- ----- -- ------ - ------- --- ----------<br>------------- ------ ------ ---- ---- ------- ----- -- ----<br>-------- ------- is ---------- --- - --- ----- ----- ----<br>---- --- --- ----- --- ---- ---- ------- ----- ---- -------<br>--- --- -- ----- -- --- ---- -- --- ---- -- ------ ------<br>--- ----- -- ----,75281.5,75280.59999999404,74664.908,74673.39999999106,74681.578,75298.342,,20,is
screen,html.Screen,0_2_0_1_21,2021-12-03T12:38:28.965Z,,,,,,,,,,,,,,,,53,,,,,,,,,,,,,,749.8579999880749,,response,,,99,,,,,,Space,keypress(Space),,,,,---- -- ----- -- ------ - ------- --- ----------<br>------------- ------ ------ ---- ---- ------- ----- -- ----<br>-------- ------- -- paramount. --- - --- ----- ----- ----<br>---- --- --- ----- --- ---- ---- ------- ----- ---- -------<br>--- --- -- ----- -- --- ---- -- --- ---- -- ------ ------<br>--- ----- -- ----,76049.09999999404,76048.19999998808,75281.672,75281.69999998808,75298.342,76065.331,,21,paramount.
screen,html.Screen,0_2_0_1_22,2021-12-03T12:38:29.933Z,,,,,,,,,,,,,,,,53,,,,,,,,,,,,,,950.8689999880735,,response,,,99,,,,,,Space,keypress(Space),,,,,---- -- ----- -- ------ - ------- --- ----------<br>------------- ------ ------ ---- ---- ------- ----- -- ----<br>-------- ------- -- ---------- But - --- ----- ----- ----<br>---- --- --- ----- --- ---- ---- ------- ----- ---- -------<br>--- --- -- ----- -- --- ---- -- --- ---- -- ------ ------<br>--- ----- -- ----,77017,77016.19999998808,76048.66,76049.5,76065.331,77032.179,,22,But
screen,html.Screen,0_2_0_1_23,2021-12-03T12:38:30.493Z,,,,,,,,,,,,,,,,53,,,,,,,,,,,,,,544.0209999880753,,response,,,99,,,,,,Space,keypress(Space),,,,,---- -- ----- -- ------ - ------- --- ----------<br>------------- ------ ------ ---- ---- ------- ----- -- ----<br>-------- ------- -- ---------- --- a --- ----- ----- ----<br>---- --- --- ----- --- ---- ---- ------- ----- ---- -------<br>--- --- -- ----- -- --- ---- -- --- ---- -- ------ ------<br>--- ----- -- ----,77576.89999999106,77576.19999998808,77015.509,77017.19999998808,77032.179,77582.349,,23,a
screen,html.Screen,0_2_0_1_24,2021-12-03T12:38:31.093Z,,,,,,,,,,,,,,,,53,,,,,,,,,,,,,,593.7509999940376,,response,,,99,,,,,,Space,keypress(Space),,,,,---- -- ----- -- ------ - ------- --- ----------<br>------------- ------ ------ ---- ---- ------- ----- -- ----<br>-------- ------- -- ---------- --- - new ----- ----- ----<br>---- --- --- ----- --- ---- ---- ------- ----- ---- -------<br>--- --- -- ----- -- --- ---- -- --- ---- -- ------ ------<br>--- ----- -- ----,78176.89999999106,78176.09999999404,77565.679,77577.19999998808,77582.349,78182.505,,24,new
screen,html.Screen,0_2_0_1_25,2021-12-03T12:38:31.693Z,,,,,,,,,,,,,,,,53,,,,,,,,,,,,,,593.5949999940349,,response,,,99,,,,,,Space,keypress(Space),,,,,---- -- ----- -- ------ - ------- --- ----------<br>------------- ------ ------ ---- ---- ------- ----- -- ----<br>-------- ------- -- ---------- --- - --- study ----- ----<br>---- --- --- ----- --- ---- ---- ------- ----- ---- -------<br>--- --- -- ----- -- --- ---- -- --- ---- -- ------ ------<br>--- ----- -- ----,78776.89999999106,78776.09999999404,78165.835,78177.09999999404,78182.505,78782.74,,25,study
screen,html.Screen,0_2_0_1_26,2021-12-03T12:38:32.221Z,,,,,,,,,,,,,,,,53,,,,,,,,,,,,,,521.2599999999948,,response,,,99,,,,,,Space,keypress(Space),,,,,---- -- ----- -- ------ - ------- --- ----------<br>------------- ------ ------ ---- ---- ------- ----- -- ----<br>-------- ------- -- ---------- --- - --- ----- finds ----<br>---- --- --- ----- --- ---- ---- ------- ----- ---- -------<br>--- --- -- ----- -- --- ---- -- --- ---- -- ------ ------<br>--- ----- -- ----,79304.79999999702,79304,78766.069,78777.09999999404,78782.74,79316.049,,26,finds
screen,html.Screen,0_2_0_1_27,2021-12-03T12:38:32.797Z,,,,,,,,,,,,,,,,53,,,,,,,,,,,,,,564.0509999940405,,response,,,99,,,,,,Space,keypress(Space),,,,,---- -- ----- -- ------ - ------- --- ----------<br>------------- ------ ------ ---- ---- ------- ----- -- ----<br>-------- ------- -- ---------- --- - --- ----- ----- that<br>---- --- --- ----- --- ---- ---- ------- ----- ---- -------<br>--- --- -- ----- -- --- ---- -- --- ---- -- ------ ------<br>--- ----- -- ----,79880.89999999106,79880.09999999404,79299.38,79305.09999999404,79316.049,79882.993,,27,that
screen,html.Screen,0_2_0_1_28,2021-12-03T12:38:33.429Z,,,,,,,,,,,,,,,,53,,,,,,,,,,,,,,629.0069999999978,,response,,,99,,,,,,Space,keypress(Space),,,,,---- -- ----- -- ------ - ------- --- ----------<br>------------- ------ ------ ---- ---- ------- ----- -- ----<br>-------- ------- -- ---------- --- - --- ----- ----- ----<br>it's --- --- ----- --- ---- ---- ------- ----- ---- -------<br>--- --- -- ----- -- --- ---- -- --- ---- -- ------ ------<br>--- ----- -- ----,80512.89999999106,80512,79866.322,79881.09999999404,79882.993,80516.391,,28,it's
screen,html.Screen,0_2_0_1_29,2021-12-03T12:38:34.053Z,,,,,,,,,,,,,,,,53,,,,,,,,,,,,,,619.6089999999967,,response,,,99,,,,,,Space,keypress(Space),,,,,---- -- ----- -- ------ - ------- --- ----------<br>------------- ------ ------ ---- ---- ------- ----- -- ----<br>-------- ------- -- ---------- --- - --- ----- ----- ----<br>---- not --- ----- --- ---- ---- ------- ----- ---- -------<br>--- --- -- ----- -- --- ---- -- --- ---- -- ------ ------<br>--- ----- -- ----,81136.79999999702,81136,80499.721,80513.09999999404,80516.391,81150.087,,29,not
screen,html.Screen,0_2_0_1_30,2021-12-03T12:38:34.605Z,,,,,,,,,,,,,,,,53,,,,,,,,,,,,,,537.9130000000005,,response,,,99,,,,,,Space,keypress(Space),,,,,---- -- ----- -- ------ - ------- --- ----------<br>------------- ------ ------ ---- ---- ------- ----- -- ----<br>-------- ------- -- ---------- --- - --- ----- ----- ----<br>---- --- how ----- --- ---- ---- ------- ----- ---- -------<br>--- --- -- ----- -- --- ---- -- --- ---- -- ------ ------<br>--- ----- -- ----,81688.79999999702,81688,81133.415,81137.09999999404,81150.087,81700.062,,30,how
screen,html.Screen,0_2_0_1_31,2021-12-03T12:38:35.077Z,,,,,,,,,,,,,,,,53,,,,,,,,,,,,,,459.93799999999464,,response,,,99,,,,,,Space,keypress(Space),,,,,---- -- ----- -- ------ - ------- --- ----------<br>------------- ------ ------ ---- ---- ------- ----- -- ----<br>-------- ------- -- ---------- --- - --- ----- ----- ----<br>---- --- --- close --- ---- ---- ------- ----- ---- -------<br>--- --- -- ----- -- --- ---- -- --- ---- -- ------ ------<br>--- ----- -- ----,82160.69999998808,82160,81683.392,81689,81700.062,82166.957,,31,close
screen,html.Screen,0_2_0_1_32,2021-12-03T12:38:35.565Z,,,,,,,,,,,,,,,,53,,,,,,,,,,,,,,480.8429999970249,,response,,,99,,,,,,Space,keypress(Space),,,,,---- -- ----- -- ------ - ------- --- ----------<br>------------- ------ ------ ---- ---- ------- ----- -- ----<br>-------- ------- -- ---------- --- - --- ----- ----- ----<br>---- --- --- ----- you ---- ---- ------- ----- ---- -------<br>--- --- -- ----- -- --- ---- -- --- ---- -- ------ ------<br>--- ----- -- ----,82648.69999998808,82647.79999999702,82150.286,82161,82166.957,82650.377,,32,you
screen,html.Screen,0_2_0_1_33,2021-12-03T12:38:36.005Z,,,,,,,,,,,,,,,,53,,,,,,,,,,,,,,437.32299998808594,,response,,,99,,,,,,Space,keypress(Space),,,,,---- -- ----- -- ------ - ------- --- ----------<br>------------- ------ ------ ---- ---- ------- ----- -- ----<br>-------- ------- -- ---------- --- - --- ----- ----- ----<br>---- --- --- ----- --- feel ---- ------- ----- ---- -------<br>--- --- -- ----- -- --- ---- -- --- ---- -- ------ ------<br>--- ----- -- ----,83088.5,83087.69999998808,82633.707,82648.89999999106,82650.377,83100.502,,33,feel
screen,html.Screen,0_2_0_1_34,2021-12-03T12:38:36.485Z,,,,,,,,,,,,,,,,53,,,,,,,,,,,,,,467.3979999910662,,response,,,99,,,,,,Space,keypress(Space),,,,,---- -- ----- -- ------ - ------- --- ----------<br>------------- ------ ------ ---- ---- ------- ----- -- ----<br>-------- ------- -- ---------- --- - --- ----- ----- ----<br>---- --- --- ----- --- ---- that ------- ----- ---- -------<br>--- --- -- ----- -- --- ---- -- --- ---- -- ------ ------<br>--- ----- -- ----,83568.69999998808,83567.89999999106,83083.832,83088.79999999702,83100.502,83583.958,,34,that
screen,html.Screen,0_2_0_1_35,2021-12-03T12:38:36.989Z,,,,,,,,,,,,,,,,53,,,,,,,,,,,,,,487.9419999910606,,response,,,99,,,,,,Space,keypress(Space),,,,,---- -- ----- -- ------ - ------- --- ----------<br>------------- ------ ------ ---- ---- ------- ----- -- ----<br>-------- ------- -- ---------- --- - --- ----- ----- ----<br>---- --- --- ----- --- ---- ---- matters ----- ---- -------<br>--- --- -- ----- -- --- ---- -- --- ---- -- ------ ------<br>--- ----- -- ----,84072.59999999404,84071.89999999106,83567.288,83569,83583.958,84084.09,,35,matters
screen,html.Screen,0_2_0_1_36,2021-12-03T12:38:38.069Z,,,,,,,,,,,,,,,,53,,,,,,,,,,,,,,1067.7099999970233,,response,,,99,,,,,,Space,keypress(Space),,,,,"---- -- ----- -- ------ - ------- --- ----------<br>------------- ------ ------ ---- ---- ------- ----- -- ----<br>-------- ------- -- ---------- --- - --- ----- ----- ----<br>---- --- --- ----- --- ---- ---- ------- most, ---- -------<br>--- --- -- ----- -- --- ---- -- --- ---- -- ------ ------<br>--- ----- -- ----",85152.69999998808,85151.79999999702,84067.42,84072.89999999106,84084.09,85167.744,,36,"most,"
screen,html.Screen,0_2_0_1_37,2021-12-03T12:38:38.749Z,,,,,,,,,,,,,,,,53,,,,,,,,,,,,,,664.3559999940335,,response,,,99,,,,,,Space,keypress(Space),,,,,---- -- ----- -- ------ - ------- --- ----------<br>------------- ------ ------ ---- ---- ------- ----- -- ----<br>-------- ------- -- ---------- --- - --- ----- ----- ----<br>---- --- --- ----- --- ---- ---- ------- ----- it's -------<br>--- --- -- ----- -- --- ---- -- --- ---- -- ------ ------<br>--- ----- -- ----,85832.89999999106,85832.09999999404,85151.073,85153,85167.744,85834.226,,37,it's
screen,html.Screen,0_2_0_1_38,2021-12-03T12:38:39.461Z,,,,,,,,,,,,,,,,53,,,,,,,,,,,,,,709.473999988084,,response,,,99,,,,,,Space,keypress(Space),,,,,---- -- ----- -- ------ - ------- --- ----------<br>------------- ------ ------ ---- ---- ------- ----- -- ----<br>-------- ------- -- ---------- --- - --- ----- ----- ----<br>---- --- --- ----- --- ---- ---- ------- ----- ---- whether<br>--- --- -- ----- -- --- ---- -- --- ---- -- ------ ------<br>--- ----- -- ----,86544.5,86543.69999998808,85817.558,85833.19999998808,85834.226,86551.532,,38,whether
screen,html.Screen,0_2_0_1_39,2021-12-03T12:38:39.949Z,,,,,,,,,,,,,,,,53,,,,,,,,,,,,,,480.16799998807255,,response,,,99,,,,,,Space,keypress(Space),,,,,---- -- ----- -- ------ - ------- --- ----------<br>------------- ------ ------ ---- ---- ------- ----- -- ----<br>-------- ------- -- ---------- --- - --- ----- ----- ----<br>---- --- --- ----- --- ---- ---- ------- ----- ---- -------<br>you --- -- ----- -- --- ---- -- --- ---- -- ------ ------<br>--- ----- -- ----,87032.69999998808,87031.69999998808,86534.86,86544.79999999702,86551.532,87034.809,,39,you
screen,html.Screen,0_2_0_1_40,2021-12-03T12:38:40.557Z,,,,,,,,,,,,,,,,53,,,,,,,,,,,,,,604.8909999880852,,response,,,99,,,,,,Space,keypress(Space),,,,,---- -- ----- -- ------ - ------- --- ----------<br>------------- ------ ------ ---- ---- ------- ----- -- ----<br>-------- ------- -- ---------- --- - --- ----- ----- ----<br>---- --- --- ----- --- ---- ---- ------- ----- ---- -------<br>--- are -- ----- -- --- ---- -- --- ---- -- ------ ------<br>--- ----- -- ----,87640.5,87639.69999998808,87018.139,87033,87034.809,87651.754,,40,are
screen,html.Screen,0_2_0_1_41,2021-12-03T12:38:41.053Z,,,,,,,,,,,,,,,,53,,,,,,,,,,,,,,483.8459999940387,,response,,,99,,,,,,Space,keypress(Space),,,,,---- -- ----- -- ------ - ------- --- ----------<br>------------- ------ ------ ---- ---- ------- ----- -- ----<br>-------- ------- -- ---------- --- - --- ----- ----- ----<br>---- --- --- ----- --- ---- ---- ------- ----- ---- -------<br>--- --- as ----- -- --- ---- -- --- ---- -- ------ ------<br>--- ----- -- ----,88136.39999999106,88135.59999999404,87635.083,87640.69999998808,87651.754,88151.84,,41,as
screen,html.Screen,0_2_0_1_42,2021-12-03T12:38:41.508Z,,,,,,,,,,,,,,,,53,,,,,,,,,,,,,,439.6600000000035,,response,,,99,,,,,,Space,keypress(Space),,,,,---- -- ----- -- ------ - ------- --- ----------<br>------------- ------ ------ ---- ---- ------- ----- -- ----<br>-------- ------- -- ---------- --- - --- ----- ----- ----<br>---- --- --- ----- --- ---- ---- ------- ----- ---- -------<br>--- --- -- close -- --- ---- -- --- ---- -- ------ ------<br>--- ----- -- ----,88592.29999999702,88591.5,88135.17,88136.59999999404,88151.84,88601.965,,42,close
screen,html.Screen,0_2_0_1_43,2021-12-03T12:38:42.004Z,,,,,,,,,,,,,,,,53,,,,,,,,,,,,,,485.5350000000035,,response,,,99,,,,,,Space,keypress(Space),,,,,---- -- ----- -- ------ - ------- --- ----------<br>------------- ------ ------ ---- ---- ------- ----- -- ----<br>-------- ------- -- ---------- --- - --- ----- ----- ----<br>---- --- --- ----- --- ---- ---- ------- ----- ---- -------<br>--- --- -- ----- as --- ---- -- --- ---- -- ------ ------<br>--- ----- -- ----,89088.19999998808,89087.5,88585.295,88592.5,88601.965,89102.079,,43,as
screen,html.Screen,0_2_0_1_44,2021-12-03T12:38:42.404Z,,,,,,,,,,,,,,,,53,,,,,,,,,,,,,,385.4210000000021,,response,,,99,,,,,,Space,keypress(Space),,,,,---- -- ----- -- ------ - ------- --- ----------<br>------------- ------ ------ ---- ---- ------- ----- -- ----<br>-------- ------- -- ---------- --- - --- ----- ----- ----<br>---- --- --- ----- --- ---- ---- ------- ----- ---- -------<br>--- --- -- ----- -- you ---- -- --- ---- -- ------ ------<br>--- ----- -- ----,89488.39999999106,89487.5,89085.409,89088.39999999106,89102.079,89502.237,,44,you
screen,html.Screen,0_2_0_1_45,2021-12-03T12:38:42.844Z,,,,,,,,,,,,,,,,53,,,,,,,,,,,,,,425.2630000000063,,response,,,99,,,,,,Space,keypress(Space),,,,,---- -- ----- -- ------ - ------- --- ----------<br>------------- ------ ------ ---- ---- ------- ----- -- ----<br>-------- ------- -- ---------- --- - --- ----- ----- ----<br>---- --- --- ----- --- ---- ---- ------- ----- ---- -------<br>--- --- -- ----- -- --- want -- --- ---- -- ------ ------<br>--- ----- -- ----,89928.29999999702,89927.5,89485.566,89488.59999999404,89502.237,89935.691,,45,want
screen,html.Screen,0_2_0_1_46,2021-12-03T12:38:43.244Z,,,,,,,,,,,,,,,,53,,,,,,,,,,,,,,391.90899999403337,,response,,,99,,,,,,Space,keypress(Space),,,,,---- -- ----- -- ------ - ------- --- ----------<br>------------- ------ ------ ---- ---- ------- ----- -- ----<br>-------- ------- -- ---------- --- - --- ----- ----- ----<br>---- --- --- ----- --- ---- ---- ------- ----- ---- -------<br>--- --- -- ----- -- --- ---- to --- ---- -- ------ ------<br>--- ----- -- ----,90328.29999999702,90327.59999999404,89919.02,89928.59999999404,89935.691,90335.664,,46,to
screen,html.Screen,0_2_0_1_47,2021-12-03T12:38:44.276Z,,,,,,,,,,,,,,,,53,,,,,,,,,,,,,,1023.8359999999957,,response,,,99,,,,,,Space,keypress(Space),,,,,"---- -- ----- -- ------ - ------- --- ----------<br>------------- ------ ------ ---- ---- ------- ----- -- ----<br>-------- ------- -- ---------- --- - --- ----- ----- ----<br>---- --- --- ----- --- ---- ---- ------- ----- ---- -------<br>--- --- -- ----- -- --- ---- -- be, ---- -- ------ ------<br>--- ----- -- ----",91360.39999999106,91359.5,90318.995,90328.59999999404,90335.664,91369.308,,47,"be,"
screen,html.Screen,0_2_0_1_48,2021-12-03T12:38:45.092Z,,,,,,,,,,,,,,,,53,,,,,,,,,,,,,,806.0919999910548,,response,,,99,,,,,,Space,keypress(Space),,,,,---- -- ----- -- ------ - ------- --- ----------<br>------------- ------ ------ ---- ---- ------- ----- -- ----<br>-------- ------- -- ---------- --- - --- ----- ----- ----<br>---- --- --- ----- --- ---- ---- ------- ----- ---- -------<br>--- --- -- ----- -- --- ---- -- --- even -- ------ ------<br>--- ----- -- ----,92176.39999999106,92175.39999999106,91352.638,91360.59999999404,91369.308,92186.278,,48,even
screen,html.Screen,0_2_0_1_49,2021-12-03T12:38:45.756Z,,,,,,,,,,,,,,,,53,,,,,,,,,,,,,,653.1219999910536,,response,,,99,,,,,,Space,keypress(Space),,,,,---- -- ----- -- ------ - ------- --- ----------<br>------------- ------ ------ ---- ---- ------- ----- -- ----<br>-------- ------- -- ---------- --- - --- ----- ----- ----<br>---- --- --- ----- --- ---- ---- ------- ----- ---- -------<br>--- --- -- ----- -- --- ---- -- --- ---- if ------ ------<br>--- ----- -- ----,92840.19999998808,92839.39999999106,92169.607,92176.5,92186.278,92853.001,,49,if
screen,html.Screen,0_2_0_1_50,2021-12-03T12:38:46.268Z,,,,,,,,,,,,,,,,53,,,,,,,,,,,,,,498.2989999970159,,response,,,99,,,,,,Space,keypress(Space),,,,,---- -- ----- -- ------ - ------- --- ----------<br>------------- ------ ------ ---- ---- ------- ----- -- ----<br>-------- ------- -- ---------- --- - --- ----- ----- ----<br>---- --- --- ----- --- ---- ---- ------- ----- ---- -------<br>--- --- -- ----- -- --- ---- -- --- ---- -- that's ------<br>--- ----- -- ----,93352.19999998808,93351.29999999702,92836.331,92840.5,92853.001,93353.277,,50,that's
screen,html.Screen,0_2_0_1_51,2021-12-03T12:38:46.884Z,,,,,,,,,,,,,,,,53,,,,,,,,,,,,,,614.1229999910574,,response,,,99,,,,,,Space,keypress(Space),,,,,---- -- ----- -- ------ - ------- --- ----------<br>------------- ------ ------ ---- ---- ------- ----- -- ----<br>-------- ------- -- ---------- --- - --- ----- ----- ----<br>---- --- --- ----- --- ---- ---- ------- ----- ---- -------<br>--- --- -- ----- -- --- ---- -- --- ---- -- ------ really<br>--- ----- -- ----,93968.19999998808,93967.39999999106,93336.606,93352.39999999106,93353.277,93970.04,,51,really
screen,html.Screen,0_2_0_1_52,2021-12-03T12:38:47.388Z,,,,,,,,,,,,,,,,53,,,,,,,,,,,,,,501.3599999910657,,response,,,99,,,,,,Space,keypress(Space),,,,,---- -- ----- -- ------ - ------- --- ----------<br>------------- ------ ------ ---- ---- ------- ----- -- ----<br>-------- ------- -- ---------- --- - --- ----- ----- ----<br>---- --- --- ----- --- ---- ---- ------- ----- ---- -------<br>--- --- -- ----- -- --- ---- -- --- ---- -- ------ ------<br>not ----- -- ----,94472.19999998808,94471.39999999106,93953.37,93968.39999999106,93970.04,94486.853,,52,not
screen,html.Screen,0_2_0_1_53,2021-12-03T12:38:47.892Z,,,,,,,,,,,,,,,,53,,,,,,,,,,,,,,488.446999997017,,response,,,99,,,,,,Space,keypress(Space),,,,,---- -- ----- -- ------ - ------- --- ----------<br>------------- ------ ------ ---- ---- ------- ----- -- ----<br>-------- ------- -- ---------- --- - --- ----- ----- ----<br>---- --- --- ----- --- ---- ---- ------- ----- ---- -------<br>--- --- -- ----- -- --- ---- -- --- ---- -- ------ ------<br>--- close -- ----,94976.19999998808,94975.29999999702,94470.183,94472.39999999106,94486.853,94986.879,,53,close
screen,html.Screen,0_2_0_1_54,2021-12-03T12:38:48.308Z,,,,,,,,,,,,,,,,53,,,,,,,,,,,,,,404.42099999701895,,response,,,99,,,,,,Space,keypress(Space),,,,,---- -- ----- -- ------ - ------- --- ----------<br>------------- ------ ------ ---- ---- ------- ----- -- ----<br>-------- ------- -- ---------- --- - --- ----- ----- ----<br>---- --- --- ----- --- ---- ---- ------- ----- ---- -------<br>--- --- -- ----- -- --- ---- -- --- ---- -- ------ ------<br>--- ----- at ----,95392.09999999404,95391.29999999702,94970.21,94976.39999999106,94986.879,95403.864,,54,at
screen,html.Screen,0_2_0_1_55,2021-12-03T12:38:48.805Z,,,,,,,,,,,,,,,,53,,,,,,,,,,,,,,483.8359999880777,,response,,,99,,,,,,Space,keypress(Space),,,,,---- -- ----- -- ------ - ------- --- ----------<br>------------- ------ ------ ---- ---- ------- ----- -- ----<br>-------- ------- -- ---------- --- - --- ----- ----- ----<br>---- --- --- ----- --- ---- ---- ------- ----- ---- -------<br>--- --- -- ----- -- --- ---- -- --- ---- -- ------ ------<br>--- ----- -- all.,95888.5,95887.69999998808,95387.192,95392.39999999106,95403.864,95903.903,,55,all.
Item 99,flow.Loop,0_2_0_1,2021-12-03T12:38:48.809Z,,,,,,,,,,,,,,,,,,,,,,,,,,,,,,35860.15499998808,,completion,,,,A,,,,,,,,,,silence,,95893,95887.69999998808,60010.875,60017.59999999404,60027.545,95903.903,,,
Question 1,html.Screen,0_2_0_2,2021-12-03T12:39:04.204Z,,,,,,,,,,,,,,,,,,,,,,,,,,,false,FALSE,,15382.496999991054,,response,,,99,A,,,,,TRUE,click #choice-1,,,,silence,,111287.59999999404,111286.39999999106,95887.233,95893.29999999702,95903.903,111291.419,,,
Question 2,html.Screen,0_2_0_3,2021-12-03T12:39:13.014Z,,,,,,,,,,,,,,,,,,,,,,,,,,,false,TRUE,,8802.581000000006,,response,,,99,A,,,,,FALSE,click #choice-2,,,,silence,,120095.09999999404,120094,111274.747,111287.89999999106,111291.419,120110.467,,,
Item 99,flow.Sequence,0_2_0,2021-12-03T12:39:13.014Z,,,,,,,,,,,,,,,,,,,,,,,,,,,,,,70068.73000000001,,completion,,,,,,,,,,,,,,,,120095.5,120094,50008.595,50011.29999999702,50025.27,120110.467,,,
Holding screen,html.Screen,0_2_1_0,2021-12-03T12:39:23.016Z,,,,,,,,,,,,,,,,,,,,,,,,,,,,,,10002.368999999992,,timeout,,,,,,,,,,,,,,,,130097.29999999702,130096.166,120093.795,120095.79999999702,120110.467,130112.836,,,
screen,html.Screen,0_2_1_1_0,2021-12-03T12:39:24.246Z,,,,,,,,,,,,,,,,54,,,,,,,,,,,,,,1213.2639999940438,,response,,,100,,,,,,Space,keypress(Space),,,,,At --- ---- --- ------ ----- ------- ---- -- --- ------- --<br>------- ---------- ------ -- ----- -- ----- -- ---- ------<br>--- ----- --- --- ------ -------- ----- --- ------ ----- --<br>----- ----- ---------- --- --- ------ ------ ---- -- ------<br>------- --- ------ ----- --- ---- ------- -- ---- --- --<br>------- ------,131327.09999999404,131326.09999999404,130096.166,130099.69999998808,130112.836,131329.976,,0,At
screen,html.Screen,0_2_1_1_1,2021-12-03T12:39:24.733Z,,,,,,,,,,,,,,,,54,,,,,,,,,,,,,,483.6239999940444,,response,,,100,,,,,,Space,keypress(Space),,,,,-- the ---- --- ------ ----- ------- ---- -- --- ------- --<br>------- ---------- ------ -- ----- -- ----- -- ---- ------<br>--- ----- --- --- ------ -------- ----- --- ------ ----- --<br>----- ----- ---------- --- --- ------ ------ ---- -- ------<br>------- --- ------ ----- --- ---- ------- -- ---- --- --<br>------- ------,131814.39999999106,131813.59999999404,131313.305,131327.39999999106,131329.976,131830.06,,1,the
screen,html.Screen,0_2_1_1_2,2021-12-03T12:39:25.173Z,,,,,,,,,,,,,,,,54,,,,,,,,,,,,,,423.53999999404186,,response,,,100,,,,,,Space,keypress(Space),,,,,-- --- time --- ------ ----- ------- ---- -- --- ------- --<br>------- ---------- ------ -- ----- -- ----- -- ---- ------<br>--- ----- --- --- ------ -------- ----- --- ------ ----- --<br>----- ----- ---------- --- --- ------ ------ ---- -- ------<br>------- --- ------ ----- --- ---- ------- -- ---- --- --<br>------- ------,132254.39999999106,132253.59999999404,131813.39,131814.69999998808,131830.06,132263.529,,2,time
screen,html.Screen,0_2_1_1_3,2021-12-03T12:39:25.645Z,,,,,,,,,,,,,,,,54,,,,,,,,,,,,,,461.97099999999045,,response,,,100,,,,,,Space,keypress(Space),,,,,-- --- ---- the ------ ----- ------- ---- -- --- ------- --<br>------- ---------- ------ -- ----- -- ----- -- ---- ------<br>--- ----- --- --- ------ -------- ----- --- ------ ----- --<br>----- ----- ---------- --- --- ------ ------ ---- -- ------<br>------- --- ------ ----- --- ---- ------- -- ---- --- --<br>------- ------,132726.39999999106,132725.5,132246.859,132254.69999998808,132263.529,132730.446,,3,the
screen,html.Screen,0_2_1_1_4,2021-12-03T12:39:26.189Z,,,,,,,,,,,,,,,,54,,,,,,,,,,,,,,539.1539999940433,,response,,,100,,,,,,Space,keypress(Space),,,,,-- --- ---- --- French ----- ------- ---- -- --- ------- --<br>------- ---------- ------ -- ----- -- ----- -- ---- ------<br>--- ----- --- --- ------ -------- ----- --- ------ ----- --<br>----- ----- ---------- --- --- ------ ------ ---- -- ------<br>------- --- ------ ----- --- ---- ------- -- ---- --- --<br>------- ------,133270.5,133269.59999999404,132713.774,132726.59999999404,132730.446,133280.551,,4,French
screen,html.Screen,0_2_1_1_5,2021-12-03T12:39:26.653Z,,,,,,,,,,,,,,,,54,,,,,,,,,,,,,,452.94899999999325,,response,,,100,,,,,,Space,keypress(Space),,,,,-- --- ---- --- ------ crown ------- ---- -- --- ------- --<br>------- ---------- ------ -- ----- -- ----- -- ---- ------<br>--- ----- --- --- ------ -------- ----- --- ------ ----- --<br>----- ----- ---------- --- --- ------ ------ ---- -- ------<br>------- --- ------ ----- --- ---- ------- -- ---- --- --<br>------- ------,133734.39999999106,133733.5,133263.88,133270.59999999404,133280.551,133747.274,,5,crown
screen,html.Screen,0_2_1_1_6,2021-12-03T12:39:27.197Z,,,,,,,,,,,,,,,,54,,,,,,,,,,,,,,530.3259999940346,,response,,,100,,,,,,Space,keypress(Space),,,,,-- --- ---- --- ------ ----- secured ---- -- --- ------- --<br>------- ---------- ------ -- ----- -- ----- -- ---- ------<br>--- ----- --- --- ------ -------- ----- --- ------ ----- --<br>----- ----- ---------- --- --- ------ ------ ---- -- ------<br>------- --- ------ ----- --- ---- ------- -- ---- --- --<br>------- ------,134278.29999999702,134277.59999999404,133730.604,133734.59999999404,133747.274,134280.729,,6,secured
screen,html.Screen,0_2_1_1_7,2021-12-03T12:39:27.677Z,,,,,,,,,,,,,,,,54,,,,,,,,,,,,,,476.7710000000079,,response,,,100,,,,,,Space,keypress(Space),,,,,-- --- ---- --- ------ ----- ------- much -- --- ------- --<br>------- ---------- ------ -- ----- -- ----- -- ---- ------<br>--- ----- --- --- ------ -------- ----- --- ------ ----- --<br>----- ----- ---------- --- --- ------ ------ ---- -- ------<br>------- --- ------ ----- --- ---- ------- -- ---- --- --<br>------- ------,134758.19999998808,134757.5,134264.059,134278.59999999404,134280.729,134764.276,,7,much
screen,html.Screen,0_2_1_1_8,2021-12-03T12:39:28.173Z,,,,,,,,,,,,,,,,54,,,,,,,,,,,,,,489.2239999999874,,response,,,100,,,,,,Space,keypress(Space),,,,,-- --- ---- --- ------ ----- ------- ---- of --- ------- --<br>------- ---------- ------ -- ----- -- ----- -- ---- ------<br>--- ----- --- --- ------ -------- ----- --- ------ ----- --<br>----- ----- ---------- --- --- ------ ------ ---- -- ------<br>------- --- ------ ----- --- ---- ------- -- ---- --- --<br>------- ------,135254.29999999702,135253.5,134747.605,134758.5,134764.276,135264.361,,8,of
screen,html.Screen,0_2_1_1_9,2021-12-03T12:39:28.661Z,,,,,,,,,,,,,,,,54,,,,,,,,,,,,,,477.1389999999956,,response,,,100,,,,,,Space,keypress(Space),,,,,-- --- ---- --- ------ ----- ------- ---- -- its ------- --<br>------- ---------- ------ -- ----- -- ----- -- ---- ------<br>--- ----- --- --- ------ -------- ----- --- ------ ----- --<br>----- ----- ---------- --- --- ------ ------ ---- -- ------<br>------- --- ------ ----- --- ---- ------- -- ---- --- --<br>------- ------,135742.29999999702,135741.5,135247.691,135254.5,135264.361,135747.809,,9,its
screen,html.Screen,0_2_1_1_10,2021-12-03T12:39:29.317Z,,,,,,,,,,,,,,,,54,,,,,,,,,,,,,,649.5909999910509,,response,,,100,,,,,,Space,keypress(Space),,,,,-- --- ---- --- ------ ----- ------- ---- -- --- revenue --<br>------- ---------- ------ -- ----- -- ----- -- ---- ------<br>--- ----- --- --- ------ -------- ----- --- ------ ----- --<br>----- ----- ---------- --- --- ------ ------ ---- -- ------<br>------- --- ------ ----- --- ---- ------- -- ---- --- --<br>------- ------,136398.19999998808,136397.39999999106,135731.139,135742.59999999404,135747.809,136414.71,,10,revenue
screen,html.Screen,0_2_1_1_11,2021-12-03T12:39:29.925Z,,,,,,,,,,,,,,,,54,,,,,,,,,,,,,,590.6899999910675,,response,,,100,,,,,,Space,keypress(Space),,,,,-- --- ---- --- ------ ----- ------- ---- -- --- ------- by<br>------- ---------- ------ -- ----- -- ----- -- ---- ------<br>--- ----- --- --- ------ -------- ----- --- ------ ----- --<br>----- ----- ---------- --- --- ------ ------ ---- -- ------<br>------- --- ------ ----- --- ---- ------- -- ---- --- --<br>------- ------,137006.19999998808,137005.39999999106,136398.039,136398.5,136414.71,137014.825,,11,by
screen,html.Screen,0_2_1_1_12,2021-12-03T12:39:30.597Z,,,,,,,,,,,,,,,,54,,,,,,,,,,,,,,662.4749999970081,,response,,,100,,,,,,Space,keypress(Space),,,,,-- --- ---- --- ------ ----- ------- ---- -- --- ------- --<br>issuing ---------- ------ -- ----- -- ----- -- ---- ------<br>--- ----- --- --- ------ -------- ----- --- ------ ----- --<br>----- ----- ---------- --- --- ------ ------ ---- -- ------<br>------- --- ------ ----- --- ---- ------- -- ---- --- --<br>------- ------,137678.19999998808,137677.29999999702,136998.155,137006.39999999106,137014.825,137681.625,,12,issuing
screen,html.Screen,0_2_1_1_13,2021-12-03T12:39:31.173Z,,,,,,,,,,,,,,,,54,,,,,,,,,,,,,,571.6749999970198,,response,,,100,,,,,,Space,keypress(Space),,,,,-- --- ---- --- ------ ----- ------- ---- -- --- ------- --<br>------- government ------ -- ----- -- ----- -- ---- ------<br>--- ----- --- --- ------ -------- ----- --- ------ ----- --<br>----- ----- ---------- --- --- ------ ------ ---- -- ------<br>------- --- ------ ----- --- ---- ------- -- ---- --- --<br>------- ------,138254.09999999404,138253.29999999702,137664.955,137678.39999999106,137681.625,138265.118,,13,government
screen,html.Screen,0_2_1_1_14,2021-12-03T12:39:32.989Z,,,,,,,,,,,,,,,,54,,,,,,,,,,,,,,1804.0819999880914,,response,,,100,,,,,,Space,keypress(Space),,,,,-- --- ---- --- ------ ----- ------- ---- -- --- ------- --<br>------- ---------- bonds. -- ----- -- ----- -- ---- ------<br>--- ----- --- --- ------ -------- ----- --- ------ ----- --<br>----- ----- ---------- --- --- ------ ------ ---- -- ------<br>------- --- ------ ----- --- ---- ------- -- ---- --- --<br>------- ------,140070.09999999404,140069.19999998808,138248.448,138254.39999999106,138265.118,140082.221,,14,bonds.
screen,html.Screen,0_2_1_1_15,2021-12-03T12:39:33.957Z,,,,,,,,,,,,,,,,54,,,,,,,,,,,,,,954.9789999880886,,response,,,100,,,,,,Space,keypress(Space),,,,,-- --- ---- --- ------ ----- ------- ---- -- --- ------- --<br>------- ---------- ------ In ----- -- ----- -- ---- ------<br>--- ----- --- --- ------ -------- ----- --- ------ ----- --<br>----- ----- ---------- --- --- ------ ------ ---- -- ------<br>------- --- ------ ----- --- ---- ------- -- ---- --- --<br>------- ------,141038,141037.19999998808,140065.551,140070.29999999702,140082.221,141049.171,,15,In
screen,html.Screen,0_2_1_1_16,2021-12-03T12:39:35.541Z,,,,,,,,,,,,,,,,54,,,,,,,,,,,,,,1572.2289999910572,,response,,,100,,,,,,Space,keypress(Space),,,,,"-- --- ---- --- ------ ----- ------- ---- -- --- ------- --<br>------- ---------- ------ -- 1727, -- ----- -- ---- ------<br>--- ----- --- --- ------ -------- ----- --- ------ ----- --<br>----- ----- ---------- --- --- ------ ------ ---- -- ------<br>------- --- ------ ----- --- ---- ------- -- ---- --- --<br>------- ------",142622.29999999702,142621.39999999106,141032.501,141038.29999999702,141049.171,142632.812,,16,"1727,"
screen,html.Screen,0_2_1_1_17,2021-12-03T12:39:36.245Z,,,,,,,,,,,,,,,,54,,,,,,,,,,,,,,692.2879999940342,,response,,,100,,,,,,Space,keypress(Space),,,,,-- --- ---- --- ------ ----- ------- ---- -- --- ------- --<br>------- ---------- ------ -- ----- in ----- -- ---- ------<br>--- ----- --- --- ------ -------- ----- --- ------ ----- --<br>----- ----- ---------- --- --- ------ ------ ---- -- ------<br>------- --- ------ ----- --- ---- ------- -- ---- --- --<br>------- ------,143325.89999999106,143325.09999999404,142616.142,142622.5,142632.812,143333.303,,17,in
screen,html.Screen,0_2_1_1_18,2021-12-03T12:39:37.437Z,,,,,,,,,,,,,,,,54,,,,,,,,,,,,,,1183.6969999999856,,response,,,100,,,,,,Space,keypress(Space),,,,,-- --- ---- --- ------ ----- ------- ---- -- --- ------- --<br>------- ---------- ------ -- ----- -- order -- ---- ------<br>--- ----- --- --- ------ -------- ----- --- ------ ----- --<br>----- ----- ---------- --- --- ------ ------ ---- -- ------<br>------- --- ------ ----- --- ---- ------- -- ---- --- --<br>------- ------,144517.79999999702,144517,143316.631,143326.09999999404,143333.303,144533.426,,18,order
screen,html.Screen,0_2_1_1_19,2021-12-03T12:39:38.109Z,,,,,,,,,,,,,,,,54,,,,,,,,,,,,,,655.5739999999932,,response,,,100,,,,,,Space,keypress(Space),,,,,-- --- ---- --- ------ ----- ------- ---- -- --- ------- --<br>------- ---------- ------ -- ----- -- ----- to ---- ------<br>--- ----- --- --- ------ -------- ----- --- ------ ----- --<br>----- ----- ---------- --- --- ------ ------ ---- -- ------<br>------- --- ------ ----- --- ---- ------- -- ---- --- --<br>------- ------,145189.89999999106,145189,144516.756,144518.09999999404,144533.426,145200.237,,19,to
screen,html.Screen,0_2_1_1_20,2021-12-03T12:39:38.901Z,,,,,,,,,,,,,,,,54,,,,,,,,,,,,,,780.6629999910656,,response,,,100,,,,,,Space,keypress(Space),,,,,-- --- ---- --- ------ ----- ------- ---- -- --- ------- --<br>------- ---------- ------ -- ----- -- ----- -- save ------<br>--- ----- --- --- ------ -------- ----- --- ------ ----- --<br>----- ----- ---------- --- --- ------ ------ ---- -- ------<br>------- --- ------ ----- --- ---- ------- -- ---- --- --<br>------- ------,145981.69999998808,145980.89999999106,145183.567,145190.19999998808,145200.237,145983.851,,20,save
screen,html.Screen,0_2_1_1_21,2021-12-03T12:39:39.621Z,,,,,,,,,,,,,,,,54,,,,,,,,,,,,,,717.1490000000049,,response,,,100,,,,,,Space,keypress(Space),,,,,"-- --- ---- --- ------ ----- ------- ---- -- --- ------- --<br>------- ---------- ------ -- ----- -- ----- -- ---- money,<br>--- ----- --- --- ------ -------- ----- --- ------ ----- --<br>----- ----- ---------- --- --- ------ ------ ---- -- ------<br>------- --- ------ ----- --- ---- ------- -- ---- --- --<br>------- ------",146701.69999998808,146701,145967.181,145982,145983.851,146717.39,,21,"money,"
screen,html.Screen,0_2_1_1_22,2021-12-03T12:39:40.285Z,,,,,,,,,,,,,,,,54,,,,,,,,,,,,,,647.5099999910453,,response,,,100,,,,,,Space,keypress(Space),,,,,-- --- ---- --- ------ ----- ------- ---- -- --- ------- --<br>------- ---------- ------ -- ----- -- ----- -- ---- ------<br>the ----- --- --- ------ -------- ----- --- ------ ----- --<br>----- ----- ---------- --- --- ------ ------ ---- -- ------<br>------- --- ------ ----- --- ---- ------- -- ---- --- --<br>------- ------,147365.69999998808,147364.89999999106,146700.72,146701.89999999106,146717.39,147367.527,,22,the
screen,html.Screen,0_2_1_1_23,2021-12-03T12:39:41.036Z,,,,,,,,,,,,,,,,54,,,,,,,,,,,,,,749.3729999910574,,response,,,100,,,,,,Space,keypress(Space),,,,,-- --- ---- --- ------ ----- ------- ---- -- --- ------- --<br>------- ---------- ------ -- ----- -- ----- -- ---- ------<br>--- state --- --- ------ -------- ----- --- ------ ----- --<br>----- ----- ---------- --- --- ------ ------ ---- -- ------<br>------- --- ------ ----- --- ---- ------- -- ---- --- --<br>------- ------,148117.59999999404,148116.89999999106,147350.857,147365.89999999106,147367.527,148134.417,,23,state
screen,html.Screen,0_2_1_1_24,2021-12-03T12:39:41.724Z,,,,,,,,,,,,,,,,54,,,,,,,,,,,,,,670.382999997033,,response,,,100,,,,,,Space,keypress(Space),,,,,-- --- ---- --- ------ ----- ------- ---- -- --- ------- --<br>------- ---------- ------ -- ----- -- ----- -- ---- ------<br>--- ----- cut --- ------ -------- ----- --- ------ ----- --<br>----- ----- ---------- --- --- ------ ------ ---- -- ------<br>------- --- ------ ----- --- ---- ------- -- ---- --- --<br>------- ------,148805.59999999404,148804.79999999702,148117.747,148117.89999999106,148134.417,148818.009,,24,cut
screen,html.Screen,0_2_1_1_25,2021-12-03T12:39:42.180Z,,,,,,,,,,,,,,,,54,,,,,,,,,,,,,,442.79099999702885,,response,,,100,,,,,,Space,keypress(Space),,,,,-- --- ---- --- ------ ----- ------- ---- -- --- ------- --<br>------- ---------- ------ -- ----- -- ----- -- ---- ------<br>--- ----- --- the ------ -------- ----- --- ------ ----- --<br>----- ----- ---------- --- --- ------ ------ ---- -- ------<br>------- --- ------ ----- --- ---- ------- -- ---- --- --<br>------- ------,149261.59999999404,149260.79999999702,148801.338,148805.89999999106,148818.009,149268.086,,25,the
screen,html.Screen,0_2_1_1_26,2021-12-03T12:39:43.220Z,,,,,,,,,,,,,,,,54,,,,,,,,,,,,,,1032.7139999970095,,response,,,100,,,,,,Space,keypress(Space),,,,,-- --- ---- --- ------ ----- ------- ---- -- --- ------- --<br>------- ---------- ------ -- ----- -- ----- -- ---- ------<br>--- ----- --- --- bonds' -------- ----- --- ------ ----- --<br>----- ----- ---------- --- --- ------ ------ ---- -- ------<br>------- --- ------ ----- --- ---- ------- -- ---- --- --<br>------- ------,150301.59999999404,150300.79999999702,149251.416,149261.79999999702,149268.086,150318.31,,26,bonds'
screen,html.Screen,0_2_1_1_27,2021-12-03T12:39:44.532Z,,,,,,,,,,,,,,,,54,,,,,,,,,,,,,,1294.3899999880814,,response,,,100,,,,,,Space,keypress(Space),,,,,-- --- ---- --- ------ ----- ------- ---- -- --- ------- --<br>------- ---------- ------ -- ----- -- ----- -- ---- ------<br>--- ----- --- --- ------ interest ----- --- ------ ----- --<br>----- ----- ---------- --- --- ------ ------ ---- -- ------<br>------- --- ------ ----- --- ---- ------- -- ---- --- --<br>------- ------,151613.5,151612.69999998808,150301.64,150301.79999999702,150318.31,151618.775,,27,interest
screen,html.Screen,0_2_1_1_28,2021-12-03T12:39:45.500Z,,,,,,,,,,,,,,,,54,,,,,,,,,,,,,,961.8249999940454,,response,,,100,,,,,,Space,keypress(Space),,,,,-- --- ---- --- ------ ----- ------- ---- -- --- ------- --<br>------- ---------- ------ -- ----- -- ----- -- ---- ------<br>--- ----- --- --- ------ -------- rate. --- ------ ----- --<br>----- ----- ---------- --- --- ------ ------ ---- -- ------<br>------- --- ------ ----- --- ---- ------- -- ---- --- --<br>------- ------,152581.5,152580.59999999404,151602.104,151613.79999999702,151618.775,152585.571,,28,rate.
screen,html.Screen,0_2_1_1_29,2021-12-03T12:39:46.341Z,,,,,,,,,,,,,,,,54,,,,,,,,,,,,,,835.4290000000037,,response,,,100,,,,,,Space,keypress(Space),,,,,-- --- ---- --- ------ ----- ------- ---- -- --- ------- --<br>------- ---------- ------ -- ----- -- ----- -- ---- ------<br>--- ----- --- --- ------ -------- ----- The ------ ----- --<br>----- ----- ---------- --- --- ------ ------ ---- -- ------<br>------- --- ------ ----- --- ---- ------- -- ---- --- --<br>------- ------,153421.79999999702,153421,152568.901,152581.79999999702,152585.571,153435.828,,29,The
screen,html.Screen,0_2_1_1_30,2021-12-03T12:39:47.132Z,,,,,,,,,,,,,,,,54,,,,,,,,,,,,,,776.7719999940309,,response,,,100,,,,,,Space,keypress(Space),,,,,-- --- ---- --- ------ ----- ------- ---- -- --- ------- --<br>------- ---------- ------ -- ----- -- ----- -- ---- ------<br>--- ----- --- --- ------ -------- ----- --- market ----- --<br>----- ----- ---------- --- --- ------ ------ ---- -- ------<br>------- --- ------ ----- --- ---- ------- -- ---- --- --<br>------- ------,154213.39999999106,154212.59999999404,153419.158,153422,153435.828,154219.377,,30,market
screen,html.Screen,0_2_1_1_31,2021-12-03T12:39:47.596Z,,,,,,,,,,,,,,,,54,,,,,,,,,,,,,,457.1229999999923,,response,,,100,,,,,,Space,keypress(Space),,,,,-- --- ---- --- ------ ----- ------- ---- -- --- ------- --<br>------- ---------- ------ -- ----- -- ----- -- ---- ------<br>--- ----- --- --- ------ -------- ----- --- ------ value --<br>----- ----- ---------- --- --- ------ ------ ---- -- ------<br>------- --- ------ ----- --- ---- ------- -- ---- --- --<br>------- ------,154677.29999999702,154676.5,154202.707,154213.69999998808,154219.377,154686.13,,31,value
screen,html.Screen,0_2_1_1_32,2021-12-03T12:39:48.028Z,,,,,,,,,,,,,,,,54,,,,,,,,,,,,,,422.4699999940349,,response,,,100,,,,,,Space,keypress(Space),,,,,-- --- ---- --- ------ ----- ------- ---- -- --- ------- --<br>------- ---------- ------ -- ----- -- ----- -- ---- ------<br>--- ----- --- --- ------ -------- ----- --- ------ ----- of<br>----- ----- ---------- --- --- ------ ------ ---- -- ------<br>------- --- ------ ----- --- ---- ------- -- ---- --- --<br>------- ------,155109.39999999106,155108.59999999404,154669.46,154677.59999999404,154686.13,155119.666,,32,of
screen,html.Screen,0_2_1_1_33,2021-12-03T12:39:48.452Z,,,,,,,,,,,,,,,,54,,,,,,,,,,,,,,412.83400000000256,,response,,,100,,,,,,Space,keypress(Space),,,,,-- --- ---- --- ------ ----- ------- ---- -- --- ------- --<br>------- ---------- ------ -- ----- -- ----- -- ---- ------<br>--- ----- --- --- ------ -------- ----- --- ------ ----- --<br>these ----- ---------- --- --- ------ ------ ---- -- ------<br>------- --- ------ ----- --- ---- ------- -- ---- --- --<br>------- ------,155533.29999999702,155532.5,155102.995,155109.5,155119.666,155536.386,,33,these
screen,html.Screen,0_2_1_1_34,2021-12-03T12:39:48.844Z,,,,,,,,,,,,,,,,54,,,,,,,,,,,,,,388.1140000000014,,response,,,100,,,,,,Space,keypress(Space),,,,,-- --- ---- --- ------ ----- ------- ---- -- --- ------- --<br>------- ---------- ------ -- ----- -- ----- -- ---- ------<br>--- ----- --- --- ------ -------- ----- --- ------ ----- --<br>----- bonds ---------- --- --- ------ ------ ---- -- ------<br>------- --- ------ ----- --- ---- ------- -- ---- --- --<br>------- ------,155925.29999999702,155924.5,155519.716,155533.5,155536.386,155936.565,,34,bonds
screen,html.Screen,0_2_1_1_35,2021-12-03T12:39:49.924Z,,,,,,,,,,,,,,,,54,,,,,,,,,,,,,,1067.9349999999977,,response,,,100,,,,,,Space,keypress(Space),,,,,"-- --- ---- --- ------ ----- ------- ---- -- --- ------- --<br>------- ---------- ------ -- ----- -- ----- -- ---- ------<br>--- ----- --- --- ------ -------- ----- --- ------ ----- --<br>----- ----- plummeted, --- --- ------ ------ ---- -- ------<br>------- --- ------ ----- --- ---- ------- -- ---- --- --<br>------- ------",157005.29999999702,157004.5,155919.894,155925.5,155936.565,157020.094,,35,"plummeted,"
screen,html.Screen,0_2_1_1_36,2021-12-03T12:39:50.364Z,,,,,,,,,,,,,,,,54,,,,,,,,,,,,,,424.30599999104743,,response,,,100,,,,,,Space,keypress(Space),,,,,-- --- ---- --- ------ ----- ------- ---- -- --- ------- --<br>------- ---------- ------ -- ----- -- ----- -- ---- ------<br>--- ----- --- --- ------ -------- ----- --- ------ ----- --<br>----- ----- ---------- and --- ------ ------ ---- -- ------<br>------- --- ------ ----- --- ---- ------- -- ---- --- --<br>------- ------,157445.29999999702,157444.39999999106,157003.424,157005.5,157020.094,157453.59,,36,and
screen,html.Screen,0_2_1_1_37,2021-12-03T12:39:50.764Z,,,,,,,,,,,,,,,,54,,,,,,,,,,,,,,390.8099999910628,,response,,,100,,,,,,Space,keypress(Space),,,,,-- --- ---- --- ------ ----- ------- ---- -- --- ------- --<br>------- ---------- ------ -- ----- -- ----- -- ---- ------<br>--- ----- --- --- ------ -------- ----- --- ------ ----- --<br>----- ----- ---------- --- the ------ ------ ---- -- ------<br>------- --- ------ ----- --- ---- ------- -- ---- --- --<br>------- ------,157845.19999998808,157844.39999999106,157436.92,157446.79999999702,157453.59,157853.674,,37,the
screen,html.Screen,0_2_1_1_38,2021-12-03T12:39:51.148Z,,,,,,,,,,,,,,,,54,,,,,,,,,,,,,,374.6259999970207,,response,,,100,,,,,,Space,keypress(Space),,,,,-- --- ---- --- ------ ----- ------- ---- -- --- ------- --<br>------- ---------- ------ -- ----- -- ----- -- ---- ------<br>--- ----- --- --- ------ -------- ----- --- ------ ----- --<br>----- ----- ---------- --- --- market ------ ---- -- ------<br>------- --- ------ ----- --- ---- ------- -- ---- --- --<br>------- ------,158229.19999998808,158228.29999999702,157837.004,157845.5,157853.674,158237.116,,38,market
screen,html.Screen,0_2_1_1_39,2021-12-03T12:39:51.540Z,,,,,,,,,,,,,,,,54,,,,,,,,,,,,,,383.1839999970107,,response,,,100,,,,,,Space,keypress(Space),,,,,-- --- ---- --- ------ ----- ------- ---- -- --- ------- --<br>------- ---------- ------ -- ----- -- ----- -- ---- ------<br>--- ----- --- --- ------ -------- ----- --- ------ ----- --<br>----- ----- ---------- --- --- ------ became ---- -- ------<br>------- --- ------ ----- --- ---- ------- -- ---- --- --<br>------- ------,158621.19999998808,158620.29999999702,158220.446,158229.39999999106,158237.116,158637.226,,39,became
screen,html.Screen,0_2_1_1_40,2021-12-03T12:39:51.868Z,,,,,,,,,,,,,,,,54,,,,,,,,,,,,,,311.1739999910642,,response,,,100,,,,,,Space,keypress(Space),,,,,-- --- ---- --- ------ ----- ------- ---- -- --- ------- --<br>------- ---------- ------ -- ----- -- ----- -- ---- ------<br>--- ----- --- --- ------ -------- ----- --- ------ ----- --<br>----- ----- ---------- --- --- ------ ------ wary -- ------<br>------- --- ------ ----- --- ---- ------- -- ---- --- --<br>------- ------,158949,158948.39999999106,158620.556,158621.39999999106,158637.226,158954.051,,40,wary
screen,html.Screen,0_2_1_1_41,2021-12-03T12:39:52.436Z,,,,,,,,,,,,,,,,54,,,,,,,,,,,,,,562.1489999880723,,response,,,100,,,,,,Space,keypress(Space),,,,,-- --- ---- --- ------ ----- ------- ---- -- --- ------- --<br>------- ---------- ------ -- ----- -- ----- -- ---- ------<br>--- ----- --- --- ------ -------- ----- --- ------ ----- --<br>----- ----- ---------- --- --- ------ ------ ---- of ------<br>------- --- ------ ----- --- ---- ------- -- ---- --- --<br>------- ------,159516.89999999106,159516.19999998808,158937.38,158949.29999999702,158954.051,159520.798,,41,of
screen,html.Screen,0_2_1_1_42,2021-12-03T12:39:52.948Z,,,,,,,,,,,,,,,,54,,,,,,,,,,,,,,507.50199999701,,response,,,100,,,,,,Space,keypress(Space),,,,,-- --- ---- --- ------ ----- ------- ---- -- --- ------- --<br>------- ---------- ------ -- ----- -- ----- -- ---- ------<br>--- ----- --- --- ------ -------- ----- --- ------ ----- --<br>----- ----- ---------- --- --- ------ ------ ---- -- French<br>------- --- ------ ----- --- ---- ------- -- ---- --- --<br>------- ------,160029,160028.29999999702,159504.128,159517.19999998808,159520.798,160037.6,,42,French
screen,html.Screen,0_2_1_1_43,2021-12-03T12:39:53.988Z,,,,,,,,,,,,,,,,54,,,,,,,,,,,,,,1030.699999997014,,response,,,100,,,,,,Space,keypress(Space),,,,,-- --- ---- --- ------ ----- ------- ---- -- --- ------- --<br>------- ---------- ------ -- ----- -- ----- -- ---- ------<br>--- ----- --- --- ------ -------- ----- --- ------ ----- --<br>----- ----- ---------- --- --- ------ ------ ---- -- ------<br>credit. --- ------ ----- --- ---- ------- -- ---- --- --<br>------- ------,161069,161068.29999999702,160020.93,160029.29999999702,160037.6,161071.151,,43,credit.
screen,html.Screen,0_2_1_1_44,2021-12-03T12:39:54.868Z,,,,,,,,,,,,,,,,54,,,,,,,,,,,,,,877.0489999880665,,response,,,100,,,,,,Space,keypress(Space),,,,,-- --- ---- --- ------ ----- ------- ---- -- --- ------- --<br>------- ---------- ------ -- ----- -- ----- -- ---- ------<br>--- ----- --- --- ------ -------- ----- --- ------ ----- --<br>----- ----- ---------- --- --- ------ ------ ---- -- ------<br>------- The ------ ----- --- ---- ------- -- ---- --- --<br>------- ------,161949,161948.19999998808,161054.481,161069.19999998808,161071.151,161954.756,,44,The
screen,html.Screen,0_2_1_1_45,2021-12-03T12:39:58.068Z,,,,,,,,,,,,,,,,54,,,,,,,,,,,,,,3193.6439999910654,,response,,,100,,,,,,Space,keypress(Space),,,,,-- --- ---- --- ------ ----- ------- ---- -- --- ------- --<br>------- ---------- ------ -- ----- -- ----- -- ---- ------<br>--- ----- --- --- ------ -------- ----- --- ------ ----- --<br>----- ----- ---------- --- --- ------ ------ ---- -- ------<br>------- --- French ----- --- ---- ------- -- ---- --- --<br>------- ------,165149.29999999702,165148.39999999106,161938.086,161949.19999998808,161954.756,165155.466,,45,French
screen,html.Screen,0_2_1_1_46,2021-12-03T12:39:58.588Z,,,,,,,,,,,,,,,,54,,,,,,,,,,,,,,512.6339999940537,,response,,,100,,,,,,Space,keypress(Space),,,,,-- --- ---- --- ------ ----- ------- ---- -- --- ------- --<br>------- ---------- ------ -- ----- -- ----- -- ---- ------<br>--- ----- --- --- ------ -------- ----- --- ------ ----- --<br>----- ----- ---------- --- --- ------ ------ ---- -- ------<br>------- --- ------ state --- ---- ------- -- ---- --- --<br>------- ------,165668.89999999106,165668.09999999404,165138.796,165149.5,165155.466,165672.368,,46,state
screen,html.Screen,0_2_1_1_47,2021-12-03T12:39:59.044Z,,,,,,,,,,,,,,,,54,,,,,,,,,,,,,,451.63200000001234,,response,,,100,,,,,,Space,keypress(Space),,,,,-- --- ---- --- ------ ----- ------- ---- -- --- ------- --<br>------- ---------- ------ -- ----- -- ----- -- ---- ------<br>--- ----- --- --- ------ -------- ----- --- ------ ----- --<br>----- ----- ---------- --- --- ------ ------ ---- -- ------<br>------- --- ------ ----- was ---- ------- -- ---- --- --<br>------- ------,166124.79999999702,166124,165655.698,165669.19999998808,165672.368,166139.16,,47,was
screen,html.Screen,0_2_1_1_48,2021-12-03T12:39:59.492Z,,,,,,,,,,,,,,,,54,,,,,,,,,,,,,,432.8399999999965,,response,,,100,,,,,,Space,keypress(Space),,,,,-- --- ---- --- ------ ----- ------- ---- -- --- ------- --<br>------- ---------- ------ -- ----- -- ----- -- ---- ------<br>--- ----- --- --- ------ -------- ----- --- ------ ----- --<br>----- ----- ---------- --- --- ------ ------ ---- -- ------<br>------- --- ------ ----- --- left ------- -- ---- --- --<br>------- ------,166572.79999999702,166572,166122.49,166125.09999999404,166139.16,166589.432,,48,left
screen,html.Screen,0_2_1_1_49,2021-12-03T12:39:59.988Z,,,,,,,,,,,,,,,,54,,,,,,,,,,,,,,478.5679999999993,,response,,,100,,,,,,Space,keypress(Space),,,,,-- --- ---- --- ------ ----- ------- ---- -- --- ------- --<br>------- ---------- ------ -- ----- -- ----- -- ---- ------<br>--- ----- --- --- ------ -------- ----- --- ------ ----- --<br>----- ----- ---------- --- --- ------ ------ ---- -- ------<br>------- --- ------ ----- --- ---- without -- ---- --- --<br>------- ------,167068.69999998808,167068,166572.76,166573.09999999404,166589.432,167072.85,,49,without
screen,html.Screen,0_2_1_1_50,2021-12-03T12:40:00.436Z,,,,,,,,,,,,,,,,54,,,,,,,,,,,,,,443.0499999910535,,response,,,100,,,,,,Space,keypress(Space),,,,,-- --- ---- --- ------ ----- ------- ---- -- --- ------- --<br>------- ---------- ------ -- ----- -- ----- -- ---- ------<br>--- ----- --- --- ------ -------- ----- --- ------ ----- --<br>----- ----- ---------- --- --- ------ ------ ---- -- ------<br>------- --- ------ ----- --- ---- ------- an ---- --- --<br>------- ------,167516.69999998808,167515.89999999106,167056.179,167069,167072.85,167522.931,,50,an
screen,html.Screen,0_2_1_1_51,2021-12-03T12:40:00.996Z,,,,,,,,,,,,,,,,54,,,,,,,,,,,,,,553.0689999999886,,response,,,100,,,,,,Space,keypress(Space),,,,,-- --- ---- --- ------ ----- ------- ---- -- --- ------- --<br>------- ---------- ------ -- ----- -- ----- -- ---- ------<br>--- ----- --- --- ------ -------- ----- --- ------ ----- --<br>----- ----- ---------- --- --- ------ ------ ---- -- ------<br>------- --- ------ ----- --- ---- ------- -- easy --- --<br>------- ------,168076.69999998808,168076,167506.261,167517.19999998808,167522.931,168089.792,,51,easy
screen,html.Screen,0_2_1_1_52,2021-12-03T12:40:01.428Z,,,,,,,,,,,,,,,,54,,,,,,,,,,,,,,418.1079999910726,,response,,,100,,,,,,Space,keypress(Space),,,,,-- --- ---- --- ------ ----- ------- ---- -- --- ------- --<br>------- ---------- ------ -- ----- -- ----- -- ---- ------<br>--- ----- --- --- ------ -------- ----- --- ------ ----- --<br>----- ----- ---------- --- --- ------ ------ ---- -- ------<br>------- --- ------ ----- --- ---- ------- -- ---- way --<br>------- ------,168508.69999998808,168507.89999999106,168073.121,168076.89999999106,168089.792,168523.194,,52,way
screen,html.Screen,0_2_1_1_53,2021-12-03T12:40:01.940Z,,,,,,,,,,,,,,,,54,,,,,,,,,,,,,,497.1059999970312,,response,,,100,,,,,,Space,keypress(Space),,,,,-- --- ---- --- ------ ----- ------- ---- -- --- ------- --<br>------- ---------- ------ -- ----- -- ----- -- ---- ------<br>--- ----- --- --- ------ -------- ----- --- ------ ----- --<br>----- ----- ---------- --- --- ------ ------ ---- -- ------<br>------- --- ------ ----- --- ---- ------- -- ---- --- of<br>------- ------,169021.19999998808,169020.29999999702,168506.524,168508.89999999106,168523.194,169023.377,,53,of
screen,html.Screen,0_2_1_1_54,2021-12-03T12:40:02.411Z,,,,,,,,,,,,,,,,54,,,,,,,,,,,,,,468.5229999910516,,response,,,100,,,,,,Space,keypress(Space),,,,,-- --- ---- --- ------ ----- ------- ---- -- --- ------- --<br>------- ---------- ------ -- ----- -- ----- -- ---- ------<br>--- ----- --- --- ------ -------- ----- --- ------ ----- --<br>----- ----- ---------- --- --- ------ ------ ---- -- ------<br>------- --- ------ ----- --- ---- ------- -- ---- --- --<br>raising ------,169492.59999999404,169491.89999999106,169006.706,169021.39999999106,169023.377,169506.774,,54,raising
screen,html.Screen,0_2_1_1_55,2021-12-03T12:40:02.923Z,,,,,,,,,,,,,,,,54,,,,,,,,,,,,,,497.1259999910544,,response,,,100,,,,,,Space,keypress(Space),,,,,-- --- ---- --- ------ ----- ------- ---- -- --- ------- --<br>------- ---------- ------ -- ----- -- ----- -- ---- ------<br>--- ----- --- --- ------ -------- ----- --- ------ ----- --<br>----- ----- ---------- --- --- ------ ------ ---- -- ------<br>------- --- ------ ----- --- ---- ------- -- ---- --- --<br>------- money.,170004.69999998808,170003.89999999106,169490.104,169492.89999999106,169506.774,170023.575,,55,money.
Item 100,flow.Loop,0_2_1_1,2021-12-03T12:40:02.924Z,,,,,,,,,,,,,,,,,,,,,,,,,,,,,,39891.06399999106,,completion,,,,A,,,,,,,,,,silence,,170005.09999999404,170003.89999999106,130096.166,130097.5,130112.836,170023.575,,,
Question 1,html.Screen,0_2_1_2,2021-12-03T12:40:06.595Z,,,,,,,,,,,,,,,,,,,,,,,,,,,true,TRUE,,3651.8249999910477,,response,,,100,A,,,,,TRUE,click #choice-1,,,,silence,,173676.59999999404,173675.39999999106,169990.235,170005.19999998808,170023.575,173691.203,,,
Question 2,html.Screen,0_2_1_3,2021-12-03T12:40:09.715Z,,,,,,,,,,,,,,,,,,,,,,,,,,,true,FALSE,,3103.9969999880705,,response,,,100,A,,,,,FALSE,click #choice-2,,,,silence,,176796.39999999106,176795.19999998808,173674.533,173676.79999999702,173691.203,176808.702,,,
Item 100,flow.Sequence,0_2_1,2021-12-03T12:40:09.716Z,,,,,,,,,,,,,,,,,,,,,,,,,,,,,,56684.732999988075,,completion,,,,,,,,,,,,,,,,176796.79999999702,176795.19999998808,120093.795,120095.69999998808,120110.467,176808.702,,,
End of Practice,html.Page,0_2_2,2021-12-03T12:40:15.543Z,,,,,,,,,,,,,,,,,,,,,,,,,,,,,,5811.897999994049,,form submission,,,,,,,,,,,,,,,,182621.19999998808,182620.59999999404,176792.032,176797,176808.702,182625.545,,,
Practice,flow.Sequence,0_2,2021-12-03T12:40:15.544Z,,,,,,,,,,,,,,,,,,,,,,,,,,,,,,132595.32999999405,,completion,,,,,,,,,,,,,,,,182621.69999998808,182620.59999999404,50008.595,50011.29999999702,50025.27,182625.545,,,
Trap_instruction,html.Page,0_3_0,2021-12-03T12:40:22.751Z,,,,,,,,,,,,,,,,,,,,,,,,,,,,,,7202.3549999910465,,form submission,,,,,,,,,,,,,,,,189828.39999999106,189827.89999999106,182608.878,182622,182625.545,189861.689,,,
trap_trial,html.Screen,0_3_1,2021-12-03T12:40:25.646Z,,,,,,,,,,,,,,,,,,,,,,,,,,,true,1,,2860.9109999940265,,response,,,,,,,,,1,click #choice-1,,,,,,192723.79999999702,192722.59999999404,189811.679,189828.69999998808,189861.689,192729.435,,,
end of trap trial,html.Page,0_3_2,2021-12-03T12:40:28.519Z,,,,,,,,,,,,,,,,,,,,,,,,,,,,,,2866.4649999910616,,form submission,,,,,,,,,,,,,,,,195596.5,195595.89999999106,192712.765,192724,192729.435,195597.062,,,
Trap 1,flow.Sequence,0_3,2021-12-03T12:40:28.519Z,,,,,,,,,,,,,,,,,,,,,,,,,,,,,,12970.354999991046,,completion,,,,,,,,,,,,,,,,195596.89999999106,195595.89999999106,182608.878,182621.79999999702,182625.545,195597.062,,,
Standby,html.Page,0_4_0,2021-12-03T12:40:36.505Z,,,,,,,,,,,,,,,,,,,,,,,,,,,,,,8001.517999999982,,timeout,,,,,,,,,,,,,,,,203583.09999999404,203581.91,195580.391,195597.39999999106,195597.062,203598.58,,,
Holding screen,html.Screen,0_4_1_0_0,2021-12-03T12:40:43.508Z,,,,,,,,,,,,,,,,,,,,,,,,,,,,,,7002.393000000011,,timeout,,,,,,,,,,,,,,,,210586.09999999404,210584.303,203581.91,203583.39999999106,203598.58,210600.973,,,
screen,html.Screen,0_4_1_0_1_0,2021-12-03T12:40:44.957Z,,,,,,,,,,,,,,,,51,,,,,,,,,,,,,,1433.226999988081,,response,,,13,A,,,,,Space,keypress(Space),,,,silence,American -------- --- --- ---- --- --- ------ -- --------<br>---- --------- --- ------- ------------ ---------- ---------<br>--- ---------- ------- ---------- ------- -- -------- ----<br>---- --- ------ ----- ------ -- ---- --- ----- -- - -------<br>-------- -- --- --- -- ----- ----------- ----- -----------<br>---- --- ---------- --- ---- --- -- ----------,212035.29999999702,212034.19999998808,210584.303,210586.5,210600.973,212051.329,,0,American
screen,html.Screen,0_4_1_0_1_1,2021-12-03T12:40:45.605Z,,,,,,,,,,,,,,,,51,,,,,,,,,,,,,,630.5709999910614,,response,,,13,A,,,,,Space,keypress(Space),,,,silence,-------- industry --- --- ---- --- --- ------ -- --------<br>---- --------- --- ------- ------------ ---------- ---------<br>--- ---------- ------- ---------- ------- -- -------- ----<br>---- --- ------ ----- ------ -- ---- --- ----- -- - -------<br>-------- -- --- --- -- ----- ----------- ----- -----------<br>---- --- ---------- --- ---- --- -- ----------,212682.79999999702,212681.89999999106,212034.659,212035.59999999404,212051.329,212684.774,,1,industry
screen,html.Screen,0_4_1_0_1_2,2021-12-03T12:40:46.229Z,,,,,,,,,,,,,,,,51,,,,,,,,,,,,,,621.0259999970149,,response,,,13,A,,,,,Space,keypress(Space),,,,silence,-------- -------- may --- ---- --- --- ------ -- --------<br>---- --------- --- ------- ------------ ---------- ---------<br>--- ---------- ------- ---------- ------- -- -------- ----<br>---- --- ------ ----- ------ -- ---- --- ----- -- - -------<br>-------- -- --- --- -- ----- ----------- ----- -----------<br>---- --- ---------- --- ---- --- -- ----------,213306.59999999404,213305.79999999702,212668.104,212683.09999999404,212684.774,213318.486,,2,may
screen,html.Screen,0_4_1_0_1_3,2021-12-03T12:40:46.757Z,,,,,,,,,,,,,,,,51,,,,,,,,,,,,,,515.3139999970153,,response,,,13,A,,,,,Space,keypress(Space),,,,silence,-------- -------- --- not ---- --- --- ------ -- --------<br>---- --------- --- ------- ------------ ---------- ---------<br>--- ---------- ------- ---------- ------- -- -------- ----<br>---- --- ------ ----- ------ -- ---- --- ----- -- - -------<br>-------- -- --- --- -- ----- ----------- ----- -----------<br>---- --- ---------- --- ---- --- -- ----------,213834.59999999404,213833.79999999702,213301.815,213306.79999999702,213318.486,213851.911,,3,not
screen,html.Screen,0_4_1_0_1_4,2021-12-03T12:40:47.317Z,,,,,,,,,,,,,,,,51,,,,,,,,,,,,,,541.9889999910665,,response,,,13,A,,,,,Space,keypress(Space),,,,silence,-------- -------- --- --- know --- --- ------ -- --------<br>---- --------- --- ------- ------------ ---------- ---------<br>--- ---------- ------- ---------- ------- -- -------- ----<br>---- --- ------ ----- ------ -- ---- --- ----- -- - -------<br>-------- -- --- --- -- ----- ----------- ----- -----------<br>---- --- ---------- --- ---- --- -- ----------,214394.69999998808,214393.89999999106,213835.241,213835,213851.911,214402.055,,4,know
screen,html.Screen,0_4_1_0_1_5,2021-12-03T12:40:47.893Z,,,,,,,,,,,,,,,,51,,,,,,,,,,,,,,567.644999988086,,response,,,13,A,,,,,Space,keypress(Space),,,,silence,"-------- -------- --- --- ---- it, --- ------ -- --------<br>---- --------- --- ------- ------------ ---------- ---------<br>--- ---------- ------- ---------- ------- -- -------- ----<br>---- --- ------ ----- ------ -- ---- --- ----- -- - -------<br>-------- -- --- --- -- ----- ----------- ----- -----------<br>---- --- ---------- --- ---- --- -- ----------",214970.59999999404,214969.69999998808,214385.385,214394.89999999106,214402.055,214985.543,,5,"it,"
screen,html.Screen,0_4_1_0_1_6,2021-12-03T12:40:49.669Z,,,,,,,,,,,,,,,,51,,,,,,,,,,,,,,1760.156999988074,,response,,,13,A,,,,,Space,keypress(Space),,,,silence,-------- -------- --- --- ---- --- but ------ -- --------<br>---- --------- --- ------- ------------ ---------- ---------<br>--- ---------- ------- ---------- ------- -- -------- ----<br>---- --- ------ ----- ------ -- ---- --- ----- -- - -------<br>-------- -- --- --- -- ----- ----------- ----- -----------<br>---- --- ---------- --- ---- --- -- ----------,216746.5,216745.69999998808,214968.873,214970.79999999702,214985.543,216752.542,,6,but
screen,html.Screen,0_4_1_0_1_7,2021-12-03T12:40:50.173Z,,,,,,,,,,,,,,,,51,,,,,,,,,,,,,,497.0579999940528,,response,,,13,A,,,,,Space,keypress(Space),,,,silence,-------- -------- --- --- ---- --- --- debate -- --------<br>---- --------- --- ------- ------------ ---------- ---------<br>--- ---------- ------- ---------- ------- -- -------- ----<br>---- --- ------ ----- ------ -- ---- --- ----- -- - -------<br>-------- -- --- --- -- ----- ----------- ----- -----------<br>---- --- ---------- --- ---- --- -- ----------,217250.5,217249.59999999404,216735.872,216746.69999998808,216752.542,217252.929,,7,debate
screen,html.Screen,0_4_1_0_1_8,2021-12-03T12:40:50.645Z,,,,,,,,,,,,,,,,51,,,,,,,,,,,,,,468.6709999940358,,response,,,13,A,,,,,Space,keypress(Space),,,,silence,-------- -------- --- --- ---- --- --- ------ in --------<br>---- --------- --- ------- ------------ ---------- ---------<br>--- ---------- ------- ---------- ------- -- -------- ----<br>---- --- ------ ----- ------ -- ---- --- ----- -- - -------<br>-------- -- --- --- -- ----- ----------- ----- -----------<br>---- --- ---------- --- ---- --- -- ----------,217722.39999999106,217721.59999999404,217236.257,217250.69999998808,217252.929,217736.27,,8,in
screen,html.Screen,0_4_1_0_1_9,2021-12-03T12:40:51.309Z,,,,,,,,,,,,,,,,51,,,,,,,,,,,,,,649.32999999405,,response,,,13,A,,,,,Space,keypress(Space),,,,silence,-------- -------- --- --- ---- --- --- ------ -- Congress<br>---- --------- --- ------- ------------ ---------- ---------<br>--- ---------- ------- ---------- ------- -- -------- ----<br>---- --- ------ ----- ------ -- ---- --- ----- -- - -------<br>-------- -- --- --- -- ----- ----------- ----- -----------<br>---- --- ---------- --- ---- --- -- ----------,218386.39999999106,218385.59999999404,217719.6,217722.59999999404,217736.27,218403.168,,9,Congress
screen,html.Screen,0_4_1_0_1_10,2021-12-03T12:40:51.765Z,,,,,,,,,,,,,,,,51,,,,,,,,,,,,,,438.4319999940344,,response,,,13,A,,,,,Space,keypress(Space),,,,silence,-------- -------- --- --- ---- --- --- ------ -- --------<br>over --------- --- ------- ------------ ---------- ---------<br>--- ---------- ------- ---------- ------- -- -------- ----<br>---- --- ------ ----- ------ -- ---- --- ----- -- - -------<br>-------- -- --- --- -- ----- ----------- ----- -----------<br>---- --- ---------- --- ---- --- -- ----------,218842.39999999106,218841.59999999404,218386.497,218386.59999999404,218403.168,218853.254,,10,over
screen,html.Screen,0_4_1_0_1_11,2021-12-03T12:40:52.581Z,,,,,,,,,,,,,,,,51,,,,,,,,,,,,,,804.2460000000137,,response,,,13,A,,,,,Space,keypress(Space),,,,silence,-------- -------- --- --- ---- --- --- ------ -- --------<br>---- reforming --- ------- ------------ ---------- ---------<br>--- ---------- ------- ---------- ------- -- -------- ----<br>---- --- ------ ----- ------ -- ---- --- ----- -- - -------<br>-------- -- --- --- -- ----- ----------- ----- -----------<br>---- --- ---------- --- ---- --- -- ----------,219658.39999999106,219657.5,218836.584,218842.59999999404,218853.254,219669.976,,11,reforming
screen,html.Screen,0_4_1_0_1_12,2021-12-03T12:40:53.013Z,,,,,,,,,,,,,,,,51,,,,,,,,,,,,,,419.5240000000049,,response,,,13,A,,,,,Space,keypress(Space),,,,silence,-------- -------- --- --- ---- --- --- ------ -- --------<br>---- --------- the ------- ------------ ---------- ---------<br>--- ---------- ------- ---------- ------- -- -------- ----<br>---- --- ------ ----- ------ -- ---- --- ----- -- - -------<br>-------- -- --- --- -- ----- ----------- ----- -----------<br>---- --- ---------- --- ---- --- -- ----------,220090.39999999106,220089.5,219653.307,219658.59999999404,219669.976,220103.685,,12,the
screen,html.Screen,0_4_1_0_1_13,2021-12-03T12:40:53.652Z,,,,,,,,,,,,,,,,51,,,,,,,,,,,,,,625.8150000000023,,response,,,13,A,,,,,Space,keypress(Space),,,,silence,-------- -------- --- --- ---- --- --- ------ -- --------<br>---- --------- --- federal ------------ ---------- ---------<br>--- ---------- ------- ---------- ------- -- -------- ----<br>---- --- ------ ----- ------ -- ---- --- ----- -- - -------<br>-------- -- --- --- -- ----- ----------- ----- -----------<br>---- --- ---------- --- ---- --- -- ----------,220730.29999999702,220729.5,220087.013,220090.59999999404,220103.685,220737.122,,13,federal
screen,html.Screen,0_4_1_0_1_14,2021-12-03T12:40:54.284Z,,,,,,,,,,,,,,,,51,,,,,,,,,,,,,,624.377999999997,,response,,,13,A,,,,,Space,keypress(Space),,,,silence,-------- -------- --- --- ---- --- --- ------ -- --------<br>---- --------- --- ------- government's ---------- ---------<br>--- ---------- ------- ---------- ------- -- -------- ----<br>---- --- ------ ----- ------ -- ---- --- ----- -- - -------<br>-------- -- --- --- -- ----- ----------- ----- -----------<br>---- --- ---------- --- ---- --- -- ----------,221362.19999998808,221361.5,220720.451,220730.5,220737.122,221370.562,,14,government's
screen,html.Screen,0_4_1_0_1_15,2021-12-03T12:40:55.037Z,,,,,,,,,,,,,,,,51,,,,,,,,,,,,,,743.2379999970144,,response,,,13,A,,,,,Space,keypress(Space),,,,silence,-------- -------- --- --- ---- --- --- ------ -- --------<br>---- --------- --- ------- ------------ regulatory ---------<br>--- ---------- ------- ---------- ------- -- -------- ----<br>---- --- ------ ----- ------ -- ---- --- ----- -- - -------<br>-------- -- --- --- -- ----- ----------- ----- -----------<br>---- --- ---------- --- ---- --- -- ----------,222114.59999999404,222113.79999999702,221353.892,221362.5,221370.562,222120.693,,15,regulatory
screen,html.Screen,0_4_1_0_1_16,2021-12-03T12:40:55.772Z,,,,,,,,,,,,,,,,51,,,,,,,,,,,,,,728.70699999106,,response,,,13,A,,,,,Space,keypress(Space),,,,silence,-------- -------- --- --- ---- --- --- ------ -- --------<br>---- --------- --- ------- ------------ ---------- apparatus<br>--- ---------- ------- ---------- ------- -- -------- ----<br>---- --- ------ ----- ------ -- ---- --- ----- -- - -------<br>-------- -- --- --- -- ----- ----------- ----- -----------<br>---- --- ---------- --- ---- --- -- ----------,222850.09999999404,222849.39999999106,222104.023,222114.79999999702,222120.693,222854.422,,16,apparatus
screen,html.Screen,0_4_1_0_1_17,2021-12-03T12:40:56.724Z,,,,,,,,,,,,,,,,51,,,,,,,,,,,,,,946.8779999970284,,response,,,13,A,,,,,Space,keypress(Space),,,,silence,-------- -------- --- --- ---- --- --- ------ -- --------<br>---- --------- --- ------- ------------ ---------- ---------<br>may ---------- ------- ---------- ------- -- -------- ----<br>---- --- ------ ----- ------ -- ---- --- ----- -- - -------<br>-------- -- --- --- -- ----- ----------- ----- -----------<br>---- --- ---------- --- ---- --- -- ----------,223802.09999999404,223801.29999999702,222837.75,222850.39999999106,222854.422,223804.521,,17,may
screen,html.Screen,0_4_1_0_1_18,2021-12-03T12:40:57.372Z,,,,,,,,,,,,,,,,51,,,,,,,,,,,,,,644.7789999970119,,response,,,13,A,,,,,Space,keypress(Space),,,,silence,-------- -------- --- --- ---- --- --- ------ -- --------<br>---- --------- --- ------- ------------ ---------- ---------<br>--- profoundly ------- ---------- ------- -- -------- ----<br>---- --- ------ ----- ------ -- ---- --- ----- -- - -------<br>-------- -- --- --- -- ----- ----------- ----- -----------<br>---- --- ---------- --- ---- --- -- ----------,224450.09999999404,224449.29999999702,223787.851,223802.5,223804.521,224454.703,,18,profoundly
screen,html.Screen,0_4_1_0_1_19,2021-12-03T12:40:57.812Z,,,,,,,,,,,,,,,,51,,,,,,,,,,,,,,434.59699999701115,,response,,,13,A,,,,,Space,keypress(Space),,,,silence,-------- -------- --- --- ---- --- --- ------ -- --------<br>---- --------- --- ------- ------------ ---------- ---------<br>--- ---------- improve ---------- ------- -- -------- ----<br>---- --- ------ ----- ------ -- ---- --- ----- -- - -------<br>-------- -- --- --- -- ----- ----------- ----- -----------<br>---- --- ---------- --- ---- --- -- ----------,224890.09999999404,224889.29999999702,224438.033,224450.39999999106,224454.703,224904.859,,19,improve
screen,html.Screen,0_4_1_0_1_20,2021-12-03T12:40:58.396Z,,,,,,,,,,,,,,,,51,,,,,,,,,,,,,,568.440999997023,,response,,,13,A,,,,,Space,keypress(Space),,,,silence,-------- -------- --- --- ---- --- --- ------ -- --------<br>---- --------- --- ------- ------------ ---------- ---------<br>--- ---------- ------- companies' ------- -- -------- ----<br>---- --- ------ ----- ------ -- ---- --- ----- -- - -------<br>-------- -- --- --- -- ----- ----------- ----- -----------<br>---- --- ---------- --- ---- --- -- ----------,225474.19999998808,225473.29999999702,224888.189,224890.29999999702,224904.859,225488.339,,20,companies'
screen,html.Screen,0_4_1_0_1_21,2021-12-03T12:40:58.940Z,,,,,,,,,,,,,,,,51,,,,,,,,,,,,,,528.8609999880719,,response,,,13,A,,,,,Space,keypress(Space),,,,silence,-------- -------- --- --- ---- --- --- ------ -- --------<br>---- --------- --- ------- ------------ ---------- ---------<br>--- ---------- ------- ---------- ability -- -------- ----<br>---- --- ------ ----- ------ -- ---- --- ----- -- - -------<br>-------- -- --- --- -- ----- ----------- ----- -----------<br>---- --- ---------- --- ---- --- -- ----------,226018,226017.19999998808,225471.669,225474.39999999106,225488.339,226021.784,,21,ability
screen,html.Screen,0_4_1_0_1_22,2021-12-03T12:40:59.292Z,,,,,,,,,,,,,,,,51,,,,,,,,,,,,,,347.41599998806487,,response,,,13,A,,,,,Space,keypress(Space),,,,silence,-------- -------- --- --- ---- --- --- ------ -- --------<br>---- --------- --- ------- ------------ ---------- ---------<br>--- ---------- ------- ---------- ------- to -------- ----<br>---- --- ------ ----- ------ -- ---- --- ----- -- - -------<br>-------- -- --- --- -- ----- ----------- ----- -----------<br>---- --- ---------- --- ---- --- -- ----------,226370,226369.19999998808,226005.114,226018.29999999702,226021.784,226371.955,,22,to
screen,html.Screen,0_4_1_0_1_23,2021-12-03T12:40:59.644Z,,,,,,,,,,,,,,,,51,,,,,,,,,,,,,,349.14499999405234,,response,,,13,A,,,,,Space,keypress(Space),,,,silence,-------- -------- --- --- ---- --- --- ------ -- --------<br>---- --------- --- ------- ------------ ---------- ---------<br>--- ---------- ------- ---------- ------- -- survive. ----<br>---- --- ------ ----- ------ -- ---- --- ----- -- - -------<br>-------- -- --- --- -- ----- ----------- ----- -----------<br>---- --- ---------- --- ---- --- -- ----------,226721.89999999106,226721.09999999404,226355.284,226370.19999998808,226371.955,226738.675,,23,survive.
screen,html.Screen,0_4_1_0_1_24,2021-12-03T12:41:06.284Z,,,,,,,,,,,,,,,,51,,,,,,,,,,,,,,6622.624999997031,,response,,,13,A,,,,,Space,keypress(Space),,,,silence,-------- -------- --- --- ---- --- --- ------ -- --------<br>---- --------- --- ------- ------------ ---------- ---------<br>--- ---------- ------- ---------- ------- -- -------- This<br>---- --- ------ ----- ------ -- ---- --- ----- -- - -------<br>-------- -- --- --- -- ----- ----------- ----- -----------<br>---- --- ---------- --- ---- --- -- ----------,233362.09999999404,233361.29999999702,226722.005,226722.09999999404,226738.675,233373.784,,24,This
screen,html.Screen,0_4_1_0_1_25,2021-12-03T12:41:07.060Z,,,,,,,,,,,,,,,,51,,,,,,,,,,,,,,763.1159999910451,,response,,,13,A,,,,,Space,keypress(Space),,,,silence,-------- -------- --- --- ---- --- --- ------ -- --------<br>---- --------- --- ------- ------------ ---------- ---------<br>--- ---------- ------- ---------- ------- -- -------- ----<br>week --- ------ ----- ------ -- ---- --- ----- -- - -------<br>-------- -- --- --- -- ----- ----------- ----- -----------<br>---- --- ---------- --- ---- --- -- ----------,234137.59999999404,234136.89999999106,233357.113,233362.39999999106,233373.784,234140.63,,25,week
screen,html.Screen,0_4_1_0_1_26,2021-12-03T12:41:07.484Z,,,,,,,,,,,,,,,,51,,,,,,,,,,,,,,420.26999999105465,,response,,,13,A,,,,,Space,keypress(Space),,,,silence,-------- -------- --- --- ---- --- --- ------ -- --------<br>---- --------- --- ------- ------------ ---------- ---------<br>--- ---------- ------- ---------- ------- -- -------- ----<br>---- the ------ ----- ------ -- ---- --- ----- -- - -------<br>-------- -- --- --- -- ----- ----------- ----- -----------<br>---- --- ---------- --- ---- --- -- ----------,234561.69999998808,234560.89999999106,234123.959,234137.79999999702,234140.63,234574.015,,26,the
screen,html.Screen,0_4_1_0_1_27,2021-12-03T12:41:07.996Z,,,,,,,,,,,,,,,,51,,,,,,,,,,,,,,498.7849999970058,,response,,,13,A,,,,,Space,keypress(Space),,,,silence,-------- -------- --- --- ---- --- --- ------ -- --------<br>---- --------- --- ------- ------------ ---------- ---------<br>--- ---------- ------- ---------- ------- -- -------- ----<br>---- --- Senate ----- ------ -- ---- --- ----- -- - -------<br>-------- -- --- --- -- ----- ----------- ----- -----------<br>---- --- ---------- --- ---- --- -- ----------,235073.59999999404,235072.79999999702,234557.345,234561.89999999106,234574.015,235091.005,,27,Senate
screen,html.Screen,0_4_1_0_1_28,2021-12-03T12:41:08.324Z,,,,,,,,,,,,,,,,51,,,,,,,,,,,,,,309.7949999970151,,response,,,13,A,,,,,Space,keypress(Space),,,,silence,-------- -------- --- --- ---- --- --- ------ -- --------<br>---- --------- --- ------- ------------ ---------- ---------<br>--- ---------- ------- ---------- ------- -- -------- ----<br>---- --- ------ seems ------ -- ---- --- ----- -- - -------<br>-------- -- --- --- -- ----- ----------- ----- -----------<br>---- --- ---------- --- ---- --- -- ----------,235401.59999999404,235400.79999999702,235074.333,235073.89999999106,235091.005,235407.646,,28,seems
screen,html.Screen,0_4_1_0_1_29,2021-12-03T12:41:08.860Z,,,,,,,,,,,,,,,,51,,,,,,,,,,,,,,529.1539999970119,,response,,,13,A,,,,,Space,keypress(Space),,,,silence,-------- -------- --- --- ---- --- --- ------ -- --------<br>---- --------- --- ------- ------------ ---------- ---------<br>--- ---------- ------- ---------- ------- -- -------- ----<br>---- --- ------ ----- poised -- ---- --- ----- -- - -------<br>-------- -- --- --- -- ----- ----------- ----- -----------<br>---- --- ---------- --- ---- --- -- ----------,235937.59999999404,235936.79999999702,235390.976,235401.89999999106,235407.646,235941.09,,29,poised
screen,html.Screen,0_4_1_0_1_30,2021-12-03T12:41:09.444Z,,,,,,,,,,,,,,,,51,,,,,,,,,,,,,,579.6099999880826,,response,,,13,A,,,,,Space,keypress(Space),,,,silence,-------- -------- --- --- ---- --- --- ------ -- --------<br>---- --------- --- ------- ------------ ---------- ---------<br>--- ---------- ------- ---------- ------- -- -------- ----<br>---- --- ------ ----- ------ to ---- --- ----- -- - -------<br>-------- -- --- --- -- ----- ----------- ----- -----------<br>---- --- ---------- --- ---- --- -- ----------,236521.59999999404,236520.69999998808,235924.42,235937.79999999702,235941.09,236524.651,,30,to
screen,html.Screen,0_4_1_0_1_31,2021-12-03T12:41:09.844Z,,,,,,,,,,,,,,,,51,,,,,,,,,,,,,,396.0489999880665,,response,,,13,A,,,,,Space,keypress(Space),,,,silence,-------- -------- --- --- ---- --- --- ------ -- --------<br>---- --------- --- ------- ------------ ---------- ---------<br>--- ---------- ------- ---------- ------- -- -------- ----<br>---- --- ------ ----- ------ -- join --- ----- -- - -------<br>-------- -- --- --- -- ----- ----------- ----- -----------<br>---- --- ---------- --- ---- --- -- ----------,236921.5,236920.69999998808,236507.98,236521.89999999106,236524.651,236924.776,,31,join
screen,html.Screen,0_4_1_0_1_32,2021-12-03T12:41:10.116Z,,,,,,,,,,,,,,,,51,,,,,,,,,,,,,,267.9239999880665,,response,,,13,A,,,,,Space,keypress(Space),,,,silence,-------- -------- --- --- ---- --- --- ------ -- --------<br>---- --------- --- ------- ------------ ---------- ---------<br>--- ---------- ------- ---------- ------- -- -------- ----<br>---- --- ------ ----- ------ -- ---- the ----- -- - -------<br>-------- -- --- --- -- ----- ----------- ----- -----------<br>---- --- ---------- --- ---- --- -- ----------,237193.5,237192.69999998808,236908.105,236921.69999998808,236924.776,237208.121,,32,the
screen,html.Screen,0_4_1_0_1_33,2021-12-03T12:41:10.380Z,,,,,,,,,,,,,,,,51,,,,,,,,,,,,,,248.57899998806533,,response,,,13,A,,,,,Space,keypress(Space),,,,silence,-------- -------- --- --- ---- --- --- ------ -- --------<br>---- --------- --- ------- ------------ ---------- ---------<br>--- ---------- ------- ---------- ------- -- -------- ----<br>---- --- ------ ----- ------ -- ---- --- House -- - -------<br>-------- -- --- --- -- ----- ----------- ----- -----------<br>---- --- ---------- --- ---- --- -- ----------,237457.5,237456.69999998808,237191.451,237193.69999998808,237208.121,237474.812,,33,House
screen,html.Screen,0_4_1_0_1_34,2021-12-03T12:41:10.844Z,,,,,,,,,,,,,,,,51,,,,,,,,,,,,,,445.8879999880737,,response,,,13,A,,,,,Space,keypress(Space),,,,silence,-------- -------- --- --- ---- --- --- ------ -- --------<br>---- --------- --- ------- ------------ ---------- ---------<br>--- ---------- ------- ---------- ------- -- -------- ----<br>---- --- ------ ----- ------ -- ---- --- ----- in - -------<br>-------- -- --- --- -- ----- ----------- ----- -----------<br>---- --- ---------- --- ---- --- -- ----------,237921.5,237920.69999998808,237458.143,237457.79999999702,237474.812,237925.096,,34,in
screen,html.Screen,0_4_1_0_1_35,2021-12-03T12:41:11.355Z,,,,,,,,,,,,,,,,51,,,,,,,,,,,,,,507.40400000000955,,response,,,13,A,,,,,Space,keypress(Space),,,,silence,-------- -------- --- --- ---- --- --- ------ -- --------<br>---- --------- --- ------- ------------ ---------- ---------<br>--- ---------- ------- ---------- ------- -- -------- ----<br>---- --- ------ ----- ------ -- ---- --- ----- -- a -------<br>-------- -- --- --- -- ----- ----------- ----- -----------<br>---- --- ---------- --- ---- --- -- ----------,238433.29999999702,238432.5,237908.423,237921.79999999702,237925.096,238441.758,,35,a
screen,html.Screen,0_4_1_0_1_36,2021-12-03T12:41:12.028Z,,,,,,,,,,,,,,,,51,,,,,,,,,,,,,,662.8419999940379,,response,,,13,A,,,,,Space,keypress(Space),,,,silence,-------- -------- --- --- ---- --- --- ------ -- --------<br>---- --------- --- ------- ------------ ---------- ---------<br>--- ---------- ------- ---------- ------- -- -------- ----<br>---- --- ------ ----- ------ -- ---- --- ----- -- - massive<br>-------- -- --- --- -- ----- ----------- ----- -----------<br>---- --- ---------- --- ---- --- -- ----------,239105.29999999702,239104.59999999404,238425.088,238433.5,238441.758,239108.655,,36,massive
screen,html.Screen,0_4_1_0_1_37,2021-12-03T12:41:12.804Z,,,,,,,,,,,,,,,,51,,,,,,,,,,,,,,771.9449999940407,,response,,,13,A,,,,,Space,keypress(Space),,,,silence,-------- -------- --- --- ---- --- --- ------ -- --------<br>---- --------- --- ------- ------------ ---------- ---------<br>--- ---------- ------- ---------- ------- -- -------- ----<br>---- --- ------ ----- ------ -- ---- --- ----- -- - -------<br>overhaul -- --- --- -- ----- ----------- ----- -----------<br>---- --- ---------- --- ---- --- -- ----------,239881.39999999106,239880.59999999404,239091.984,239105.59999999404,239108.655,239892.148,,37,overhaul
screen,html.Screen,0_4_1_0_1_38,2021-12-03T12:41:13.171Z,,,,,,,,,,,,,,,,51,,,,,,,,,,,,,,356.2519999910728,,response,,,13,A,,,,,Space,keypress(Space),,,,silence,-------- -------- --- --- ---- --- --- ------ -- --------<br>---- --------- --- ------- ------------ ---------- ---------<br>--- ---------- ------- ---------- ------- -- -------- ----<br>---- --- ------ ----- ------ -- ---- --- ----- -- - -------<br>-------- of --- --- -- ----- ----------- ----- -----------<br>---- --- ---------- --- ---- --- -- ----------,240249.19999998808,240248.39999999106,239875.478,239881.69999998808,239892.148,240258.984,,38,of
screen,html.Screen,0_4_1_0_1_39,2021-12-03T12:41:13.516Z,,,,,,,,,,,,,,,,51,,,,,,,,,,,,,,333.51600000000326,,response,,,13,A,,,,,Space,keypress(Space),,,,silence,-------- -------- --- --- ---- --- --- ------ -- --------<br>---- --------- --- ------- ------------ ---------- ---------<br>--- ---------- ------- ---------- ------- -- -------- ----<br>---- --- ------ ----- ------ -- ---- --- ----- -- - -------<br>-------- -- the --- -- ----- ----------- ----- -----------<br>---- --- ---------- --- ---- --- -- ----------,240593.5,240592.5,240242.313,240249.5,240258.984,240609.029,,39,the
screen,html.Screen,0_4_1_0_1_40,2021-12-03T12:41:13.886Z,,,,,,,,,,,,,,,,51,,,,,,,,,,,,,,351.57099999403,,response,,,13,A,,,,,Space,keypress(Space),,,,silence,-------- -------- --- --- ---- --- --- ------ -- --------<br>---- --------- --- ------- ------------ ---------- ---------<br>--- ---------- ------- ---------- ------- -- -------- ----<br>---- --- ------ ----- ------ -- ---- --- ----- -- - -------<br>-------- -- --- way -- ----- ----------- ----- -----------<br>---- --- ---------- --- ---- --- -- ----------,240961.29999999702,240960.59999999404,240592.359,240593.69999998808,240609.029,240975.7,,40,way
screen,html.Screen,0_4_1_0_1_41,2021-12-03T12:41:14.174Z,,,,,,,,,,,,,,,,51,,,,,,,,,,,,,,272.79999999998836,,response,,,13,A,,,,,Space,keypress(Space),,,,silence,-------- -------- --- --- ---- --- --- ------ -- --------<br>---- --------- --- ------- ------------ ---------- ---------<br>--- ---------- ------- ---------- ------- -- -------- ----<br>---- --- ------ ----- ------ -- ---- --- ----- -- - -------<br>-------- -- --- --- in ----- ----------- ----- -----------<br>---- --- ---------- --- ---- --- -- ----------,241249.29999999702,241248.5,240959.031,240961.5,240975.7,241259.171,,41,in
screen,html.Screen,0_4_1_0_1_42,2021-12-03T12:41:14.710Z,,,,,,,,,,,,,,,,51,,,,,,,,,,,,,,525.3289999999979,,response,,,13,A,,,,,Space,keypress(Space),,,,silence,-------- -------- --- --- ---- --- --- ------ -- --------<br>---- --------- --- ------- ------------ ---------- ---------<br>--- ---------- ------- ---------- ------- -- -------- ----<br>---- --- ------ ----- ------ -- ---- --- ----- -- - -------<br>-------- -- --- --- -- which ----------- ----- -----------<br>---- --- ---------- --- ---- --- -- ----------,241785.19999998808,241784.5,241242.501,241249.59999999404,241259.171,241792.806,,42,which
screen,html.Screen,0_4_1_0_1_43,2021-12-03T12:41:15.950Z,,,,,,,,,,,,,,,,51,,,,,,,,,,,,,,1231.4939999970084,,response,,,13,A,,,,,Space,keypress(Space),,,,silence,-------- -------- --- --- ---- --- --- ------ -- --------<br>---- --------- --- ------- ------------ ---------- ---------<br>--- ---------- ------- ---------- ------- -- -------- ----<br>---- --- ------ ----- ------ -- ---- --- ----- -- - -------<br>-------- -- --- --- -- ----- bureaucrats ----- -----------<br>---- --- ---------- --- ---- --- -- ----------,243025.09999999404,243024.29999999702,241776.133,241785.5,241792.806,243026.252,,43,bureaucrats
screen,html.Screen,0_4_1_0_1_44,2021-12-03T12:41:16.638Z,,,,,,,,,,,,,,,,51,,,,,,,,,,,,,,686.5479999970121,,response,,,13,A,,,,,Space,keypress(Space),,,,silence,-------- -------- --- --- ---- --- --- ------ -- --------<br>---- --------- --- ------- ------------ ---------- ---------<br>--- ---------- ------- ---------- ------- -- -------- ----<br>---- --- ------ ----- ------ -- ---- --- ----- -- - -------<br>-------- -- --- --- -- ----- ----------- enact -----------<br>---- --- ---------- --- ---- --- -- ----------,243713.59999999404,243712.79999999702,243009.582,243025.29999999702,243026.252,243726.334,,44,enact
screen,html.Screen,0_4_1_0_1_45,2021-12-03T12:41:18.550Z,,,,,,,,,,,,,,,,51,,,,,,,,,,,,,,1897.9659999970172,,response,,,13,A,,,,,Space,keypress(Space),,,,silence,-------- -------- --- --- ---- --- --- ------ -- --------<br>---- --------- --- ------- ------------ ---------- ---------<br>--- ---------- ------- ---------- ------- -- -------- ----<br>---- --- ------ ----- ------ -- ---- --- ----- -- - -------<br>-------- -- --- --- -- ----- ----------- ----- regulations<br>---- --- ---------- --- ---- --- -- ----------,245625,245624.29999999702,243709.665,243713.79999999702,243726.334,245626.889,,45,regulations
screen,html.Screen,0_4_1_0_1_46,2021-12-03T12:41:19.534Z,,,,,,,,,,,,,,,,51,,,,,,,,,,,,,,981.4109999970242,,response,,,13,A,,,,,Space,keypress(Space),,,,silence,-------- -------- --- --- ---- --- --- ------ -- --------<br>---- --------- --- ------- ------------ ---------- ---------<br>--- ---------- ------- ---------- ------- -- -------- ----<br>---- --- ------ ----- ------ -- ---- --- ----- -- - -------<br>-------- -- --- --- -- ----- ----------- ----- -----------<br>that --- ---------- --- ---- --- -- ----------,246609.09999999404,246608.29999999702,245610.219,245625.29999999702,245626.889,246610.697,,46,that
screen,html.Screen,0_4_1_0_1_47,2021-12-03T12:41:19.854Z,,,,,,,,,,,,,,,,51,,,,,,,,,,,,,,317.6029999970342,,response,,,13,A,,,,,Space,keypress(Space),,,,silence,-------- -------- --- --- ---- --- --- ------ -- --------<br>---- --------- --- ------- ------------ ---------- ---------<br>--- ---------- ------- ---------- ------- -- -------- ----<br>---- --- ------ ----- ------ -- ---- --- ----- -- - -------<br>-------- -- --- --- -- ----- ----------- ----- -----------<br>---- are ---------- --- ---- --- -- ----------,246929.09999999404,246928.29999999702,246594.026,246609.39999999106,246610.697,246944.054,,47,are
screen,html.Screen,0_4_1_0_1_48,2021-12-03T12:41:20.758Z,,,,,,,,,,,,,,,,51,,,,,,,,,,,,,,888.1459999880753,,response,,,13,A,,,,,Space,keypress(Space),,,,silence,-------- -------- --- --- ---- --- --- ------ -- --------<br>---- --------- --- ------- ------------ ---------- ---------<br>--- ---------- ------- ---------- ------- -- -------- ----<br>---- --- ------ ----- ------ -- ---- --- ----- -- - -------<br>-------- -- --- --- -- ----- ----------- ----- -----------<br>---- --- strangling --- ---- --- -- ----------,247833,247832.19999998808,246927.384,246929.29999999702,246944.054,247844.255,,48,strangling
screen,html.Screen,0_4_1_0_1_49,2021-12-03T12:41:21.390Z,,,,,,,,,,,,,,,,51,,,,,,,,,,,,,,619.9449999880744,,response,,,13,A,,,,,Space,keypress(Space),,,,silence,-------- -------- --- --- ---- --- --- ------ -- --------<br>---- --------- --- ------- ------------ ---------- ---------<br>--- ---------- ------- ---------- ------- -- -------- ----<br>---- --- ------ ----- ------ -- ---- --- ----- -- - -------<br>-------- -- --- --- -- ----- ----------- ----- -----------<br>---- --- ---------- the ---- --- -- ----------,248465,248464.19999998808,247827.585,247833.29999999702,247844.255,248477.529,,49,the
screen,html.Screen,0_4_1_0_1_50,2021-12-03T12:41:21.942Z,,,,,,,,,,,,,,,,51,,,,,,,,,,,,,,538.6709999880695,,response,,,13,A,,,,,Space,keypress(Space),,,,silence,-------- -------- --- --- ---- --- --- ------ -- --------<br>---- --------- --- ------- ------------ ---------- ---------<br>--- ---------- ------- ---------- ------- -- -------- ----<br>---- --- ------ ----- ------ -- ---- --- ----- -- - -------<br>-------- -- --- --- -- ----- ----------- ----- -----------<br>---- --- ---------- --- life --- -- ----------,249017,249016.19999998808,248460.861,248465.19999998808,248477.529,249027.978,,50,life
