sender,sender_type,sender_id,timestamp,meta,,Blues,Classical,Country,Dance,Electronic,Folk,Gospel,Hip-Hop,Jazz,Latin,Musical/Film,New-age,Pop,Provo_ID,R&B,Rap,Reggae,Religious,Rock,Soul,Swing,Traditional,age,artist_name,correct,correctResponse,distraction,duration,education,ended_on,familiarity,gender,item,list,music_frequency,offensiveness,pleasantness,preference,response,response_action,snippet_file,song_name,song_rating,sound,text,time_commit,time_end,time_render,time_run,time_show,time_switch,url,word,word_ID
Instructions,html.Page,0_0,2021-11-12T13:24:46.304Z,"{""labjs_version"":""20.2.3"",""labjs_build"":{""flavor"":""production"",""commit"":""7ea907d66ca8aeef8054924ca5d82ffbe11e34e5""},""location"":""https://run.pavlovia.org/mvasilev/lab_music_c/"",""userAgent"":""Mozilla/5.0 (Windows NT 6.1; Win64; x64) AppleWebKit/537.36 (KHTML, like Gecko) Chrome/95.0.4638.69 Safari/537.36"",""platform"":""Win32"",""language"":""en-US"",""locale"":""en-US"",""timeZone"":""Europe/London"",""timezoneOffset"":0,""screen_width"":1920,""screen_height"":1080,""scroll_width"":1920,""scroll_height"":959,""window_innerWidth"":1920,""window_innerHeight"":1007,""devicePixelRatio"":1}",,,,,,,,,,,,,,,,,,,,,,,,,,,,,26385.58999998808,,form submission,,,,,,,,,,,,,,,,34540,34538.69999998808,8103.097,8126.699999988079,8153.11,34539.328,{},,
Headphones,html.Page,0_1,2021-11-12T13:24:49.121Z,,,,,,,,,,,,,,,,,,,,,,,,,,,,,,2816.8719999880777,,form submission,,,,,,,,,,,,,,,,37356.69999998808,37356.19999998808,34522.673,34540.89999997616,34539.328,37358.082,,,
Holding screen,html.Screen,0_2_0_0,2021-11-12T13:24:59.117Z,,,,,,,,,,,,,,,,,,,,,,,,,,,,,,10004.82,,timeout,,,,,,,,,,,,,,,,47352.799999952316,47346.233,37341.425,37357.299999952316,37358.082,47362.902,,,
screen,html.Screen,0_2_0_1_0,2021-11-12T13:25:00.175Z,,,,,,,,,,,,,,,,53,,,,,,,,,,,,,,1046.7979999880772,,response,,,99,,,,,,Space,keypress(Space),,,,,When -- ----- -- ------ - ------- --- ----------<br>------------- ------ ------ ---- ---- ------- ----- -- ----<br>-------- ------- -- ---------- --- - --- ----- ----- ----<br>---- --- --- ----- --- ---- ---- ------- ----- ---- -------<br>--- --- -- ----- -- --- ---- -- --- ---- -- ------ ------<br>--- ----- -- ----,48410.69999998808,48409.69999998808,47346.233,47353.299999952316,47362.902,48413.475,,0,When
screen,html.Screen,0_2_0_1_1,2021-11-12T13:25:00.774Z,,,,,,,,,,,,,,,,53,,,,,,,,,,,,,,595.6249999642387,,response,,,99,,,,,,Space,keypress(Space),,,,,---- it ----- -- ------ - ------- --- ----------<br>------------- ------ ------ ---- ---- ------- ----- -- ----<br>-------- ------- -- ---------- --- - --- ----- ----- ----<br>---- --- --- ----- --- ---- ---- ------- ----- ---- -------<br>--- --- -- ----- -- --- ---- -- --- ---- -- ------ ------<br>--- ----- -- ----,49009.69999998808,49009.09999996424,48396.804,48411,48413.475,49013.567,,1,it
screen,html.Screen,0_2_0_1_2,2021-11-12T13:25:01.655Z,,,,,,,,,,,,,,,,53,,,,,,,,,,,,,,875.9329999999973,,response,,,99,,,,,,Space,keypress(Space),,,,,---- -- comes -- ------ - ------- --- ----------<br>------------- ------ ------ ---- ---- ------- ----- -- ----<br>-------- ------- -- ---------- --- - --- ----- ----- ----<br>---- --- --- ----- --- ---- ---- ------- ----- ---- -------<br>--- --- -- ----- -- --- ---- -- --- ---- -- ------ ------<br>--- ----- -- ----,49890.5,49889.5,48996.897,49009.69999998808,49013.567,49897.165,,2,comes
screen,html.Screen,0_2_0_1_3,2021-11-12T13:25:02.151Z,,,,,,,,,,,,,,,,53,,,,,,,,,,,,,,488.3349999999991,,response,,,99,,,,,,Space,keypress(Space),,,,,---- -- ----- to ------ - ------- --- ----------<br>------------- ------ ------ ---- ---- ------- ----- -- ----<br>-------- ------- -- ---------- --- - --- ----- ----- ----<br>---- --- --- ----- --- ---- ---- ------- ----- ---- -------<br>--- --- -- ----- -- --- ---- -- --- ---- -- ------ ------<br>--- ----- -- ----,50386.5,50385.5,49880.494,49890.69999998808,49897.165,50397.042,,3,to
screen,html.Screen,0_2_0_1_4,2021-11-12T13:25:02.783Z,,,,,,,,,,,,,,,,53,,,,,,,,,,,,,,620.3579999761569,,response,,,99,,,,,,Space,keypress(Space),,,,,---- -- ----- -- having - ------- --- ----------<br>------------- ------ ------ ---- ---- ------- ----- -- ----<br>-------- ------- -- ---------- --- - --- ----- ----- ----<br>---- --- --- ----- --- ---- ---- ------- ----- ---- -------<br>--- --- -- ----- -- --- ---- -- --- ---- -- ------ ------<br>--- ----- -- ----,51018.69999998808,51017.39999997616,50380.374,50387,50397.042,51030.871,,4,having
screen,html.Screen,0_2_0_1_5,2021-11-12T13:25:03.287Z,,,,,,,,,,,,,,,,53,,,,,,,,,,,,,,490.52899997615896,,response,,,99,,,,,,Space,keypress(Space),,,,,---- -- ----- -- ------ a ------- --- ----------<br>------------- ------ ------ ---- ---- ------- ----- -- ----<br>-------- ------- -- ---------- --- - --- ----- ----- ----<br>---- --- --- ----- --- ---- ---- ------- ----- ---- -------<br>--- --- -- ----- -- --- ---- -- --- ---- -- ------ ------<br>--- ----- -- ----,51522.299999952316,51521.39999997616,51014.199,51019,51030.871,51530.755,,5,a
screen,html.Screen,0_2_0_1_6,2021-11-12T13:25:03.935Z,,,,,,,,,,,,,,,,53,,,,,,,,,,,,,,638.6449999761608,,response,,,99,,,,,,Space,keypress(Space),,,,,---- -- ----- -- ------ - lasting --- ----------<br>------------- ------ ------ ---- ---- ------- ----- -- ----<br>-------- ------- -- ---------- --- - --- ----- ----- ----<br>---- --- --- ----- --- ---- ---- ------- ----- ---- -------<br>--- --- -- ----- -- --- ---- -- --- ---- -- ------ ------<br>--- ----- -- ----,52170.39999997616,52169.39999997616,51514.086,51522.89999997616,51530.755,52181.163,,6,lasting
screen,html.Screen,0_2_0_1_7,2021-11-12T13:25:04.439Z,,,,,,,,,,,,,,,,53,,,,,,,,,,,,,,492.0369999880786,,response,,,99,,,,,,Space,keypress(Space),,,,,---- -- ----- -- ------ - ------- and ----------<br>------------- ------ ------ ---- ---- ------- ----- -- ----<br>-------- ------- -- ---------- --- - --- ----- ----- ----<br>---- --- --- ----- --- ---- ---- ------- ----- ---- -------<br>--- --- -- ----- -- --- ---- -- --- ---- -- ------ ------<br>--- ----- -- ----,52674.19999998808,52673.19999998808,52164.491,52170.799999952316,52181.163,52681.067,,7,and
screen,html.Screen,0_2_0_1_8,2021-11-12T13:25:04.911Z,,,,,,,,,,,,,,,,53,,,,,,,,,,,,,,464.23299995231355,,response,,,99,,,,,,Space,keypress(Space),,,,,---- -- ----- -- ------ - ------- --- fulfilling<br>------------- ------ ------ ---- ---- ------- ----- -- ----<br>-------- ------- -- ---------- --- - --- ----- ----- ----<br>---- --- --- ----- --- ---- ---- ------- ----- ---- -------<br>--- --- -- ----- -- --- ---- -- --- ---- -- ------ ------<br>--- ----- -- ----,53146.59999996424,53145.299999952316,52664.398,52674.59999996424,52681.067,53148.023,,8,fulfilling
screen,html.Screen,0_2_0_1_9,2021-11-12T13:25:05.511Z,,,,,,,,,,,,,,,,53,,,,,,,,,,,,,,597.2769999523152,,response,,,99,,,,,,Space,keypress(Space),,,,,"---- -- ----- -- ------ - ------- --- ----------<br>relationship, ------ ------ ---- ---- ------- ----- -- ----<br>-------- ------- -- ---------- --- - --- ----- ----- ----<br>---- --- --- ----- --- ---- ---- ------- ----- ---- -------<br>--- --- -- ----- -- --- ---- -- --- ---- -- ------ ------<br>--- ----- -- ----",53746.299999952316,53745.299999952316,53131.352,53147,53148.023,53747.943,,9,"relationship,"
screen,html.Screen,0_2_0_1_10,2021-11-12T13:25:06.095Z,,,,,,,,,,,,,,,,53,,,,,,,,,,,,,,581.356999952317,,response,,,99,,,,,,Space,keypress(Space),,,,,---- -- ----- -- ------ - ------- --- ----------<br>------------- common ------ ---- ---- ------- ----- -- ----<br>-------- ------- -- ---------- --- - --- ----- ----- ----<br>---- --- --- ----- --- ---- ---- ------- ----- ---- -------<br>--- --- -- ----- -- --- ---- -- --- ---- -- ------ ------<br>--- ----- -- ----,54330.19999998808,54329.299999952316,53731.275,53746.59999996424,53747.943,54331.626,,10,common
screen,html.Screen,0_2_0_1_11,2021-11-12T13:25:06.703Z,,,,,,,,,,,,,,,,53,,,,,,,,,,,,,,605.6739999523197,,response,,,99,,,,,,Space,keypress(Space),,,,,---- -- ----- -- ------ - ------- --- ----------<br>------------- ------ wisdom ---- ---- ------- ----- -- ----<br>-------- ------- -- ---------- --- - --- ----- ----- ----<br>---- --- --- ----- --- ---- ---- ------- ----- ---- -------<br>--- --- -- ----- -- --- ---- -- --- ---- -- ------ ------<br>--- ----- -- ----,54938.299999952316,54937.299999952316,54314.955,54330.5,54331.626,54948.396,,11,wisdom
screen,html.Screen,0_2_0_1_12,2021-11-12T13:25:07.382Z,,,,,,,,,,,,,,,,53,,,,,,,,,,,,,,668.8039999880784,,response,,,99,,,,,,Space,keypress(Space),,,,,---- -- ----- -- ------ - ------- --- ----------<br>------------- ------ ------ says ---- ------- ----- -- ----<br>-------- ------- -- ---------- --- - --- ----- ----- ----<br>---- --- --- ----- --- ---- ---- ------- ----- ---- -------<br>--- --- -- ----- -- --- ---- -- --- ---- -- ------ ------<br>--- ----- -- ----,55617.69999998808,55617.19999998808,54931.726,54938.59999996424,54948.396,55632.065,,12,says
screen,html.Screen,0_2_0_1_13,2021-11-12T13:25:07.782Z,,,,,,,,,,,,,,,,53,,,,,,,,,,,,,,385.0349999642349,,response,,,99,,,,,,Space,keypress(Space),,,,,---- -- ----- -- ------ - ------- --- ----------<br>------------- ------ ------ ---- that ------- ----- -- ----<br>-------- ------- -- ---------- --- - --- ----- ----- ----<br>---- --- --- ----- --- ---- ---- ------- ----- ---- -------<br>--- --- -- ----- -- --- ---- -- --- ---- -- ------ ------<br>--- ----- -- ----,56018,56017.09999996424,55615.393,55617.69999998808,55632.065,56032.052,,13,that
screen,html.Screen,0_2_0_1_14,2021-11-12T13:25:08.319Z,,,,,,,,,,,,,,,,53,,,,,,,,,,,,,,521.0479999642339,,response,,,99,,,,,,Space,keypress(Space),,,,,---- -- ----- -- ------ - ------- --- ----------<br>------------- ------ ------ ---- ---- feeling ----- -- ----<br>-------- ------- -- ---------- --- - --- ----- ----- ----<br>---- --- --- ----- --- ---- ---- ------- ----- ---- -------<br>--- --- -- ----- -- --- ---- -- --- ---- -- ------ ------<br>--- ----- -- ----,56554.09999996424,56553.09999996424,56015.382,56018.19999998808,56032.052,56565.403,,14,feeling
screen,html.Screen,0_2_0_1_15,2021-11-12T13:25:08.782Z,,,,,,,,,,,,,,,,53,,,,,,,,,,,,,,451.6969999642388,,response,,,99,,,,,,Space,keypress(Space),,,,,---- -- ----- -- ------ - ------- --- ----------<br>------------- ------ ------ ---- ---- ------- close -- ----<br>-------- ------- -- ---------- --- - --- ----- ----- ----<br>---- --- --- ----- --- ---- ---- ------- ----- ---- -------<br>--- --- -- ----- -- --- ---- -- --- ---- -- ------ ------<br>--- ----- -- ----,57018,57017.09999996424,56548.734,56554.39999997616,56565.403,57032.46,,15,close
screen,html.Screen,0_2_0_1_16,2021-11-12T13:25:09.206Z,,,,,,,,,,,,,,,,53,,,,,,,,,,,,,,408.6399999642381,,response,,,99,,,,,,Space,keypress(Space),,,,,---- -- ----- -- ------ - ------- --- ----------<br>------------- ------ ------ ---- ---- ------- ----- to ----<br>-------- ------- -- ---------- --- - --- ----- ----- ----<br>---- --- --- ----- --- ---- ---- ------- ----- ---- -------<br>--- --- -- ----- -- --- ---- -- --- ---- -- ------ ------<br>--- ----- -- ----,57442,57441.09999996424,57015.787,57018.299999952316,57032.46,57449.097,,16,to
screen,html.Screen,0_2_0_1_17,2021-11-12T13:25:09.758Z,,,,,,,,,,,,,,,,53,,,,,,,,,,,,,,544.0029999642356,,response,,,99,,,,,,Space,keypress(Space),,,,,---- -- ----- -- ------ - ------- --- ----------<br>------------- ------ ------ ---- ---- ------- ----- -- your<br>-------- ------- -- ---------- --- - --- ----- ----- ----<br>---- --- --- ----- --- ---- ---- ------- ----- ---- -------<br>--- --- -- ----- -- --- ---- -- --- ---- -- ------ ------<br>--- ----- -- ----,57993.89999997616,57993.09999996424,57432.427,57442.19999998808,57449.097,57999.11,,17,your
screen,html.Screen,0_2_0_1_18,2021-11-12T13:25:10.351Z,,,,,,,,,,,,,,,,53,,,,,,,,,,,,,,586.3899999999994,,response,,,99,,,,,,Space,keypress(Space),,,,,---- -- ----- -- ------ - ------- --- ----------<br>------------- ------ ------ ---- ---- ------- ----- -- ----<br>romantic ------- -- ---------- --- - --- ----- ----- ----<br>---- --- --- ----- --- ---- ---- ------- ----- ---- -------<br>--- --- -- ----- -- --- ---- -- --- ---- -- ------ ------<br>--- ----- -- ----,58586.299999952316,58585.5,57982.441,57994.19999998808,57999.11,58599.49,,18,romantic
screen,html.Screen,0_2_0_1_19,2021-11-12T13:25:11.094Z,,,,,,,,,,,,,,,,53,,,,,,,,,,,,,,729.4099999761602,,response,,,99,,,,,,Space,keypress(Space),,,,,---- -- ----- -- ------ - ------- --- ----------<br>------------- ------ ------ ---- ---- ------- ----- -- ----<br>-------- partner -- ---------- --- - --- ----- ----- ----<br>---- --- --- ----- --- ---- ---- ------- ----- ---- -------<br>--- --- -- ----- -- --- ---- -- --- ---- -- ------ ------<br>--- ----- -- ----,59329.69999998808,59328.89999997616,58582.818,58586.59999996424,58599.49,59332.947,,19,partner
screen,html.Screen,0_2_0_1_20,2021-11-12T13:25:11.566Z,,,,,,,,,,,,,,,,53,,,,,,,,,,,,,,467.952999976158,,response,,,99,,,,,,Space,keypress(Space),,,,,---- -- ----- -- ------ - ------- --- ----------<br>------------- ------ ------ ---- ---- ------- ----- -- ----<br>-------- ------- is ---------- --- - --- ----- ----- ----<br>---- --- --- ----- --- ---- ---- ------- ----- ---- -------<br>--- --- -- ----- -- --- ---- -- --- ---- -- ------ ------<br>--- ----- -- ----,59801.799999952316,59800.89999997616,59316.276,59330,59332.947,59816.363,,20,is
screen,html.Screen,0_2_0_1_21,2021-11-12T13:25:12.305Z,,,,,,,,,,,,,,,,53,,,,,,,,,,,,,,720.5369999761606,,response,,,99,,,,,,Space,keypress(Space),,,,,---- -- ----- -- ------ - ------- --- ----------<br>------------- ------ ------ ---- ---- ------- ----- -- ----<br>-------- ------- -- paramount. --- - --- ----- ----- ----<br>---- --- --- ----- --- ---- ---- ------- ----- ---- -------<br>--- --- -- ----- -- --- ---- -- --- ---- -- ------ ------<br>--- ----- -- ----,60537.69999998808,60536.89999997616,59799.693,59802,59816.363,60549.832,,21,paramount.
screen,html.Screen,0_2_0_1_22,2021-11-12T13:25:12.841Z,,,,,,,,,,,,,,,,53,,,,,,,,,,,,,,522.9679999523141,,response,,,99,,,,,,Space,keypress(Space),,,,,---- -- ----- -- ------ - ------- --- ----------<br>------------- ------ ------ ---- ---- ------- ----- -- ----<br>-------- ------- -- ---------- But - --- ----- ----- ----<br>---- --- --- ----- --- ---- ---- ------- ----- ---- -------<br>--- --- -- ----- -- --- ---- -- --- ---- -- ------ ------<br>--- ----- -- ----,61073.59999996424,61072.799999952316,60533.162,60538.19999998808,60549.832,61083.422,,22,But
screen,html.Screen,0_2_0_1_23,2021-11-12T13:25:13.457Z,,,,,,,,,,,,,,,,53,,,,,,,,,,,,,,605.4779999761595,,response,,,99,,,,,,Space,keypress(Space),,,,,---- -- ----- -- ------ - ------- --- ----------<br>------------- ------ ------ ---- ---- ------- ----- -- ----<br>-------- ------- -- ---------- --- a --- ----- ----- ----<br>---- --- --- ----- --- ---- ---- ------- ----- ---- -------<br>--- --- -- ----- -- --- ---- -- --- ---- -- ------ ------<br>--- ----- -- ----,61689.69999998808,61688.89999997616,61066.751,61073.89999997616,61083.422,61700.177,,23,a
screen,html.Screen,0_2_0_1_24,2021-11-12T13:25:14.449Z,,,,,,,,,,,,,,,,53,,,,,,,,,,,,,,980.622999952313,,response,,,99,,,,,,Space,keypress(Space),,,,,---- -- ----- -- ------ - ------- --- ----------<br>------------- ------ ------ ---- ---- ------- ----- -- ----<br>-------- ------- -- ---------- --- - new ----- ----- ----<br>---- --- --- ----- --- ---- ---- ------- ----- ---- -------<br>--- --- -- ----- -- --- ---- -- --- ---- -- ------ ------<br>--- ----- -- ----,62681.69999998808,62680.799999952316,61683.507,61689.89999997616,61700.177,62683.564,,24,new
screen,html.Screen,0_2_0_1_25,2021-11-12T13:25:15.066Z,,,,,,,,,,,,,,,,53,,,,,,,,,,,,,,613.2359999523178,,response,,,99,,,,,,Space,keypress(Space),,,,,---- -- ----- -- ------ - ------- --- ----------<br>------------- ------ ------ ---- ---- ------- ----- -- ----<br>-------- ------- -- ---------- --- - --- study ----- ----<br>---- --- --- ----- --- ---- ---- ------- ----- ---- -------<br>--- --- -- ----- -- --- ---- -- --- ---- -- ------ ------<br>--- ----- -- ----,63297.799999952316,63296.799999952316,62666.895,62681.89999997616,62683.564,63300.71,,25,study
screen,html.Screen,0_2_0_1_26,2021-11-12T13:25:15.649Z,,,,,,,,,,,,,,,,53,,,,,,,,,,,,,,579.98999998808,,response,,,99,,,,,,Space,keypress(Space),,,,,---- -- ----- -- ------ - ------- --- ----------<br>------------- ------ ------ ---- ---- ------- ----- -- ----<br>-------- ------- -- ---------- --- - --- ----- finds ----<br>---- --- --- ----- --- ---- ---- ------- ----- ---- -------<br>--- --- -- ----- -- --- ---- -- --- ---- -- ------ ------<br>--- ----- -- ----,63881.69999998808,63880.69999998808,63284.038,63298.09999996424,63300.71,63884.06,,26,finds
screen,html.Screen,0_2_0_1_27,2021-11-12T13:25:16.457Z,,,,,,,,,,,,,,,,53,,,,,,,,,,,,,,804.6399999880814,,response,,,99,,,,,,Space,keypress(Space),,,,,---- -- ----- -- ------ - ------- --- ----------<br>------------- ------ ------ ---- ---- ------- ----- -- ----<br>-------- ------- -- ---------- --- - --- ----- ----- that<br>---- --- --- ----- --- ---- ---- ------- ----- ---- -------<br>--- --- -- ----- -- --- ---- -- --- ---- -- ------ ------<br>--- ----- -- ----,64689.59999996424,64688.69999998808,63867.39,63881.89999997616,63884.06,64700.936,,27,that
screen,html.Screen,0_2_0_1_28,2021-11-12T13:25:17.033Z,,,,,,,,,,,,,,,,53,,,,,,,,,,,,,,563.7639999880776,,response,,,99,,,,,,Space,keypress(Space),,,,,---- -- ----- -- ------ - ------- --- ----------<br>------------- ------ ------ ---- ---- ------- ----- -- ----<br>-------- ------- -- ---------- --- - --- ----- ----- ----<br>it's --- --- ----- --- ---- ---- ------- ----- ---- -------<br>--- --- -- ----- -- --- ---- -- --- ---- -- ------ ------<br>--- ----- -- ----,65265.59999996424,65264.69999998808,64684.266,64689.89999997616,64700.936,65267.738,,28,it's
screen,html.Screen,0_2_0_1_29,2021-11-12T13:25:17.585Z,,,,,,,,,,,,,,,,53,,,,,,,,,,,,,,548.9619999880815,,response,,,99,,,,,,Space,keypress(Space),,,,,---- -- ----- -- ------ - ------- --- ----------<br>------------- ------ ------ ---- ---- ------- ----- -- ----<br>-------- ------- -- ---------- --- - --- ----- ----- ----<br>---- not --- ----- --- ---- ---- ------- ----- ---- -------<br>--- --- -- ----- -- --- ---- -- --- ---- -- ------ ------<br>--- ----- -- ----,65817.5,65816.69999998808,65251.068,65265.799999952316,65267.738,65834.573,,29,not
screen,html.Screen,0_2_0_1_30,2021-11-12T13:25:18.211Z,,,,,,,,,,,,,,,,53,,,,,,,,,,,,,,607.5269999642333,,response,,,99,,,,,,Space,keypress(Space),,,,,---- -- ----- -- ------ - ------- --- ----------<br>------------- ------ ------ ---- ---- ------- ----- -- ----<br>-------- ------- -- ---------- --- - --- ----- ----- ----<br>---- --- how ----- --- ---- ---- ------- ----- ---- -------<br>--- --- -- ----- -- --- ---- -- --- ---- -- ------ ------<br>--- ----- -- ----,66442.79999995232,66442.09999996424,65817.903,65817.69999998808,65834.573,66451.279,,30,how
screen,html.Screen,0_2_0_1_31,2021-11-12T13:25:18.921Z,,,,,,,,,,,,,,,,53,,,,,,,,,,,,,,701.221000000005,,response,,,99,,,,,,Space,keypress(Space),,,,,---- -- ----- -- ------ - ------- --- ----------<br>------------- ------ ------ ---- ---- ------- ----- -- ----<br>-------- ------- -- ---------- --- - --- ----- ----- ----<br>---- --- --- close --- ---- ---- ------- ----- ---- -------<br>--- --- -- ----- -- --- ---- -- --- ---- -- ------ ------<br>--- ----- -- ----,67153.39999997616,67152.5,66434.61,66443.09999996424,66451.279,67168.281,,31,close
screen,html.Screen,0_2_0_1_32,2021-11-12T13:25:19.489Z,,,,,,,,,,,,,,,,53,,,,,,,,,,,,,,552.2189999999973,,response,,,99,,,,,,Space,keypress(Space),,,,,---- -- ----- -- ------ - ------- --- ----------<br>------------- ------ ------ ---- ---- ------- ----- -- ----<br>-------- ------- -- ---------- --- - --- ----- ----- ----<br>---- --- --- ----- you ---- ---- ------- ----- ---- -------<br>--- --- -- ----- -- --- ---- -- --- ---- -- ------ ------<br>--- ----- -- ----,67721.39999997616,67720.5,67151.61,67153.59999996424,67168.281,67735.061,,32,you
screen,html.Screen,0_2_0_1_33,2021-11-12T13:25:20.081Z,,,,,,,,,,,,,,,,53,,,,,,,,,,,,,,577.5389999642357,,response,,,99,,,,,,Space,keypress(Space),,,,,---- -- ----- -- ------ - ------- --- ----------<br>------------- ------ ------ ---- ---- ------- ----- -- ----<br>-------- ------- -- ---------- --- - --- ----- ----- ----<br>---- --- --- ----- --- feel ---- ------- ----- ---- -------<br>--- --- -- ----- -- --- ---- -- --- ---- -- ------ ------<br>--- ----- -- ----,68313.69999998808,68312.59999996424,67718.391,67723.89999997616,67735.061,68318.548,,33,feel
screen,html.Screen,0_2_0_1_34,2021-11-12T13:25:20.570Z,,,,,,,,,,,,,,,,53,,,,,,,,,,,,,,482.4520000000048,,response,,,99,,,,,,Space,keypress(Space),,,,,---- -- ----- -- ------ - ------- --- ----------<br>------------- ------ ------ ---- ---- ------- ----- -- ----<br>-------- ------- -- ---------- --- - --- ----- ----- ----<br>---- --- --- ----- --- ---- that ------- ----- ---- -------<br>--- --- -- ----- -- --- ---- -- --- ---- -- ------ ------<br>--- ----- -- ----,68801.79999995232,68801,68301.878,68314,68318.548,68818.667,,34,that
screen,html.Screen,0_2_0_1_35,2021-11-12T13:25:21.097Z,,,,,,,,,,,,,,,,53,,,,,,,,,,,,,,510.132999952315,,response,,,99,,,,,,Space,keypress(Space),,,,,---- -- ----- -- ------ - ------- --- ----------<br>------------- ------ ------ ---- ---- ------- ----- -- ----<br>-------- ------- -- ---------- --- - --- ----- ----- ----<br>---- --- --- ----- --- ---- ---- matters ----- ---- -------<br>--- --- -- ----- -- --- ---- -- --- ---- -- ------ ------<br>--- ----- -- ----,69329.59999996424,69328.79999995232,68801.997,68802,68818.667,69335.526,,35,matters
screen,html.Screen,0_2_0_1_36,2021-11-12T13:25:21.665Z,,,,,,,,,,,,,,,,53,,,,,,,,,,,,,,560.8739999761601,,response,,,99,,,,,,Space,keypress(Space),,,,,"---- -- ----- -- ------ - ------- --- ----------<br>------------- ------ ------ ---- ---- ------- ----- -- ----<br>-------- ------- -- ---------- --- - --- ----- ----- ----<br>---- --- --- ----- --- ---- ---- ------- most, ---- -------<br>--- --- -- ----- -- --- ---- -- --- ---- -- ------ ------<br>--- ----- -- ----",69897.29999995232,69896.39999997616,69318.855,69329.79999995232,69335.526,69902.214,,36,"most,"
screen,html.Screen,0_2_0_1_37,2021-11-12T13:25:22.185Z,,,,,,,,,,,,,,,,53,,,,,,,,,,,,,,514.1859999761509,,response,,,99,,,,,,Space,keypress(Space),,,,,---- -- ----- -- ------ - ------- --- ----------<br>------------- ------ ------ ---- ---- ------- ----- -- ----<br>-------- ------- -- ---------- --- - --- ----- ----- ----<br>---- --- --- ----- --- ---- ---- ------- ----- it's -------<br>--- --- -- ----- -- --- ---- -- --- ---- -- ------ ------<br>--- ----- -- ----,70417.29999995232,70416.39999997616,69885.545,69897.5,69902.214,70419.131,,37,it's
screen,html.Screen,0_2_0_1_38,2021-11-12T13:25:22.777Z,,,,,,,,,,,,,,,,53,,,,,,,,,,,,,,589.4689999642433,,response,,,99,,,,,,Space,keypress(Space),,,,,---- -- ----- -- ------ - ------- --- ----------<br>------------- ------ ------ ---- ---- ------- ----- -- ----<br>-------- ------- -- ---------- --- - --- ----- ----- ----<br>---- --- --- ----- --- ---- ---- ------- ----- ---- whether<br>--- --- -- ----- -- --- ---- -- --- ---- -- ------ ------<br>--- ----- -- ----,71009.39999997616,71008.59999996424,70402.46,70417.59999996424,70419.131,71019.229,,38,whether
screen,html.Screen,0_2_0_1_39,2021-11-12T13:25:23.233Z,,,,,,,,,,,,,,,,53,,,,,,,,,,,,,,445.07099995230965,,response,,,99,,,,,,Space,keypress(Space),,,,,---- -- ----- -- ------ - ------- --- ----------<br>------------- ------ ------ ---- ---- ------- ----- -- ----<br>-------- ------- -- ---------- --- - --- ----- ----- ----<br>---- --- --- ----- --- ---- ---- ------- ----- ---- -------<br>you --- -- ----- -- --- ---- -- --- ---- -- ------ ------<br>--- ----- -- ----,71465.19999998808,71464.29999995232,71002.559,71009.59999996424,71019.229,71469.359,,39,you
screen,html.Screen,0_2_0_1_40,2021-11-12T13:25:23.778Z,,,,,,,,,,,,,,,,53,,,,,,,,,,,,,,539.6410000000033,,response,,,99,,,,,,Space,keypress(Space),,,,,---- -- ----- -- ------ - ------- --- ----------<br>------------- ------ ------ ---- ---- ------- ----- -- ----<br>-------- ------- -- ---------- --- - --- ----- ----- ----<br>---- --- --- ----- --- ---- ---- ------- ----- ---- -------<br>--- are -- ----- -- --- ---- -- --- ---- -- ------ ------<br>--- ----- -- ----,72009.89999997616,72009,71452.689,71465.39999997616,71469.359,72019.551,,40,are
screen,html.Screen,0_2_0_1_41,2021-11-12T13:25:24.201Z,,,,,,,,,,,,,,,,53,,,,,,,,,,,,,,412.6489999880723,,response,,,99,,,,,,Space,keypress(Space),,,,,---- -- ----- -- ------ - ------- --- ----------<br>------------- ------ ------ ---- ---- ------- ----- -- ----<br>-------- ------- -- ---------- --- - --- ----- ----- ----<br>---- --- --- ----- --- ---- ---- ------- ----- ---- -------<br>--- --- as ----- -- --- ---- -- --- ---- -- ------ ------<br>--- ----- -- ----,72433,72432.19999998808,72002.88,72010.19999998808,72019.551,72436.272,,41,as
screen,html.Screen,0_2_0_1_42,2021-11-12T13:25:24.713Z,,,,,,,,,,,,,,,,53,,,,,,,,,,,,,,508.0279999523191,,response,,,99,,,,,,Space,keypress(Space),,,,,---- -- ----- -- ------ - ------- --- ----------<br>------------- ------ ------ ---- ---- ------- ----- -- ----<br>-------- ------- -- ---------- --- - --- ----- ----- ----<br>---- --- --- ----- --- ---- ---- ------- ----- ---- -------<br>--- --- -- close -- --- ---- -- --- ---- -- ------ ------<br>--- ----- -- ----,72945.09999996424,72944.29999995232,72419.602,72433.19999998808,72436.272,72953.126,,42,close
screen,html.Screen,0_2_0_1_43,2021-11-12T13:25:25.169Z,,,,,,,,,,,,,,,,53,,,,,,,,,,,,,,447.07399998807523,,response,,,99,,,,,,Space,keypress(Space),,,,,---- -- ----- -- ------ - ------- --- ----------<br>------------- ------ ------ ---- ---- ------- ----- -- ----<br>-------- ------- -- ---------- --- - --- ----- ----- ----<br>---- --- --- ----- --- ---- ---- ------- ----- ---- -------<br>--- --- -- ----- as --- ---- -- --- ---- -- ------ ------<br>--- ----- -- ----,73401,73400.19999998808,72936.455,72945.39999997616,72953.126,73403.173,,43,as
screen,html.Screen,0_2_0_1_44,2021-11-12T13:25:25.649Z,,,,,,,,,,,,,,,,53,,,,,,,,,,,,,,477.02699998808384,,response,,,99,,,,,,Space,keypress(Space),,,,,---- -- ----- -- ------ - ------- --- ----------<br>------------- ------ ------ ---- ---- ------- ----- -- ----<br>-------- ------- -- ---------- --- - --- ----- ----- ----<br>---- --- --- ----- --- ---- ---- ------- ----- ---- -------<br>--- --- -- ----- -- you ---- -- --- ---- -- ------ ------<br>--- ----- -- ----,73881,73880.19999998808,73386.503,73401.19999998808,73403.173,73886.638,,44,you
screen,html.Screen,0_2_0_1_45,2021-11-12T13:25:26.241Z,,,,,,,,,,,,,,,,53,,,,,,,,,,,,,,585.4619999642309,,response,,,99,,,,,,Space,keypress(Space),,,,,---- -- ----- -- ------ - ------- --- ----------<br>------------- ------ ------ ---- ---- ------- ----- -- ----<br>-------- ------- -- ---------- --- - --- ----- ----- ----<br>---- --- --- ----- --- ---- ---- ------- ----- ---- -------<br>--- --- -- ----- -- --- want -- --- ---- -- ------ ------<br>--- ----- -- ----,74472.89999997616,74472.09999996424,73869.968,73881.29999995232,73886.638,74486.796,,45,want
screen,html.Screen,0_2_0_1_46,2021-11-12T13:25:26.753Z,,,,,,,,,,,,,,,,53,,,,,,,,,,,,,,497.403999988077,,response,,,99,,,,,,Space,keypress(Space),,,,,---- -- ----- -- ------ - ------- --- ----------<br>------------- ------ ------ ---- ---- ------- ----- -- ----<br>-------- ------- -- ---------- --- - --- ----- ----- ----<br>---- --- --- ----- --- ---- ---- ------- ----- ---- -------<br>--- --- -- ----- -- --- ---- to --- ---- -- ------ ------<br>--- ----- -- ----,74985.09999996424,74984.19999998808,74470.126,74473.19999998808,74486.796,74986.978,,46,to
screen,html.Screen,0_2_0_1_47,2021-11-12T13:25:27.409Z,,,,,,,,,,,,,,,,53,,,,,,,,,,,,,,653.1219999642344,,response,,,99,,,,,,Space,keypress(Space),,,,,"---- -- ----- -- ------ - ------- --- ----------<br>------------- ------ ------ ---- ---- ------- ----- -- ----<br>-------- ------- -- ---------- --- - --- ----- ----- ----<br>---- --- --- ----- --- ---- ---- ------- ----- ---- -------<br>--- --- -- ----- -- --- ---- -- be, ---- -- ------ ------<br>--- ----- -- ----",75641,75640.09999996424,74970.307,74985.29999995232,74986.978,75653.77,,47,"be,"
screen,html.Screen,0_2_0_1_48,2021-11-12T13:25:27.857Z,,,,,,,,,,,,,,,,53,,,,,,,,,,,,,,434.32999996423314,,response,,,99,,,,,,Space,keypress(Space),,,,,---- -- ----- -- ------ - ------- --- ----------<br>------------- ------ ------ ---- ---- ------- ----- -- ----<br>-------- ------- -- ---------- --- - --- ----- ----- ----<br>---- --- --- ----- --- ---- ---- ------- ----- ---- -------<br>--- --- -- ----- -- --- ---- -- --- even -- ------ ------<br>--- ----- -- ----,76089,76088.09999996424,75637.1,75641.19999998808,75653.77,76103.807,,48,even
screen,html.Screen,0_2_0_1_49,2021-11-12T13:25:28.289Z,,,,,,,,,,,,,,,,53,,,,,,,,,,,,,,416.1929999999993,,response,,,99,,,,,,Space,keypress(Space),,,,,---- -- ----- -- ------ - ------- --- ----------<br>------------- ------ ------ ---- ---- ------- ----- -- ----<br>-------- ------- -- ---------- --- - --- ----- ----- ----<br>---- --- --- ----- --- ---- ---- ------- ----- ---- -------<br>--- --- -- ----- -- --- ---- -- --- ---- if ------ ------<br>--- ----- -- ----,76520.89999997616,76520,76087.138,76089.19999998808,76103.807,76537.365,,49,if
screen,html.Screen,0_2_0_1_50,2021-11-12T13:25:28.697Z,,,,,,,,,,,,,,,,53,,,,,,,,,,,,,,390.5349999761529,,response,,,99,,,,,,Space,keypress(Space),,,,,---- -- ----- -- ------ - ------- --- ----------<br>------------- ------ ------ ---- ---- ------- ----- -- ----<br>-------- ------- -- ---------- --- - --- ----- ----- ----<br>---- --- --- ----- --- ---- ---- ------- ----- ---- -------<br>--- --- -- ----- -- --- ---- -- --- ---- -- that's ------<br>--- ----- -- ----,76929.29999995232,76927.89999997616,76520.694,76521.09999996424,76537.365,76937.474,,50,that's
screen,html.Screen,0_2_0_1_51,2021-11-12T13:25:29.153Z,,,,,,,,,,,,,,,,53,,,,,,,,,,,,,,446.42599997615616,,response,,,99,,,,,,Space,keypress(Space),,,,,---- -- ----- -- ------ - ------- --- ----------<br>------------- ------ ------ ---- ---- ------- ----- -- ----<br>-------- ------- -- ---------- --- - --- ----- ----- ----<br>---- --- --- ----- --- ---- ---- ------- ----- ---- -------<br>--- --- -- ----- -- --- ---- -- --- ---- -- ------ really<br>--- ----- -- ----,77384.79999995232,77383.89999997616,76920.803,76929.59999996424,76937.474,77387.384,,51,really
screen,html.Screen,0_2_0_1_52,2021-11-12T13:25:29.625Z,,,,,,,,,,,,,,,,53,,,,,,,,,,,,,,468.51599997615267,,response,,,99,,,,,,Space,keypress(Space),,,,,---- -- ----- -- ------ - ------- --- ----------<br>------------- ------ ------ ---- ---- ------- ----- -- ----<br>-------- ------- -- ---------- --- - --- ----- ----- ----<br>---- --- --- ----- --- ---- ---- ------- ----- ---- -------<br>--- --- -- ----- -- --- ---- -- --- ---- -- ------ ------<br>not ----- -- ----,77856.79999995232,77855.89999997616,77370.716,77385,77387.384,77871.12,,52,not
screen,html.Screen,0_2_0_1_53,2021-11-12T13:25:30.057Z,,,,,,,,,,,,,,,,53,,,,,,,,,,,,,,416.7799999761628,,response,,,99,,,,,,Space,keypress(Space),,,,,---- -- ----- -- ------ - ------- --- ----------<br>------------- ------ ------ ---- ---- ------- ----- -- ----<br>-------- ------- -- ---------- --- - --- ----- ----- ----<br>---- --- --- ----- --- ---- ---- ------- ----- ---- -------<br>--- --- -- ----- -- --- ---- -- --- ---- -- ------ ------<br>--- close -- ----,78288.79999995232,78287.89999997616,77854.448,77857,77871.12,78304.498,,53,close
screen,html.Screen,0_2_0_1_54,2021-11-12T13:25:30.473Z,,,,,,,,,,,,,,,,53,,,,,,,,,,,,,,399.4019999761513,,response,,,99,,,,,,Space,keypress(Space),,,,,---- -- ----- -- ------ - ------- --- ----------<br>------------- ------ ------ ---- ---- ------- ----- -- ----<br>-------- ------- -- ---------- --- - --- ----- ----- ----<br>---- --- --- ----- --- ---- ---- ------- ----- ---- -------<br>--- --- -- ----- -- --- ---- -- --- ---- -- ------ ------<br>--- ----- at ----,78704.79999995232,78703.89999997616,78287.827,78289,78304.498,78721.224,,54,at
screen,html.Screen,0_2_0_1_55,2021-11-12T13:25:30.889Z,,,,,,,,,,,,,,,,53,,,,,,,,,,,,,,399.17599997615616,,response,,,99,,,,,,Space,keypress(Space),,,,,---- -- ----- -- ------ - ------- --- ----------<br>------------- ------ ------ ---- ---- ------- ----- -- ----<br>-------- ------- -- ---------- --- - --- ----- ----- ----<br>---- --- --- ----- --- ---- ---- ------- ----- ---- -------<br>--- --- -- ----- -- --- ---- -- --- ---- -- ------ ------<br>--- ----- -- all.,79121.29999995232,79120.39999997616,78704.554,78705,78721.224,79138.043,,55,all.
Item 99,flow.Loop,0_2_0_1,2021-11-12T13:25:30.894Z,,,,,,,,,,,,,,,,,,,,,,,,,,,,,,31757.497999976156,,completion,,,,C,,,,,,,,,,silence,,79125.89999997616,79120.39999997616,47346.233,47353.19999998808,47362.902,79138.043,,,
Question 1,html.Screen,0_2_0_2,2021-11-12T13:25:40.812Z,,,,,,,,,,,,,,,,,,,,,,,,,,,true,FALSE,,9904.556999964232,,response,,,99,C,,,,,FALSE,click #choice-2,,,,silence,,89044.19999998808,89042.59999996424,79121.372,79126.19999998808,79138.043,89057.234,,,
Question 2,html.Screen,0_2_0_3,2021-11-12T13:25:46.263Z,,,,,,,,,,,,,,,,,,,,,,,,,,,true,TRUE,,5437.165999976161,,response,,,99,C,,,,,TRUE,click #choice-1,,,,silence,,94495.69999998808,94494.39999997616,89040.564,89044.5,89057.234,94508.661,,,
Item 99,flow.Sequence,0_2_0,2021-11-12T13:25:46.264Z,,,,,,,,,,,,,,,,,,,,,,,,,,,,,,57136.317999976156,,completion,,,,,,,,,,,,,,,,94496.29999995232,94494.39999997616,37341.425,37357.09999996424,37358.082,94508.661,,,
Holding screen,html.Screen,0_2_1_0,2021-11-12T13:25:56.264Z,,,,,,,,,,,,,,,,,,,,,,,,,,,,,,10002.396000000008,,timeout,,,,,,,,,,,,,,,,104496.19999998808,104494.387,94491.99,94496.69999998808,94508.661,104511.057,,,
screen,html.Screen,0_2_1_1_0,2021-11-12T13:25:57.176Z,,,,,,,,,,,,,,,,54,,,,,,,,,,,,,,896.1429999880784,,response,,,100,,,,,,Space,keypress(Space),,,,,At --- ---- --- ------ ----- ------- ---- -- --- ------- --<br>------- ---------- ------ -- ----- -- ----- -- ---- ------<br>--- ----- --- --- ------ -------- ----- --- ------ ----- --<br>----- ----- ---------- --- --- ------ ------ ---- -- ------<br>------- --- ------ ----- --- ---- ------- -- ---- --- --<br>------- ------,105408.19999998808,105407.19999998808,104494.387,104496.69999998808,104511.057,105411.479,,0,At
screen,html.Screen,0_2_1_1_1,2021-11-12T13:25:57.799Z,,,,,,,,,,,,,,,,54,,,,,,,,,,,,,,618.9209999761515,,response,,,100,,,,,,Space,keypress(Space),,,,,-- the ---- --- ------ ----- ------- ---- -- --- ------- --<br>------- ---------- ------ -- ----- -- ----- -- ---- ------<br>--- ----- --- --- ------ -------- ----- --- ------ ----- --<br>----- ----- ---------- --- --- ------ ------ ---- -- ------<br>------- --- ------ ----- --- ---- ------- -- ---- --- --<br>------- ------,106031.29999995232,106030.39999997616,105394.808,105408.5,105411.479,106044.898,,1,the
screen,html.Screen,0_2_1_1_2,2021-11-12T13:25:58.311Z,,,,,,,,,,,,,,,,54,,,,,,,,,,,,,,497.5019999761571,,response,,,100,,,,,,Space,keypress(Space),,,,,-- --- time --- ------ ----- ------- ---- -- --- ------- --<br>------- ---------- ------ -- ----- -- ----- -- ---- ------<br>--- ----- --- --- ------ -------- ----- --- ------ ----- --<br>----- ----- ---------- --- --- ------ ------ ---- -- ------<br>------- --- ------ ----- --- ---- ------- -- ---- --- --<br>------- ------,106543.19999998808,106542.39999997616,106028.228,106031.5,106044.898,106545.057,,2,time
screen,html.Screen,0_2_1_1_3,2021-11-12T13:25:58.960Z,,,,,,,,,,,,,,,,54,,,,,,,,,,,,,,645.1429999880784,,response,,,100,,,,,,Space,keypress(Space),,,,,-- --- ---- the ------ ----- ------- ---- -- --- ------- --<br>------- ---------- ------ -- ----- -- ----- -- ---- ------<br>--- ----- --- --- ------ -------- ----- --- ------ ----- --<br>----- ----- ---------- --- --- ------ ------ ---- -- ------<br>------- --- ------ ----- --- ---- ------- -- ---- --- --<br>------- ------,107192.59999996424,107190.19999998808,106528.387,106543.5,106545.057,107195.176,,3,the
screen,html.Screen,0_2_1_1_4,2021-11-12T13:25:59.583Z,,,,,,,,,,,,,,,,54,,,,,,,,,,,,,,619.0239999880723,,response,,,100,,,,,,Space,keypress(Space),,,,,-- --- ---- --- French ----- ------- ---- -- --- ------- --<br>------- ---------- ------ -- ----- -- ----- -- ---- ------<br>--- ----- --- --- ------ -------- ----- --- ------ ----- --<br>----- ----- ---------- --- --- ------ ------ ---- -- ------<br>------- --- ------ ----- --- ---- ------- -- ---- --- --<br>------- ------,107815.09999996424,107814.19999998808,107178.506,107192.89999997616,107195.176,107828.596,,4,French
screen,html.Screen,0_2_1_1_5,2021-11-12T13:26:00.087Z,,,,,,,,,,,,,,,,54,,,,,,,,,,,,,,489.7039999523113,,response,,,100,,,,,,Space,keypress(Space),,,,,-- --- ---- --- ------ crown ------- ---- -- --- ------- --<br>------- ---------- ------ -- ----- -- ----- -- ---- ------<br>--- ----- --- --- ------ -------- ----- --- ------ ----- --<br>----- ----- ---------- --- --- ------ ------ ---- -- ------<br>------- --- ------ ----- --- ---- ------- -- ---- --- --<br>------- ------,108319.09999996424,108318.29999995232,107811.927,107815.29999995232,107828.596,108328.904,,5,crown
screen,html.Screen,0_2_1_1_6,2021-11-12T13:26:00.799Z,,,,,,,,,,,,,,,,54,,,,,,,,,,,,,,701.3959999523213,,response,,,100,,,,,,Space,keypress(Space),,,,,-- --- ---- --- ------ ----- secured ---- -- --- ------- --<br>------- ---------- ------ -- ----- -- ----- -- ---- ------<br>--- ----- --- --- ------ -------- ----- --- ------ ----- --<br>----- ----- ---------- --- --- ------ ------ ---- -- ------<br>------- --- ------ ----- --- ---- ------- -- ---- --- --<br>------- ------,109031.09999996424,109030.29999995232,108312.233,108319.29999995232,108328.904,109045.539,,6,secured
screen,html.Screen,0_2_1_1_7,2021-11-12T13:26:01.415Z,,,,,,,,,,,,,,,,54,,,,,,,,,,,,,,600.6609999880748,,response,,,100,,,,,,Space,keypress(Space),,,,,-- --- ---- --- ------ ----- ------- much -- --- ------- --<br>------- ---------- ------ -- ----- -- ----- -- ---- ------<br>--- ----- --- --- ------ -------- ----- --- ------ ----- --<br>----- ----- ---------- --- --- ------ ------ ---- -- ------<br>------- --- ------ ----- --- ---- ------- -- ---- --- --<br>------- ------,109647.09999996424,109646.19999998808,109028.87,109031.39999997616,109045.539,109662.659,,7,much
screen,html.Screen,0_2_1_1_8,2021-11-12T13:26:01.887Z,,,,,,,,,,,,,,,,54,,,,,,,,,,,,,,455.5409999880794,,response,,,100,,,,,,Space,keypress(Space),,,,,-- --- ---- --- ------ ----- ------- ---- of --- ------- --<br>------- ---------- ------ -- ----- -- ----- -- ---- ------<br>--- ----- --- --- ------ -------- ----- --- ------ ----- --<br>----- ----- ---------- --- --- ------ ------ ---- -- ------<br>------- --- ------ ----- --- ---- ------- -- ---- --- --<br>------- ------,110119,110118.19999998808,109645.987,109647.29999995232,109662.659,110129.205,,8,of
screen,html.Screen,0_2_1_1_9,2021-11-12T13:26:02.391Z,,,,,,,,,,,,,,,,54,,,,,,,,,,,,,,492.89499996423547,,response,,,100,,,,,,Space,keypress(Space),,,,,-- --- ---- --- ------ ----- ------- ---- -- its ------- --<br>------- ---------- ------ -- ----- -- ----- -- ---- ------<br>--- ----- --- --- ------ -------- ----- --- ------ ----- --<br>----- ----- ---------- --- --- ------ ------ ---- -- ------<br>------- --- ------ ----- --- ---- ------- -- ---- --- --<br>------- ------,110623,110622.09999996424,110112.536,110119.29999995232,110129.205,110629.387,,9,its
screen,html.Screen,0_2_1_1_10,2021-11-12T13:26:03.119Z,,,,,,,,,,,,,,,,54,,,,,,,,,,,,,,720.8129999880766,,response,,,100,,,,,,Space,keypress(Space),,,,,-- --- ---- --- ------ ----- ------- ---- -- --- revenue --<br>------- ---------- ------ -- ----- -- ----- -- ---- ------<br>--- ----- --- --- ------ -------- ----- --- ------ ----- --<br>----- ----- ---------- --- --- ------ ------ ---- -- ------<br>------- --- ------ ----- --- ---- ------- -- ---- --- --<br>------- ------,111350.89999997616,111350.19999998808,110612.717,110623.19999998808,110629.387,111363.096,,10,revenue
screen,html.Screen,0_2_1_1_11,2021-11-12T13:26:03.639Z,,,,,,,,,,,,,,,,54,,,,,,,,,,,,,,507.0039999642322,,response,,,100,,,,,,Space,keypress(Space),,,,,-- --- ---- --- ------ ----- ------- ---- -- --- ------- by<br>------- ---------- ------ -- ----- -- ----- -- ---- ------<br>--- ----- --- --- ------ -------- ----- --- ------ ----- --<br>----- ----- ---------- --- --- ------ ------ ---- -- ------<br>------- --- ------ ----- --- ---- ------- -- ---- --- --<br>------- ------,111870.89999997616,111870.09999996424,111346.424,111351.19999998808,111363.096,111879.747,,11,by
screen,html.Screen,0_2_1_1_12,2021-11-12T13:26:04.271Z,,,,,,,,,,,,,,,,54,,,,,,,,,,,,,,622.252999999997,,response,,,100,,,,,,Space,keypress(Space),,,,,-- --- ---- --- ------ ----- ------- ---- -- --- ------- --<br>issuing ---------- ------ -- ----- -- ----- -- ---- ------<br>--- ----- --- --- ------ -------- ----- --- ------ ----- --<br>----- ----- ---------- --- --- ------ ------ ---- -- ------<br>------- --- ------ ----- --- ---- ------- -- ---- --- --<br>------- ------,112502.89999997616,112502,111863.077,111871.19999998808,111879.747,112513.221,,12,issuing
screen,html.Screen,0_2_1_1_13,2021-11-12T13:26:04.911Z,,,,,,,,,,,,,,,,54,,,,,,,,,,,,,,628.778999999995,,response,,,100,,,,,,Space,keypress(Space),,,,,-- --- ---- --- ------ ----- ------- ---- -- --- ------- --<br>------- government ------ -- ----- -- ----- -- ---- ------<br>--- ----- --- --- ------ -------- ----- --- ------ ----- --<br>----- ----- ---------- --- --- ------ ------ ---- -- ------<br>------- --- ------ ----- --- ---- ------- -- ---- --- --<br>------- ------,113142.79999995232,113142,112496.551,112503.09999996424,112513.221,113146.8,,13,government
screen,html.Screen,0_2_1_1_14,2021-11-12T13:26:05.583Z,,,,,,,,,,,,,,,,54,,,,,,,,,,,,,,667.0999999761552,,response,,,100,,,,,,Space,keypress(Space),,,,,-- --- ---- --- ------ ----- ------- ---- -- --- ------- --<br>------- ---------- bonds. -- ----- -- ----- -- ---- ------<br>--- ----- --- --- ------ -------- ----- --- ------ ----- --<br>----- ----- ---------- --- --- ------ ------ ---- -- ------<br>------- --- ------ ----- --- ---- ------- -- ---- --- --<br>------- ------,113814.79999995232,113813.89999997616,113130.129,113143.09999996424,113146.8,113830.239,,14,bonds.
screen,html.Screen,0_2_1_1_15,2021-11-12T13:26:06.143Z,,,,,,,,,,,,,,,,54,,,,,,,,,,,,,,543.6609999761567,,response,,,100,,,,,,Space,keypress(Space),,,,,-- --- ---- --- ------ ----- ------- ---- -- --- ------- --<br>------- ---------- ------ In ----- -- ----- -- ---- ------<br>--- ----- --- --- ------ -------- ----- --- ------ ----- --<br>----- ----- ---------- --- --- ------ ------ ---- -- ------<br>------- --- ------ ----- --- ---- ------- -- ---- --- --<br>------- ------,114374.79999995232,114373.89999997616,113813.569,113815,113830.239,114380.452,,15,In
screen,html.Screen,0_2_1_1_16,2021-11-12T13:26:07.255Z,,,,,,,,,,,,,,,,54,,,,,,,,,,,,,,1105.9479999761534,,response,,,100,,,,,,Space,keypress(Space),,,,,"-- --- ---- --- ------ ----- ------- ---- -- --- ------- --<br>------- ---------- ------ -- 1727, -- ----- -- ---- ------<br>--- ----- --- --- ------ -------- ----- --- ------ ----- --<br>----- ----- ---------- --- --- ------ ------ ---- -- ------<br>------- --- ------ ----- --- ---- ------- -- ---- --- --<br>------- ------",115487.19999998808,115486.39999997616,114363.781,114375,114380.452,115497.331,,16,"1727,"
screen,html.Screen,0_2_1_1_17,2021-11-12T13:26:07.982Z,,,,,,,,,,,,,,,,54,,,,,,,,,,,,,,716.5689999761526,,response,,,100,,,,,,Space,keypress(Space),,,,,-- --- ---- --- ------ ----- ------- ---- -- --- ------- --<br>------- ---------- ------ -- ----- in ----- -- ---- ------<br>--- ----- --- --- ------ -------- ----- --- ------ ----- --<br>----- ----- ---------- --- --- ------ ------ ---- -- ------<br>------- --- ------ ----- --- ---- ------- -- ---- --- --<br>------- ------,116214.59999996424,116213.89999997616,115480.661,115487.39999997616,115497.331,116230.813,,17,in
screen,html.Screen,0_2_1_1_18,2021-11-12T13:26:08.518Z,,,,,,,,,,,,,,,,54,,,,,,,,,,,,,,519.0869999761635,,response,,,100,,,,,,Space,keypress(Space),,,,,-- --- ---- --- ------ ----- ------- ---- -- --- ------- --<br>------- ---------- ------ -- ----- -- order -- ---- ------<br>--- ----- --- --- ------ -------- ----- --- ------ ----- --<br>----- ----- ---------- --- --- ------ ------ ---- -- ------<br>------- --- ------ ----- --- ---- ------- -- ---- --- --<br>------- ------,116750.69999998808,116749.89999997616,116214.143,116214.89999997616,116230.813,116764.35,,18,order
screen,html.Screen,0_2_1_1_19,2021-11-12T13:26:08.982Z,,,,,,,,,,,,,,,,54,,,,,,,,,,,,,,449.44999995231046,,response,,,100,,,,,,Space,keypress(Space),,,,,-- --- ---- --- ------ ----- ------- ---- -- --- ------- --<br>------- ---------- ------ -- ----- -- ----- to ---- ------<br>--- ----- --- --- ------ -------- ----- --- ------ ----- --<br>----- ----- ---------- --- --- ------ ------ ---- -- ------<br>------- --- ------ ----- --- ---- ------- -- ---- --- --<br>------- ------,117214.59999996424,117213.79999995232,116747.68,116750.79999995232,116764.35,117231.142,,19,to
screen,html.Screen,0_2_1_1_20,2021-11-12T13:26:09.510Z,,,,,,,,,,,,,,,,54,,,,,,,,,,,,,,510.55799998807197,,response,,,100,,,,,,Space,keypress(Space),,,,,-- --- ---- --- ------ ----- ------- ---- -- --- ------- --<br>------- ---------- ------ -- ----- -- ----- -- save ------<br>--- ----- --- --- ------ -------- ----- --- ------ ----- --<br>----- ----- ---------- --- --- ------ ------ ---- -- ------<br>------- --- ------ ----- --- ---- ------- -- ---- --- --<br>------- ------,117742.5,117741.69999998808,117214.472,117214.79999995232,117231.142,117747.926,,20,save
screen,html.Screen,0_2_1_1_21,2021-11-12T13:26:10.022Z,,,,,,,,,,,,,,,,54,,,,,,,,,,,,,,505.7739999880723,,response,,,100,,,,,,Space,keypress(Space),,,,,"-- --- ---- --- ------ ----- ------- ---- -- --- ------- --<br>------- ---------- ------ -- ----- -- ----- -- ---- money,<br>--- ----- --- --- ------ -------- ----- --- ------ ----- --<br>----- ----- ---------- --- --- ------ ------ ---- -- ------<br>------- --- ------ ----- --- ---- ------- -- ---- --- --<br>------- ------",118254.69999998808,118253.69999998808,117731.256,117742.79999995232,117747.926,118264.734,,21,"money,"
screen,html.Screen,0_2_1_1_22,2021-11-12T13:26:10.486Z,,,,,,,,,,,,,,,,54,,,,,,,,,,,,,,452.96599998808233,,response,,,100,,,,,,Space,keypress(Space),,,,,-- --- ---- --- ------ ----- ------- ---- -- --- ------- --<br>------- ---------- ------ -- ----- -- ----- -- ---- ------<br>the ----- --- --- ------ -------- ----- --- ------ ----- --<br>----- ----- ---------- --- --- ------ ------ ---- -- ------<br>------- --- ------ ----- --- ---- ------- -- ---- --- --<br>------- ------,118718.59999996424,118717.69999998808,118248.064,118254.89999997616,118264.734,118731.575,,22,the
screen,html.Screen,0_2_1_1_23,2021-11-12T13:26:11.110Z,,,,,,,,,,,,,,,,54,,,,,,,,,,,,,,610.124999988082,,response,,,100,,,,,,Space,keypress(Space),,,,,-- --- ---- --- ------ ----- ------- ---- -- --- ------- --<br>------- ---------- ------ -- ----- -- ----- -- ---- ------<br>--- state --- --- ------ -------- ----- --- ------ ----- --<br>----- ----- ---------- --- --- ------ ------ ---- -- ------<br>------- --- ------ ----- --- ---- ------- -- ---- --- --<br>------- ------,119342.39999997616,119341.69999998808,118714.904,118718.79999995232,118731.575,119348.221,,23,state
screen,html.Screen,0_2_1_1_24,2021-11-12T13:26:11.590Z,,,,,,,,,,,,,,,,54,,,,,,,,,,,,,,473.3789999642322,,response,,,100,,,,,,Space,keypress(Space),,,,,-- --- ---- --- ------ ----- ------- ---- -- --- ------- --<br>------- ---------- ------ -- ----- -- ----- -- ---- ------<br>--- ----- cut --- ------ -------- ----- --- ------ ----- --<br>----- ----- ---------- --- --- ------ ------ ---- -- ------<br>------- --- ------ ----- --- ---- ------- -- ---- --- --<br>------- ------,119822.39999997616,119821.59999996424,119331.552,119342.69999998808,119348.221,119831.92,,24,cut
screen,html.Screen,0_2_1_1_25,2021-11-12T13:26:12.134Z,,,,,,,,,,,,,,,,54,,,,,,,,,,,,,,533.7799999880808,,response,,,100,,,,,,Space,keypress(Space),,,,,-- --- ---- --- ------ ----- ------- ---- -- --- ------- --<br>------- ---------- ------ -- ----- -- ----- -- ---- ------<br>--- ----- --- the ------ -------- ----- --- ------ ----- --<br>----- ----- ---------- --- --- ------ ------ ---- -- ------<br>------- --- ------ ----- --- ---- ------- -- ---- --- --<br>------- ------,120366.39999997616,120365.69999998808,119815.248,119822.59999996424,119831.92,120381.922,,25,the
screen,html.Screen,0_2_1_1_26,2021-11-12T13:26:12.786Z,,,,,,,,,,,,,,,,54,,,,,,,,,,,,,,631.6779999642313,,response,,,100,,,,,,Space,keypress(Space),,,,,-- --- ---- --- ------ ----- ------- ---- -- --- ------- --<br>------- ---------- ------ -- ----- -- ----- -- ---- ------<br>--- ----- --- --- bonds' -------- ----- --- ------ ----- --<br>----- ----- ---------- --- --- ------ ------ ---- -- ------<br>------- --- ------ ----- --- ---- ------- -- ---- --- --<br>------- ------,121014.39999997616,121013.59999996424,120365.252,120366.69999998808,120381.922,121032.108,,26,bonds'
screen,html.Screen,0_2_1_1_27,2021-11-12T13:26:13.410Z,,,,,,,,,,,,,,,,54,,,,,,,,,,,,,,605.4919999642443,,response,,,100,,,,,,Space,keypress(Space),,,,,-- --- ---- --- ------ ----- ------- ---- -- --- ------- --<br>------- ---------- ------ -- ----- -- ----- -- ---- ------<br>--- ----- --- --- ------ interest ----- --- ------ ----- --<br>----- ----- ---------- --- --- ------ ------ ---- -- ------<br>------- --- ------ ----- --- ---- ------- -- ---- --- --<br>------- ------,121638.39999997616,121637.59999996424,121015.438,121014.69999998808,121032.108,121648.919,,27,interest
screen,html.Screen,0_2_1_1_28,2021-11-12T13:26:14.074Z,,,,,,,,,,,,,,,,54,,,,,,,,,,,,,,652.5810000000056,,response,,,100,,,,,,Space,keypress(Space),,,,,-- --- ---- --- ------ ----- ------- ---- -- --- ------- --<br>------- ---------- ------ -- ----- -- ----- -- ---- ------<br>--- ----- --- --- ------ -------- rate. --- ------ ----- --<br>----- ----- ---------- --- --- ------ ------ ---- -- ------<br>------- --- ------ ----- --- ---- ------- -- ---- --- --<br>------- ------,122302.39999997616,122301.5,121632.249,121638.59999996424,121648.919,122315.766,,28,rate.
screen,html.Screen,0_2_1_1_29,2021-11-12T13:26:14.586Z,,,,,,,,,,,,,,,,54,,,,,,,,,,,,,,497.73399999999674,,response,,,100,,,,,,Space,keypress(Space),,,,,-- --- ---- --- ------ ----- ------- ---- -- --- ------- --<br>------- ---------- ------ -- ----- -- ----- -- ---- ------<br>--- ----- --- --- ------ -------- ----- The ------ ----- --<br>----- ----- ---------- --- --- ------ ------ ---- -- ------<br>------- --- ------ ----- --- ---- ------- -- ---- --- --<br>------- ------,122814.29999995232,122813.5,122299.096,122302.59999996424,122315.766,122815.957,,29,The
screen,html.Screen,0_2_1_1_30,2021-11-12T13:26:15.034Z,,,,,,,,,,,,,,,,54,,,,,,,,,,,,,,445.44299997616326,,response,,,100,,,,,,Space,keypress(Space),,,,,-- --- ---- --- ------ ----- ------- ---- -- --- ------- --<br>------- ---------- ------ -- ----- -- ----- -- ---- ------<br>--- ----- --- --- ------ -------- ----- --- market ----- --<br>----- ----- ---------- --- --- ------ ------ ---- -- ------<br>------- --- ------ ----- --- ---- ------- -- ---- --- --<br>------- ------,123262.29999995232,123261.39999997616,122799.286,122814.59999996424,122815.957,123265.998,,30,market
screen,html.Screen,0_2_1_1_31,2021-11-12T13:26:15.578Z,,,,,,,,,,,,,,,,54,,,,,,,,,,,,,,539.5019999999931,,response,,,100,,,,,,Space,keypress(Space),,,,,-- --- ---- --- ------ ----- ------- ---- -- --- ------- --<br>------- ---------- ------ -- ----- -- ----- -- ---- ------<br>--- ----- --- --- ------ -------- ----- --- ------ value --<br>----- ----- ---------- --- --- ------ ------ ---- -- ------<br>------- --- ------ ----- --- ---- ------- -- ---- --- --<br>------- ------,123806.29999995232,123805.5,123249.328,123262.5,123265.998,123816.236,,31,value
screen,html.Screen,0_2_1_1_32,2021-11-12T13:26:16.202Z,,,,,,,,,,,,,,,,54,,,,,,,,,,,,,,613.1639999761537,,response,,,100,,,,,,Space,keypress(Space),,,,,-- --- ---- --- ------ ----- ------- ---- -- --- ------- --<br>------- ---------- ------ -- ----- -- ----- -- ---- ------<br>--- ----- --- --- ------ -------- ----- --- ------ ----- of<br>----- ----- ---------- --- --- ------ ------ ---- -- ------<br>------- --- ------ ----- --- ---- ------- -- ---- --- --<br>------- ------,124430.19999998808,124429.39999997616,123799.565,123806.59999996424,123816.236,124432.879,,32,of
screen,html.Screen,0_2_1_1_33,2021-11-12T13:26:16.674Z,,,,,,,,,,,,,,,,54,,,,,,,,,,,,,,468.5209999761573,,response,,,100,,,,,,Space,keypress(Space),,,,,-- --- ---- --- ------ ----- ------- ---- -- --- ------- --<br>------- ---------- ------ -- ----- -- ----- -- ---- ------<br>--- ----- --- --- ------ -------- ----- --- ------ ----- --<br>these ----- ---------- --- --- ------ ------ ---- -- ------<br>------- --- ------ ----- --- ---- ------- -- ---- --- --<br>------- ------,124902.19999998808,124901.39999997616,124416.21,124430.39999997616,124432.879,124916.495,,33,these
screen,html.Screen,0_2_1_1_34,2021-11-12T13:26:17.250Z,,,,,,,,,,,,,,,,54,,,,,,,,,,,,,,560.9049999761628,,response,,,100,,,,,,Space,keypress(Space),,,,,-- --- ---- --- ------ ----- ------- ---- -- --- ------- --<br>------- ---------- ------ -- ----- -- ----- -- ---- ------<br>--- ----- --- --- ------ -------- ----- --- ------ ----- --<br>----- bonds ---------- --- --- ------ ------ ---- -- ------<br>------- --- ------ ----- --- ---- ------- -- ---- --- --<br>------- ------,125478.19999998808,125477.39999997616,124899.824,124902.39999997616,124916.495,125483.222,,34,bonds
screen,html.Screen,0_2_1_1_35,2021-11-12T13:26:17.898Z,,,,,,,,,,,,,,,,54,,,,,,,,,,,,,,642.4779999880848,,response,,,100,,,,,,Space,keypress(Space),,,,,"-- --- ---- --- ------ ----- ------- ---- -- --- ------- --<br>------- ---------- ------ -- ----- -- ----- -- ---- ------<br>--- ----- --- --- ------ -------- ----- --- ------ ----- --<br>----- ----- plummeted, --- --- ------ ------ ---- -- ------<br>------- --- ------ ----- --- ---- ------- -- ---- --- --<br>------- ------",126126.59999996424,126125.69999998808,125466.552,125478.39999997616,125483.222,126133.474,,35,"plummeted,"
screen,html.Screen,0_2_1_1_36,2021-11-12T13:26:18.450Z,,,,,,,,,,,,,,,,54,,,,,,,,,,,,,,543.8259999523143,,response,,,100,,,,,,Space,keypress(Space),,,,,-- --- ---- --- ------ ----- ------- ---- -- --- ------- --<br>------- ---------- ------ -- ----- -- ----- -- ---- ------<br>--- ----- --- --- ------ -------- ----- --- ------ ----- --<br>----- ----- ---------- and --- ------ ------ ---- -- ------<br>------- --- ------ ----- --- ---- ------- -- ---- --- --<br>------- ------,126678.09999996424,126677.29999995232,126116.803,126126.79999995232,126133.474,126683.569,,36,and
screen,html.Screen,0_2_1_1_37,2021-11-12T13:26:18.986Z,,,,,,,,,,,,,,,,54,,,,,,,,,,,,,,529.7309999523131,,response,,,100,,,,,,Space,keypress(Space),,,,,-- --- ---- --- ------ ----- ------- ---- -- --- ------- --<br>------- ---------- ------ -- ----- -- ----- -- ---- ------<br>--- ----- --- --- ------ -------- ----- --- ------ ----- --<br>----- ----- ---------- --- the ------ ------ ---- -- ------<br>------- --- ------ ----- --- ---- ------- -- ---- --- --<br>------- ------,127214.09999996424,127213.29999995232,126666.899,126678.39999997616,126683.569,127216.95,,37,the
screen,html.Screen,0_2_1_1_38,2021-11-12T13:26:19.530Z,,,,,,,,,,,,,,,,54,,,,,,,,,,,,,,540.249999988082,,response,,,100,,,,,,Space,keypress(Space),,,,,-- --- ---- --- ------ ----- ------- ---- -- --- ------- --<br>------- ---------- ------ -- ----- -- ----- -- ---- ------<br>--- ----- --- --- ------ -------- ----- --- ------ ----- --<br>----- ----- ---------- --- --- market ------ ---- -- ------<br>------- --- ------ ----- --- ---- ------- -- ---- --- --<br>------- ------,127758.09999996424,127757.19999998808,127200.281,127214.29999995232,127216.95,127767.241,,38,market
screen,html.Screen,0_2_1_1_39,2021-11-12T13:26:19.994Z,,,,,,,,,,,,,,,,54,,,,,,,,,,,,,,453.95899998808454,,response,,,100,,,,,,Space,keypress(Space),,,,,-- --- ---- --- ------ ----- ------- ---- -- --- ------- --<br>------- ---------- ------ -- ----- -- ----- -- ---- ------<br>--- ----- --- --- ------ -------- ----- --- ------ ----- --<br>----- ----- ---------- --- --- ------ became ---- -- ------<br>------- --- ------ ----- --- ---- ------- -- ---- --- --<br>------- ------,128222.09999996424,128221.19999998808,127750.57,127758.29999995232,127767.241,128233.84,,39,became
screen,html.Screen,0_2_1_1_40,2021-11-12T13:26:20.586Z,,,,,,,,,,,,,,,,54,,,,,,,,,,,,,,579.2599999642407,,response,,,100,,,,,,Space,keypress(Space),,,,,-- --- ---- --- ------ ----- ------- ---- -- --- ------- --<br>------- ---------- ------ -- ----- -- ----- -- ---- ------<br>--- ----- --- --- ------ -------- ----- --- ------ ----- --<br>----- ----- ---------- --- --- ------ ------ wary -- ------<br>------- --- ------ ----- --- ---- ------- -- ---- --- --<br>------- ------,128814,128813.09999996424,128217.171,128222.29999995232,128233.84,128817.544,,40,wary
screen,html.Screen,0_2_1_1_41,2021-11-12T13:26:20.993Z,,,,,,,,,,,,,,,,54,,,,,,,,,,,,,,403.5559999642428,,response,,,100,,,,,,Space,keypress(Space),,,,,-- --- ---- --- ------ ----- ------- ---- -- --- ------- --<br>------- ---------- ------ -- ----- -- ----- -- ---- ------<br>--- ----- --- --- ------ -------- ----- --- ------ ----- --<br>----- ----- ---------- --- --- ------ ------ ---- of ------<br>------- --- ------ ----- --- ---- ------- -- ---- --- --<br>------- ------,129221.89999997616,129221.09999996424,128800.872,128814.19999998808,128817.544,129234.23,,41,of
screen,html.Screen,0_2_1_1_42,2021-11-12T13:26:21.481Z,,,,,,,,,,,,,,,,54,,,,,,,,,,,,,,474.96999998808315,,response,,,100,,,,,,Space,keypress(Space),,,,,-- --- ---- --- ------ ----- ------- ---- -- --- ------- --<br>------- ---------- ------ -- ----- -- ----- -- ---- ------<br>--- ----- --- --- ------ -------- ----- --- ------ ----- --<br>----- ----- ---------- --- --- ------ ------ ---- -- French<br>------- --- ------ ----- --- ---- ------- -- ---- --- --<br>------- ------,129710,129709.19999998808,129217.56,129222.19999998808,129234.23,129717.681,,42,French
screen,html.Screen,0_2_1_1_43,2021-11-12T13:26:22.065Z,,,,,,,,,,,,,,,,54,,,,,,,,,,,,,,575.4189999642404,,response,,,100,,,,,,Space,keypress(Space),,,,,-- --- ---- --- ------ ----- ------- ---- -- --- ------- --<br>------- ---------- ------ -- ----- -- ----- -- ---- ------<br>--- ----- --- --- ------ -------- ----- --- ------ ----- --<br>----- ----- ---------- --- --- ------ ------ ---- -- ------<br>credit. --- ------ ----- --- ---- ------- -- ---- --- --<br>------- ------,130293.89999997616,130293.09999996424,129701.011,129710.19999998808,129717.681,130301.292,,43,credit.
screen,html.Screen,0_2_1_1_44,2021-11-12T13:26:22.649Z,,,,,,,,,,,,,,,,54,,,,,,,,,,,,,,575.8079999642359,,response,,,100,,,,,,Space,keypress(Space),,,,,-- --- ---- --- ------ ----- ------- ---- -- --- ------- --<br>------- ---------- ------ -- ----- -- ----- -- ---- ------<br>--- ----- --- --- ------ -------- ----- --- ------ ----- --<br>----- ----- ---------- --- --- ------ ------ ---- -- ------<br>------- The ------ ----- --- ---- ------- -- ---- --- --<br>------- ------,130877.89999997616,130877.09999996424,130284.62,130294.19999998808,130301.292,130884.583,,44,The
screen,html.Screen,0_2_1_1_45,2021-11-12T13:26:23.217Z,,,,,,,,,,,,,,,,54,,,,,,,,,,,,,,560.4170000000013,,response,,,100,,,,,,Space,keypress(Space),,,,,-- --- ---- --- ------ ----- ------- ---- -- --- ------- --<br>------- ---------- ------ -- ----- -- ----- -- ---- ------<br>--- ----- --- --- ------ -------- ----- --- ------ ----- --<br>----- ----- ---------- --- --- ------ ------ ---- -- ------<br>------- --- French ----- --- ---- ------- -- ---- --- --<br>------- ------,131445.79999995232,131445,130867.914,130878.09999996424,130884.583,131451.44,,45,French
screen,html.Screen,0_2_1_1_46,2021-11-12T13:26:24.193Z,,,,,,,,,,,,,,,,54,,,,,,,,,,,,,,969.5599999999977,,response,,,100,,,,,,Space,keypress(Space),,,,,-- --- ---- --- ------ ----- ------- ---- -- --- ------- --<br>------- ---------- ------ -- ----- -- ----- -- ---- ------<br>--- ----- --- --- ------ -------- ----- --- ------ ----- --<br>----- ----- ---------- --- --- ------ ------ ---- -- ------<br>------- --- ------ state --- ---- ------- -- ---- --- --<br>------- ------,132421.79999995232,132421,131434.77,131446.09999996424,131451.44,132435.108,,46,state
screen,html.Screen,0_2_1_1_47,2021-11-12T13:26:24.649Z,,,,,,,,,,,,,,,,54,,,,,,,,,,,,,,441.89199999999255,,response,,,100,,,,,,Space,keypress(Space),,,,,-- --- ---- --- ------ ----- ------- ---- -- --- ------- --<br>------- ---------- ------ -- ----- -- ----- -- ---- ------<br>--- ----- --- --- ------ -------- ----- --- ------ ----- --<br>----- ----- ---------- --- --- ------ ------ ---- -- ------<br>------- --- ------ ----- was ---- ------- -- ---- --- --<br>------- ------,132877.79999995232,132877,132418.437,132422.19999998808,132435.108,132885.148,,47,was
screen,html.Screen,0_2_1_1_48,2021-11-12T13:26:25.121Z,,,,,,,,,,,,,,,,54,,,,,,,,,,,,,,463.8520000000135,,response,,,100,,,,,,Space,keypress(Space),,,,,-- --- ---- --- ------ ----- ------- ---- -- --- ------- --<br>------- ---------- ------ -- ----- -- ----- -- ---- ------<br>--- ----- --- --- ------ -------- ----- --- ------ ----- --<br>----- ----- ---------- --- --- ------ ------ ---- -- ------<br>------- --- ------ ----- --- left ------- -- ---- --- --<br>------- ------,133349.89999997616,133349,132868.478,132878.09999996424,132885.148,133351.86,,48,left
screen,html.Screen,0_2_1_1_49,2021-11-12T13:26:25.649Z,,,,,,,,,,,,,,,,54,,,,,,,,,,,,,,525.0399999761721,,response,,,100,,,,,,Space,keypress(Space),,,,,-- --- ---- --- ------ ----- ------- ---- -- --- ------- --<br>------- ---------- ------ -- ----- -- ----- -- ---- ------<br>--- ----- --- --- ------ -------- ----- --- ------ ----- --<br>----- ----- ---------- --- --- ------ ------ ---- -- ------<br>------- --- ------ ----- --- ---- without -- ---- --- --<br>------- ------,133877.69999998808,133876.89999997616,133335.191,133350.19999998808,133351.86,133885.531,,49,without
screen,html.Screen,0_2_1_1_50,2021-11-12T13:26:26.169Z,,,,,,,,,,,,,,,,54,,,,,,,,,,,,,,511.26899995232816,,response,,,100,,,,,,Space,keypress(Space),,,,,-- --- ---- --- ------ ----- ------- ---- -- --- ------- --<br>------- ---------- ------ -- ----- -- ----- -- ---- ------<br>--- ----- --- --- ------ -------- ----- --- ------ ----- --<br>----- ----- ---------- --- --- ------ ------ ---- -- ------<br>------- --- ------ ----- --- ---- ------- an ---- --- --<br>------- ------,134397.69999998808,134396.79999995232,133868.859,133878,133885.531,134402.201,,50,an
screen,html.Screen,0_2_1_1_51,2021-11-12T13:26:26.601Z,,,,,,,,,,,,,,,,54,,,,,,,,,,,,,,426.6989999761572,,response,,,100,,,,,,Space,keypress(Space),,,,,-- --- ---- --- ------ ----- ------- ---- -- --- ------- --<br>------- ---------- ------ -- ----- -- ----- -- ---- ------<br>--- ----- --- --- ------ -------- ----- --- ------ ----- --<br>----- ----- ---------- --- --- ------ ------ ---- -- ------<br>------- --- ------ ----- --- ---- ------- -- easy --- --<br>------- ------,134829.59999996424,134828.89999997616,134385.531,134398,134402.201,134835.668,,51,easy
screen,html.Screen,0_2_1_1_52,2021-11-12T13:26:26.985Z,,,,,,,,,,,,,,,,54,,,,,,,,,,,,,,377.13199995231116,,response,,,100,,,,,,Space,keypress(Space),,,,,-- --- ---- --- ------ ----- ------- ---- -- --- ------- --<br>------- ---------- ------ -- ----- -- ----- -- ---- ------<br>--- ----- --- --- ------ -------- ----- --- ------ ----- --<br>----- ----- ---------- --- --- ------ ------ ---- -- ------<br>------- --- ------ ----- --- ---- ------- -- ---- way --<br>------- ------,135213.79999995232,135212.79999995232,134818.998,134829.79999995232,134835.668,135219.032,,52,way
screen,html.Screen,0_2_1_1_53,2021-11-12T13:26:27.385Z,,,,,,,,,,,,,,,,54,,,,,,,,,,,,,,393.76799995230976,,response,,,100,,,,,,Space,keypress(Space),,,,,-- --- ---- --- ------ ----- ------- ---- -- --- ------- --<br>------- ---------- ------ -- ----- -- ----- -- ---- ------<br>--- ----- --- --- ------ -------- ----- --- ------ ----- --<br>----- ----- ---------- --- --- ------ ------ ---- -- ------<br>------- --- ------ ----- --- ---- ------- -- ---- --- of<br>------- ------,135613.59999996424,135612.79999995232,135202.363,135214,135219.032,135619.153,,53,of
screen,html.Screen,0_2_1_1_54,2021-11-12T13:26:27.817Z,,,,,,,,,,,,,,,,54,,,,,,,,,,,,,,425.64699995232513,,response,,,100,,,,,,Space,keypress(Space),,,,,-- --- ---- --- ------ ----- ------- ---- -- --- ------- --<br>------- ---------- ------ -- ----- -- ----- -- ---- ------<br>--- ----- --- --- ------ -------- ----- --- ------ ----- --<br>----- ----- ---------- --- --- ------ ------ ---- -- ------<br>------- --- ------ ----- --- ---- ------- -- ---- --- --<br>raising ------,136045.69999998808,136044.79999995232,135602.483,135613.79999995232,135619.153,136052.712,,54,raising
screen,html.Screen,0_2_1_1_55,2021-11-12T13:26:28.322Z,,,,,,,,,,,,,,,,54,,,,,,,,,,,,,,496.48799998807954,,response,,,100,,,,,,Space,keypress(Space),,,,,-- --- ---- --- ------ ----- ------- ---- -- --- ------- --<br>------- ---------- ------ -- ----- -- ----- -- ---- ------<br>--- ----- --- --- ------ -------- ----- --- ------ ----- --<br>----- ----- ---------- --- --- ------ ------ ---- -- ------<br>------- --- ------ ----- --- ---- ------- -- ---- --- --<br>------- money.,136550,136549.19999998808,136036.04,136046,136052.712,136552.804,,55,money.
Item 100,flow.Loop,0_2_1_1,2021-11-12T13:26:28.322Z,,,,,,,,,,,,,,,,,,,,,,,,,,,,,,32038.14299998808,,completion,,,,C,,,,,,,,,,silence,,136550.39999997616,136549.19999998808,104494.387,104496.5,104511.057,136552.804,,,
Question 1,html.Screen,0_2_1_2,2021-11-12T13:26:31.777Z,,,,,,,,,,,,,,,,,,,,,,,,,,,true,TRUE,,3450.9959999523126,,response,,,100,C,,,,,TRUE,click #choice-1,,,,silence,,140005.19999998808,140003.79999995232,136536.133,136550.69999998808,136552.804,140020.337,,,
Question 2,html.Screen,0_2_1_3,2021-11-12T13:26:33.926Z,,,,,,,,,,,,,,,,,,,,,,,,,,,true,FALSE,,2133.0629999761586,,response,,,100,C,,,,,FALSE,click #choice-2,,,,silence,,142154.69999998808,142153.39999997616,140003.667,140005.39999997616,140020.337,142170.798,,,
Item 100,flow.Sequence,0_2_1,2021-11-12T13:26:33.927Z,,,,,,,,,,,,,,,,,,,,,,,,,,,,,,47644.738999976165,,completion,,,,,,,,,,,,,,,,142155.09999996424,142153.39999997616,94491.99,94496.59999996424,94508.661,142170.798,,,
End of Practice,html.Page,0_2_2,2021-11-12T13:26:38.537Z,,,,,,,,,,,,,,,,,,,,,,,,,,,,,,4594.101999976148,,form submission,,,,,,,,,,,,,,,,146765.5,146764.89999997616,142154.13,142155.29999995232,142170.798,146772.026,,,
Practice,flow.Sequence,0_2,2021-11-12T13:26:38.538Z,,,,,,,,,,,,,,,,,,,,,,,,,,,,,,109406.81799997616,,completion,,,,,,,,,,,,,,,,146766,146764.89999997616,37341.425,37357.09999996424,37358.082,146772.026,,,
Trap_instruction,html.Page,0_3_0,2021-11-12T13:26:43.145Z,,,,,,,,,,,,,,,,,,,,,,,,,,,,,,4600.773999952304,,form submission,,,,,,,,,,,,,,,,151373.5,151372.79999995232,146755.356,146766.39999997616,146772.026,151406.588,,,
trap_trial,html.Screen,0_3_1,2021-11-12T13:26:45.581Z,,,,,,,,,,,,,,,,,,,,,,,,,,,true,1,,2402.1119999880902,,response,,,,,,,,,1,click #choice-1,,,,,,153809.89999997616,153808.69999998808,151356.575,151373.69999998808,151406.588,153823.718,,,
end of trap trial,html.Page,0_3_2,2021-11-12T13:26:47.815Z,,,,,,,,,,,,,,,,,,,,,,,,,,,,,,2219.3819999642437,,form submission,,,,,,,,,,,,,,,,156043.5,156043.09999996424,153807.048,153810.19999998808,153823.718,156057.798,,,
Trap 1,flow.Sequence,0_3,2021-11-12T13:26:47.816Z,,,,,,,,,,,,,,,,,,,,,,,,,,,,,,9271.073999964225,,completion,,,,,,,,,,,,,,,,156044,156043.09999996424,146755.356,146766.29999995232,146772.026,156057.798,,,
Standby,html.Page,0_4_0,2021-11-12T13:26:55.815Z,,,,,,,,,,,,,,,,,,,,,,,,,,,,,,8001.573000000004,,timeout,,,,,,,,,,,,,,,,164043.89999997616,164042.701,156041.127,156044.29999995232,156057.798,164059.371,,,
Holding screen,html.Screen,0_4_1_0_0,2021-11-12T13:27:02.818Z,,,,,,,,,,,,,,,,,,,,,,,,,,,,,,7002.203999999998,,timeout,,,,,,,,,,,,,,,,171046.69999998808,171044.905,164042.701,164044.19999998808,164059.371,171061.575,,,
screen,html.Screen,0_4_1_0_1_0,2021-11-12T13:27:03.584Z,,,,,,,,,,,,,,,,2,,,,,,,,,,,,,,749.7249999523046,,response,,,1,C,,,,,Space,keypress(Space),,,,instrumental,Two ---- ------ --- ------- ---------- ------- ----------<br>--- --------- --- ----------- ------- ----- ------- ---<br>--------- ---- -- --- ---- -- --------- -- ---- -------<br>-- --------- ------ --- ----- ------ ---- --- --------- --<br>------ - ---- -- --- ----------- ------- ---- ----- -----<br>--- -------- - ------ ---- -- ----- ---- --- --- -----------<br>-- -------,171812.29999995232,171811.29999995232,171044.905,171047.09999996424,171061.575,171828.503,,0,Two
screen,html.Screen,0_4_1_0_1_1,2021-11-12T13:27:04.111Z,,,,,,,,,,,,,,,,2,,,,,,,,,,,,,,510.1969999880821,,response,,,1,C,,,,,Space,keypress(Space),,,,instrumental,--- days ------ --- ------- ---------- ------- ----------<br>--- --------- --- ----------- ------- ----- ------- ---<br>--------- ---- -- --- ---- -- --------- -- ---- -------<br>-- --------- ------ --- ----- ------ ---- --- --------- --<br>------ - ---- -- --- ----------- ------- ---- ----- -----<br>--- -------- - ------ ---- -- ----- ---- --- --- -----------<br>-- -------,172339.69999998808,172338.69999998808,171811.833,171812.59999996424,171828.503,172345.268,,1,days
screen,html.Screen,0_4_1_0_1_2,2021-11-12T13:27:04.575Z,,,,,,,,,,,,,,,,2,,,,,,,,,,,,,,457.33199996422627,,response,,,1,C,,,,,Space,keypress(Space),,,,instrumental,"--- ---- later, --- ------- ---------- ------- ----------<br>--- --------- --- ----------- ------- ----- ------- ---<br>--------- ---- -- --- ---- -- --------- -- ---- -------<br>-- --------- ------ --- ----- ------ ---- --- --------- --<br>------ - ---- -- --- ----------- ------- ---- ----- -----<br>--- -------- - ------ ---- -- ----- ---- --- --- -----------<br>-- -------",172803.39999997616,172802.59999996424,172328.598,172340,172345.268,172812.142,,2,"later,"
screen,html.Screen,0_4_1_0_1_3,2021-11-12T13:27:05.095Z,,,,,,,,,,,,,,,,2,,,,,,,,,,,,,,510.5579999880865,,response,,,1,C,,,,,Space,keypress(Space),,,,instrumental,--- ---- ------ the ------- ---------- ------- ----------<br>--- --------- --- ----------- ------- ----- ------- ---<br>--------- ---- -- --- ---- -- --------- -- ---- -------<br>-- --------- ------ --- ----- ------ ---- --- --------- --<br>------ - ---- -- --- ----------- ------- ---- ----- -----<br>--- -------- - ------ ---- -- ----- ---- --- --- -----------<br>-- -------,173323.59999996424,173322.69999998808,172795.471,172803.79999995232,172812.142,173328.861,,3,the
screen,html.Screen,0_4_1_0_1_4,2021-11-12T13:27:05.543Z,,,,,,,,,,,,,,,,2,,,,,,,,,,,,,,441.7389999642328,,response,,,1,C,,,,,Space,keypress(Space),,,,instrumental,--- ---- ------ --- British ---------- ------- ----------<br>--- --------- --- ----------- ------- ----- ------- ---<br>--------- ---- -- --- ---- -- --------- -- ---- -------<br>-- --------- ------ --- ----- ------ ---- --- --------- --<br>------ - ---- -- --- ----------- ------- ---- ----- -----<br>--- -------- - ------ ---- -- ----- ---- --- --- -----------<br>-- -------,173771.39999997616,173770.59999996424,173312.191,173323.89999997616,173328.861,173779.083,,4,British
screen,html.Screen,0_4_1_0_1_5,2021-11-12T13:27:06.079Z,,,,,,,,,,,,,,,,2,,,,,,,,,,,,,,527.5169999642239,,response,,,1,C,,,,,Space,keypress(Space),,,,instrumental,--- ---- ------ --- ------- astronomer ------- ----------<br>--- --------- --- ----------- ------- ----- ------- ---<br>--------- ---- -- --- ---- -- --------- -- ---- -------<br>-- --------- ------ --- ----- ------ ---- --- --------- --<br>------ - ---- -- --- ----------- ------- ---- ----- -----<br>--- -------- - ------ ---- -- ----- ---- --- --- -----------<br>-- -------,174307.5,174306.59999996424,173762.412,173771.69999998808,173779.083,174312.366,,5,astronomer
screen,html.Screen,0_4_1_0_1_6,2021-11-12T13:27:06.679Z,,,,,,,,,,,,,,,,2,,,,,,,,,,,,,,594.33399998807,,response,,,1,C,,,,,Space,keypress(Space),,,,instrumental,--- ---- ------ --- ------- ---------- Richard ----------<br>--- --------- --- ----------- ------- ----- ------- ---<br>--------- ---- -- --- ---- -- --------- -- ---- -------<br>-- --------- ------ --- ----- ------ ---- --- --------- --<br>------ - ---- -- --- ----------- ------- ---- ----- -----<br>--- -------- - ------ ---- -- ----- ---- --- --- -----------<br>-- -------,174907.39999997616,174906.69999998808,174295.697,174307.69999998808,174312.366,174912.774,,6,Richard
screen,html.Screen,0_4_1_0_1_7,2021-11-12T13:27:07.199Z,,,,,,,,,,,,,,,,2,,,,,,,,,,,,,,513.8259999642323,,response,,,1,C,,,,,Space,keypress(Space),,,,instrumental,--- ---- ------ --- ------- ---------- ------- Carrington<br>--- --------- --- ----------- ------- ----- ------- ---<br>--------- ---- -- --- ---- -- --------- -- ---- -------<br>-- --------- ------ --- ----- ------ ---- --- --------- --<br>------ - ---- -- --- ----------- ------- ---- ----- -----<br>--- -------- - ------ ---- -- ----- ---- --- --- -----------<br>-- -------,175427.5,175426.59999996424,174896.102,174907.79999995232,174912.774,175429.325,,7,Carrington
screen,html.Screen,0_4_1_0_1_8,2021-11-12T13:27:07.927Z,,,,,,,,,,,,,,,,2,,,,,,,,,,,,,,725.2749999642256,,response,,,1,C,,,,,Space,keypress(Space),,,,instrumental,--- ---- ------ --- ------- ---------- ------- ----------<br>was --------- --- ----------- ------- ----- ------- ---<br>--------- ---- -- --- ---- -- --------- -- ---- -------<br>-- --------- ------ --- ----- ------ ---- --- --------- --<br>------ - ---- -- --- ----------- ------- ---- ----- -----<br>--- -------- - ------ ---- -- ----- ---- --- --- -----------<br>-- -------,176155.39999997616,176154.59999996424,175412.656,175427.69999998808,175429.325,176163.081,,8,was
screen,html.Screen,0_4_1_0_1_9,2021-11-12T13:27:08.383Z,,,,,,,,,,,,,,,,2,,,,,,,,,,,,,,447.5189999642316,,response,,,1,C,,,,,Space,keypress(Space),,,,instrumental,--- ---- ------ --- ------- ---------- ------- ----------<br>--- observing --- ----------- ------- ----- ------- ---<br>--------- ---- -- --- ---- -- --------- -- ---- -------<br>-- --------- ------ --- ----- ------ ---- --- --------- --<br>------ - ---- -- --- ----------- ------- ---- ----- -----<br>--- -------- - ------ ---- -- ----- ---- --- --- -----------<br>-- -------,176611.39999997616,176610.59999996424,176146.409,176155.59999996424,176163.081,176612.96,,9,observing
screen,html.Screen,0_4_1_0_1_10,2021-11-12T13:27:08.831Z,,,,,,,,,,,,,,,,2,,,,,,,,,,,,,,445.54000000000815,,response,,,1,C,,,,,Space,keypress(Space),,,,instrumental,--- ---- ------ --- ------- ---------- ------- ----------<br>--- --------- the ----------- ------- ----- ------- ---<br>--------- ---- -- --- ---- -- --------- -- ---- -------<br>-- --------- ------ --- ----- ------ ---- --- --------- --<br>------ - ---- -- --- ----------- ------- ---- ----- -----<br>--- -------- - ------ ---- -- ----- ---- --- --- -----------<br>-- -------,177059.29999995232,177058.5,176596.291,176611.69999998808,176612.96,177063.235,,10,the
screen,html.Screen,0_4_1_0_1_11,2021-11-12T13:27:09.295Z,,,,,,,,,,,,,,,,2,,,,,,,,,,,,,,459.1649999761721,,response,,,1,C,,,,,Space,keypress(Space),,,,instrumental,--- ---- ------ --- ------- ---------- ------- ----------<br>--- --------- --- interesting ------- ----- ------- ---<br>--------- ---- -- --- ---- -- --------- -- ---- -------<br>-- --------- ------ --- ----- ------ ---- --- --------- --<br>------ - ---- -- --- ----------- ------- ---- ----- -----<br>--- -------- - ------ ---- -- ----- ---- --- --- -----------<br>-- -------,177523.19999998808,177522.39999997616,177046.564,177059.59999996424,177063.235,177530.032,,11,interesting
screen,html.Screen,0_4_1_0_1_12,2021-11-12T13:27:09.879Z,,,,,,,,,,,,,,,,2,,,,,,,,,,,,,,576.4679999999935,,response,,,1,C,,,,,Space,keypress(Space),,,,instrumental,--- ---- ------ --- ------- ---------- ------- ----------<br>--- --------- --- ----------- sunspot ----- ------- ---<br>--------- ---- -- --- ---- -- --------- -- ---- -------<br>-- --------- ------ --- ----- ------ ---- --- --------- --<br>------ - ---- -- --- ----------- ------- ---- ----- -----<br>--- -------- - ------ ---- -- ----- ---- --- --- -----------<br>-- -------,178107.19999998808,178106.5,177513.361,177523.39999997616,177530.032,178113.443,,12,sunspot
screen,html.Screen,0_4_1_0_1_13,2021-11-12T13:27:10.511Z,,,,,,,,,,,,,,,,2,,,,,,,,,,,,,,624.9569999761588,,response,,,1,C,,,,,Space,keypress(Space),,,,instrumental,--- ---- ------ --- ------- ---------- ------- ----------<br>--- --------- --- ----------- ------- group ------- ---<br>--------- ---- -- --- ---- -- --------- -- ---- -------<br>-- --------- ------ --- ----- ------ ---- --- --------- --<br>------ - ---- -- --- ----------- ------- ---- ----- -----<br>--- -------- - ------ ---- -- ----- ---- --- --- -----------<br>-- -------,178739.29999995232,178738.39999997616,178096.773,178107.5,178113.443,178746.817,,13,group
screen,html.Screen,0_4_1_0_1_14,2021-11-12T13:27:10.967Z,,,,,,,,,,,,,,,,2,,,,,,,,,,,,,,447.58299997614813,,response,,,1,C,,,,,Space,keypress(Space),,,,instrumental,--- ---- ------ --- ------- ---------- ------- ----------<br>--- --------- --- ----------- ------- ----- through ---<br>--------- ---- -- --- ---- -- --------- -- ---- -------<br>-- --------- ------ --- ----- ------ ---- --- --------- --<br>------ - ---- -- --- ----------- ------- ---- ----- -----<br>--- -------- - ------ ---- -- ----- ---- --- --- -----------<br>-- -------,179195.19999998808,179194.39999997616,178730.148,178739.59999996424,178746.817,179197.185,,14,through
screen,html.Screen,0_4_1_0_1_15,2021-11-12T13:27:11.407Z,,,,,,,,,,,,,,,,2,,,,,,,,,,,,,,437.21499997616047,,response,,,1,C,,,,,Space,keypress(Space),,,,instrumental,--- ---- ------ --- ------- ---------- ------- ----------<br>--- --------- --- ----------- ------- ----- ------- his<br>--------- ---- -- --- ---- -- --------- -- ---- -------<br>-- --------- ------ --- ----- ------ ---- --- --------- --<br>------ - ---- -- --- ----------- ------- ---- ----- -----<br>--- -------- - ------ ---- -- ----- ---- --- --- -----------<br>-- -------,179635.19999998808,179634.39999997616,179180.513,179195.5,179197.185,179647.094,,15,his
screen,html.Screen,0_4_1_0_1_16,2021-11-12T13:27:12.151Z,,,,,,,,,,,,,,,,2,,,,,,,,,,,,,,731.2059999523044,,response,,,1,C,,,,,Space,keypress(Space),,,,instrumental,--- ---- ------ --- ------- ---------- ------- ----------<br>--- --------- --- ----------- ------- ----- ------- ---<br>telescope ---- -- --- ---- -- --------- -- ---- -------<br>-- --------- ------ --- ----- ------ ---- --- --------- --<br>------ - ---- -- --- ----------- ------- ---- ----- -----<br>--- -------- - ------ ---- -- ----- ---- --- --- -----------<br>-- -------,180379.09999996424,180378.29999995232,179630.425,179635.5,179647.094,180380.661,,16,telescope
screen,html.Screen,0_4_1_0_1_17,2021-11-12T13:27:12.679Z,,,,,,,,,,,,,,,,2,,,,,,,,,,,,,,525.5389999880863,,response,,,1,C,,,,,Space,keypress(Space),,,,instrumental,--- ---- ------ --- ------- ---------- ------- ----------<br>--- --------- --- ----------- ------- ----- ------- ---<br>--------- when -- --- ---- -- --------- -- ---- -------<br>-- --------- ------ --- ----- ------ ---- --- --------- --<br>------ - ---- -- --- ----------- ------- ---- ----- -----<br>--- -------- - ------ ---- -- ----- ---- --- --- -----------<br>-- -------,180907.09999996424,180906.19999998808,180363.991,180379.39999997616,180380.661,180914.31,,17,when
screen,html.Screen,0_4_1_0_1_18,2021-11-12T13:27:13.109Z,,,,,,,,,,,,,,,,2,,,,,,,,,,,,,,423.9899999523186,,response,,,1,C,,,,,Space,keypress(Space),,,,instrumental,--- ---- ------ --- ------- ---------- ------- ----------<br>--- --------- --- ----------- ------- ----- ------- ---<br>--------- ---- he --- ---- -- --------- -- ---- -------<br>-- --------- ------ --- ----- ------ ---- --- --------- --<br>------ - ---- -- --- ----------- ------- ---- ----- -----<br>--- -------- - ------ ---- -- ----- ---- --- --- -----------<br>-- -------,181339.09999996424,181338.29999995232,180897.638,180907.29999995232,180914.31,181347.677,,18,he
screen,html.Screen,0_4_1_0_1_19,2021-11-12T13:27:13.629Z,,,,,,,,,,,,,,,,2,,,,,,,,,,,,,,511.02299998808303,,response,,,1,C,,,,,Space,keypress(Space),,,,instrumental,--- ---- ------ --- ------- ---------- ------- ----------<br>--- --------- --- ----------- ------- ----- ------- ---<br>--------- ---- -- saw ---- -- --------- -- ---- -------<br>-- --------- ------ --- ----- ------ ---- --- --------- --<br>------ - ---- -- --- ----------- ------- ---- ----- -----<br>--- -------- - ------ ---- -- ----- ---- --- --- -----------<br>-- -------,181859.59999996424,181858.69999998808,181331.006,181339.29999995232,181347.677,181864.408,,19,saw
screen,html.Screen,0_4_1_0_1_20,2021-11-12T13:27:14.101Z,,,,,,,,,,,,,,,,2,,,,,,,,,,,,,,465.6919999642414,,response,,,1,C,,,,,Space,keypress(Space),,,,instrumental,--- ---- ------ --- ------- ---------- ------- ----------<br>--- --------- --- ----------- ------- ----- ------- ---<br>--------- ---- -- --- what -- --------- -- ---- -------<br>-- --------- ------ --- ----- ------ ---- --- --------- --<br>------ - ---- -- --- ----------- ------- ---- ----- -----<br>--- -------- - ------ ---- -- ----- ---- --- --- -----------<br>-- -------,182330.89999997616,182330.09999996424,181847.738,181859.79999995232,181864.408,182347.765,,20,what
screen,html.Screen,0_4_1_0_1_21,2021-11-12T13:27:14.653Z,,,,,,,,,,,,,,,,2,,,,,,,,,,,,,,534.234999999986,,response,,,1,C,,,,,Space,keypress(Space),,,,instrumental,--- ---- ------ --- ------- ---------- ------- ----------<br>--- --------- --- ----------- ------- ----- ------- ---<br>--------- ---- -- --- ---- he --------- -- ---- -------<br>-- --------- ------ --- ----- ------ ---- --- --------- --<br>------ - ---- -- --- ----------- ------- ---- ----- -----<br>--- -------- - ------ ---- -- ----- ---- --- --- -----------<br>-- -------,182882.79999995232,182882,182331.096,182331.09999996424,182347.765,182898.146,,21,he
screen,html.Screen,0_4_1_0_1_22,2021-11-12T13:27:15.213Z,,,,,,,,,,,,,,,,2,,,,,,,,,,,,,,543.9539999642293,,response,,,1,C,,,,,Space,keypress(Space),,,,instrumental,--- ---- ------ --- ------- ---------- ------- ----------<br>--- --------- --- ----------- ------- ----- ------- ---<br>--------- ---- -- --- ---- -- described -- ---- -------<br>-- --------- ------ --- ----- ------ ---- --- --------- --<br>------ - ---- -- --- ----------- ------- ---- ----- -----<br>--- -------- - ------ ---- -- ----- ---- --- --- -----------<br>-- -------,183442.79999995232,183442.09999996424,182881.474,182883.09999996424,182898.146,183448.178,,22,described
screen,html.Screen,0_4_1_0_1_23,2021-11-12T13:27:15.597Z,,,,,,,,,,,,,,,,2,,,,,,,,,,,,,,377.9219999642228,,response,,,1,C,,,,,Space,keypress(Space),,,,instrumental,--- ---- ------ --- ------- ---------- ------- ----------<br>--- --------- --- ----------- ------- ----- ------- ---<br>--------- ---- -- --- ---- -- --------- as ---- -------<br>-- --------- ------ --- ----- ------ ---- --- --------- --<br>------ - ---- -- --- ----------- ------- ---- ----- -----<br>--- -------- - ------ ---- -- ----- ---- --- --- -----------<br>-- -------,183827,183826.09999996424,183431.508,183443.19999998808,183448.178,183831.603,,23,as
screen,html.Screen,0_4_1_0_1_24,2021-11-12T13:27:16.053Z,,,,,,,,,,,,,,,,2,,,,,,,,,,,,,,450.4969999642344,,response,,,1,C,,,,,Space,keypress(Space),,,,instrumental,"--- ---- ------ --- ------- ---------- ------- ----------<br>--- --------- --- ----------- ------- ----- ------- ---<br>--------- ---- -- --- ---- -- --------- -- ""two -------<br>-- --------- ------ --- ----- ------ ---- --- --------- --<br>------ - ---- -- --- ----------- ------- ---- ----- -----<br>--- -------- - ------ ---- -- ----- ---- --- --- -----------<br>-- -------",184283,184282.09999996424,183814.933,183827.19999998808,183831.603,184298.309,,24,"""two"
screen,html.Screen,0_4_1_0_1_25,2021-11-12T13:27:16.557Z,,,,,,,,,,,,,,,,2,,,,,,,,,,,,,,487.79099996422883,,response,,,1,C,,,,,Space,keypress(Space),,,,instrumental,--- ---- ------ --- ------- ---------- ------- ----------<br>--- --------- --- ----------- ------- ----- ------- ---<br>--------- ---- -- --- ---- -- --------- -- ---- patches<br>-- --------- ------ --- ----- ------ ---- --- --------- --<br>------ - ---- -- --- ----------- ------- ---- ----- -----<br>--- -------- - ------ ---- -- ----- ---- --- --- -----------<br>-- -------,184787,184786.09999996424,184281.64,184283.19999998808,184298.309,184798.619,,25,patches
screen,html.Screen,0_4_1_0_1_26,2021-11-12T13:27:17.004Z,,,,,,,,,,,,,,,,2,,,,,,,,,,,,,,435.2809999761521,,response,,,1,C,,,,,Space,keypress(Space),,,,instrumental,--- ---- ------ --- ------- ---------- ------- ----------<br>--- --------- --- ----------- ------- ----- ------- ---<br>--------- ---- -- --- ---- -- --------- -- ---- -------<br>of --------- ------ --- ----- ------ ---- --- --------- --<br>------ - ---- -- --- ----------- ------- ---- ----- -----<br>--- -------- - ------ ---- -- ----- ---- --- --- -----------<br>-- -------,185234.79999995232,185233.89999997616,184781.947,184787.19999998808,184798.619,185248.68,,26,of
screen,html.Screen,0_4_1_0_1_27,2021-11-12T13:27:18.988Z,,,,,,,,,,,,,,,,2,,,,,,,,,,,,,,1969.320000000007,,response,,,1,C,,,,,Space,keypress(Space),,,,instrumental,--- ---- ------ --- ------- ---------- ------- ----------<br>--- --------- --- ----------- ------- ----- ------- ---<br>--------- ---- -- --- ---- -- --------- -- ---- -------<br>-- intensely ------ --- ----- ------ ---- --- --------- --<br>------ - ---- -- --- ----------- ------- ---- ----- -----<br>--- -------- - ------ ---- -- ----- ---- --- --- -----------<br>-- -------,187218.79999995232,187218,185232.009,185235,185248.68,187232.22,,27,intensely
screen,html.Screen,0_4_1_0_1_28,2021-11-12T13:27:19.420Z,,,,,,,,,,,,,,,,2,,,,,,,,,,,,,,417.679999976157,,response,,,1,C,,,,,Space,keypress(Space),,,,instrumental,--- ---- ------ --- ------- ---------- ------- ----------<br>--- --------- --- ----------- ------- ----- ------- ---<br>--------- ---- -- --- ---- -- --------- -- ---- -------<br>-- --------- bright --- ----- ------ ---- --- --------- --<br>------ - ---- -- --- ----------- ------- ---- ----- -----<br>--- -------- - ------ ---- -- ----- ---- --- --- -----------<br>-- -------,187650.69999998808,187649.89999997616,187215.551,187219,187232.22,187665.987,,28,bright
screen,html.Screen,0_4_1_0_1_29,2021-11-12T13:27:19.869Z,,,,,,,,,,,,,,,,2,,,,,,,,,,,,,,431.91299997616443,,response,,,1,C,,,,,Space,keypress(Space),,,,instrumental,--- ---- ------ --- ------- ---------- ------- ----------<br>--- --------- --- ----------- ------- ----- ------- ---<br>--------- ---- -- --- ---- -- --------- -- ---- -------<br>-- --------- ------ and ----- ------ ---- --- --------- --<br>------ - ---- -- --- ----------- ------- ---- ----- -----<br>--- -------- - ------ ---- -- ----- ---- --- --- -----------<br>-- -------,188098.89999997616,188097.89999997616,187649.316,187651,187665.987,188116.004,,29,and
screen,html.Screen,0_4_1_0_1_30,2021-11-12T13:27:20.332Z,,,,,,,,,,,,,,,,2,,,,,,,,,,,,,,445.79599995233,,response,,,1,C,,,,,Space,keypress(Space),,,,instrumental,--- ---- ------ --- ------- ---------- ------- ----------<br>--- --------- --- ----------- ------- ----- ------- ---<br>--------- ---- -- --- ---- -- --------- -- ---- -------<br>-- --------- ------ --- white ------ ---- --- --------- --<br>------ - ---- -- --- ----------- ------- ---- ----- -----<br>--- -------- - ------ ---- -- ----- ---- --- --- -----------<br>-- -------,188562.59999996424,188561.79999995232,188099.334,188099.09999996424,188116.004,188566.244,,30,white
screen,html.Screen,0_4_1_0_1_31,2021-11-12T13:27:20.781Z,,,,,,,,,,,,,,,,2,,,,,,,,,,,,,,444.05599995231023,,response,,,1,C,,,,,Space,keypress(Space),,,,instrumental,"--- ---- ------ --- ------- ---------- ------- ----------<br>--- --------- --- ----------- ------- ----- ------- ---<br>--------- ---- -- --- ---- -- --------- -- ---- -------<br>-- --------- ------ --- ----- light"" ---- --- --------- --<br>------ - ---- -- --- ----------- ------- ---- ----- -----<br>--- -------- - ------ ---- -- ----- ---- --- --- -----------<br>-- -------",189011.09999996424,189010.29999995232,188549.572,188562.79999995232,188566.244,189016.276,,31,"light"""
screen,html.Screen,0_4_1_0_1_32,2021-11-12T13:27:21.268Z,,,,,,,,,,,,,,,,2,,,,,,,,,,,,,,481.5239999523037,,response,,,1,C,,,,,Space,keypress(Space),,,,instrumental,--- ---- ------ --- ------- ---------- ------- ----------<br>--- --------- --- ----------- ------- ----- ------- ---<br>--------- ---- -- --- ---- -- --------- -- ---- -------<br>-- --------- ------ --- ----- ------ over --- --------- --<br>------ - ---- -- --- ----------- ------- ---- ----- -----<br>--- -------- - ------ ---- -- ----- ---- --- --- -----------<br>-- -------,189498.69999998808,189497.79999995232,188999.606,189011.39999997616,189016.276,189499.736,,32,over
screen,html.Screen,0_4_1_0_1_33,2021-11-12T13:27:21.660Z,,,,,,,,,,,,,,,,2,,,,,,,,,,,,,,390.06399995231186,,response,,,1,C,,,,,Space,keypress(Space),,,,instrumental,--- ---- ------ --- ------- ---------- ------- ----------<br>--- --------- --- ----------- ------- ----- ------- ---<br>--------- ---- -- --- ---- -- --------- -- ---- -------<br>-- --------- ------ --- ----- ------ ---- the --------- --<br>------ - ---- -- --- ----------- ------- ---- ----- -----<br>--- -------- - ------ ---- -- ----- ---- --- --- -----------<br>-- -------,189890.59999996424,189889.79999995232,189483.066,189498.89999997616,189499.736,189899.727,,33,the
screen,html.Screen,0_4_1_0_1_34,2021-11-12T13:27:22.076Z,,,,,,,,,,,,,,,,2,,,,,,,,,,,,,,405.97299998806557,,response,,,1,C,,,,,Space,keypress(Space),,,,instrumental,--- ---- ------ --- ------- ---------- ------- ----------<br>--- --------- --- ----------- ------- ----- ------- ---<br>--------- ---- -- --- ---- -- --------- -- ---- -------<br>-- --------- ------ --- ----- ------ ---- --- sunspots. --<br>------ - ---- -- --- ----------- ------- ---- ----- -----<br>--- -------- - ------ ---- -- ----- ---- --- --- -----------<br>-- -------,190306.59999996424,190305.69999998808,189883.058,189890.79999995232,189899.727,190316.682,,34,sunspots.
screen,html.Screen,0_4_1_0_1_35,2021-11-12T13:27:22.612Z,,,,,,,,,,,,,,,,2,,,,,,,,,,,,,,525.0179999880784,,response,,,1,C,,,,,Space,keypress(Space),,,,instrumental,--- ---- ------ --- ------- ---------- ------- ----------<br>--- --------- --- ----------- ------- ----- ------- ---<br>--------- ---- -- --- ---- -- --------- -- ---- -------<br>-- --------- ------ --- ----- ------ ---- --- --------- He<br>------ - ---- -- --- ----------- ------- ---- ----- -----<br>--- -------- - ------ ---- -- ----- ---- --- --- -----------<br>-- -------,190842.5,190841.69999998808,190300.01,190306.89999997616,190316.682,190850.116,,35,He
screen,html.Screen,0_4_1_0_1_36,2021-11-12T13:27:23.172Z,,,,,,,,,,,,,,,,2,,,,,,,,,,,,,,551.3839999999909,,response,,,1,C,,,,,Space,keypress(Space),,,,instrumental,--- ---- ------ --- ------- ---------- ------- ----------<br>--- --------- --- ----------- ------- ----- ------- ---<br>--------- ---- -- --- ---- -- --------- -- ---- -------<br>-- --------- ------ --- ----- ------ ---- --- --------- --<br>jotted - ---- -- --- ----------- ------- ---- ----- -----<br>--- -------- - ------ ---- -- ----- ---- --- --- -----------<br>-- -------,191402.39999997616,191401.5,190833.445,190842.59999996424,190850.116,191416.767,,36,jotted
screen,html.Screen,0_4_1_0_1_37,2021-11-12T13:27:23.628Z,,,,,,,,,,,,,,,,2,,,,,,,,,,,,,,440.9329999880865,,response,,,1,C,,,,,Space,keypress(Space),,,,instrumental,--- ---- ------ --- ------- ---------- ------- ----------<br>--- --------- --- ----------- ------- ----- ------- ---<br>--------- ---- -- --- ---- -- --------- -- ---- -------<br>-- --------- ------ --- ----- ------ ---- --- --------- --<br>------ a ---- -- --- ----------- ------- ---- ----- -----<br>--- -------- - ------ ---- -- ----- ---- --- --- -----------<br>-- -------,191858.5,191857.69999998808,191400.098,191402.69999998808,191416.767,191867.068,,37,a
screen,html.Screen,0_4_1_0_1_38,2021-11-12T13:27:24.045Z,,,,,,,,,,,,,,,,2,,,,,,,,,,,,,,407.0319999642379,,response,,,1,C,,,,,Space,keypress(Space),,,,instrumental,--- ---- ------ --- ------- ---------- ------- ----------<br>--- --------- --- ----------- ------- ----- ------- ---<br>--------- ---- -- --- ---- -- --------- -- ---- -------<br>-- --------- ------ --- ----- ------ ---- --- --------- --<br>------ - note -- --- ----------- ------- ---- ----- -----<br>--- -------- - ------ ---- -- ----- ---- --- --- -----------<br>-- -------,192274.89999997616,192274.09999996424,191850.397,191858.69999998808,191867.068,192283.826,,38,note
screen,html.Screen,0_4_1_0_1_39,2021-11-12T13:27:24.404Z,,,,,,,,,,,,,,,,2,,,,,,,,,,,,,,349.87399998807814,,response,,,1,C,,,,,Space,keypress(Space),,,,instrumental,--- ---- ------ --- ------- ---------- ------- ----------<br>--- --------- --- ----------- ------- ----- ------- ---<br>--------- ---- -- --- ---- -- --------- -- ---- -------<br>-- --------- ------ --- ----- ------ ---- --- --------- --<br>------ - ---- in --- ----------- ------- ---- ----- -----<br>--- -------- - ------ ---- -- ----- ---- --- --- -----------<br>-- -------,192634.39999997616,192633.69999998808,192267.155,192275.19999998808,192283.826,192650.399,,39,in
screen,html.Screen,0_4_1_0_1_40,2021-11-12T13:27:24.828Z,,,,,,,,,,,,,,,,2,,,,,,,,,,,,,,407.2009999642323,,response,,,1,C,,,,,Space,keypress(Space),,,,instrumental,--- ---- ------ --- ------- ---------- ------- ----------<br>--- --------- --- ----------- ------- ----- ------- ---<br>--------- ---- -- --- ---- -- --------- -- ---- -------<br>-- --------- ------ --- ----- ------ ---- --- --------- --<br>------ - ---- -- his ----------- ------- ---- ----- -----<br>--- -------- - ------ ---- -- ----- ---- --- --- -----------<br>-- -------,193058.39999997616,193057.59999996424,192633.731,192634.69999998808,192650.399,193067.413,,40,his
screen,html.Screen,0_4_1_0_1_41,2021-11-12T13:27:25.844Z,,,,,,,,,,,,,,,,2,,,,,,,,,,,,,,1006.0869999999995,,response,,,1,C,,,,,Space,keypress(Space),,,,instrumental,--- ---- ------ --- ------- ---------- ------- ----------<br>--- --------- --- ----------- ------- ----- ------- ---<br>--------- ---- -- --- ---- -- --------- -- ---- -------<br>-- --------- ------ --- ----- ------ ---- --- --------- --<br>------ - ---- -- --- painstaking ------- ---- ----- -----<br>--- -------- - ------ ---- -- ----- ---- --- --- -----------<br>-- -------,194074.29999995232,194073.5,193050.741,193058.69999998808,193067.413,194084.203,,41,painstaking
screen,html.Screen,0_4_1_0_1_42,2021-11-12T13:27:26.324Z,,,,,,,,,,,,,,,,2,,,,,,,,,,,,,,469.3969999642286,,response,,,1,C,,,,,Space,keypress(Space),,,,instrumental,--- ---- ------ --- ------- ---------- ------- ----------<br>--- --------- --- ----------- ------- ----- ------- ---<br>--------- ---- -- --- ---- -- --------- -- ---- -------<br>-- --------- ------ --- ----- ------ ---- --- --------- --<br>------ - ---- -- --- ----------- record. ---- ----- -----<br>--- -------- - ------ ---- -- ----- ---- --- --- -----------<br>-- -------,194554.39999997616,194553.59999996424,194067.533,194074.5,194084.203,194567.43,,42,record.
screen,html.Screen,0_4_1_0_1_43,2021-11-12T13:27:26.916Z,,,,,,,,,,,,,,,,2,,,,,,,,,,,,,,578.070000000007,,response,,,1,C,,,,,Space,keypress(Space),,,,instrumental,--- ---- ------ --- ------- ---------- ------- ----------<br>--- --------- --- ----------- ------- ----- ------- ---<br>--------- ---- -- --- ---- -- --------- -- ---- -------<br>-- --------- ------ --- ----- ------ ---- --- --------- --<br>------ - ---- -- --- ----------- ------- That ----- -----<br>--- -------- - ------ ---- -- ----- ---- --- --- -----------<br>-- -------,195146.29999995232,195145.5,194550.762,194554.59999996424,194567.43,195151.234,,43,That
screen,html.Screen,0_4_1_0_1_44,2021-11-12T13:27:27.364Z,,,,,,,,,,,,,,,,2,,,,,,,,,,,,,,442.26600000000326,,response,,,1,C,,,,,Space,keypress(Space),,,,instrumental,--- ---- ------ --- ------- ---------- ------- ----------<br>--- --------- --- ----------- ------- ----- ------- ---<br>--------- ---- -- --- ---- -- --------- -- ---- -------<br>-- --------- ------ --- ----- ------ ---- --- --------- --<br>------ - ---- -- --- ----------- ------- ---- night -----<br>--- -------- - ------ ---- -- ----- ---- --- --- -----------<br>-- -------,195594.29999995232,195593.5,195134.563,195146.5,195151.234,195601.351,,44,night
screen,html.Screen,0_4_1_0_1_45,2021-11-12T13:27:27.812Z,,,,,,,,,,,,,,,,2,,,,,,,,,,,,,,440.04899997616303,,response,,,1,C,,,,,Space,keypress(Space),,,,instrumental,--- ---- ------ --- ------- ---------- ------- ----------<br>--- --------- --- ----------- ------- ----- ------- ---<br>--------- ---- -- --- ---- -- --------- -- ---- -------<br>-- --------- ------ --- ----- ------ ---- --- --------- --<br>------ - ---- -- --- ----------- ------- ---- ----- there<br>--- -------- - ------ ---- -- ----- ---- --- --- -----------<br>-- -------,196042.29999995232,196041.39999997616,195584.68,195594.5,195601.351,196051.41,,45,there
screen,html.Screen,0_4_1_0_1_46,2021-11-12T13:27:28.212Z,,,,,,,,,,,,,,,,2,,,,,,,,,,,,,,389.8899999523128,,response,,,1,C,,,,,Space,keypress(Space),,,,instrumental,--- ---- ------ --- ------- ---------- ------- ----------<br>--- --------- --- ----------- ------- ----- ------- ---<br>--------- ---- -- --- ---- -- --------- -- ---- -------<br>-- --------- ------ --- ----- ------ ---- --- --------- --<br>------ - ---- -- --- ----------- ------- ---- ----- -----<br>was -------- - ------ ---- -- ----- ---- --- --- -----------<br>-- -------,196442.19999998808,196441.29999995232,196034.74,196042.5,196051.41,196451.435,,46,was
screen,html.Screen,0_4_1_0_1_47,2021-11-12T13:27:28.652Z,,,,,,,,,,,,,,,,2,,,,,,,,,,,,,,429.8649999523186,,response,,,1,C,,,,,Space,keypress(Space),,,,instrumental,--- ---- ------ --- ------- ---------- ------- ----------<br>--- --------- --- ----------- ------- ----- ------- ---<br>--------- ---- -- --- ---- -- --------- -- ---- -------<br>-- --------- ------ --- ----- ------ ---- --- --------- --<br>------ - ---- -- --- ----------- ------- ---- ----- -----<br>--- scarcely - ------ ---- -- ----- ---- --- --- -----------<br>-- -------,196882.09999996424,196881.29999995232,196434.766,196442.39999997616,196451.435,196884.984,,47,scarcely
screen,html.Screen,0_4_1_0_1_48,2021-11-12T13:27:29.332Z,,,,,,,,,,,,,,,,2,,,,,,,,,,,,,,676.3159999523195,,response,,,1,C,,,,,Space,keypress(Space),,,,instrumental,--- ---- ------ --- ------- ---------- ------- ----------<br>--- --------- --- ----------- ------- ----- ------- ---<br>--------- ---- -- --- ---- -- --------- -- ---- -------<br>-- --------- ------ --- ----- ------ ---- --- --------- --<br>------ - ---- -- --- ----------- ------- ---- ----- -----<br>--- -------- a ------ ---- -- ----- ---- --- --- -----------<br>-- -------,197562.09999996424,197561.29999995232,196868.313,196882.29999995232,196884.984,197568.518,,48,a
