sender,sender_type,sender_id,timestamp,meta,,Blues,Classical,Country,Dance,Electronic,Folk,Gospel,Hip-Hop,Jazz,Latin,Musical/Film,New-age,Pop,Provo_ID,R&B,Rap,Reggae,Religious,Rock,Soul,Swing,Traditional,age,artist_name,correct,correctResponse,distraction,duration,education,ended_on,familiarity,gender,item,list,music_frequency,offensiveness,pleasantness,preference,response,response_action,snippet_file,song_name,song_rating,sound,text,time_commit,time_end,time_render,time_run,time_show,time_switch,url,word,word_ID
Instructions,html.Page,0_0,2021-12-02T14:47:31.690Z,"{""labjs_version"":""20.2.3"",""labjs_build"":{""flavor"":""production"",""commit"":""7ea907d66ca8aeef8054924ca5d82ffbe11e34e5""},""location"":""https://run.pavlovia.org/mvasilev/lab_music_d/"",""userAgent"":""Mozilla/5.0 (Windows NT 6.1; Win64; x64) AppleWebKit/537.36 (KHTML, like Gecko) Chrome/96.0.4664.45 Safari/537.36"",""platform"":""Win32"",""language"":""en-US"",""locale"":""en-US"",""timeZone"":""Europe/London"",""timezoneOffset"":0,""screen_width"":1920,""screen_height"":1080,""scroll_width"":1920,""scroll_height"":959,""window_innerWidth"":1920,""window_innerHeight"":1007,""devicePixelRatio"":1}",,,,,,,,,,,,,,,,,,,,,,,,,,,,,15174.529999997765,,form submission,,,,,,,,,,,,,,,,23589.199999999255,23588.099999997765,8380.23,8397.800000000745,8413.57,23584.577,{},,
Headphones,html.Page,0_1,2021-12-02T14:47:33.812Z,,,,,,,,,,,,,,,,,,,,,,,,,,,,,,2126.223000000744,,form submission,,,,,,,,,,,,,,,,25711.300000000745,25710.800000000745,23567.907,23590,23584.577,25718.442,,,
Holding screen,html.Screen,0_2_0_0,2021-12-02T14:47:43.812Z,,,,,,,,,,,,,,,,,,,,,,,,,,,,,,10002.473000000002,,timeout,,,,,,,,,,,,,,,,35711.099999997765,35704.246,25701.772,25711.699999999255,25718.442,35720.915,,,
screen,html.Screen,0_2_0_1_0,2021-12-02T14:47:44.964Z,,,,,,,,,,,,,,,,53,,,,,,,,,,,,,,1140.784999999254,,response,,,99,,,,,,Space,keypress(Space),,,,,When -- ----- -- ------ - ------- --- ----------<br>------------- ------ ------ ---- ---- ------- ----- -- ----<br>-------- ------- -- ---------- --- - --- ----- ----- ----<br>---- --- --- ----- --- ---- ---- ------- ----- ---- -------<br>--- --- -- ----- -- --- ---- -- --- ---- -- ------ ------<br>--- ----- -- ----,36863.099999997765,36861.699999999255,35704.246,35711.599999997765,35720.915,36871.454,,0,When
screen,html.Screen,0_2_0_1_1,2021-12-02T14:47:45.658Z,,,,,,,,,,,,,,,,53,,,,,,,,,,,,,,685.5460000000021,,response,,,99,,,,,,Space,keypress(Space),,,,,---- it ----- -- ------ - ------- --- ----------<br>------------- ------ ------ ---- ---- ------- ----- -- ----<br>-------- ------- -- ---------- --- - --- ----- ----- ----<br>---- --- --- ----- --- ---- ---- ------- ----- ---- -------<br>--- --- -- ----- -- --- ---- -- --- ---- -- ------ ------<br>--- ----- -- ----,37557.89999999851,37557,36854.783,36863.39999999851,36871.454,37571.605,,1,it
screen,html.Screen,0_2_0_1_2,2021-12-02T14:47:46.291Z,,,,,,,,,,,,,,,,53,,,,,,,,,,,,,,617.4949999977616,,response,,,99,,,,,,Space,keypress(Space),,,,,---- -- comes -- ------ - ------- --- ----------<br>------------- ------ ------ ---- ---- ------- ----- -- ----<br>-------- ------- -- ---------- --- - --- ----- ----- ----<br>---- --- --- ----- --- ---- ---- ------- ----- ---- -------<br>--- --- -- ----- -- --- ---- -- --- ---- -- ------ ------<br>--- ----- -- ----,38190,38189.099999997765,37554.935,37558.099999997765,37571.605,38205.119,,2,comes
screen,html.Screen,0_2_0_1_3,2021-12-02T14:47:46.843Z,,,,,,,,,,,,,,,,53,,,,,,,,,,,,,,535.8810000000012,,response,,,99,,,,,,Space,keypress(Space),,,,,---- -- ----- to ------ - ------- --- ----------<br>------------- ------ ------ ---- ---- ------- ----- -- ----<br>-------- ------- -- ---------- --- - --- ----- ----- ----<br>---- --- --- ----- --- ---- ---- ------- ----- ---- -------<br>--- --- -- ----- -- --- ---- -- --- ---- -- ------ ------<br>--- ----- -- ----,38742.199999999255,38741,38188.449,38190.300000000745,38205.119,38755.268,,3,to
screen,html.Screen,0_2_0_1_4,2021-12-02T14:47:47.539Z,,,,,,,,,,,,,,,,53,,,,,,,,,,,,,,681.7320000000036,,response,,,99,,,,,,Space,keypress(Space),,,,,---- -- ----- -- having - ------- --- ----------<br>------------- ------ ------ ---- ---- ------- ----- -- ----<br>-------- ------- -- ---------- --- - --- ----- ----- ----<br>---- --- --- ----- --- ---- ---- ------- ----- ---- -------<br>--- --- -- ----- -- --- ---- -- --- ---- -- ------ ------<br>--- ----- -- ----,39438,39437,38738.598,38742.699999999255,38755.268,39455.511,,4,having
screen,html.Screen,0_2_0_1_5,2021-12-02T14:47:47.954Z,,,,,,,,,,,,,,,,53,,,,,,,,,,,,,,397.4890000000014,,response,,,99,,,,,,Space,keypress(Space),,,,,---- -- ----- -- ------ a ------- --- ----------<br>------------- ------ ------ ---- ---- ------- ----- -- ----<br>-------- ------- -- ---------- --- - --- ----- ----- ----<br>---- --- --- ----- --- ---- ---- ------- ----- ---- -------<br>--- --- -- ----- -- --- ---- -- --- ---- -- ------ ------<br>--- ----- -- ----,39853.800000000745,39853,39438.84,39438.300000000745,39455.511,39855.581,,5,a
screen,html.Screen,0_2_0_1_6,2021-12-02T14:47:48.466Z,,,,,,,,,,,,,,,,53,,,,,,,,,,,,,,509.3189999985116,,response,,,99,,,,,,Space,keypress(Space),,,,,---- -- ----- -- ------ - lasting --- ----------<br>------------- ------ ------ ---- ---- ------- ----- -- ----<br>-------- ------- -- ---------- --- - --- ----- ----- ----<br>---- --- --- ----- --- ---- ---- ------- ----- ---- -------<br>--- --- -- ----- -- --- ---- -- --- ---- -- ------ ------<br>--- ----- -- ----,40365.800000000745,40364.89999999851,39838.911,39854.300000000745,39855.581,40372.384,,6,lasting
screen,html.Screen,0_2_0_1_7,2021-12-02T14:47:48.914Z,,,,,,,,,,,,,,,,53,,,,,,,,,,,,,,440.5159999985117,,response,,,99,,,,,,Space,keypress(Space),,,,,---- -- ----- -- ------ - ------- and ----------<br>------------- ------ ------ ---- ---- ------- ----- -- ----<br>-------- ------- -- ---------- --- - --- ----- ----- ----<br>---- --- --- ----- --- ---- ---- ------- ----- ---- -------<br>--- --- -- ----- -- --- ---- -- --- ---- -- ------ ------<br>--- ----- -- ----,40813.800000000745,40812.89999999851,40355.714,40366.099999997765,40372.384,40822.476,,7,and
screen,html.Screen,0_2_0_1_8,2021-12-02T14:47:49.418Z,,,,,,,,,,,,,,,,53,,,,,,,,,,,,,,494.4239999985075,,response,,,99,,,,,,Space,keypress(Space),,,,,---- -- ----- -- ------ - ------- --- fulfilling<br>------------- ------ ------ ---- ---- ------- ----- -- ----<br>-------- ------- -- ---------- --- - --- ----- ----- ----<br>---- --- --- ----- --- ---- ---- ------- ----- ---- -------<br>--- --- -- ----- -- --- ---- -- --- ---- -- ------ ------<br>--- ----- -- ----,41317.89999999851,41316.89999999851,40805.806,40814.199999999255,40822.476,41322.67,,8,fulfilling
screen,html.Screen,0_2_0_1_9,2021-12-02T14:47:50.058Z,,,,,,,,,,,,,,,,53,,,,,,,,,,,,,,634.2299999985116,,response,,,99,,,,,,Space,keypress(Space),,,,,"---- -- ----- -- ------ - ------- --- ----------<br>relationship, ------ ------ ---- ---- ------- ----- -- ----<br>-------- ------- -- ---------- --- - --- ----- ----- ----<br>---- --- --- ----- --- ---- ---- ------- ----- ---- -------<br>--- --- -- ----- -- --- ---- -- --- ---- -- ------ ------<br>--- ----- -- ----",41957.800000000745,41956.89999999851,41305.999,41318.199999999255,41322.67,41972.781,,9,"relationship,"
screen,html.Screen,0_2_0_1_10,2021-12-02T14:47:50.578Z,,,,,,,,,,,,,,,,53,,,,,,,,,,,,,,504.0190000007424,,response,,,99,,,,,,Space,keypress(Space),,,,,---- -- ----- -- ------ - ------- --- ----------<br>------------- common ------ ---- ---- ------- ----- -- ----<br>-------- ------- -- ---------- --- - --- ----- ----- ----<br>---- --- --- ----- --- ---- ---- ------- ----- ---- -------<br>--- --- -- ----- -- --- ---- -- --- ---- -- ------ ------<br>--- ----- -- ----,42477.800000000745,42476.800000000745,41956.111,41958,41972.781,42489.6,,10,common
screen,html.Screen,0_2_0_1_11,2021-12-02T14:47:50.962Z,,,,,,,,,,,,,,,,53,,,,,,,,,,,,,,371.29999999851134,,response,,,99,,,,,,Space,keypress(Space),,,,,---- -- ----- -- ------ - ------- --- ----------<br>------------- ------ wisdom ---- ---- ------- ----- -- ----<br>-------- ------- -- ---------- --- - --- ----- ----- ----<br>---- --- --- ----- --- ---- ---- ------- ----- ---- -------<br>--- --- -- ----- -- --- ---- -- --- ---- -- ------ ------<br>--- ----- -- ----,42861.800000000745,42860.89999999851,42472.93,42478,42489.6,42873.043,,11,wisdom
screen,html.Screen,0_2_0_1_12,2021-12-02T14:47:51.434Z,,,,,,,,,,,,,,,,53,,,,,,,,,,,,,,459.7570000007472,,response,,,99,,,,,,Space,keypress(Space),,,,,---- -- ----- -- ------ - ------- --- ----------<br>------------- ------ ------ says ---- ------- ----- -- ----<br>-------- ------- -- ---------- --- - --- ----- ----- ----<br>---- --- --- ----- --- ---- ---- ------- ----- ---- -------<br>--- --- -- ----- -- --- ---- -- --- ---- -- ------ ------<br>--- ----- -- ----,43333.699999999255,43332.800000000745,42856.373,42862,42873.043,43339.728,,12,says
screen,html.Screen,0_2_0_1_13,2021-12-02T14:47:51.882Z,,,,,,,,,,,,,,,,53,,,,,,,,,,,,,,441.07200000074226,,response,,,99,,,,,,Space,keypress(Space),,,,,---- -- ----- -- ------ - ------- --- ----------<br>------------- ------ ------ ---- that ------- ----- -- ----<br>-------- ------- -- ---------- --- - --- ----- ----- ----<br>---- --- --- ----- --- ---- ---- ------- ----- ---- -------<br>--- --- -- ----- -- --- ---- -- --- ---- -- ------ ------<br>--- ----- -- ----,43781.599999997765,43780.800000000745,43323.059,43333.89999999851,43339.728,43790.052,,13,that
screen,html.Screen,0_2_0_1_14,2021-12-02T14:47:52.314Z,,,,,,,,,,,,,,,,53,,,,,,,,,,,,,,422.74800000074174,,response,,,99,,,,,,Space,keypress(Space),,,,,---- -- ----- -- ------ - ------- --- ----------<br>------------- ------ ------ ---- ---- feeling ----- -- ----<br>-------- ------- -- ---------- --- - --- ----- ----- ----<br>---- --- --- ----- --- ---- ---- ------- ----- ---- -------<br>--- --- -- ----- -- --- ---- -- --- ---- -- ------ ------<br>--- ----- -- ----,44213.599999997765,44212.800000000745,43773.38,43781.89999999851,43790.052,44223.441,,14,feeling
screen,html.Screen,0_2_0_1_15,2021-12-02T14:47:53.090Z,,,,,,,,,,,,,,,,53,,,,,,,,,,,,,,765.258999999256,,response,,,99,,,,,,Space,keypress(Space),,,,,---- -- ----- -- ------ - ------- --- ----------<br>------------- ------ ------ ---- ---- ------- close -- ----<br>-------- ------- -- ---------- --- - --- ----- ----- ----<br>---- --- --- ----- --- ---- ---- ------- ----- ---- -------<br>--- --- -- ----- -- --- ---- -- --- ---- -- ------ ------<br>--- ----- -- ----,44989.5,44988.699999999255,44206.77,44213.800000000745,44223.441,45006.925,,15,close
screen,html.Screen,0_2_0_1_16,2021-12-02T14:47:53.474Z,,,,,,,,,,,,,,,,53,,,,,,,,,,,,,,365.77499999925203,,response,,,99,,,,,,Space,keypress(Space),,,,,---- -- ----- -- ------ - ------- --- ----------<br>------------- ------ ------ ---- ---- ------- ----- to ----<br>-------- ------- -- ---------- --- - --- ----- ----- ----<br>---- --- --- ----- --- ---- ---- ------- ----- ---- -------<br>--- --- -- ----- -- --- ---- -- --- ---- -- ------ ------<br>--- ----- -- ----,45373.599999997765,45372.699999999255,44990.255,44989.800000000745,45006.925,45390.368,,16,to
screen,html.Screen,0_2_0_1_17,2021-12-02T14:47:53.906Z,,,,,,,,,,,,,,,,53,,,,,,,,,,,,,,414.43200000074285,,response,,,99,,,,,,Space,keypress(Space),,,,,---- -- ----- -- ------ - ------- --- ----------<br>------------- ------ ------ ---- ---- ------- ----- -- your<br>-------- ------- -- ---------- --- - --- ----- ----- ----<br>---- --- --- ----- --- ---- ---- ------- ----- ---- -------<br>--- --- -- ----- -- --- ---- -- --- ---- -- ------ ------<br>--- ----- -- ----,45805.599999997765,45804.800000000745,45373.698,45373.800000000745,45390.368,45807.163,,17,your
screen,html.Screen,0_2_0_1_18,2021-12-02T14:47:54.402Z,,,,,,,,,,,,,,,,53,,,,,,,,,,,,,,493.5369999992545,,response,,,99,,,,,,Space,keypress(Space),,,,,---- -- ----- -- ------ - ------- --- ----------<br>------------- ------ ------ ---- ---- ------- ----- -- ----<br>romantic ------- -- ---------- --- - --- ----- ----- ----<br>---- --- --- ----- --- ---- ---- ------- ----- ---- -------<br>--- --- -- ----- -- --- ---- -- --- ---- -- ------ ------<br>--- ----- -- ----,46301.599999997765,46300.699999999255,45790.493,45805.800000000745,45807.163,46307.295,,18,romantic
screen,html.Screen,0_2_0_1_19,2021-12-02T14:47:54.930Z,,,,,,,,,,,,,,,,53,,,,,,,,,,,,,,521.3049999977666,,response,,,99,,,,,,Space,keypress(Space),,,,,---- -- ----- -- ------ - ------- --- ----------<br>------------- ------ ------ ---- ---- ------- ----- -- ----<br>-------- partner -- ---------- --- - --- ----- ----- ----<br>---- --- --- ----- --- ---- ---- ------- ----- ---- -------<br>--- --- -- ----- -- --- ---- -- --- ---- -- ------ ------<br>--- ----- -- ----,46829.5,46828.599999997765,46290.625,46301.699999999255,46307.295,46840.739,,19,partner
screen,html.Screen,0_2_0_1_20,2021-12-02T14:47:55.410Z,,,,,,,,,,,,,,,,53,,,,,,,,,,,,,,468.36099999776343,,response,,,99,,,,,,Space,keypress(Space),,,,,---- -- ----- -- ------ - ------- --- ----------<br>------------- ------ ------ ---- ---- ------- ----- -- ----<br>-------- ------- is ---------- --- - --- ----- ----- ----<br>---- --- --- ----- --- ---- ---- ------- ----- ---- -------<br>--- --- -- ----- -- --- ---- -- --- ---- -- ------ ------<br>--- ----- -- ----,47309.89999999851,47309.099999997765,46824.069,46829.699999999255,46840.739,47324.223,,20,is
screen,html.Screen,0_2_0_1_21,2021-12-02T14:47:55.850Z,,,,,,,,,,,,,,,,53,,,,,,,,,,,,,,424.4769999992568,,response,,,99,,,,,,Space,keypress(Space),,,,,---- -- ----- -- ------ - ------- --- ----------<br>------------- ------ ------ ---- ---- ------- ----- -- ----<br>-------- ------- -- paramount. --- - --- ----- ----- ----<br>---- --- --- ----- --- ---- ---- ------- ----- ---- -------<br>--- --- -- ----- -- --- ---- -- --- ---- -- ------ ------<br>--- ----- -- ----,47749.39999999851,47748.699999999255,47307.553,47310.099999997765,47324.223,47757.66,,21,paramount.
screen,html.Screen,0_2_0_1_22,2021-12-02T14:47:56.370Z,,,,,,,,,,,,,,,,53,,,,,,,,,,,,,,510.93999999776133,,response,,,99,,,,,,Space,keypress(Space),,,,,---- -- ----- -- ------ - ------- --- ----------<br>------------- ------ ------ ---- ---- ------- ----- -- ----<br>-------- ------- -- ---------- But - --- ----- ----- ----<br>---- --- --- ----- --- ---- ---- ------- ----- ---- -------<br>--- --- -- ----- -- --- ---- -- --- ---- -- ------ ------<br>--- ----- -- ----,48269.39999999851,48268.599999997765,47740.99,47749.800000000745,47757.66,48274.52,,22,But
screen,html.Screen,0_2_0_1_23,2021-12-02T14:47:56.722Z,,,,,,,,,,,,,,,,53,,,,,,,,,,,,,,345.9800000000032,,response,,,99,,,,,,Space,keypress(Space),,,,,---- -- ----- -- ------ - ------- --- ----------<br>------------- ------ ------ ---- ---- ------- ----- -- ----<br>-------- ------- -- ---------- --- a --- ----- ----- ----<br>---- --- --- ----- --- ---- ---- ------- ----- ---- -------<br>--- --- -- ----- -- --- ---- -- --- ---- -- ------ ------<br>--- ----- -- ----,48621.300000000745,48620.5,48257.849,48269.599999997765,48274.52,48624.584,,23,a
screen,html.Screen,0_2_0_1_24,2021-12-02T14:47:57.122Z,,,,,,,,,,,,,,,,53,,,,,,,,,,,,,,396.01599999776226,,response,,,99,,,,,,Space,keypress(Space),,,,,---- -- ----- -- ------ - ------- --- ----------<br>------------- ------ ------ ---- ---- ------- ----- -- ----<br>-------- ------- -- ---------- --- - new ----- ----- ----<br>---- --- --- ----- --- ---- ---- ------- ----- ---- -------<br>--- --- -- ----- -- --- ---- -- --- ---- -- ------ ------<br>--- ----- -- ----,49021.300000000745,49020.599999997765,48607.914,48621.599999997765,48624.584,49024.675,,24,new
screen,html.Screen,0_2_0_1_25,2021-12-02T14:47:57.666Z,,,,,,,,,,,,,,,,53,,,,,,,,,,,,,,539.8249999999971,,response,,,99,,,,,,Space,keypress(Space),,,,,---- -- ----- -- ------ - ------- --- ----------<br>------------- ------ ------ ---- ---- ------- ----- -- ----<br>-------- ------- -- ---------- --- - --- study ----- ----<br>---- --- --- ----- --- ---- ---- ------- ----- ---- -------<br>--- --- -- ----- -- --- ---- -- --- ---- -- ------ ------<br>--- ----- -- ----,49565.300000000745,49564.5,49008.005,49021.599999997765,49024.675,49574.82,,25,study
screen,html.Screen,0_2_0_1_26,2021-12-02T14:47:58.066Z,,,,,,,,,,,,,,,,53,,,,,,,,,,,,,,389.6800000000003,,response,,,99,,,,,,Space,keypress(Space),,,,,---- -- ----- -- ------ - ------- --- ----------<br>------------- ------ ------ ---- ---- ------- ----- -- ----<br>-------- ------- -- ---------- --- - --- ----- finds ----<br>---- --- --- ----- --- ---- ---- ------- ----- ---- -------<br>--- --- -- ----- -- --- ---- -- --- ---- -- ------ ------<br>--- ----- -- ----,49965.300000000745,49964.5,49558.15,49565.599999997765,49574.82,49974.937,,26,finds
screen,html.Screen,0_2_0_1_27,2021-12-02T14:47:58.530Z,,,,,,,,,,,,,,,,53,,,,,,,,,,,,,,453.5630000000019,,response,,,99,,,,,,Space,keypress(Space),,,,,---- -- ----- -- ------ - ------- --- ----------<br>------------- ------ ------ ---- ---- ------- ----- -- ----<br>-------- ------- -- ---------- --- - --- ----- ----- that<br>---- --- --- ----- --- ---- ---- ------- ----- ---- -------<br>--- --- -- ----- -- --- ---- -- --- ---- -- ------ ------<br>--- ----- -- ----,50429.300000000745,50428.5,49958.267,49965.5,49974.937,50441.614,,27,that
screen,html.Screen,0_2_0_1_28,2021-12-02T14:47:58.954Z,,,,,,,,,,,,,,,,53,,,,,,,,,,,,,,410.8859999999986,,response,,,99,,,,,,Space,keypress(Space),,,,,---- -- ----- -- ------ - ------- --- ----------<br>------------- ------ ------ ---- ---- ------- ----- -- ----<br>-------- ------- -- ---------- --- - --- ----- ----- ----<br>it's --- --- ----- --- ---- ---- ------- ----- ---- -------<br>--- --- -- ----- -- --- ---- -- --- ---- -- ------ ------<br>--- ----- -- ----,50853.300000000745,50852.5,50424.945,50429.599999997765,50441.614,50858.597,,28,it's
screen,html.Screen,0_2_0_1_29,2021-12-02T14:47:59.410Z,,,,,,,,,,,,,,,,53,,,,,,,,,,,,,,449.8029999985083,,response,,,99,,,,,,Space,keypress(Space),,,,,---- -- ----- -- ------ - ------- --- ----------<br>------------- ------ ------ ---- ---- ------- ----- -- ----<br>-------- ------- -- ---------- --- - --- ----- ----- ----<br>---- not --- ----- --- ---- ---- ------- ----- ---- -------<br>--- --- -- ----- -- --- ---- -- --- ---- -- ------ ------<br>--- ----- -- ----,51309.199999999255,51308.39999999851,50841.925,50853.5,50858.597,51325.181,,29,not
screen,html.Screen,0_2_0_1_30,2021-12-02T14:47:59.762Z,,,,,,,,,,,,,,,,53,,,,,,,,,,,,,,335.31900000000314,,response,,,99,,,,,,Space,keypress(Space),,,,,---- -- ----- -- ------ - ------- --- ----------<br>------------- ------ ------ ---- ---- ------- ----- -- ----<br>-------- ------- -- ---------- --- - --- ----- ----- ----<br>---- --- how ----- --- ---- ---- ------- ----- ---- -------<br>--- --- -- ----- -- --- ---- -- --- ---- -- ------ ------<br>--- ----- -- ----,51661.199999999255,51660.5,51308.512,51309.5,51325.181,51675.345,,30,how
screen,html.Screen,0_2_0_1_31,2021-12-02T14:48:00.170Z,,,,,,,,,,,,,,,,53,,,,,,,,,,,,,,393.0549999985087,,response,,,99,,,,,,Space,keypress(Space),,,,,---- -- ----- -- ------ - ------- --- ----------<br>------------- ------ ------ ---- ---- ------- ----- -- ----<br>-------- ------- -- ---------- --- - --- ----- ----- ----<br>---- --- --- close --- ---- ---- ------- ----- ---- -------<br>--- --- -- ----- -- --- ---- -- --- ---- -- ------ ------<br>--- ----- -- ----,52069.199999999255,52068.39999999851,51658.675,51661.5,51675.345,52075.579,,31,close
screen,html.Screen,0_2_0_1_32,2021-12-02T14:48:00.522Z,,,,,,,,,,,,,,,,53,,,,,,,,,,,,,,344.820999998512,,response,,,99,,,,,,Space,keypress(Space),,,,,---- -- ----- -- ------ - ------- --- ----------<br>------------- ------ ------ ---- ---- ------- ----- -- ----<br>-------- ------- -- ---------- --- - --- ----- ----- ----<br>---- --- --- ----- you ---- ---- ------- ----- ---- -------<br>--- --- -- ----- -- --- ---- -- --- ---- -- ------ ------<br>--- ----- -- ----,52421.199999999255,52420.39999999851,52058.907,52069.39999999851,52075.579,52425.582,,32,you
screen,html.Screen,0_2_0_1_33,2021-12-02T14:48:00.890Z,,,,,,,,,,,,,,,,53,,,,,,,,,,,,,,362.81799999850773,,response,,,99,,,,,,Space,keypress(Space),,,,,---- -- ----- -- ------ - ------- --- ----------<br>------------- ------ ------ ---- ---- ------- ----- -- ----<br>-------- ------- -- ---------- --- - --- ----- ----- ----<br>---- --- --- ----- --- feel ---- ------- ----- ---- -------<br>--- --- -- ----- -- --- ---- -- --- ---- -- ------ ------<br>--- ----- -- ----,52789.199999999255,52788.39999999851,52408.912,52421.5,52425.582,52792.385,,33,feel
screen,html.Screen,0_2_0_1_34,2021-12-02T14:48:01.290Z,,,,,,,,,,,,,,,,53,,,,,,,,,,,,,,396.01499999850785,,response,,,99,,,,,,Space,keypress(Space),,,,,---- -- ----- -- ------ - ------- --- ----------<br>------------- ------ ------ ---- ---- ------- ----- -- ----<br>-------- ------- -- ---------- --- - --- ----- ----- ----<br>---- --- --- ----- --- ---- that ------- ----- ---- -------<br>--- --- -- ----- -- --- ---- -- --- ---- -- ------ ------<br>--- ----- -- ----,53189.099999997765,53188.39999999851,52775.714,52789.39999999851,52792.385,53192.452,,34,that
screen,html.Screen,0_2_0_1_35,2021-12-02T14:48:01.786Z,,,,,,,,,,,,,,,,53,,,,,,,,,,,,,,491.84800000074756,,response,,,99,,,,,,Space,keypress(Space),,,,,---- -- ----- -- ------ - ------- --- ----------<br>------------- ------ ------ ---- ---- ------- ----- -- ----<br>-------- ------- -- ---------- --- - --- ----- ----- ----<br>---- --- --- ----- --- ---- ---- matters ----- ---- -------<br>--- --- -- ----- -- --- ---- -- --- ---- -- ------ ------<br>--- ----- -- ----,53685.099999997765,53684.300000000745,53175.782,53189.39999999851,53192.452,53692.582,,35,matters
screen,html.Screen,0_2_0_1_36,2021-12-02T14:48:02.250Z,,,,,,,,,,,,,,,,53,,,,,,,,,,,,,,455.7180000007429,,response,,,99,,,,,,Space,keypress(Space),,,,,"---- -- ----- -- ------ - ------- --- ----------<br>------------- ------ ------ ---- ---- ------- ----- -- ----<br>-------- ------- -- ---------- --- - --- ----- ----- ----<br>---- --- --- ----- --- ---- ---- ------- most, ---- -------<br>--- --- -- ----- -- --- ---- -- --- ---- -- ------ ------<br>--- ----- -- ----",54149.300000000745,54148.300000000745,53675.912,53685.300000000745,53692.582,54159.361,,36,"most,"
screen,html.Screen,0_2_0_1_37,2021-12-02T14:48:02.690Z,,,,,,,,,,,,,,,,53,,,,,,,,,,,,,,428.9390000007479,,response,,,99,,,,,,Space,keypress(Space),,,,,---- -- ----- -- ------ - ------- --- ----------<br>------------- ------ ------ ---- ---- ------- ----- -- ----<br>-------- ------- -- ---------- --- - --- ----- ----- ----<br>---- --- --- ----- --- ---- ---- ------- ----- it's -------<br>--- --- -- ----- -- --- ---- -- --- ---- -- ------ ------<br>--- ----- -- ----,54589.099999997765,54588.300000000745,54142.691,54149.599999997765,54159.361,54592.82,,37,it's
screen,html.Screen,0_2_0_1_38,2021-12-02T14:48:03.242Z,,,,,,,,,,,,,,,,53,,,,,,,,,,,,,,547.4800000007453,,response,,,99,,,,,,Space,keypress(Space),,,,,---- -- ----- -- ------ - ------- --- ----------<br>------------- ------ ------ ---- ---- ------- ----- -- ----<br>-------- ------- -- ---------- --- - --- ----- ----- ----<br>---- --- --- ----- --- ---- ---- ------- ----- ---- whether<br>--- --- -- ----- -- --- ---- -- --- ---- -- ------ ------<br>--- ----- -- ----,55141.099999997765,55140.300000000745,54576.15,54589.39999999851,54592.82,55143.011,,38,whether
screen,html.Screen,0_2_0_1_39,2021-12-02T14:48:03.682Z,,,,,,,,,,,,,,,,53,,,,,,,,,,,,,,437.18899999925634,,response,,,99,,,,,,Space,keypress(Space),,,,,---- -- ----- -- ------ - ------- --- ----------<br>------------- ------ ------ ---- ---- ------- ----- -- ----<br>-------- ------- -- ---------- --- - --- ----- ----- ----<br>---- --- --- ----- --- ---- ---- ------- ----- ---- -------<br>you --- -- ----- -- --- ---- -- --- ---- -- ------ ------<br>--- ----- -- ----,55581,55580.199999999255,55126.34,55141.39999999851,55143.011,55593.08,,39,you
screen,html.Screen,0_2_0_1_40,2021-12-02T14:48:04.042Z,,,,,,,,,,,,,,,,53,,,,,,,,,,,,,,347.1199999992532,,response,,,99,,,,,,Space,keypress(Space),,,,,---- -- ----- -- ------ - ------- --- ----------<br>------------- ------ ------ ---- ---- ------- ----- -- ----<br>-------- ------- -- ---------- --- - --- ----- ----- ----<br>---- --- --- ----- --- ---- ---- ------- ----- ---- -------<br>--- are -- ----- -- --- ---- -- --- ---- -- ------ ------<br>--- ----- -- ----,55941,55940.199999999255,55576.41,55581.300000000745,55593.08,55943.173,,40,are
screen,html.Screen,0_2_0_1_41,2021-12-02T14:48:04.522Z,,,,,,,,,,,,,,,,53,,,,,,,,,,,,,,477.02699999925244,,response,,,99,,,,,,Space,keypress(Space),,,,,---- -- ----- -- ------ - ------- --- ----------<br>------------- ------ ------ ---- ---- ------- ----- -- ----<br>-------- ------- -- ---------- --- - --- ----- ----- ----<br>---- --- --- ----- --- ---- ---- ------- ----- ---- -------<br>--- --- as ----- -- --- ---- -- --- ---- -- ------ ------<br>--- ----- -- ----,56421,56420.199999999255,55926.503,55941.300000000745,55943.173,56426.674,,41,as
screen,html.Screen,0_2_0_1_42,2021-12-02T14:48:04.986Z,,,,,,,,,,,,,,,,53,,,,,,,,,,,,,,457.5259999992559,,response,,,99,,,,,,Space,keypress(Space),,,,,---- -- ----- -- ------ - ------- --- ----------<br>------------- ------ ------ ---- ---- ------- ----- -- ----<br>-------- ------- -- ---------- --- - --- ----- ----- ----<br>---- --- --- ----- --- ---- ---- ------- ----- ---- -------<br>--- --- -- close -- --- ---- -- --- ---- -- ------ ------<br>--- ----- -- ----,56884.89999999851,56884.199999999255,56410.003,56421.300000000745,56426.674,56893.315,,42,close
screen,html.Screen,0_2_0_1_43,2021-12-02T14:48:05.386Z,,,,,,,,,,,,,,,,53,,,,,,,,,,,,,,390.7849999977625,,response,,,99,,,,,,Space,keypress(Space),,,,,---- -- ----- -- ------ - ------- --- ----------<br>------------- ------ ------ ---- ---- ------- ----- -- ----<br>-------- ------- -- ---------- --- - --- ----- ----- ----<br>---- --- --- ----- --- ---- ---- ------- ----- ---- -------<br>--- --- -- ----- as --- ---- -- --- ---- -- ------ ------<br>--- ----- -- ----,57285,57284.099999997765,56876.646,56885.199999999255,56893.315,57293.625,,43,as
screen,html.Screen,0_2_0_1_44,2021-12-02T14:48:05.730Z,,,,,,,,,,,,,,,,53,,,,,,,,,,,,,,334.875,,response,,,99,,,,,,Space,keypress(Space),,,,,---- -- ----- -- ------ - ------- --- ----------<br>------------- ------ ------ ---- ---- ------- ----- -- ----<br>-------- ------- -- ---------- --- - --- ----- ----- ----<br>---- --- --- ----- --- ---- ---- ------- ----- ---- -------<br>--- --- -- ----- -- you ---- -- --- ---- -- ------ ------<br>--- ----- -- ----,57629.39999999851,57628.5,57276.953,57285.199999999255,57293.625,57643.626,,44,you
screen,html.Screen,0_2_0_1_45,2021-12-02T14:48:06.169Z,,,,,,,,,,,,,,,,53,,,,,,,,,,,,,,424.47399999776826,,response,,,99,,,,,,Space,keypress(Space),,,,,---- -- ----- -- ------ - ------- --- ----------<br>------------- ------ ------ ---- ---- ------- ----- -- ----<br>-------- ------- -- ---------- --- - --- ----- ----- ----<br>---- --- --- ----- --- ---- ---- ------- ----- ---- -------<br>--- --- -- ----- -- --- want -- --- ---- -- ------ ------<br>--- ----- -- ----,58068.800000000745,58068.099999997765,57626.956,57629.5,57643.626,58077.084,,45,want
screen,html.Screen,0_2_0_1_46,2021-12-02T14:48:06.561Z,,,,,,,,,,,,,,,,53,,,,,,,,,,,,,,383.01599999776226,,response,,,99,,,,,,Space,keypress(Space),,,,,---- -- ----- -- ------ - ------- --- ----------<br>------------- ------ ------ ---- ---- ------- ----- -- ----<br>-------- ------- -- ---------- --- - --- ----- ----- ----<br>---- --- --- ----- --- ---- ---- ------- ----- ---- -------<br>--- --- -- ----- -- --- ---- to --- ---- -- ------ ------<br>--- ----- -- ----,58460.89999999851,58460.099999997765,58060.414,58069.099999997765,58077.084,58477.246,,46,to
screen,html.Screen,0_2_0_1_47,2021-12-02T14:48:07.001Z,,,,,,,,,,,,,,,,53,,,,,,,,,,,,,,422.7540000000008,,response,,,99,,,,,,Space,keypress(Space),,,,,"---- -- ----- -- ------ - ------- --- ----------<br>------------- ------ ------ ---- ---- ------- ----- -- ----<br>-------- ------- -- ---------- --- - --- ----- ----- ----<br>---- --- --- ----- --- ---- ---- ------- ----- ---- -------<br>--- --- -- ----- -- --- ---- -- be, ---- -- ------ ------<br>--- ----- -- ----",58900.800000000745,58900,58460.575,58461.099999997765,58477.246,58910.626,,47,"be,"
screen,html.Screen,0_2_0_1_48,2021-12-02T14:48:07.385Z,,,,,,,,,,,,,,,,53,,,,,,,,,,,,,,373.47399999776826,,response,,,99,,,,,,Space,keypress(Space),,,,,---- -- ----- -- ------ - ------- --- ----------<br>------------- ------ ------ ---- ---- ------- ----- -- ----<br>-------- ------- -- ---------- --- - --- ----- ----- ----<br>---- --- --- ----- --- ---- ---- ------- ----- ---- -------<br>--- --- -- ----- -- --- ---- -- --- even -- ------ ------<br>--- ----- -- ----,59284.699999999255,59284.099999997765,58893.956,58901,58910.626,59294.078,,48,even
screen,html.Screen,0_2_0_1_49,2021-12-02T14:48:07.849Z,,,,,,,,,,,,,,,,53,,,,,,,,,,,,,,453.92199999999866,,response,,,99,,,,,,Space,keypress(Space),,,,,---- -- ----- -- ------ - ------- --- ----------<br>------------- ------ ------ ---- ---- ------- ----- -- ----<br>-------- ------- -- ---------- --- - --- ----- ----- ----<br>---- --- --- ----- --- ---- ---- ------- ----- ---- -------<br>--- --- -- ----- -- --- ---- -- --- ---- if ------ ------<br>--- ----- -- ----,59748.699999999255,59748,59277.408,59285,59294.078,59760.906,,49,if
screen,html.Screen,0_2_0_1_50,2021-12-02T14:48:08.236Z,,,,,,,,,,,,,,,,53,,,,,,,,,,,,,,371.0939999999973,,response,,,99,,,,,,Space,keypress(Space),,,,,---- -- ----- -- ------ - ------- --- ----------<br>------------- ------ ------ ---- ---- ------- ----- -- ----<br>-------- ------- -- ---------- --- - --- ----- ----- ----<br>---- --- --- ----- --- ---- ---- ------- ----- ---- -------<br>--- --- -- ----- -- --- ---- -- --- ---- -- that's ------<br>--- ----- -- ----,60132.699999999255,60132,59744.235,59748.89999999851,59760.906,60144.284,,50,that's
screen,html.Screen,0_2_0_1_51,2021-12-02T14:48:08.700Z,,,,,,,,,,,,,,,,53,,,,,,,,,,,,,,451.71600000000035,,response,,,99,,,,,,Space,keypress(Space),,,,,---- -- ----- -- ------ - ------- --- ----------<br>------------- ------ ------ ---- ---- ------- ----- -- ----<br>-------- ------- -- ---------- --- - --- ----- ----- ----<br>---- --- --- ----- --- ---- ---- ------- ----- ---- -------<br>--- --- -- ----- -- --- ---- -- --- ---- -- ------ really<br>--- ----- -- ----,60596.800000000745,60596,60127.614,60133,60144.284,60611.074,,51,really
screen,html.Screen,0_2_0_1_52,2021-12-02T14:48:09.108Z,,,,,,,,,,,,,,,,53,,,,,,,,,,,,,,392.9259999999995,,response,,,99,,,,,,Space,keypress(Space),,,,,---- -- ----- -- ------ - ------- --- ----------<br>------------- ------ ------ ---- ---- ------- ----- -- ----<br>-------- ------- -- ---------- --- - --- ----- ----- ----<br>---- --- --- ----- --- ---- ---- ------- ----- ---- -------<br>--- --- -- ----- -- --- ---- -- --- ---- -- ------ ------<br>not ----- -- ----,61004.699999999255,61004,60594.404,60597,60611.074,61011.231,,52,not
screen,html.Screen,0_2_0_1_53,2021-12-02T14:48:09.492Z,,,,,,,,,,,,,,,,53,,,,,,,,,,,,,,376.6689999985101,,response,,,99,,,,,,Space,keypress(Space),,,,,---- -- ----- -- ------ - ------- --- ----------<br>------------- ------ ------ ---- ---- ------- ----- -- ----<br>-------- ------- -- ---------- --- - --- ----- ----- ----<br>---- --- --- ----- --- ---- ---- ------- ----- ---- -------<br>--- --- -- ----- -- --- ---- -- --- ---- -- ------ ------<br>--- close -- ----,61388.800000000745,61387.89999999851,60994.56,61005,61011.231,61394.637,,53,close
screen,html.Screen,0_2_0_1_54,2021-12-02T14:48:09.860Z,,,,,,,,,,,,,,,,53,,,,,,,,,,,,,,361.36299999999756,,response,,,99,,,,,,Space,keypress(Space),,,,,---- -- ----- -- ------ - ------- --- ----------<br>------------- ------ ------ ---- ---- ------- ----- -- ----<br>-------- ------- -- ---------- --- - --- ----- ----- ----<br>---- --- --- ----- --- ---- ---- ------- ----- ---- -------<br>--- --- -- ----- -- --- ---- -- --- ---- -- ------ ------<br>--- ----- at ----,61756.699999999255,61756,61377.967,61388.89999999851,61394.637,61761.39,,54,at
screen,html.Screen,0_2_0_1_55,2021-12-02T14:48:10.188Z,,,,,,,,,,,,,,,,53,,,,,,,,,,,,,,322.50999999851047,,response,,,99,,,,,,Space,keypress(Space),,,,,---- -- ----- -- ------ - ------- --- ----------<br>------------- ------ ------ ---- ---- ------- ----- -- ----<br>-------- ------- -- ---------- --- - --- ----- ----- ----<br>---- --- --- ----- --- ---- ---- ------- ----- ---- -------<br>--- --- -- ----- -- --- ---- -- --- ---- -- ------ ------<br>--- ----- -- all.,62084.800000000745,62083.89999999851,61744.72,61756.89999999851,61761.39,62094.854,,55,all.
Item 99,flow.Loop,0_2_0_1,2021-12-02T14:48:10.192Z,,,,,,,,,,,,,,,,,,,,,,,,,,,,,,26362.98499999851,,completion,,,,D,,,,,,,,,,silence,,62089.199999999255,62083.89999999851,35704.246,35711.39999999851,35720.915,62094.854,,,
Question 1,html.Screen,0_2_0_2,2021-12-02T14:48:18.268Z,,,,,,,,,,,,,,,,,,,,,,,,,,,true,FALSE,,8068.646000000001,,response,,,99,D,,,,,FALSE,click #choice-2,,,,silence,,70164.89999999851,70163.5,62078.183,62089.39999999851,62094.854,70180.265,,,
Question 2,html.Screen,0_2_0_3,2021-12-02T14:48:23.059Z,,,,,,,,,,,,,,,,,,,,,,,,,,,true,TRUE,,4774.9349999992555,,response,,,99,D,,,,,TRUE,click #choice-1,,,,silence,,74956.39999999851,74955.19999999925,70163.595,70165.09999999776,70180.265,74964.904,,,
Item 99,flow.Sequence,0_2_0,2021-12-02T14:48:23.060Z,,,,,,,,,,,,,,,,,,,,,,,,,,,,,,49236.75799999926,,completion,,,,,,,,,,,,,,,,74956.80000000075,74955.19999999925,25701.772,25711.599999997765,25718.442,74964.904,,,
Holding screen,html.Screen,0_2_1_0,2021-12-02T14:48:33.055Z,,,,,,,,,,,,,,,,,,,,,,,,,,,,,,10002.557,,timeout,,,,,,,,,,,,,,,,84952.39999999851,84950.791,74948.234,74957.19999999925,74964.904,84967.461,,,
screen,html.Screen,0_2_1_1_0,2021-12-02T14:48:34.522Z,,,,,,,,,,,,,,,,54,,,,,,,,,,,,,,1451.2389999992592,,response,,,100,,,,,,Space,keypress(Space),,,,,At --- ---- --- ------ ----- ------- ---- -- --- ------- --<br>------- ---------- ------ -- ----- -- ----- -- ---- ------<br>--- ----- --- --- ------ -------- ----- --- ------ ----- --<br>----- ----- ---------- --- --- ------ ------ ---- -- ------<br>------- --- ------ ----- --- ---- ------- -- ---- --- --<br>------- ------,86419.09999999776,86418.69999999925,84950.791,84952.89999999851,84967.461,86434.614,,0,At
screen,html.Screen,0_2_1_1_1,2021-12-02T14:48:35.019Z,,,,,,,,,,,,,,,,54,,,,,,,,,,,,,,480.18600000074366,,response,,,100,,,,,,Space,keypress(Space),,,,,-- the ---- --- ------ ----- ------- ---- -- --- ------- --<br>------- ---------- ------ -- ----- -- ----- -- ---- ------<br>--- ----- --- --- ------ -------- ----- --- ------ ----- --<br>----- ----- ---------- --- --- ------ ------ ---- -- ------<br>------- --- ------ ----- --- ---- ------- -- ---- --- --<br>------- ------,86915.59999999776,86914.80000000075,86417.943,86419.09999999776,86434.614,86918.151,,1,the
screen,html.Screen,0_2_1_1_2,2021-12-02T14:48:35.619Z,,,,,,,,,,,,,,,,54,,,,,,,,,,,,,,596.5489999992569,,response,,,100,,,,,,Space,keypress(Space),,,,,-- --- time --- ------ ----- ------- ---- -- --- ------- --<br>------- ---------- ------ -- ----- -- ----- -- ---- ------<br>--- ----- --- --- ------ -------- ----- --- ------ ----- --<br>----- ----- ---------- --- --- ------ ------ ---- -- ------<br>------- --- ------ ----- --- ---- ------- -- ---- --- --<br>------- ------,87515.59999999776,87514.69999999925,86901.48,86915.89999999851,86918.151,87518.166,,2,time
screen,html.Screen,0_2_1_1_3,2021-12-02T14:48:35.947Z,,,,,,,,,,,,,,,,54,,,,,,,,,,,,,,324.5339999992575,,response,,,100,,,,,,Space,keypress(Space),,,,,-- --- ---- the ------ ----- ------- ---- -- --- ------- --<br>------- ---------- ------ -- ----- -- ----- -- ---- ------<br>--- ----- --- --- ------ -------- ----- --- ------ ----- --<br>----- ----- ---------- --- --- ------ ------ ---- -- ------<br>------- --- ------ ----- --- ---- ------- -- ---- --- --<br>------- ------,87843.59999999776,87842.69999999925,87501.496,87515.80000000075,87518.166,87851.77,,3,the
screen,html.Screen,0_2_1_1_4,2021-12-02T14:48:36.499Z,,,,,,,,,,,,,,,,54,,,,,,,,,,,,,,542.9299999992509,,response,,,100,,,,,,Space,keypress(Space),,,,,-- --- ---- --- French ----- ------- ---- -- --- ------- --<br>------- ---------- ------ -- ----- -- ----- -- ---- ------<br>--- ----- --- --- ------ -------- ----- --- ------ ----- --<br>----- ----- ---------- --- --- ------ ------ ---- -- ------<br>------- --- ------ ----- --- ---- ------- -- ---- --- --<br>------- ------,88395.59999999776,88394.69999999925,87835.098,87843.80000000075,87851.77,88401.809,,4,French
screen,html.Screen,0_2_1_1_5,2021-12-02T14:48:36.907Z,,,,,,,,,,,,,,,,54,,,,,,,,,,,,,,400.8909999992611,,response,,,100,,,,,,Space,keypress(Space),,,,,-- --- ---- --- ------ crown ------- ---- -- --- ------- --<br>------- ---------- ------ -- ----- -- ----- -- ---- ------<br>--- ----- --- --- ------ -------- ----- --- ------ ----- --<br>----- ----- ---------- --- --- ------ ------ ---- -- ------<br>------- --- ------ ----- --- ---- ------- -- ---- --- --<br>------- ------,88803.59999999776,88802.69999999925,88385.139,88395.69999999925,88401.809,88818.595,,5,crown
screen,html.Screen,0_2_1_1_6,2021-12-02T14:48:37.330Z,,,,,,,,,,,,,,,,54,,,,,,,,,,,,,,408.00499999776366,,response,,,100,,,,,,Space,keypress(Space),,,,,-- --- ---- --- ------ ----- secured ---- -- --- ------- --<br>------- ---------- ------ -- ----- -- ----- -- ---- ------<br>--- ----- --- --- ------ -------- ----- --- ------ ----- --<br>----- ----- ---------- --- --- ------ ------ ---- -- ------<br>------- --- ------ ----- --- ---- ------- -- ---- --- --<br>------- ------,89227.39999999851,89226.59999999776,88801.925,88803.80000000075,88818.595,89235.359,,6,secured
screen,html.Screen,0_2_1_1_7,2021-12-02T14:48:37.666Z,,,,,,,,,,,,,,,,54,,,,,,,,,,,,,,327.3409999992582,,response,,,100,,,,,,Space,keypress(Space),,,,,-- --- ---- --- ------ ----- ------- much -- --- ------- --<br>------- ---------- ------ -- ----- -- ----- -- ---- ------<br>--- ----- --- --- ------ -------- ----- --- ------ ----- --<br>----- ----- ---------- --- --- ------ ------ ---- -- ------<br>------- --- ------ ----- --- ---- ------- -- ---- --- --<br>------- ------,89563.39999999851,89562.69999999925,89218.689,89227.69999999925,89235.359,89568.792,,7,much
screen,html.Screen,0_2_1_1_8,2021-12-02T14:48:37.995Z,,,,,,,,,,,,,,,,54,,,,,,,,,,,,,,321.7079999999987,,response,,,100,,,,,,Space,keypress(Space),,,,,-- --- ---- --- ------ ----- ------- ---- of --- ------- --<br>------- ---------- ------ -- ----- -- ----- -- ---- ------<br>--- ----- --- --- ------ -------- ----- --- ------ ----- --<br>----- ----- ---------- --- --- ------ ------ ---- -- ------<br>------- --- ------ ----- --- ---- ------- -- ---- --- --<br>------- ------,89891.5,89890.5,89552.122,89563.59999999776,89568.792,89902.128,,8,of
screen,html.Screen,0_2_1_1_9,2021-12-02T14:48:38.402Z,,,,,,,,,,,,,,,,54,,,,,,,,,,,,,,396.57199999925797,,response,,,100,,,,,,Space,keypress(Space),,,,,-- --- ---- --- ------ ----- ------- ---- -- its ------- --<br>------- ---------- ------ -- ----- -- ----- -- ---- ------<br>--- ----- --- --- ------ -------- ----- --- ------ ----- --<br>----- ----- ---------- --- --- ------ ------ ---- -- ------<br>------- --- ------ ----- --- ---- ------- -- ---- --- --<br>------- ------,90299.39999999851,90298.69999999925,89885.459,89891.69999999925,89902.128,90302.406,,9,its
screen,html.Screen,0_2_1_1_10,2021-12-02T14:48:38.706Z,,,,,,,,,,,,,,,,54,,,,,,,,,,,,,,300.29399999925226,,response,,,100,,,,,,Space,keypress(Space),,,,,-- --- ---- --- ------ ----- ------- ---- -- --- revenue --<br>------- ---------- ------ -- ----- -- ----- -- ---- ------<br>--- ----- --- --- ------ -------- ----- --- ------ ----- --<br>----- ----- ---------- --- --- ------ ------ ---- -- ------<br>------- --- ------ ----- --- ---- ------- -- ---- --- --<br>------- ------,90603.39999999851,90602.69999999925,90285.733,90299.69999999925,90302.406,90619.059,,10,revenue
screen,html.Screen,0_2_1_1_11,2021-12-02T14:48:39.146Z,,,,,,,,,,,,,,,,54,,,,,,,,,,,,,,423.44100000000617,,response,,,100,,,,,,Space,keypress(Space),,,,,-- --- ---- --- ------ ----- ------- ---- -- --- ------- by<br>------- ---------- ------ -- ----- -- ----- -- ---- ------<br>--- ----- --- --- ------ -------- ----- --- ------ ----- --<br>----- ----- ---------- --- --- ------ ------ ---- -- ------<br>------- --- ------ ----- --- ---- ------- -- ---- --- --<br>------- ------,91043.39999999851,91042.5,90602.389,90603.59999999776,90619.059,91052.504,,11,by
screen,html.Screen,0_2_1_1_12,2021-12-02T14:48:39.570Z,,,,,,,,,,,,,,,,54,,,,,,,,,,,,,,413.9959999999992,,response,,,100,,,,,,Space,keypress(Space),,,,,-- --- ---- --- ------ ----- ------- ---- -- --- ------- --<br>issuing ---------- ------ -- ----- -- ----- -- ---- ------<br>--- ----- --- --- ------ -------- ----- --- ------ ----- --<br>----- ----- ---------- --- --- ------ ------ ---- -- ------<br>------- --- ------ ----- --- ---- ------- -- ---- --- --<br>------- ------,91467.30000000075,91466.5,91035.834,91043.59999999776,91052.504,91469.15,,12,issuing
screen,html.Screen,0_2_1_1_13,2021-12-02T14:48:40.026Z,,,,,,,,,,,,,,,,54,,,,,,,,,,,,,,453.44999999777065,,response,,,100,,,,,,Space,keypress(Space),,,,,-- --- ---- --- ------ ----- ------- ---- -- --- ------- --<br>------- government ------ -- ----- -- ----- -- ---- ------<br>--- ----- --- --- ------ -------- ----- --- ------ ----- --<br>----- ----- ---------- --- --- ------ ------ ---- -- ------<br>------- --- ------ ----- --- ---- ------- -- ---- --- --<br>------- ------,91923.30000000075,91922.59999999776,91452.482,91467.5,91469.15,91936.186,,13,government
screen,html.Screen,0_2_1_1_14,2021-12-02T14:48:41.018Z,,,,,,,,,,,,,,,,54,,,,,,,,,,,,,,978.4139999977633,,response,,,100,,,,,,Space,keypress(Space),,,,,-- --- ---- --- ------ ----- ------- ---- -- --- ------- --<br>------- ---------- bonds. -- ----- -- ----- -- ---- ------<br>--- ----- --- --- ------ -------- ----- --- ------ ----- --<br>----- ----- ---------- --- --- ------ ------ ---- -- ------<br>------- --- ------ ----- --- ---- ------- -- ---- --- --<br>------- ------,92915.30000000075,92914.59999999776,91919.514,91923.59999999776,91936.186,92919.735,,14,bonds.
screen,html.Screen,0_2_1_1_15,2021-12-02T14:48:41.210Z,,,,,,,,,,,,,,,,54,,,,,,,,,,,,,,186.6649999985093,,response,,,100,,,,,,Space,keypress(Space),,,,,-- --- ---- --- ------ ----- ------- ---- -- --- ------- --<br>------- ---------- ------ In ----- -- ----- -- ---- ------<br>--- ----- --- --- ------ -------- ----- --- ------ ----- --<br>----- ----- ---------- --- --- ------ ------ ---- -- ------<br>------- --- ------ ----- --- ---- ------- -- ---- --- --<br>------- ------,93107.19999999925,93106.39999999851,92903.064,92915.5,92919.735,93119.565,,15,In
screen,html.Screen,0_2_1_1_16,2021-12-02T14:48:41.514Z,,,,,,,,,,,,,,,,54,,,,,,,,,,,,,,290.9349999999977,,response,,,100,,,,,,Space,keypress(Space),,,,,"-- --- ---- --- ------ ----- ------- ---- -- --- ------- --<br>------- ---------- ------ -- 1727, -- ----- -- ---- ------<br>--- ----- --- --- ------ -------- ----- --- ------ ----- --<br>----- ----- ---------- --- --- ------ ------ ---- -- ------<br>------- --- ------ ----- --- ---- ------- -- ---- --- --<br>------- ------",93411.19999999925,93410.5,93102.897,93107.39999999851,93119.565,93419.853,,16,"1727,"
screen,html.Screen,0_2_1_1_17,2021-12-02T14:48:42.490Z,,,,,,,,,,,,,,,,54,,,,,,,,,,,,,,966.4470000007423,,response,,,100,,,,,,Space,keypress(Space),,,,,-- --- ---- --- ------ ----- ------- ---- -- --- ------- --<br>------- ---------- ------ -- ----- in ----- -- ---- ------<br>--- ----- --- --- ------ -------- ----- --- ------ ----- --<br>----- ----- ---------- --- --- ------ ------ ---- -- ------<br>------- --- ------ ----- --- ---- ------- -- ---- --- --<br>------- ------,94387.09999999776,94386.30000000075,93403.182,93411.39999999851,93419.853,94403.37,,17,in
screen,html.Screen,0_2_1_1_18,2021-12-02T14:48:43.018Z,,,,,,,,,,,,,,,,54,,,,,,,,,,,,,,510.9300000007497,,response,,,100,,,,,,Space,keypress(Space),,,,,-- --- ---- --- ------ ----- ------- ---- -- --- ------- --<br>------- ---------- ------ -- ----- -- order -- ---- ------<br>--- ----- --- --- ------ -------- ----- --- ------ ----- --<br>----- ----- ---------- --- --- ------ ------ ---- -- ------<br>------- --- ------ ----- --- ---- ------- -- ---- --- --<br>------- ------,94915.09999999776,94914.30000000075,94386.7,94387.39999999851,94403.37,94920.184,,18,order
screen,html.Screen,0_2_1_1_19,2021-12-02T14:48:43.434Z,,,,,,,,,,,,,,,,54,,,,,,,,,,,,,,410.1160000007512,,response,,,100,,,,,,Space,keypress(Space),,,,,-- --- ---- --- ------ ----- ------- ---- -- --- ------- --<br>------- ---------- ------ -- ----- -- ----- to ---- ------<br>--- ----- --- --- ------ -------- ----- --- ------ ----- --<br>----- ----- ---------- --- --- ------ ------ ---- -- ------<br>------- --- ------ ----- --- ---- ------- -- ---- --- --<br>------- ------,95331.09999999776,95330.30000000075,94903.514,94915.39999999851,94920.184,95336.995,,19,to
screen,html.Screen,0_2_1_1_20,2021-12-02T14:48:43.818Z,,,,,,,,,,,,,,,,54,,,,,,,,,,,,,,377.3050000007497,,response,,,100,,,,,,Space,keypress(Space),,,,,-- --- ---- --- ------ ----- ------- ---- -- --- ------- --<br>------- ---------- ------ -- ----- -- ----- -- save ------<br>--- ----- --- --- ------ -------- ----- --- ------ ----- --<br>----- ----- ---------- --- --- ------ ------ ---- -- ------<br>------- --- ------ ----- --- ---- ------- -- ---- --- --<br>------- ------,95715.19999999925,95714.30000000075,95320.325,95331.30000000075,95336.995,95720.422,,20,save
screen,html.Screen,0_2_1_1_21,2021-12-02T14:48:44.330Z,,,,,,,,,,,,,,,,54,,,,,,,,,,,,,,505.8780000007391,,response,,,100,,,,,,Space,keypress(Space),,,,,"-- --- ---- --- ------ ----- ------- ---- -- --- ------- --<br>------- ---------- ------ -- ----- -- ----- -- ---- money,<br>--- ----- --- --- ------ -------- ----- --- ------ ----- --<br>----- ----- ---------- --- --- ------ ------ ---- -- ------<br>------- --- ------ ----- --- ---- ------- -- ---- --- --<br>------- ------",96227,96226.30000000075,95703.752,95715.30000000075,95720.422,96237.269,,21,"money,"
screen,html.Screen,0_2_1_1_22,2021-12-02T14:48:44.731Z,,,,,,,,,,,,,,,,54,,,,,,,,,,,,,,389.4309999992547,,response,,,100,,,,,,Space,keypress(Space),,,,,-- --- ---- --- ------ ----- ------- ---- -- --- ------- --<br>------- ---------- ------ -- ----- -- ----- -- ---- ------<br>the ----- --- --- ------ -------- ----- --- ------ ----- --<br>----- ----- ---------- --- --- ------ ------ ---- -- ------<br>------- --- ------ ----- --- ---- ------- -- ---- --- --<br>------- ------,96627.59999999776,96626.69999999925,96220.598,96227.30000000075,96237.269,96637.177,,22,the
screen,html.Screen,0_2_1_1_23,2021-12-02T14:48:45.346Z,,,,,,,,,,,,,,,,54,,,,,,,,,,,,,,605.123000000749,,response,,,100,,,,,,Space,keypress(Space),,,,,-- --- ---- --- ------ ----- ------- ---- -- --- ------- --<br>------- ---------- ------ -- ----- -- ----- -- ---- ------<br>--- state --- --- ------ -------- ----- --- ------ ----- --<br>----- ----- ---------- --- --- ------ ------ ---- -- ------<br>------- --- ------ ----- --- ---- ------- -- ---- --- --<br>------- ------,97243.09999999776,97242.30000000075,96620.509,96627.89999999851,96637.177,97254.244,,23,state
screen,html.Screen,0_2_1_1_24,2021-12-02T14:48:45.706Z,,,,,,,,,,,,,,,,54,,,,,,,,,,,,,,348.056000000739,,response,,,100,,,,,,Space,keypress(Space),,,,,-- --- ---- --- ------ ----- ------- ---- -- --- ------- --<br>------- ---------- ------ -- ----- -- ----- -- ---- ------<br>--- ----- cut --- ------ -------- ----- --- ------ ----- --<br>----- ----- ---------- --- --- ------ ------ ---- -- ------<br>------- --- ------ ----- --- ---- ------- -- ---- --- --<br>------- ------,97603.09999999776,97602.30000000075,97237.572,97243.30000000075,97254.244,97604.29,,24,cut
screen,html.Screen,0_2_1_1_25,2021-12-02T14:48:46.082Z,,,,,,,,,,,,,,,,54,,,,,,,,,,,,,,374.01000000075146,,response,,,100,,,,,,Space,keypress(Space),,,,,-- --- ---- --- ------ ----- ------- ---- -- --- ------- --<br>------- ---------- ------ -- ----- -- ----- -- ---- ------<br>--- ----- --- the ------ -------- ----- --- ------ ----- --<br>----- ----- ---------- --- --- ------ ------ ---- -- ------<br>------- --- ------ ----- --- ---- ------- -- ---- --- --<br>------- ------,97979,97978.30000000075,97587.619,97603.30000000075,97604.29,97987.607,,25,the
screen,html.Screen,0_2_1_1_26,2021-12-02T14:48:46.490Z,,,,,,,,,,,,,,,,54,,,,,,,,,,,,,,398.59299999925133,,response,,,100,,,,,,Space,keypress(Space),,,,,-- --- ---- --- ------ ----- ------- ---- -- --- ------- --<br>------- ---------- ------ -- ----- -- ----- -- ---- ------<br>--- ----- --- --- bonds' -------- ----- --- ------ ----- --<br>----- ----- ---------- --- --- ------ ------ ---- -- ------<br>------- --- ------ ----- --- ---- ------- -- ---- --- --<br>------- ------,98387,98386.19999999925,97970.938,97979.30000000075,97987.607,98404.555,,26,bonds'
screen,html.Screen,0_2_1_1_27,2021-12-02T14:48:46.946Z,,,,,,,,,,,,,,,,54,,,,,,,,,,,,,,437.6449999992619,,response,,,100,,,,,,Space,keypress(Space),,,,,-- --- ---- --- ------ ----- ------- ---- -- --- ------- --<br>------- ---------- ------ -- ----- -- ----- -- ---- ------<br>--- ----- --- --- ------ interest ----- --- ------ ----- --<br>----- ----- ---------- --- --- ------ ------ ---- -- ------<br>------- --- ------ ----- --- ---- ------- -- ---- --- --<br>------- ------,98843.19999999925,98842.19999999925,98387.883,98387.30000000075,98404.555,98854.589,,27,interest
screen,html.Screen,0_2_1_1_28,2021-12-02T14:48:47.330Z,,,,,,,,,,,,,,,,54,,,,,,,,,,,,,,371.71100000073784,,response,,,100,,,,,,Space,keypress(Space),,,,,-- --- ---- --- ------ ----- ------- ---- -- --- ------- --<br>------- ---------- ------ -- ----- -- ----- -- ---- ------<br>--- ----- --- --- ------ -------- rate. --- ------ ----- --<br>----- ----- ---------- --- --- ------ ------ ---- -- ------<br>------- --- ------ ----- --- ---- ------- -- ---- --- --<br>------- ------,99227,99226.30000000075,98837.919,98843.39999999851,98854.589,99238.064,,28,rate.
screen,html.Screen,0_2_1_1_29,2021-12-02T14:48:47.762Z,,,,,,,,,,,,,,,,54,,,,,,,,,,,,,,420.13599999925646,,response,,,100,,,,,,Space,keypress(Space),,,,,-- --- ---- --- ------ ----- ------- ---- -- --- ------- --<br>------- ---------- ------ -- ----- -- ----- -- ---- ------<br>--- ----- --- --- ------ -------- ----- The ------ ----- --<br>----- ----- ---------- --- --- ------ ------ ---- -- ------<br>------- --- ------ ----- --- ---- ------- -- ---- --- --<br>------- ------,99659,99658.19999999925,99221.393,99227.30000000075,99238.064,99671.47,,29,The
screen,html.Screen,0_2_1_1_30,2021-12-02T14:48:48.218Z,,,,,,,,,,,,,,,,54,,,,,,,,,,,,,,442.7299999992538,,response,,,100,,,,,,Space,keypress(Space),,,,,-- --- ---- --- ------ ----- ------- ---- -- --- ------- --<br>------- ---------- ------ -- ----- -- ----- -- ---- ------<br>--- ----- --- --- ------ -------- ----- --- market ----- --<br>----- ----- ---------- --- --- ------ ------ ---- -- ------<br>------- --- ------ ----- --- ---- ------- -- ---- --- --<br>------- ------,100115,100114.19999999925,99654.8,99659.19999999925,99671.47,100121.598,,30,market
screen,html.Screen,0_2_1_1_31,2021-12-02T14:48:48.778Z,,,,,,,,,,,,,,,,54,,,,,,,,,,,,,,552.5019999977667,,response,,,100,,,,,,Space,keypress(Space),,,,,-- --- ---- --- ------ ----- ------- ---- -- --- ------- --<br>------- ---------- ------ -- ----- -- ----- -- ---- ------<br>--- ----- --- --- ------ -------- ----- --- ------ value --<br>----- ----- ---------- --- --- ------ ------ ---- -- ------<br>------- --- ------ ----- --- ---- ------- -- ---- --- --<br>------- ------,100674.89999999851,100674.09999999776,100104.928,100115.19999999925,100121.598,100688.41,,31,value
screen,html.Screen,0_2_1_1_32,2021-12-02T14:48:49.234Z,,,,,,,,,,,,,,,,54,,,,,,,,,,,,,,441.68999999776133,,response,,,100,,,,,,Space,keypress(Space),,,,,-- --- ---- --- ------ ----- ------- ---- -- --- ------- --<br>------- ---------- ------ -- ----- -- ----- -- ---- ------<br>--- ----- --- --- ------ -------- ----- --- ------ ----- of<br>----- ----- ---------- --- --- ------ ------ ---- -- ------<br>------- --- ------ ----- --- ---- ------- -- ---- --- --<br>------- ------,101130.89999999851,101130.09999999776,100671.74,100675.09999999776,100688.41,101138.504,,32,of
screen,html.Screen,0_2_1_1_33,2021-12-02T14:48:49.634Z,,,,,,,,,,,,,,,,54,,,,,,,,,,,,,,391.595999997764,,response,,,100,,,,,,Space,keypress(Space),,,,,-- --- ---- --- ------ ----- ------- ---- -- --- ------- --<br>------- ---------- ------ -- ----- -- ----- -- ---- ------<br>--- ----- --- --- ------ -------- ----- --- ------ ----- --<br>these ----- ---------- --- --- ------ ------ ---- -- ------<br>------- --- ------ ----- --- ---- ------- -- ---- --- --<br>------- ------,101530.89999999851,101530.09999999776,101121.834,101131.30000000075,101138.504,101538.635,,33,these
screen,html.Screen,0_2_1_1_34,2021-12-02T14:48:49.986Z,,,,,,,,,,,,,,,,54,,,,,,,,,,,,,,343.46499999777006,,response,,,100,,,,,,Space,keypress(Space),,,,,-- --- ---- --- ------ ----- ------- ---- -- --- ------- --<br>------- ---------- ------ -- ----- -- ----- -- ---- ------<br>--- ----- --- --- ------ -------- ----- --- ------ ----- --<br>----- bonds ---------- --- --- ------ ------ ---- -- ------<br>------- --- ------ ----- --- ---- ------- -- ---- --- --<br>------- ------,101882.89999999851,101882.09999999776,101521.965,101531.19999999925,101538.635,101888.707,,34,bonds
screen,html.Screen,0_2_1_1_35,2021-12-02T14:48:50.434Z,,,,,,,,,,,,,,,,54,,,,,,,,,,,,,,441.39299999776995,,response,,,100,,,,,,Space,keypress(Space),,,,,"-- --- ---- --- ------ ----- ------- ---- -- --- ------- --<br>------- ---------- ------ -- ----- -- ----- -- ---- ------<br>--- ----- --- --- ------ -------- ----- --- ------ ----- --<br>----- ----- plummeted, --- --- ------ ------ ---- -- ------<br>------- --- ------ ----- --- ---- ------- -- ---- --- --<br>------- ------",102330.89999999851,102330.09999999776,101872.037,101883.09999999776,101888.707,102338.884,,35,"plummeted,"
screen,html.Screen,0_2_1_1_36,2021-12-02T14:48:50.818Z,,,,,,,,,,,,,,,,54,,,,,,,,,,,,,,375.21599999775935,,response,,,100,,,,,,Space,keypress(Space),,,,,-- --- ---- --- ------ ----- ------- ---- -- --- ------- --<br>------- ---------- ------ -- ----- -- ----- -- ---- ------<br>--- ----- --- --- ------ -------- ----- --- ------ ----- --<br>----- ----- ---------- and --- ------ ------ ---- -- ------<br>------- --- ------ ----- --- ---- ------- -- ---- --- --<br>------- ------,102714.80000000075,102714.09999999776,102322.213,102331,102338.884,102722.285,,36,and
screen,html.Screen,0_2_1_1_37,2021-12-02T14:48:51.186Z,,,,,,,,,,,,,,,,54,,,,,,,,,,,,,,359.81499999776133,,response,,,100,,,,,,Space,keypress(Space),,,,,-- --- ---- --- ------ ----- ------- ---- -- --- ------- --<br>------- ---------- ------ -- ----- -- ----- -- ---- ------<br>--- ----- --- --- ------ -------- ----- --- ------ ----- --<br>----- ----- ---------- --- the ------ ------ ---- -- ------<br>------- --- ------ ----- --- ---- ------- -- ---- --- --<br>------- ------,103082.80000000075,103082.09999999776,102705.615,102715.09999999776,102722.285,103089.085,,37,the
screen,html.Screen,0_2_1_1_38,2021-12-02T14:48:51.594Z,,,,,,,,,,,,,,,,54,,,,,,,,,,,,,,400.9149999999936,,response,,,100,,,,,,Space,keypress(Space),,,,,-- --- ---- --- ------ ----- ------- ---- -- --- ------- --<br>------- ---------- ------ -- ----- -- ----- -- ---- ------<br>--- ----- --- --- ------ -------- ----- --- ------ ----- --<br>----- ----- ---------- --- --- market ------ ---- -- ------<br>------- --- ------ ----- --- ---- ------- -- ---- --- --<br>------- ------,103490.69999999925,103490,103072.414,103083.09999999776,103089.085,103505.832,,38,market
screen,html.Screen,0_2_1_1_39,2021-12-02T14:48:52.018Z,,,,,,,,,,,,,,,,54,,,,,,,,,,,,,,408.1680000000051,,response,,,100,,,,,,Space,keypress(Space),,,,,-- --- ---- --- ------ ----- ------- ---- -- --- ------- --<br>------- ---------- ------ -- ----- -- ----- -- ---- ------<br>--- ----- --- --- ------ -------- ----- --- ------ ----- --<br>----- ----- ---------- --- --- ------ became ---- -- ------<br>------- --- ------ ----- --- ---- ------- -- ---- --- --<br>------- ------,103914.80000000075,103914,103489.162,103491,103505.832,103922.609,,39,became
screen,html.Screen,0_2_1_1_40,2021-12-02T14:48:52.418Z,,,,,,,,,,,,,,,,54,,,,,,,,,,,,,,391.39100000000326,,response,,,100,,,,,,Space,keypress(Space),,,,,-- --- ---- --- ------ ----- ------- ---- -- --- ------- --<br>------- ---------- ------ -- ----- -- ----- -- ---- ------<br>--- ----- --- --- ------ -------- ----- --- ------ ----- --<br>----- ----- ---------- --- --- ------ ------ wary -- ------<br>------- --- ------ ----- --- ---- ------- -- ---- --- --<br>------- ------,104314.80000000075,104314,103905.939,103915,103922.609,104322.703,,40,wary
screen,html.Screen,0_2_1_1_41,2021-12-02T14:48:52.786Z,,,,,,,,,,,,,,,,54,,,,,,,,,,,,,,359.29700000000594,,response,,,100,,,,,,Space,keypress(Space),,,,,-- --- ---- --- ------ ----- ------- ---- -- --- ------- --<br>------- ---------- ------ -- ----- -- ----- -- ---- ------<br>--- ----- --- --- ------ -------- ----- --- ------ ----- --<br>----- ----- ---------- --- --- ------ ------ ---- of ------<br>------- --- ------ ----- --- ---- ------- -- ---- --- --<br>------- ------,104682.80000000075,104682,104306.033,104315,104322.703,104689.382,,41,of
screen,html.Screen,0_2_1_1_42,2021-12-02T14:48:53.202Z,,,,,,,,,,,,,,,,54,,,,,,,,,,,,,,408.5179999985121,,response,,,100,,,,,,Space,keypress(Space),,,,,-- --- ---- --- ------ ----- ------- ---- -- --- ------- --<br>------- ---------- ------ -- ----- -- ----- -- ---- ------<br>--- ----- --- --- ------ -------- ----- --- ------ ----- --<br>----- ----- ---------- --- --- ------ ------ ---- -- French<br>------- --- ------ ----- --- ---- ------- -- ---- --- --<br>------- ------,105098.89999999851,105097.89999999851,104672.713,104683,104689.382,105106.311,,42,French
screen,html.Screen,0_2_1_1_43,2021-12-02T14:48:53.618Z,,,,,,,,,,,,,,,,54,,,,,,,,,,,,,,407.58899999850837,,response,,,100,,,,,,Space,keypress(Space),,,,,-- --- ---- --- ------ ----- ------- ---- -- --- ------- --<br>------- ---------- ------ -- ----- -- ----- -- ---- ------<br>--- ----- --- --- ------ -------- ----- --- ------ ----- --<br>----- ----- ---------- --- --- ------ ------ ---- -- ------<br>credit. --- ------ ----- --- ---- ------- -- ---- --- --<br>------- ------,105514.69999999925,105513.89999999851,105089.639,105099,105106.311,105523,,43,credit.
screen,html.Screen,0_2_1_1_44,2021-12-02T14:48:54.066Z,,,,,,,,,,,,,,,,54,,,,,,,,,,,,,,438.8999999985099,,response,,,100,,,,,,Space,keypress(Space),,,,,-- --- ---- --- ------ ----- ------- ---- -- --- ------- --<br>------- ---------- ------ -- ----- -- ----- -- ---- ------<br>--- ----- --- --- ------ -------- ----- --- ------ ----- --<br>----- ----- ---------- --- --- ------ ------ ---- -- ------<br>------- The ------ ----- --- ---- ------- -- ---- --- --<br>------- ------,105962.69999999925,105961.89999999851,105506.33,105515,105523,105973.236,,44,The
screen,html.Screen,0_2_1_1_45,2021-12-02T14:48:54.594Z,,,,,,,,,,,,,,,,54,,,,,,,,,,,,,,516.6639999985055,,response,,,100,,,,,,Space,keypress(Space),,,,,-- --- ---- --- ------ ----- ------- ---- -- --- ------- --<br>------- ---------- ------ -- ----- -- ----- -- ---- ------<br>--- ----- --- --- ------ -------- ----- --- ------ ----- --<br>----- ----- ---------- --- --- ------ ------ ---- -- ------<br>------- --- French ----- --- ---- ------- -- ---- --- --<br>------- ------,106490.59999999776,106489.89999999851,105956.564,105962.89999999851,105973.236,106506.611,,45,French
screen,html.Screen,0_2_1_1_46,2021-12-02T14:48:54.986Z,,,,,,,,,,,,,,,,54,,,,,,,,,,,,,,375.5889999992505,,response,,,100,,,,,,Space,keypress(Space),,,,,-- --- ---- --- ------ ----- ------- ---- -- --- ------- --<br>------- ---------- ------ -- ----- -- ----- -- ---- ------<br>--- ----- --- --- ------ -------- ----- --- ------ ----- --<br>----- ----- ---------- --- --- ------ ------ ---- -- ------<br>------- --- ------ state --- ---- ------- -- ---- --- --<br>------- ------,106883,106882.19999999925,106489.941,106490.89999999851,106506.611,106890.027,,46,state
screen,html.Screen,0_2_1_1_47,2021-12-02T14:48:55.330Z,,,,,,,,,,,,,,,,54,,,,,,,,,,,,,,335.872999998508,,response,,,100,,,,,,Space,keypress(Space),,,,,-- --- ---- --- ------ ----- ------- ---- -- --- ------- --<br>------- ---------- ------ -- ----- -- ----- -- ---- ------<br>--- ----- --- --- ------ -------- ----- --- ------ ----- --<br>----- ----- ---------- --- --- ------ ------ ---- -- ------<br>------- --- ------ ----- was ---- ------- -- ---- --- --<br>------- ------,107226.59999999776,107225.89999999851,106873.357,106883.19999999925,106890.027,107240.195,,47,was
screen,html.Screen,0_2_1_1_48,2021-12-02T14:48:55.682Z,,,,,,,,,,,,,,,,54,,,,,,,,,,,,,,337.6050000007381,,response,,,100,,,,,,Space,keypress(Space),,,,,-- --- ---- --- ------ ----- ------- ---- -- --- ------- --<br>------- ---------- ------ -- ----- -- ----- -- ---- ------<br>--- ----- --- --- ------ -------- ----- --- ------ ----- --<br>----- ----- ---------- --- --- ------ ------ ---- -- ------<br>------- --- ------ ----- --- left ------- -- ---- --- --<br>------- ------,107578.59999999776,107577.80000000075,107223.524,107226.80000000075,107240.195,107590.246,,48,left
screen,html.Screen,0_2_1_1_49,2021-12-02T14:48:56.194Z,,,,,,,,,,,,,,,,54,,,,,,,,,,,,,,499.5540000007459,,response,,,100,,,,,,Space,keypress(Space),,,,,-- --- ---- --- ------ ----- ------- ---- -- --- ------- --<br>------- ---------- ------ -- ----- -- ----- -- ---- ------<br>--- ----- --- --- ------ -------- ----- --- ------ ----- --<br>----- ----- ---------- --- --- ------ ------ ---- -- ------<br>------- --- ------ ----- --- ---- without -- ---- --- --<br>------- ------,108090.59999999776,108089.80000000075,107573.576,107578.80000000075,107590.246,108107.035,,49,without
screen,html.Screen,0_2_1_1_50,2021-12-02T14:48:56.570Z,,,,,,,,,,,,,,,,54,,,,,,,,,,,,,,358.66499999925145,,response,,,100,,,,,,Space,keypress(Space),,,,,-- --- ---- --- ------ ----- ------- ---- -- --- ------- --<br>------- ---------- ------ -- ----- -- ----- -- ---- ------<br>--- ----- --- --- ------ -------- ----- --- ------ ----- --<br>----- ----- ---------- --- --- ------ ------ ---- -- ------<br>------- --- ------ ----- --- ---- ------- an ---- --- --<br>------- ------,108466.59999999776,108465.69999999925,108090.365,108090.89999999851,108107.035,108473.668,,50,an
screen,html.Screen,0_2_1_1_51,2021-12-02T14:48:57.001Z,,,,,,,,,,,,,,,,54,,,,,,,,,,,,,,423.9319999977597,,response,,,100,,,,,,Space,keypress(Space),,,,,-- --- ---- --- ------ ----- ------- ---- -- --- ------- --<br>------- ---------- ------ -- ----- -- ----- -- ---- ------<br>--- ----- --- --- ------ -------- ----- --- ------ ----- --<br>----- ----- ---------- --- --- ------ ------ ---- -- ------<br>------- --- ------ ----- --- ---- ------- -- easy --- --<br>------- ------,108898.39999999851,108897.59999999776,108457,108466.80000000075,108473.668,108907.221,,51,easy
screen,html.Screen,0_2_1_1_52,2021-12-02T14:48:57.386Z,,,,,,,,,,,,,,,,54,,,,,,,,,,,,,,374.57900000074005,,response,,,100,,,,,,Space,keypress(Space),,,,,-- --- ---- --- ------ ----- ------- ---- -- --- ------- --<br>------- ---------- ------ -- ----- -- ----- -- ---- ------<br>--- ----- --- --- ------ -------- ----- --- ------ ----- --<br>----- ----- ---------- --- --- ------ ------ ---- -- ------<br>------- --- ------ ----- --- ---- ------- -- ---- way --<br>------- ------,109282.59999999776,109281.80000000075,108890.551,108898.69999999925,108907.221,109290.79,,52,way
screen,html.Screen,0_2_1_1_53,2021-12-02T14:48:57.722Z,,,,,,,,,,,,,,,,54,,,,,,,,,,,,,,326.90999999926134,,response,,,100,,,,,,Space,keypress(Space),,,,,-- --- ---- --- ------ ----- ------- ---- -- --- ------- --<br>------- ---------- ------ -- ----- -- ----- -- ---- ------<br>--- ----- --- --- ------ -------- ----- --- ------ ----- --<br>----- ----- ---------- --- --- ------ ------ ---- -- ------<br>------- --- ------ ----- --- ---- ------- -- ---- --- of<br>------- ------,109618.5,109617.69999999925,109274.118,109282.80000000075,109290.79,109624.024,,53,of
screen,html.Screen,0_2_1_1_54,2021-12-02T14:48:58.282Z,,,,,,,,,,,,,,,,54,,,,,,,,,,,,,,553.67599999925,,response,,,100,,,,,,Space,keypress(Space),,,,,-- --- ---- --- ------ ----- ------- ---- -- --- ------- --<br>------- ---------- ------ -- ----- -- ----- -- ---- ------<br>--- ----- --- --- ------ -------- ----- --- ------ ----- --<br>----- ----- ---------- --- --- ------ ------ ---- -- ------<br>------- --- ------ ----- --- ---- ------- -- ---- --- --<br>raising ------,110178.39999999851,110177.69999999925,109607.355,109618.80000000075,109624.024,110191.03,,54,raising
screen,html.Screen,0_2_1_1_55,2021-12-02T14:48:58.722Z,,,,,,,,,,,,,,,,54,,,,,,,,,,,,,,426.6699999992561,,response,,,100,,,,,,Space,keypress(Space),,,,,-- --- ---- --- ------ ----- ------- ---- -- --- ------- --<br>------- ---------- ------ -- ----- -- ----- -- ---- ------<br>--- ----- --- --- ------ -------- ----- --- ------ ----- --<br>----- ----- ---------- --- --- ------ ------ ---- -- ------<br>------- --- ------ ----- --- ---- ------- -- ---- --- --<br>------- money.,110618.5,110617.69999999925,110174.358,110178.69999999925,110191.03,110624.428,,55,money.
Item 100,flow.Loop,0_2_1_1,2021-12-02T14:48:58.722Z,,,,,,,,,,,,,,,,,,,,,,,,,,,,,,25650.23899999926,,completion,,,,D,,,,,,,,,,silence,,110618.89999999851,110617.69999999925,84950.791,84952.69999999925,84967.461,110624.428,,,
Question 1,html.Screen,0_2_1_2,2021-12-02T14:49:01.586Z,,,,,,,,,,,,,,,,,,,,,,,,,,,true,TRUE,,2856.872000000745,,response,,,100,D,,,,,TRUE,click #choice-1,,,,silence,,113482.5,113481.30000000075,110607.757,110619.09999999776,110624.428,113491.815,,,
Question 2,html.Screen,0_2_1_3,2021-12-02T14:49:03.354Z,,,,,,,,,,,,,,,,,,,,,,,,,,,true,FALSE,,1757.4850000007427,,response,,,100,D,,,,,FALSE,click #choice-2,,,,silence,,115250.5,115249.30000000075,113475.145,113482.80000000075,113491.815,115258.811,,,
Item 100,flow.Sequence,0_2_1,2021-12-02T14:49:03.354Z,,,,,,,,,,,,,,,,,,,,,,,,,,,,,,40284.39600000075,,completion,,,,,,,,,,,,,,,,115250.80000000075,115249.30000000075,74948.234,74957,74964.904,115258.811,,,
End of Practice,html.Page,0_2_2,2021-12-02T14:49:06.538Z,,,,,,,,,,,,,,,,,,,,,,,,,,,,,,3175.9890000007435,,form submission,,,,,,,,,,,,,,,,118435.39999999851,118434.80000000075,115242.145,115251,115258.811,118443.104,,,
Practice,flow.Sequence,0_2,2021-12-02T14:49:06.539Z,,,,,,,,,,,,,,,,,,,,,,,,,,,,,,92716.35800000075,,completion,,,,,,,,,,,,,,,,118435.80000000075,118434.80000000075,25701.772,25711.599999997765,25718.442,118443.104,,,
Trap_instruction,html.Page,0_3_0,2021-12-02T14:49:10.381Z,,,,,,,,,,,,,,,,,,,,,,,,,,,,,,3831.2959999985032,,form submission,,,,,,,,,,,,,,,,122275,122274.39999999851,118426.434,118436.19999999925,118443.104,122310.765,,,
trap_trial,html.Screen,0_3_1,2021-12-02T14:49:13.612Z,,,,,,,,,,,,,,,,,,,,,,,,,,,true,1,,3194.1349999985105,,response,,,,,,,,,1,click #choice-1,,,,,,125506.19999999925,125504.89999999851,122260.755,122275.30000000075,122310.765,125510.868,,,
end of trap trial,html.Page,0_3_2,2021-12-02T14:49:15.269Z,,,,,,,,,,,,,,,,,,,,,,,,,,,,,,1651.4320000007428,,form submission,,,,,,,,,,,,,,,,127162.89999999851,127162.30000000075,125494.201,125506.39999999851,125510.868,127162.067,,,
Trap 1,flow.Sequence,0_3,2021-12-02T14:49:15.269Z,,,,,,,,,,,,,,,,,,,,,,,,,,,,,,8719.196000000738,,completion,,,,,,,,,,,,,,,,127163.5,127162.30000000075,118426.434,118436.09999999776,118443.104,127162.067,,,
Standby,html.Page,0_4_0,2021-12-02T14:49:23.254Z,,,,,,,,,,,,,,,,,,,,,,,,,,,,,,8001.631999999998,,timeout,,,,,,,,,,,,,,,,135148.19999999925,135147.029,127145.397,127163.80000000075,127162.067,135163.699,,,
Holding screen,html.Screen,0_4_1_0_0,2021-12-02T14:49:30.257Z,,,,,,,,,,,,,,,,,,,,,,,,,,,,,,7002.333000000013,,timeout,,,,,,,,,,,,,,,,142151.19999999925,142149.362,135147.029,135148.69999999925,135163.699,142166.032,,,
screen,html.Screen,0_4_1_0_1_0,2021-12-02T14:49:31.747Z,,,,,,,,,,,,,,,,15,,,,,,,,,,,,,,1474.6679999992484,,response,,,7,D,,,,,Space,keypress(Space),,,,silence,Greg --------- ---------- - --- ------- -- --- ------------<br>----- -- -------- ------- ---- ------ - -------- ---- -----<br>--- ------- ---- -- --- -------- --- - ----- ------ ---- --<br>-------- --- -------- -------- --- -------- ---- -- ----- -<br>-------- ---- --- ---------- --------- -- ------- ------ -<br>--------- ----- -----,143641.80000000075,143640.69999999925,142149.362,142151.5,142166.032,143649.753,,0,Greg
screen,html.Screen,0_4_1_0_1_1,2021-12-02T14:49:32.467Z,,,,,,,,,,,,,,,,15,,,,,,,,,,,,,,710.3469999977679,,response,,,7,D,,,,,Space,keypress(Space),,,,silence,"---- Anderson, ---------- - --- ------- -- --- ------------<br>----- -- -------- ------- ---- ------ - -------- ---- -----<br>--- ------- ---- -- --- -------- --- - ----- ------ ---- --<br>-------- --- -------- -------- --- -------- ---- -- ----- -<br>-------- ---- --- ---------- --------- -- ------- ------ -<br>--------- ----- -----",144361,144360.09999999776,143633.083,143642.09999999776,143649.753,144366.66,,1,"Anderson,"
screen,html.Screen,0_4_1_0_1_2,2021-12-02T14:49:33.019Z,,,,,,,,,,,,,,,,15,,,,,,,,,,,,,,545.4399999977613,,response,,,7,D,,,,,Space,keypress(Space),,,,silence,---- --------- considered - --- ------- -- --- ------------<br>----- -- -------- ------- ---- ------ - -------- ---- -----<br>--- ------- ---- -- --- -------- --- - ----- ------ ---- --<br>-------- --- -------- -------- --- -------- ---- -- ----- -<br>-------- ---- --- ---------- --------- -- ------- ------ -<br>--------- ----- -----,144913,144912.09999999776,144349.99,144361.30000000075,144366.66,144916.828,,2,considered
screen,html.Screen,0_4_1_0_1_3,2021-12-02T14:49:33.363Z,,,,,,,,,,,,,,,,15,,,,,,,,,,,,,,339.2719999977562,,response,,,7,D,,,,,Space,keypress(Space),,,,silence,---- --------- ---------- a --- ------- -- --- ------------<br>----- -- -------- ------- ---- ------ - -------- ---- -----<br>--- ------- ---- -- --- -------- --- - ----- ------ ---- --<br>-------- --- -------- -------- --- -------- ---- -- ----- -<br>-------- ---- --- ---------- --------- -- ------- ------ -<br>--------- ----- -----,145257,145256.09999999776,144900.158,144913.30000000075,144916.828,145266.921,,3,a
screen,html.Screen,0_4_1_0_1_4,2021-12-02T14:49:33.786Z,,,,,,,,,,,,,,,,15,,,,,,,,,,,,,,413.0789999999979,,response,,,7,D,,,,,Space,keypress(Space),,,,silence,---- --------- ---------- - key ------- -- --- ------------<br>----- -- -------- ------- ---- ------ - -------- ---- -----<br>--- ------- ---- -- --- -------- --- - ----- ------ ---- --<br>-------- --- -------- -------- --- -------- ---- -- ----- -<br>-------- ---- --- ---------- --------- -- ------- ------ -<br>--------- ----- -----,145680.80000000075,145680,145250.251,145257.30000000075,145266.921,145683.709,,4,key
screen,html.Screen,0_4_1_0_1_5,2021-12-02T14:49:34.227Z,,,,,,,,,,,,,,,,15,,,,,,,,,,,,,,436.29099999999744,,response,,,7,D,,,,,Space,keypress(Space),,,,silence,---- --------- ---------- - --- witness -- --- ------------<br>----- -- -------- ------- ---- ------ - -------- ---- -----<br>--- ------- ---- -- --- -------- --- - ----- ------ ---- --<br>-------- --- -------- -------- --- -------- ---- -- ----- -<br>-------- ---- --- ---------- --------- -- ------- ------ -<br>--------- ----- -----,146120.8999999985,146120,145667.039,145681.19999999925,145683.709,146133.813,,5,witness
screen,html.Screen,0_4_1_0_1_6,2021-12-02T14:49:34.570Z,,,,,,,,,,,,,,,,15,,,,,,,,,,,,,,330.08699999851524,,response,,,7,D,,,,,Space,keypress(Space),,,,silence,---- --------- ---------- - --- ------- by --- ------------<br>----- -- -------- ------- ---- ------ - -------- ---- -----<br>--- ------- ---- -- --- -------- --- - ----- ------ ---- --<br>-------- --- -------- -------- --- -------- ---- -- ----- -<br>-------- ---- --- ---------- --------- -- ------- ------ -<br>--------- ----- -----,146464.8999999985,146463.8999999985,146117.143,146121.30000000075,146133.813,146467.289,,6,by
screen,html.Screen,0_4_1_0_1_7,2021-12-02T14:49:34.802Z,,,,,,,,,,,,,,,,15,,,,,,,,,,,,,,228.61099999852013,,response,,,7,D,,,,,Space,keypress(Space),,,,silence,---- --------- ---------- - --- ------- -- the ------------<br>----- -- -------- ------- ---- ------ - -------- ---- -----<br>--- ------- ---- -- --- -------- --- - ----- ------ ---- --<br>-------- --- -------- -------- --- -------- ---- -- ----- -<br>-------- ---- --- ---------- --------- -- ------- ------ -<br>--------- ----- -----,146696.80000000075,146695.8999999985,146450.618,146465.19999999925,146467.289,146700.641,,7,the
screen,html.Screen,0_4_1_0_1_8,2021-12-02T14:49:35.338Z,,,,,,,,,,,,,,,,15,,,,,,,,,,,,,,531.2589999985066,,response,,,7,D,,,,,Space,keypress(Space),,,,silence,"---- --------- ---------- - --- ------- -- --- prosecution,<br>----- -- -------- ------- ---- ------ - -------- ---- -----<br>--- ------- ---- -- --- -------- --- - ----- ------ ---- --<br>-------- --- -------- -------- --- -------- ---- -- ----- -<br>-------- ---- --- ---------- --------- -- ------- ------ -<br>--------- ----- -----",147232.69999999925,147231.8999999985,146683.971,146697.09999999776,146700.641,147234.108,,8,"prosecution,"
screen,html.Screen,0_4_1_0_1_9,2021-12-02T14:49:35.698Z,,,,,,,,,,,,,,,,15,,,,,,,,,,,,,,357.79199999850243,,response,,,7,D,,,,,Space,keypress(Space),,,,silence,---- --------- ---------- - --- ------- -- --- ------------<br>vowed -- -------- ------- ---- ------ - -------- ---- -----<br>--- ------- ---- -- --- -------- --- - ----- ------ ---- --<br>-------- --- -------- -------- --- -------- ---- -- ----- -<br>-------- ---- --- ---------- --------- -- ------- ------ -<br>--------- ----- -----,147592.69999999925,147591.8999999985,147217.438,147233,147234.108,147600.915,,9,vowed
screen,html.Screen,0_4_1_0_1_10,2021-12-02T14:49:36.050Z,,,,,,,,,,,,,,,,15,,,,,,,,,,,,,,342.98499999850173,,response,,,7,D,,,,,Space,keypress(Space),,,,silence,---- --------- ---------- - --- ------- -- --- ------------<br>----- he -------- ------- ---- ------ - -------- ---- -----<br>--- ------- ---- -- --- -------- --- - ----- ------ ---- --<br>-------- --- -------- -------- --- -------- ---- -- ----- -<br>-------- ---- --- ---------- --------- -- ------- ------ -<br>--------- ----- -----,147944.69999999925,147943.8999999985,147584.244,147593,147600.915,147950.977,,10,he
screen,html.Screen,0_4_1_0_1_11,2021-12-02T14:49:36.562Z,,,,,,,,,,,,,,,,15,,,,,,,,,,,,,,504.9229999984964,,response,,,7,D,,,,,Space,keypress(Space),,,,silence,---- --------- ---------- - --- ------- -- --- ------------<br>----- -- wouldn't ------- ---- ------ - -------- ---- -----<br>--- ------- ---- -- --- -------- --- - ----- ------ ---- --<br>-------- --- -------- -------- --- -------- ---- -- ----- -<br>-------- ---- --- ---------- --------- -- ------- ------ -<br>--------- ----- -----,148456.59999999776,148455.8999999985,147934.307,147944.8999999985,147950.977,148467.745,,11,wouldn't
screen,html.Screen,0_4_1_0_1_12,2021-12-02T14:49:36.954Z,,,,,,,,,,,,,,,,15,,,,,,,,,,,,,,380.15499999851454,,response,,,7,D,,,,,Space,keypress(Space),,,,silence,---- --------- ---------- - --- ------- -- --- ------------<br>----- -- -------- testify ---- ------ - -------- ---- -----<br>--- ------- ---- -- --- -------- --- - ----- ------ ---- --<br>-------- --- -------- -------- --- -------- ---- -- ----- -<br>-------- ---- --- ---------- --------- -- ------- ------ -<br>--------- ----- -----,148848.59999999776,148847.8999999985,148451.075,148456.8999999985,148467.745,148851.2,,12,testify
screen,html.Screen,0_4_1_0_1_13,2021-12-02T14:49:37.298Z,,,,,,,,,,,,,,,,15,,,,,,,,,,,,,,340.6000000007334,,response,,,7,D,,,,,Space,keypress(Space),,,,silence,---- --------- ---------- - --- ------- -- --- ------------<br>----- -- -------- ------- when ------ - -------- ---- -----<br>--- ------- ---- -- --- -------- --- - ----- ------ ---- --<br>-------- --- -------- -------- --- -------- ---- -- ----- -<br>-------- ---- --- ---------- --------- -- ------- ------ -<br>--------- ----- -----,149192.69999999925,149191.80000000075,148834.53,148848.80000000075,148851.2,149201.336,,13,when
screen,html.Screen,0_4_1_0_1_14,2021-12-02T14:49:37.666Z,,,,,,,,,,,,,,,,15,,,,,,,,,,,,,,358.56399999849964,,response,,,7,D,,,,,Space,keypress(Space),,,,silence,---- --------- ---------- - --- ------- -- --- ------------<br>----- -- -------- ------- ---- served - -------- ---- -----<br>--- ------- ---- -- --- -------- --- - ----- ------ ---- --<br>-------- --- -------- -------- --- -------- ---- -- ----- -<br>-------- ---- --- ---------- --------- -- ------- ------ -<br>--------- ----- -----,149560.69999999925,149559.8999999985,149184.665,149192.8999999985,149201.336,149568.11,,14,served
screen,html.Screen,0_4_1_0_1_15,2021-12-02T14:49:38.154Z,,,,,,,,,,,,,,,,15,,,,,,,,,,,,,,479.78999999852385,,response,,,7,D,,,,,Space,keypress(Space),,,,silence,---- --------- ---------- - --- ------- -- --- ------------<br>----- -- -------- ------- ---- ------ a -------- ---- -----<br>--- ------- ---- -- --- -------- --- - ----- ------ ---- --<br>-------- --- -------- -------- --- -------- ---- -- ----- -<br>-------- ---- --- ---------- --------- -- ------- ------ -<br>--------- ----- -----,150048.59999999776,150047.8999999985,149551.439,149560.8999999985,149568.11,150051.528,,15,a
screen,html.Screen,0_4_1_0_1_16,2021-12-02T14:49:38.562Z,,,,,,,,,,,,,,,,15,,,,,,,,,,,,,,404.2720000007539,,response,,,7,D,,,,,Space,keypress(Space),,,,silence,---- --------- ---------- - --- ------- -- --- ------------<br>----- -- -------- ------- ---- ------ - subpoena ---- -----<br>--- ------- ---- -- --- -------- --- - ----- ------ ---- --<br>-------- --- -------- -------- --- -------- ---- -- ----- -<br>-------- ---- --- ---------- --------- -- ------- ------ -<br>--------- ----- -----,150456.59999999776,150455.80000000075,150034.858,150048.8999999985,150051.528,150468.29,,16,subpoena
screen,html.Screen,0_4_1_0_1_17,2021-12-02T14:49:38.978Z,,,,,,,,,,,,,,,,15,,,,,,,,,,,,,,403.5100000007369,,response,,,7,D,,,,,Space,keypress(Space),,,,silence,---- --------- ---------- - --- ------- -- --- ------------<br>----- -- -------- ------- ---- ------ - -------- last -----<br>--- ------- ---- -- --- -------- --- - ----- ------ ---- --<br>-------- --- -------- -------- --- -------- ---- -- ----- -<br>-------- ---- --- ---------- --------- -- ------- ------ -<br>--------- ----- -----,150872.69999999925,150871.80000000075,150451.62,150456.80000000075,150468.29,150885.126,,17,last
screen,html.Screen,0_4_1_0_1_18,2021-12-02T14:49:39.346Z,,,,,,,,,,,,,,,,15,,,,,,,,,,,,,,354.67400000075577,,response,,,7,D,,,,,Space,keypress(Space),,,,silence,---- --------- ---------- - --- ------- -- --- ------------<br>----- -- -------- ------- ---- ------ - -------- ---- week.<br>--- ------- ---- -- --- -------- --- - ----- ------ ---- --<br>-------- --- -------- -------- --- -------- ---- -- ----- -<br>-------- ---- --- ---------- --------- -- ------- ------ -<br>--------- ----- -----,151240.69999999925,151239.80000000075,150868.455,150872.8999999985,150885.126,151251.85,,18,week.
screen,html.Screen,0_4_1_0_1_19,2021-12-02T14:49:39.874Z,,,,,,,,,,,,,,,,15,,,,,,,,,,,,,,515.8499999992491,,response,,,7,D,,,,,Space,keypress(Space),,,,silence,---- --------- ---------- - --- ------- -- --- ------------<br>----- -- -------- ------- ---- ------ - -------- ---- -----<br>His ------- ---- -- --- -------- --- - ----- ------ ---- --<br>-------- --- -------- -------- --- -------- ---- -- ----- -<br>-------- ---- --- ---------- --------- -- ------- ------ -<br>--------- ----- -----,151768.5,151767.69999999925,151235.18,151241,151251.85,151785.323,,19,His
screen,html.Screen,0_4_1_0_1_20,2021-12-02T14:49:40.218Z,,,,,,,,,,,,,,,,15,,,,,,,,,,,,,,326.4770000007411,,response,,,7,D,,,,,Space,keypress(Space),,,,silence,---- --------- ---------- - --- ------- -- --- ------------<br>----- -- -------- ------- ---- ------ - -------- ---- -----<br>--- lawyers ---- -- --- -------- --- - ----- ------ ---- --<br>-------- --- -------- -------- --- -------- ---- -- ----- -<br>-------- ---- --- ---------- --------- -- ------- ------ -<br>--------- ----- -----,152112.59999999776,152111.80000000075,151768.653,151768.80000000075,151785.323,152118.76,,20,lawyers
screen,html.Screen,0_4_1_0_1_21,2021-12-02T14:49:40.706Z,,,,,,,,,,,,,,,,15,,,,,,,,,,,,,,480.93999999924563,,response,,,7,D,,,,,Space,keypress(Space),,,,silence,---- --------- ---------- - --- ------- -- --- ------------<br>----- -- -------- ------- ---- ------ - -------- ---- -----<br>--- ------- said -- --- -------- --- - ----- ------ ---- --<br>-------- --- -------- -------- --- -------- ---- -- ----- -<br>-------- ---- --- ---------- --------- -- ------- ------ -<br>--------- ----- -----,152600.5,152599.69999999925,152102.09,152112.80000000075,152118.76,152602.202,,21,said
screen,html.Screen,0_4_1_0_1_22,2021-12-02T14:49:40.978Z,,,,,,,,,,,,,,,,15,,,,,,,,,,,,,,269.4979999992647,,response,,,7,D,,,,,Space,keypress(Space),,,,silence,---- --------- ---------- - --- ------- -- --- ------------<br>----- -- -------- ------- ---- ------ - -------- ---- -----<br>--- ------- ---- he --- -------- --- - ----- ------ ---- --<br>-------- --- -------- -------- --- -------- ---- -- ----- -<br>-------- ---- --- ---------- --------- -- ------- ------ -<br>--------- ----- -----,152872.5,152871.69999999925,152585.532,152600.8999999985,152602.202,152885.661,,22,he
screen,html.Screen,0_4_1_0_1_23,2021-12-02T14:49:41.330Z,,,,,,,,,,,,,,,,15,,,,,,,,,,,,,,338.03899999926216,,response,,,7,D,,,,,Space,keypress(Space),,,,silence,---- --------- ---------- - --- ------- -- --- ------------<br>----- -- -------- ------- ---- ------ - -------- ---- -----<br>--- ------- ---- -- was -------- --- - ----- ------ ---- --<br>-------- --- -------- -------- --- -------- ---- -- ----- -<br>-------- ---- --- ---------- --------- -- ------- ------ -<br>--------- ----- -----,153224.5,153223.69999999925,152868.99,152872.80000000075,152885.661,153235.711,,23,was
screen,html.Screen,0_4_1_0_1_24,2021-12-02T14:49:41.746Z,,,,,,,,,,,,,,,,15,,,,,,,,,,,,,,403.9889999992447,,response,,,7,D,,,,,Space,keypress(Space),,,,silence,---- --------- ---------- - --- ------- -- --- ------------<br>----- -- -------- ------- ---- ------ - -------- ---- -----<br>--- ------- ---- -- --- prepared --- - ----- ------ ---- --<br>-------- --- -------- -------- --- -------- ---- -- ----- -<br>-------- ---- --- ---------- --------- -- ------- ------ -<br>--------- ----- -----,153640.5,153639.69999999925,153219.041,153224.69999999925,153235.711,153652.411,,24,prepared
screen,html.Screen,0_4_1_0_1_25,2021-12-02T14:49:42.075Z,,,,,,,,,,,,,,,,15,,,,,,,,,,,,,,315.68899999777204,,response,,,7,D,,,,,Space,keypress(Space),,,,silence,---- --------- ---------- - --- ------- -- --- ------------<br>----- -- -------- ------- ---- ------ - -------- ---- -----<br>--- ------- ---- -- --- -------- for - ----- ------ ---- --<br>-------- --- -------- -------- --- -------- ---- -- ----- -<br>-------- ---- --- ---------- --------- -- ------- ------ -<br>--------- ----- -----,153968.8999999985,153968.09999999776,153635.742,153640.69999999925,153652.411,153985.867,,25,for
screen,html.Screen,0_4_1_0_1_26,2021-12-02T14:49:42.482Z,,,,,,,,,,,,,,,,15,,,,,,,,,,,,,,389.8329999992566,,response,,,7,D,,,,,Space,keypress(Space),,,,silence,---- --------- ---------- - --- ------- -- --- ------------<br>----- -- -------- ------- ---- ------ - -------- ---- -----<br>--- ------- ---- -- --- -------- --- a ----- ------ ---- --<br>-------- --- -------- -------- --- -------- ---- -- ----- -<br>-------- ---- --- ---------- --------- -- ------- ------ -<br>--------- ----- -----,154376.3999999985,154375.69999999925,153969.197,153969.09999999776,153985.867,154386.097,,26,a
screen,html.Screen,0_4_1_0_1_27,2021-12-02T14:49:42.826Z,,,,,,,,,,,,,,,,15,,,,,,,,,,,,,,333.6029999992461,,response,,,7,D,,,,,Space,keypress(Space),,,,silence,---- --------- ---------- - --- ------- -- --- ------------<br>----- -- -------- ------- ---- ------ - -------- ---- -----<br>--- ------- ---- -- --- -------- --- - third ------ ---- --<br>-------- --- -------- -------- --- -------- ---- -- ----- -<br>-------- ---- --- ---------- --------- -- ------- ------ -<br>--------- ----- -----,154720.5,154719.69999999925,154369.425,154376.59999999776,154386.097,154736.149,,27,third
screen,html.Screen,0_4_1_0_1_28,2021-12-02T14:49:43.154Z,,,,,,,,,,,,,,,,15,,,,,,,,,,,,,,311.45099999775994,,response,,,7,D,,,,,Space,keypress(Space),,,,silence,---- --------- ---------- - --- ------- -- --- ------------<br>----- -- -------- ------- ---- ------ - -------- ---- -----<br>--- ------- ---- -- --- -------- --- - ----- prison ---- --<br>-------- --- -------- -------- --- -------- ---- -- ----- -<br>-------- ---- --- ---------- --------- -- ------- ------ -<br>--------- ----- -----,155048.3999999985,155047.59999999776,154719.478,154720.80000000075,154736.149,155052.874,,28,prison
screen,html.Screen,0_4_1_0_1_29,2021-12-02T14:49:43.554Z,,,,,,,,,,,,,,,,15,,,,,,,,,,,,,,394.6259999999893,,response,,,7,D,,,,,Space,keypress(Space),,,,silence,---- --------- ---------- - --- ------- -- --- ------------<br>----- -- -------- ------- ---- ------ - -------- ---- -----<br>--- ------- ---- -- --- -------- --- - ----- ------ stay --<br>-------- --- -------- -------- --- -------- ---- -- ----- -<br>-------- ---- --- ---------- --------- -- ------- ------ -<br>--------- ----- -----,155448.3999999985,155447.5,155036.204,155048.59999999776,155052.874,155452.965,,29,stay
screen,html.Screen,0_4_1_0_1_30,2021-12-02T14:49:43.962Z,,,,,,,,,,,,,,,,15,,,,,,,,,,,,,,402.6349999977683,,response,,,7,D,,,,,Space,keypress(Space),,,,silence,---- --------- ---------- - --- ------- -- --- ------------<br>----- -- -------- ------- ---- ------ - -------- ---- -----<br>--- ------- ---- -- --- -------- --- - ----- ------ ---- to<br>-------- --- -------- -------- --- -------- ---- -- ----- -<br>-------- ---- --- ---------- --------- -- ------- ------ -<br>--------- ----- -----,155856.3999999985,155855.59999999776,155436.295,155448.59999999776,155452.965,155869.786,,30,to
screen,html.Screen,0_4_1_0_1_31,2021-12-02T14:49:44.322Z,,,,,,,,,,,,,,,,15,,,,,,,,,,,,,,345.7140000000072,,response,,,7,D,,,,,Space,keypress(Space),,,,silence,---- --------- ---------- - --- ------- -- --- ------------<br>----- -- -------- ------- ---- ------ - -------- ---- -----<br>--- ------- ---- -- --- -------- --- - ----- ------ ---- --<br>maintain --- -------- -------- --- -------- ---- -- ----- -<br>-------- ---- --- ---------- --------- -- ------- ------ -<br>--------- ----- -----,156216.3999999985,156215.5,155853.115,155856.59999999776,155869.786,156219.777,,31,maintain
screen,html.Screen,0_4_1_0_1_32,2021-12-02T14:49:44.658Z,,,,,,,,,,,,,,,,15,,,,,,,,,,,,,,331.72299999999814,,response,,,7,D,,,,,Space,keypress(Space),,,,silence,---- --------- ---------- - --- ------- -- --- ------------<br>----- -- -------- ------- ---- ------ - -------- ---- -----<br>--- ------- ---- -- --- -------- --- - ----- ------ ---- --<br>-------- his -------- -------- --- -------- ---- -- ----- -<br>-------- ---- --- ---------- --------- -- ------- ------ -<br>--------- ----- -----,156552.3999999985,156551.5,156203.108,156216.59999999776,156219.777,156553.222,,32,his
screen,html.Screen,0_4_1_0_1_33,2021-12-02T14:49:45.122Z,,,,,,,,,,,,,,,,15,,,,,,,,,,,,,,462.27799999999115,,response,,,7,D,,,,,Space,keypress(Space),,,,silence,---- --------- ---------- - --- ------- -- --- ------------<br>----- -- -------- ------- ---- ------ - -------- ---- -----<br>--- ------- ---- -- --- -------- --- - ----- ------ ---- --<br>-------- --- silence. -------- --- -------- ---- -- ----- -<br>-------- ---- --- ---------- --------- -- ------- ------ -<br>--------- ----- -----,157016.30000000075,157015.5,156536.552,156552.5,156553.222,157020.129,,33,silence.
screen,html.Screen,0_4_1_0_1_34,2021-12-02T14:49:45.482Z,,,,,,,,,,,,,,,,15,,,,,,,,,,,,,,355.37100000001374,,response,,,7,D,,,,,Space,keypress(Space),,,,silence,---- --------- ---------- - --- ------- -- --- ------------<br>----- -- -------- ------- ---- ------ - -------- ---- -----<br>--- ------- ---- -- --- -------- --- - ----- ------ ---- --<br>-------- --- -------- Anderson --- -------- ---- -- ----- -<br>-------- ---- --- ---------- --------- -- ------- ------ -<br>--------- ----- -----,157376.19999999925,157375.5,157003.457,157016.5,157020.129,157386.727,,34,Anderson
screen,html.Screen,0_4_1_0_1_35,2021-12-02T14:49:45.882Z,,,,,,,,,,,,,,,,15,,,,,,,,,,,,,,388.7729999999865,,response,,,7,D,,,,,Space,keypress(Space),,,,silence,---- --------- ---------- - --- ------- -- --- ------------<br>----- -- -------- ------- ---- ------ - -------- ---- -----<br>--- ------- ---- -- --- -------- --- - ----- ------ ---- --<br>-------- --- -------- -------- was -------- ---- -- ----- -<br>-------- ---- --- ---------- --------- -- ------- ------ -<br>--------- ----- -----,157776.19999999925,157775.5,157370.058,157376.5,157386.727,157786.868,,35,was
screen,html.Screen,0_4_1_0_1_36,2021-12-02T14:49:46.338Z,,,,,,,,,,,,,,,,15,,,,,,,,,,,,,,444.73199999777717,,response,,,7,D,,,,,Space,keypress(Space),,,,silence,---- --------- ---------- - --- ------- -- --- ------------<br>----- -- -------- ------- ---- ------ - -------- ---- -----<br>--- ------- ---- -- --- -------- --- - ----- ------ ---- --<br>-------- --- -------- -------- --- released ---- -- ----- -<br>-------- ---- --- ---------- --------- -- ------- ------ -<br>--------- ----- -----,158232.3999999985,158231.59999999776,157770.198,157776.5,157786.868,158237.129,,36,released
screen,html.Screen,0_4_1_0_1_37,2021-12-02T14:49:46.706Z,,,,,,,,,,,,,,,,15,,,,,,,,,,,,,,362.2709999985236,,response,,,7,D,,,,,Space,keypress(Space),,,,silence,---- --------- ---------- - --- ------- -- --- ------------<br>----- -- -------- ------- ---- ------ - -------- ---- -----<br>--- ------- ---- -- --- -------- --- - ----- ------ ---- --<br>-------- --- -------- -------- --- -------- July -- ----- -<br>-------- ---- --- ---------- --------- -- ------- ------ -<br>--------- ----- -----,158600.19999999925,158599.3999999985,158220.457,158232.59999999776,158237.129,158603.807,,37,July
screen,html.Screen,0_4_1_0_1_38,2021-12-02T14:49:47.034Z,,,,,,,,,,,,,,,,15,,,,,,,,,,,,,,323.6929999999993,,response,,,7,D,,,,,Space,keypress(Space),,,,silence,---- --------- ---------- - --- ------- -- --- ------------<br>----- -- -------- ------- ---- ------ - -------- ---- -----<br>--- ------- ---- -- --- -------- --- - ----- ------ ---- --<br>-------- --- -------- -------- --- -------- ---- 20 ----- -<br>-------- ---- --- ---------- --------- -- ------- ------ -<br>--------- ----- -----,158928.30000000075,158927.5,158587.137,158600.3999999985,158603.807,158937.141,,38,20
screen,html.Screen,0_4_1_0_1_39,2021-12-02T14:49:47.594Z,,,,,,,,,,,,,,,,15,,,,,,,,,,,,,,550.2589999985066,,response,,,7,D,,,,,Space,keypress(Space),,,,silence,---- --------- ---------- - --- ------- -- --- ------------<br>----- -- -------- ------- ---- ------ - -------- ---- -----<br>--- ------- ---- -- --- -------- --- - ----- ------ ---- --<br>-------- --- -------- -------- --- -------- ---- -- after -<br>-------- ---- --- ---------- --------- -- ------- ------ -<br>--------- ----- -----,159488.19999999925,159487.3999999985,158920.472,158928.59999999776,158937.141,159504.186,,39,after
screen,html.Screen,0_4_1_0_1_40,2021-12-02T14:49:48.010Z,,,,,,,,,,,,,,,,15,,,,,,,,,,,,,,399.2139999985229,,response,,,7,D,,,,,Space,keypress(Space),,,,silence,---- --------- ---------- - --- ------- -- --- ------------<br>----- -- -------- ------- ---- ------ - -------- ---- -----<br>--- ------- ---- -- --- -------- --- - ----- ------ ---- --<br>-------- --- -------- -------- --- -------- ---- -- ----- a<br>-------- ---- --- ---------- --------- -- ------- ------ -<br>--------- ----- -----,159904.19999999925,159903.3999999985,159487.513,159488.3999999985,159504.186,159920.828,,40,a
screen,html.Screen,0_4_1_0_1_41,2021-12-02T14:49:48.394Z,,,,,,,,,,,,,,,,15,,,,,,,,,,,,,,366.47200000073644,,response,,,7,D,,,,,Space,keypress(Space),,,,silence,---- --------- ---------- - --- ------- -- --- ------------<br>----- -- -------- ------- ---- ------ - -------- ---- -----<br>--- ------- ---- -- --- -------- --- - ----- ------ ---- --<br>-------- --- -------- -------- --- -------- ---- -- ----- -<br>two-week ---- --- ---------- --------- -- ------- ------ -<br>--------- ----- -----,160288.09999999776,160287.30000000075,159904.158,159904.5,159920.828,160304.253,,41,two-week
screen,html.Screen,0_4_1_0_1_42,2021-12-02T14:49:48.786Z,,,,,,,,,,,,,,,,15,,,,,,,,,,,,,,375.1469999985129,,response,,,7,D,,,,,Space,keypress(Space),,,,silence,---- --------- ---------- - --- ------- -- --- ------------<br>----- -- -------- ------- ---- ------ - -------- ---- -----<br>--- ------- ---- -- --- -------- --- - ----- ------ ---- --<br>-------- --- -------- -------- --- -------- ---- -- ----- -<br>-------- stay --- ---------- --------- -- ------- ------ -<br>--------- ----- -----,160680.09999999776,160679.3999999985,160287.583,160288.3999999985,160304.253,160687.682,,42,stay
screen,html.Screen,0_4_1_0_1_43,2021-12-02T14:49:49.186Z,,,,,,,,,,,,,,,,15,,,,,,,,,,,,,,391.7179999985092,,response,,,7,D,,,,,Space,keypress(Space),,,,silence,---- --------- ---------- - --- ------- -- --- ------------<br>----- -- -------- ------- ---- ------ - -------- ---- -----<br>--- ------- ---- -- --- -------- --- - ----- ------ ---- --<br>-------- --- -------- -------- --- -------- ---- -- ----- -<br>-------- ---- for ---------- --------- -- ------- ------ -<br>--------- ----- -----,161080.09999999776,161079.3999999985,160671.012,160680.3999999985,160687.682,161087.847,,43,for
screen,html.Screen,0_4_1_0_1_44,2021-12-02T14:49:49.602Z,,,,,,,,,,,,,,,,15,,,,,,,,,,,,,,407.4530000007362,,response,,,7,D,,,,,Space,keypress(Space),,,,silence,---- --------- ---------- - --- ------- -- --- ------------<br>----- -- -------- ------- ---- ------ - -------- ---- -----<br>--- ------- ---- -- --- -------- --- - ----- ------ ---- --<br>-------- --- -------- -------- --- -------- ---- -- ----- -<br>-------- ---- --- previously --------- -- ------- ------ -<br>--------- ----- -----,161496.09999999776,161495.30000000075,161071.176,161080.30000000075,161087.847,161504.561,,44,previously
screen,html.Screen,0_4_1_0_1_45,2021-12-02T14:49:49.978Z,,,,,,,,,,,,,,,,15,,,,,,,,,,,,,,366.7390000007581,,response,,,7,D,,,,,Space,keypress(Space),,,,silence,---- --------- ---------- - --- ------- -- --- ------------<br>----- -- -------- ------- ---- ------ - -------- ---- -----<br>--- ------- ---- -- --- -------- --- - ----- ------ ---- --<br>-------- --- -------- -------- --- -------- ---- -- ----- -<br>-------- ---- --- ---------- declining -- ------- ------ -<br>--------- ----- -----,161872,161871.30000000075,161487.891,161496.30000000075,161504.561,161888.048,,45,declining
screen,html.Screen,0_4_1_0_1_46,2021-12-02T14:49:50.314Z,,,,,,,,,,,,,,,,15,,,,,,,,,,,,,,319.15199999924516,,response,,,7,D,,,,,Space,keypress(Space),,,,silence,---- --------- ---------- - --- ------- -- --- ------------<br>----- -- -------- ------- ---- ------ - -------- ---- -----<br>--- ------- ---- -- --- -------- --- - ----- ------ ---- --<br>-------- --- -------- -------- --- -------- ---- -- ----- -<br>-------- ---- --- ---------- --------- to ------- ------ -<br>--------- ----- -----,162208,162207.19999999925,161871.377,161872.19999999925,161888.048,162221.475,,46,to
screen,html.Screen,0_4_1_0_1_47,2021-12-02T14:49:50.546Z,,,,,,,,,,,,,,,,15,,,,,,,,,,,,,,217.82500000073924,,response,,,7,D,,,,,Space,keypress(Space),,,,silence,---- --------- ---------- - --- ------- -- --- ------------<br>----- -- -------- ------- ---- ------ - -------- ---- -----<br>--- ------- ---- -- --- -------- --- - ----- ------ ---- --<br>-------- --- -------- -------- --- -------- ---- -- ----- -<br>-------- ---- --- ---------- --------- -- testify ------ -<br>--------- ----- -----,162440,162439.30000000075,162204.804,162208.19999999925,162221.475,162454.701,,47,testify
screen,html.Screen,0_4_1_0_1_48,2021-12-02T14:49:50.954Z,,,,,,,,,,,,,,,,15,,,,,,,,,,,,,,392.3989999977639,,response,,,7,D,,,,,Space,keypress(Space),,,,silence,---- --------- ---------- - --- ------- -- --- ------------<br>----- -- -------- ------- ---- ------ - -------- ---- -----<br>--- ------- ---- -- --- -------- --- - ----- ------ ---- --<br>-------- --- -------- -------- --- -------- ---- -- ----- -<br>-------- ---- --- ---------- --------- -- ------- before -<br>--------- ----- -----,162848,162847.09999999776,162438.033,162440.30000000075,162454.701,162855.051,,48,before
screen,html.Screen,0_4_1_0_1_49,2021-12-02T14:49:51.338Z,,,,,,,,,,,,,,,,15,,,,,,,,,,,,,,376.1489999992482,,response,,,7,D,,,,,Space,keypress(Space),,,,silence,---- --------- ---------- - --- ------- -- --- ------------<br>----- -- -------- ------- ---- ------ - -------- ---- -----<br>--- ------- ---- -- --- -------- --- - ----- ------ ---- --<br>-------- --- -------- -------- --- -------- ---- -- ----- -<br>-------- ---- --- ---------- --------- -- ------- ------ a<br>--------- ----- -----,163232,163231.19999999925,162838.378,162848.19999999925,162855.051,163238.187,,49,a
screen,html.Screen,0_4_1_0_1_50,2021-12-02T14:49:51.706Z,,,,,,,,,,,,,,,,15,,,,,,,,,,,,,,361.0129999992496,,response,,,7,D,,,,,Space,keypress(Space),,,,silence,---- --------- ---------- - --- ------- -- --- ------------<br>----- -- -------- ------- ---- ------ - -------- ---- -----<br>--- ------- ---- -- --- -------- --- - ----- ------ ---- --<br>-------- --- -------- -------- --- -------- ---- -- ----- -<br>-------- ---- --- ---------- --------- -- ------- ------ -<br>different ----- -----,163599.8999999985,163599.19999999925,163221.52,163232.19999999925,163238.187,163605.256,,50,different
screen,html.Screen,0_4_1_0_1_51,2021-12-02T14:49:52.098Z,,,,,,,,,,,,,,,,15,,,,,,,,,,,,,,386.3439999977709,,response,,,7,D,,,,,Space,keypress(Space),,,,silence,---- --------- ---------- - --- ------- -- --- ------------<br>----- -- -------- ------- ---- ------ - -------- ---- -----<br>--- ------- ---- -- --- -------- --- - ----- ------ ---- --<br>-------- --- -------- -------- --- -------- ---- -- ----- -<br>-------- ---- --- ---------- --------- -- ------- ------ -<br>--------- grand -----,163992.3999999985,163991.59999999776,163588.583,163600.19999999925,163605.256,164005.228,,51,grand
screen,html.Screen,0_4_1_0_1_52,2021-12-02T14:49:52.474Z,,,,,,,,,,,,,,,,15,,,,,,,,,,,,,,361.87199999776203,,response,,,7,D,,,,,Space,keypress(Space),,,,silence,---- --------- ---------- - --- ------- -- --- ------------<br>----- -- -------- ------- ---- ------ - -------- ---- -----<br>--- ------- ---- -- --- -------- --- - ----- ------ ---- --<br>-------- --- -------- -------- --- -------- ---- -- ----- -<br>-------- ---- --- ---------- --------- -- ------- ------ -<br>--------- ----- jury.,164367.8999999985,164367.09999999776,163988.558,163992.59999999776,164005.228,164371.922,,52,jury.
Item 7,flow.Loop,0_4_1_0_1,2021-12-02T14:49:52.474Z,,,,,,,,,,,,,,,,,,,,,,,,,,,,,,22201.06799999776,,completion,,,,,,,,,,,,,,,,164368.30000000075,164367.09999999776,142149.362,142151.5,142166.032,164371.922,,,
