sender,sender_type,sender_id,timestamp,meta,,Blues,Classical,Country,Dance,Electronic,Folk,Gospel,Hip-Hop,Jazz,Latin,Musical/Film,New-age,Pop,Provo_ID,R&B,Rap,Reggae,Religious,Rock,Soul,Swing,Traditional,age,artist_name,correct,correctResponse,distraction,duration,education,ended_on,familiarity,gender,item,list,music_frequency,offensiveness,pleasantness,preference,response,response_action,snippet_file,song_name,song_rating,sound,text,time_commit,time_end,time_render,time_run,time_show,time_switch,url,word,word_ID
Instructions,html.Page,0_0,2021-12-03T13:18:00.699Z,"{""labjs_version"":""20.2.3"",""labjs_build"":{""flavor"":""production"",""commit"":""7ea907d66ca8aeef8054924ca5d82ffbe11e34e5""},""location"":""https://run.pavlovia.org/mvasilev/lab_music_d/"",""userAgent"":""Mozilla/5.0 (Windows NT 6.1; Win64; x64) AppleWebKit/537.36 (KHTML, like Gecko) Chrome/96.0.4664.45 Safari/537.36"",""platform"":""Win32"",""language"":""en-US"",""locale"":""en-US"",""timeZone"":""Europe/London"",""timezoneOffset"":0,""screen_width"":1920,""screen_height"":1080,""scroll_width"":1920,""scroll_height"":959,""window_innerWidth"":1920,""window_innerHeight"":1007,""devicePixelRatio"":1}",,,,,,,,,,,,,,,,,,,,,,,,,,,,,32216.07299998808,,form submission,,,,,,,,,,,,,,,,43420.5,43419.69999998808,11186.962,11194.800000011921,11203.627,43421.033,{},,
Headphones,html.Page,0_1,2021-12-03T13:18:04.716Z,,,,,,,,,,,,,,,,,,,,,,,,,,,,,,4015.966999999997,,form submission,,,,,,,,,,,,,,,,47437.30000001192,47437,43404.323,43421,43421.033,47452.633,,,
Holding screen,html.Screen,0_2_0_0,2021-12-03T13:18:14.717Z,,,,,,,,,,,,,,,,,,,,,,,,,,,,,,9999.672999999995,,timeout,,,,,,,,,,,,,,,,57438.89999997616,57435.641,47435.968,47437.69999998808,47452.633,57452.306,,,
screen,html.Screen,0_2_0_1_0,2021-12-03T13:18:15.648Z,,,,,,,,,,,,,,,,53,,,,,,,,,,,,,,916.1940000000031,,response,,,99,,,,,,Space,keypress(Space),,,,,When -- ----- -- ------ - ------- --- ----------<br>------------- ------ ------ ---- ---- ------- ----- -- ----<br>-------- ------- -- ---------- --- - --- ----- ----- ----<br>---- --- --- ----- --- ---- ---- ------- ----- ---- -------<br>--- --- -- ----- -- --- ---- -- --- ---- -- ------ ------<br>--- ----- -- ----,58369.5,58368.5,57435.641,57439.10000002384,57452.306,58385.569,,0,When
screen,html.Screen,0_2_0_1_1,2021-12-03T13:18:16.592Z,,,,,,,,,,,,,,,,53,,,,,,,,,,,,,,926.9309999999969,,response,,,99,,,,,,Space,keypress(Space),,,,,---- it ----- -- ------ - ------- --- ----------<br>------------- ------ ------ ---- ---- ------- ----- -- ----<br>-------- ------- -- ---------- --- - --- ----- ----- ----<br>---- --- --- ----- --- ---- ---- ------- ----- ---- -------<br>--- --- -- ----- -- --- ---- -- --- ---- -- ------ ------<br>--- ----- -- ----,59313.19999998808,59312.5,58368.904,58369.80000001192,58385.569,59319.035,,1,it
screen,html.Screen,0_2_0_1_2,2021-12-03T13:18:17.482Z,,,,,,,,,,,,,,,,53,,,,,,,,,,,,,,881.3649999761546,,response,,,99,,,,,,Space,keypress(Space),,,,,---- -- comes -- ------ - ------- --- ----------<br>------------- ------ ------ ---- ---- ------- ----- -- ----<br>-------- ------- -- ---------- --- - --- ----- ----- ----<br>---- --- --- ----- --- ---- ---- ------- ----- ---- -------<br>--- --- -- ----- -- --- ---- -- --- ---- -- ------ ------<br>--- ----- -- ----,60201.10000002384,60200.39999997616,59302.369,59313.39999997616,59319.035,60202.215,,2,comes
screen,html.Screen,0_2_0_1_3,2021-12-03T13:18:18.170Z,,,,,,,,,,,,,,,,53,,,,,,,,,,,,,,686.1849999761616,,response,,,99,,,,,,Space,keypress(Space),,,,,---- -- ----- to ------ - ------- --- ----------<br>------------- ------ ------ ---- ---- ------- ----- -- ----<br>-------- ------- -- ---------- --- - --- ----- ----- ----<br>---- --- --- ----- --- ---- ---- ------- ----- ---- -------<br>--- --- -- ----- -- --- ---- -- --- ---- -- ------ ------<br>--- ----- -- ----,60889.10000002384,60888.39999997616,60185.55,60201.39999997616,60202.215,60902.213,,3,to
screen,html.Screen,0_2_0_1_4,2021-12-03T13:18:18.850Z,,,,,,,,,,,,,,,,53,,,,,,,,,,,,,,666.1869999761548,,response,,,99,,,,,,Space,keypress(Space),,,,,---- -- ----- -- having - ------- --- ----------<br>------------- ------ ------ ---- ---- ------- ----- -- ----<br>-------- ------- -- ---------- --- - --- ----- ----- ----<br>---- --- --- ----- --- ---- ---- ------- ----- ---- -------<br>--- --- -- ----- -- --- ---- -- --- ---- -- ------ ------<br>--- ----- -- ----,61569.30000001192,61568.39999997616,60885.548,60889.5,60902.213,61585.589,,4,having
screen,html.Screen,0_2_0_1_5,2021-12-03T13:18:19.378Z,,,,,,,,,,,,,,,,53,,,,,,,,,,,,,,510.711000011921,,response,,,99,,,,,,Space,keypress(Space),,,,,---- -- ----- -- ------ a ------- --- ----------<br>------------- ------ ------ ---- ---- ------- ----- -- ----<br>-------- ------- -- ---------- --- - --- ----- ----- ----<br>---- --- --- ----- --- ---- ---- ------- ----- ---- -------<br>--- --- -- ----- -- --- ---- -- --- ---- -- ------ ------<br>--- ----- -- ----,62097,62096.30000001192,61568.923,61569.5,61585.589,62102.164,,5,a
screen,html.Screen,0_2_0_1_6,2021-12-03T13:18:20.194Z,,,,,,,,,,,,,,,,53,,,,,,,,,,,,,,810.1360000119239,,response,,,99,,,,,,Space,keypress(Space),,,,,---- -- ----- -- ------ - lasting --- ----------<br>------------- ------ ------ ---- ---- ------- ----- -- ----<br>-------- ------- -- ---------- --- - --- ----- ----- ----<br>---- --- --- ----- --- ---- ---- ------- ----- ---- -------<br>--- --- -- ----- -- --- ---- -- --- ---- -- ------ ------<br>--- ----- -- ----,62913.10000002384,62912.30000001192,62085.499,62097.39999997616,62102.164,62918.793,,6,lasting
screen,html.Screen,0_2_0_1_7,2021-12-03T13:18:20.842Z,,,,,,,,,,,,,,,,53,,,,,,,,,,,,,,641.5070000119231,,response,,,99,,,,,,Space,keypress(Space),,,,,---- -- ----- -- ------ - ------- and ----------<br>------------- ------ ------ ---- ---- ------- ----- -- ----<br>-------- ------- -- ---------- --- - --- ----- ----- ----<br>---- --- --- ----- --- ---- ---- ------- ----- ---- -------<br>--- --- -- ----- -- --- ---- -- --- ---- -- ------ ------<br>--- ----- -- ----,63561.10000002384,63560.30000001192,62902.128,62913.30000001192,62918.793,63568.833,,7,and
screen,html.Screen,0_2_0_1_8,2021-12-03T13:18:21.514Z,,,,,,,,,,,,,,,,53,,,,,,,,,,,,,,663.4670000119222,,response,,,99,,,,,,Space,keypress(Space),,,,,---- -- ----- -- ------ - ------- --- fulfilling<br>------------- ------ ------ ---- ---- ------- ----- -- ----<br>-------- ------- -- ---------- --- - --- ----- ----- ----<br>---- --- --- ----- --- ---- ---- ------- ----- ---- -------<br>--- --- -- ----- -- --- ---- -- --- ---- -- ------ ------<br>--- ----- -- ----,64233.10000002384,64232.30000001192,63552.167,63561.19999998808,63568.833,64235.511,,8,fulfilling
screen,html.Screen,0_2_0_1_9,2021-12-03T13:18:22.314Z,,,,,,,,,,,,,,,,53,,,,,,,,,,,,,,796.9890000000014,,response,,,99,,,,,,Space,keypress(Space),,,,,"---- -- ----- -- ------ - ------- --- ----------<br>relationship, ------ ------ ---- ---- ------- ----- -- ----<br>-------- ------- -- ---------- --- - --- ----- ----- ----<br>---- --- --- ----- --- ---- ---- ------- ----- ---- -------<br>--- --- -- ----- -- --- ---- -- --- ---- -- ------ ------<br>--- ----- -- ----",65033.19999998808,65032.5,64218.845,64233.39999997616,64235.511,65035.405,,9,"relationship,"
screen,html.Screen,0_2_0_1_10,2021-12-03T13:18:23.194Z,,,,,,,,,,,,,,,,53,,,,,,,,,,,,,,876.8950000119221,,response,,,99,,,,,,Space,keypress(Space),,,,,---- -- ----- -- ------ - ------- --- ----------<br>------------- common ------ ---- ---- ------- ----- -- ----<br>-------- ------- -- ---------- --- - --- ----- ----- ----<br>---- --- --- ----- --- ---- ---- ------- ----- ---- -------<br>--- --- -- ----- -- --- ---- -- --- ---- -- ------ ------<br>--- ----- -- ----,65913,65912.30000001192,65018.74,65033.39999997616,65035.405,65918.691,,10,common
screen,html.Screen,0_2_0_1_11,2021-12-03T13:18:24.258Z,,,,,,,,,,,,,,,,53,,,,,,,,,,,,,,1057.508999988073,,response,,,99,,,,,,Space,keypress(Space),,,,,---- -- ----- -- ------ - ------- --- ----------<br>------------- ------ wisdom ---- ---- ------- ----- -- ----<br>-------- ------- -- ---------- --- - --- ----- ----- ----<br>---- --- --- ----- --- ---- ---- ------- ----- ---- -------<br>--- --- -- ----- -- --- ---- -- --- ---- -- ------ ------<br>--- ----- -- ----,66976.89999997616,66976.19999998808,65902.026,65913.10000002384,65918.691,66985.304,,11,wisdom
screen,html.Screen,0_2_0_1_12,2021-12-03T13:18:24.849Z,,,,,,,,,,,,,,,,53,,,,,,,,,,,,,,582.8959999880753,,response,,,99,,,,,,Space,keypress(Space),,,,,---- -- ----- -- ------ - ------- --- ----------<br>------------- ------ ------ says ---- ------- ----- -- ----<br>-------- ------- -- ---------- --- - --- ----- ----- ----<br>---- --- --- ----- --- ---- ---- ------- ----- ---- -------<br>--- --- -- ----- -- --- ---- -- --- ---- -- ------ ------<br>--- ----- -- ----,67568.80000001192,67568.19999998808,66968.639,66977.10000002384,66985.304,67585.373,,12,says
screen,html.Screen,0_2_0_1_13,2021-12-03T13:18:25.569Z,,,,,,,,,,,,,,,,53,,,,,,,,,,,,,,702.727000023835,,response,,,99,,,,,,Space,keypress(Space),,,,,---- -- ----- -- ------ - ------- --- ----------<br>------------- ------ ------ ---- that ------- ----- -- ----<br>-------- ------- -- ---------- --- - --- ----- ----- ----<br>---- --- --- ----- --- ---- ---- ------- ----- ---- -------<br>--- --- -- ----- -- --- ---- -- --- ---- -- ------ ------<br>--- ----- -- ----,68288.80000001192,68288.10000002384,67568.707,67569,67585.373,68301.924,,13,that
screen,html.Screen,0_2_0_1_14,2021-12-03T13:18:26.225Z,,,,,,,,,,,,,,,,53,,,,,,,,,,,,,,642.1760000238428,,response,,,99,,,,,,Space,keypress(Space),,,,,---- -- ----- -- ------ - ------- --- ----------<br>------------- ------ ------ ---- ---- feeling ----- -- ----<br>-------- ------- -- ---------- --- - --- ----- ----- ----<br>---- --- --- ----- --- ---- ---- ------- ----- ---- -------<br>--- --- -- ----- -- --- ---- -- --- ---- -- ------ ------<br>--- ----- -- ----,68944.69999998808,68944.10000002384,68285.259,68288.89999997616,68301.924,68951.889,,14,feeling
screen,html.Screen,0_2_0_1_15,2021-12-03T13:18:26.769Z,,,,,,,,,,,,,,,,53,,,,,,,,,,,,,,536.2110000238463,,response,,,99,,,,,,Space,keypress(Space),,,,,---- -- ----- -- ------ - ------- --- ----------<br>------------- ------ ------ ---- ---- ------- close -- ----<br>-------- ------- -- ---------- --- - --- ----- ----- ----<br>---- --- --- ----- --- ---- ---- ------- ----- ---- -------<br>--- --- -- ----- -- --- ---- -- --- ---- -- ------ ------<br>--- ----- -- ----,69488.69999998808,69488.10000002384,68935.224,68945,68951.889,69501.945,,15,close
screen,html.Screen,0_2_0_1_16,2021-12-03T13:18:27.169Z,,,,,,,,,,,,,,,,53,,,,,,,,,,,,,,386.054999999993,,response,,,99,,,,,,Space,keypress(Space),,,,,---- -- ----- -- ------ - ------- --- ----------<br>------------- ------ ------ ---- ---- ------- ----- to ----<br>-------- ------- -- ---------- --- - --- ----- ----- ----<br>---- --- --- ----- --- ---- ---- ------- ----- ---- -------<br>--- --- -- ----- -- --- ---- -- --- ---- -- ------ ------<br>--- ----- -- ----,69888.69999998808,69888,69485.279,69488.89999997616,69501.945,69901.96,,16,to
screen,html.Screen,0_2_0_1_17,2021-12-03T13:18:27.753Z,,,,,,,,,,,,,,,,53,,,,,,,,,,,,,,570.1400000238355,,response,,,99,,,,,,Space,keypress(Space),,,,,---- -- ----- -- ------ - ------- --- ----------<br>------------- ------ ------ ---- ---- ------- ----- -- your<br>-------- ------- -- ---------- --- - --- ----- ----- ----<br>---- --- --- ----- --- ---- ---- ------- ----- ---- -------<br>--- --- -- ----- -- --- ---- -- --- ---- -- ------ ------<br>--- ----- -- ----,70472.69999998808,70472.10000002384,69885.294,69888.80000001192,69901.96,70485.186,,17,your
screen,html.Screen,0_2_0_1_18,2021-12-03T13:18:28.433Z,,,,,,,,,,,,,,,,53,,,,,,,,,,,,,,666.8139999999985,,response,,,99,,,,,,Space,keypress(Space),,,,,---- -- ----- -- ------ - ------- --- ----------<br>------------- ------ ------ ---- ---- ------- ----- -- ----<br>romantic ------- -- ---------- --- - --- ----- ----- ----<br>---- --- --- ----- --- ---- ---- ------- ----- ---- -------<br>--- --- -- ----- -- --- ---- -- --- ---- -- ------ ------<br>--- ----- -- ----,71152.60000002384,71152,70468.521,70472.89999997616,70485.186,71168.499,,18,romantic
screen,html.Screen,0_2_0_1_19,2021-12-03T13:18:29.017Z,,,,,,,,,,,,,,,,53,,,,,,,,,,,,,,567.6010000238457,,response,,,99,,,,,,Space,keypress(Space),,,,,---- -- ----- -- ------ - ------- --- ----------<br>------------- ------ ------ ---- ---- ------- ----- -- ----<br>-------- partner -- ---------- --- - --- ----- ----- ----<br>---- --- --- ----- --- ---- ---- ------- ----- ---- -------<br>--- --- -- ----- -- --- ---- -- --- ---- -- ------ ------<br>--- ----- -- ----,71736.69999998808,71736.10000002384,71151.834,71152.80000001192,71168.499,71751.902,,19,partner
screen,html.Screen,0_2_0_1_20,2021-12-03T13:18:29.481Z,,,,,,,,,,,,,,,,53,,,,,,,,,,,,,,448.09799999999814,,response,,,99,,,,,,Space,keypress(Space),,,,,---- -- ----- -- ------ - ------- --- ----------<br>------------- ------ ------ ---- ---- ------- ----- -- ----<br>-------- ------- is ---------- --- - --- ----- ----- ----<br>---- --- --- ----- --- ---- ---- ------- ----- ---- -------<br>--- --- -- ----- -- --- ---- -- --- ---- -- ------ ------<br>--- ----- -- ----,72200.5,72200,71735.236,71736.89999997616,71751.902,72201.827,,20,is
screen,html.Screen,0_2_0_1_21,2021-12-03T13:18:30.265Z,,,,,,,,,,,,,,,,53,,,,,,,,,,,,,,782.1729999999952,,response,,,99,,,,,,Space,keypress(Space),,,,,---- -- ----- -- ------ - ------- --- ----------<br>------------- ------ ------ ---- ---- ------- ----- -- ----<br>-------- ------- -- paramount. --- - --- ----- ----- ----<br>---- --- --- ----- --- ---- ---- ------- ----- ---- -------<br>--- --- -- ----- -- --- ---- -- --- ---- -- ------ ------<br>--- ----- -- ----,72984.60000002384,72984,72185.162,72200.69999998808,72201.827,73001.836,,21,paramount.
screen,html.Screen,0_2_0_1_22,2021-12-03T13:18:30.825Z,,,,,,,,,,,,,,,,53,,,,,,,,,,,,,,542.0639999761624,,response,,,99,,,,,,Space,keypress(Space),,,,,---- -- ----- -- ------ - ------- --- ----------<br>------------- ------ ------ ---- ---- ------- ----- -- ----<br>-------- ------- -- ---------- But - --- ----- ----- ----<br>---- --- --- ----- --- ---- ---- ------- ----- ---- -------<br>--- --- -- ----- -- --- ---- -- --- ---- -- ------ ------<br>--- ----- -- ----,73544.5,73543.89999997616,72985.17,72984.89999997616,73001.836,73551.646,,22,But
screen,html.Screen,0_2_0_1_23,2021-12-03T13:18:31.297Z,,,,,,,,,,,,,,,,53,,,,,,,,,,,,,,464.35400000000664,,response,,,99,,,,,,Space,keypress(Space),,,,,---- -- ----- -- ------ - ------- --- ----------<br>------------- ------ ------ ---- ---- ------- ----- -- ----<br>-------- ------- -- ---------- --- a --- ----- ----- ----<br>---- --- --- ----- --- ---- ---- ------- ----- ---- -------<br>--- --- -- ----- -- --- ---- -- --- ---- -- ------ ------<br>--- ----- -- ----,74016.60000002384,74016,73534.982,73544.69999998808,73551.646,74018.493,,23,a
screen,html.Screen,0_2_0_1_24,2021-12-03T13:18:31.937Z,,,,,,,,,,,,,,,,53,,,,,,,,,,,,,,637.4069999761559,,response,,,99,,,,,,Space,keypress(Space),,,,,---- -- ----- -- ------ - ------- --- ----------<br>------------- ------ ------ ---- ---- ------- ----- -- ----<br>-------- ------- -- ---------- --- - new ----- ----- ----<br>---- --- --- ----- --- ---- ---- ------- ----- ---- -------<br>--- --- -- ----- -- --- ---- -- --- ---- -- ------ ------<br>--- ----- -- ----,74656.39999997616,74655.89999997616,74001.827,74016.69999998808,74018.493,74668.395,,24,new
screen,html.Screen,0_2_0_1_25,2021-12-03T13:18:32.401Z,,,,,,,,,,,,,,,,53,,,,,,,,,,,,,,451.6049999999959,,response,,,99,,,,,,Space,keypress(Space),,,,,---- -- ----- -- ------ - ------- --- ----------<br>------------- ------ ------ ---- ---- ------- ----- -- ----<br>-------- ------- -- ---------- --- - --- study ----- ----<br>---- --- --- ----- --- ---- ---- ------- ----- ---- -------<br>--- --- -- ----- -- --- ---- -- --- ---- -- ------ ------<br>--- ----- -- ----,75120.60000002384,75120,74651.73,74656.60000002384,74668.395,75134.876,,25,study
screen,html.Screen,0_2_0_1_26,2021-12-03T13:18:32.809Z,,,,,,,,,,,,,,,,53,,,,,,,,,,,,,,393.0239999761543,,response,,,99,,,,,,Space,keypress(Space),,,,,---- -- ----- -- ------ - ------- --- ----------<br>------------- ------ ------ ---- ---- ------- ----- -- ----<br>-------- ------- -- ---------- --- - --- ----- finds ----<br>---- --- --- ----- --- ---- ---- ------- ----- ---- -------<br>--- --- -- ----- -- --- ---- -- --- ---- -- ------ ------<br>--- ----- -- ----,75528.5,75527.89999997616,75118.213,75120.80000001192,75134.876,75535.114,,26,finds
screen,html.Screen,0_2_0_1_27,2021-12-03T13:18:33.361Z,,,,,,,,,,,,,,,,53,,,,,,,,,,,,,,544.6860000119195,,response,,,99,,,,,,Space,keypress(Space),,,,,---- -- ----- -- ------ - ------- --- ----------<br>------------- ------ ------ ---- ---- ------- ----- -- ----<br>-------- ------- -- ---------- --- - --- ----- ----- that<br>---- --- --- ----- --- ---- ---- ------- ----- ---- -------<br>--- --- -- ----- -- --- ---- -- --- ---- -- ------ ------<br>--- ----- -- ----,76080.39999997616,76079.80000001192,75518.447,75528.60000002384,75535.114,76085.067,,27,that
screen,html.Screen,0_2_0_1_28,2021-12-03T13:18:33.825Z,,,,,,,,,,,,,,,,53,,,,,,,,,,,,,,458.73300001192547,,response,,,99,,,,,,Space,keypress(Space),,,,,---- -- ----- -- ------ - ------- --- ----------<br>------------- ------ ------ ---- ---- ------- ----- -- ----<br>-------- ------- -- ---------- --- - --- ----- ----- ----<br>it's --- --- ----- --- ---- ---- ------- ----- ---- -------<br>--- --- -- ----- -- --- ---- -- --- ---- -- ------ ------<br>--- ----- -- ----,76544.39999997616,76543.80000001192,76068.401,76080.60000002384,76085.067,76551.673,,28,it's
screen,html.Screen,0_2_0_1_29,2021-12-03T13:18:34.273Z,,,,,,,,,,,,,,,,53,,,,,,,,,,,,,,440.1270000119257,,response,,,99,,,,,,Space,keypress(Space),,,,,---- -- ----- -- ------ - ------- --- ----------<br>------------- ------ ------ ---- ---- ------- ----- -- ----<br>-------- ------- -- ---------- --- - --- ----- ----- ----<br>---- not --- ----- --- ---- ---- ------- ----- ---- -------<br>--- --- -- ----- -- --- ---- -- --- ---- -- ------ ------<br>--- ----- -- ----,76992.5,76991.80000001192,76535.008,76544.60000002384,76551.673,77001.621,,29,not
screen,html.Screen,0_2_0_1_30,2021-12-03T13:18:34.697Z,,,,,,,,,,,,,,,,53,,,,,,,,,,,,,,414.0789999880799,,response,,,99,,,,,,Space,keypress(Space),,,,,---- -- ----- -- ------ - ------- --- ----------<br>------------- ------ ------ ---- ---- ------- ----- -- ----<br>-------- ------- -- ---------- --- - --- ----- ----- ----<br>---- --- how ----- --- ---- ---- ------- ----- ---- -------<br>--- --- -- ----- -- --- ---- -- --- ---- -- ------ ------<br>--- ----- -- ----,77416.30000001192,77415.69999998808,76984.956,76992.69999998808,77001.621,77418.287,,30,how
screen,html.Screen,0_2_0_1_31,2021-12-03T13:18:35.153Z,,,,,,,,,,,,,,,,53,,,,,,,,,,,,,,453.5130000119243,,response,,,99,,,,,,Space,keypress(Space),,,,,---- -- ----- -- ------ - ------- --- ----------<br>------------- ------ ------ ---- ---- ------- ----- -- ----<br>-------- ------- -- ---------- --- - --- ----- ----- ----<br>---- --- --- close --- ---- ---- ------- ----- ---- -------<br>--- --- -- ----- -- --- ---- -- --- ---- -- ------ ------<br>--- ----- -- ----,77872.39999997616,77871.80000001192,77401.622,77416.5,77418.287,77884.991,,31,close
screen,html.Screen,0_2_0_1_32,2021-12-03T13:18:35.561Z,,,,,,,,,,,,,,,,53,,,,,,,,,,,,,,394.60900002384733,,response,,,99,,,,,,Space,keypress(Space),,,,,---- -- ----- -- ------ - ------- --- ----------<br>------------- ------ ------ ---- ---- ------- ----- -- ----<br>-------- ------- -- ---------- --- - --- ----- ----- ----<br>---- --- --- ----- you ---- ---- ------- ----- ---- -------<br>--- --- -- ----- -- --- ---- -- --- ---- -- ------ ------<br>--- ----- -- ----,78280,78279.60000002384,77868.325,77872.5,77884.991,78284.989,,32,you
screen,html.Screen,0_2_0_1_33,2021-12-03T13:18:35.961Z,,,,,,,,,,,,,,,,53,,,,,,,,,,,,,,394.5109999999986,,response,,,99,,,,,,Space,keypress(Space),,,,,---- -- ----- -- ------ - ------- --- ----------<br>------------- ------ ------ ---- ---- ------- ----- -- ----<br>-------- ------- -- ---------- --- - --- ----- ----- ----<br>---- --- --- ----- --- feel ---- ------- ----- ---- -------<br>--- --- -- ----- -- --- ---- -- --- ---- -- ------ ------<br>--- ----- -- ----,78680,78679.5,78268.323,78280,78284.989,78684.902,,33,feel
screen,html.Screen,0_2_0_1_34,2021-12-03T13:18:36.409Z,,,,,,,,,,,,,,,,53,,,,,,,,,,,,,,442.89800001191907,,response,,,99,,,,,,Space,keypress(Space),,,,,---- -- ----- -- ------ - ------- --- ----------<br>------------- ------ ------ ---- ---- ------- ----- -- ----<br>-------- ------- -- ---------- --- - --- ----- ----- ----<br>---- --- --- ----- --- ---- that ------- ----- ---- -------<br>--- --- -- ----- -- --- ---- -- --- ---- -- ------ ------<br>--- ----- -- ----,79128.39999997616,79127.80000001192,78668.237,78680,78684.902,79134.826,,34,that
screen,html.Screen,0_2_0_1_35,2021-12-03T13:18:36.913Z,,,,,,,,,,,,,,,,53,,,,,,,,,,,,,,496.87399998807814,,response,,,99,,,,,,Space,keypress(Space),,,,,---- -- ----- -- ------ - ------- --- ----------<br>------------- ------ ------ ---- ---- ------- ----- -- ----<br>-------- ------- -- ---------- --- - --- ----- ----- ----<br>---- --- --- ----- --- ---- ---- matters ----- ---- -------<br>--- --- -- ----- -- --- ---- -- --- ---- -- ------ ------<br>--- ----- -- ----,79632.39999997616,79631.69999998808,79118.162,79128.5,79134.826,79634.851,,35,matters
screen,html.Screen,0_2_0_1_36,2021-12-03T13:18:37.361Z,,,,,,,,,,,,,,,,53,,,,,,,,,,,,,,444.84899998808396,,response,,,99,,,,,,Space,keypress(Space),,,,,"---- -- ----- -- ------ - ------- --- ----------<br>------------- ------ ------ ---- ---- ------- ----- -- ----<br>-------- ------- -- ---------- --- - --- ----- ----- ----<br>---- --- --- ----- --- ---- ---- ------- most, ---- -------<br>--- --- -- ----- -- --- ---- -- --- ---- -- ------ ------<br>--- ----- -- ----",80080.30000001192,80079.69999998808,79618.186,79632.60000002384,79634.851,80084.914,,36,"most,"
screen,html.Screen,0_2_0_1_37,2021-12-03T13:18:38.353Z,,,,,,,,,,,,,,,,53,,,,,,,,,,,,,,986.7859999880748,,response,,,99,,,,,,Space,keypress(Space),,,,,---- -- ----- -- ------ - ------- --- ----------<br>------------- ------ ------ ---- ---- ------- ----- -- ----<br>-------- ------- -- ---------- --- - --- ----- ----- ----<br>---- --- --- ----- --- ---- ---- ------- ----- it's -------<br>--- --- -- ----- -- --- ---- -- --- ---- -- ------ ------<br>--- ----- -- ----,81072.30000001192,81071.69999998808,80068.248,80080.5,80084.914,81084.86,,37,it's
screen,html.Screen,0_2_0_1_38,2021-12-03T13:18:39.025Z,,,,,,,,,,,,,,,,53,,,,,,,,,,,,,,658.7400000238413,,response,,,99,,,,,,Space,keypress(Space),,,,,---- -- ----- -- ------ - ------- --- ----------<br>------------- ------ ------ ---- ---- ------- ----- -- ----<br>-------- ------- -- ---------- --- - --- ----- ----- ----<br>---- --- --- ----- --- ---- ---- ------- ----- ---- whether<br>--- --- -- ----- -- --- ---- -- --- ---- -- ------ ------<br>--- ----- -- ----,81744.19999998808,81743.60000002384,81068.194,81072.5,81084.86,81751.394,,38,whether
screen,html.Screen,0_2_0_1_39,2021-12-03T13:18:39.473Z,,,,,,,,,,,,,,,,53,,,,,,,,,,,,,,440.10599999999977,,response,,,99,,,,,,Space,keypress(Space),,,,,---- -- ----- -- ------ - ------- --- ----------<br>------------- ------ ------ ---- ---- ------- ----- -- ----<br>-------- ------- -- ---------- --- - --- ----- ----- ----<br>---- --- --- ----- --- ---- ---- ------- ----- ---- -------<br>you --- -- ----- -- --- ---- -- --- ---- -- ------ ------<br>--- ----- -- ----,82192.10000002384,82191.5,81734.729,81744.39999997616,81751.394,82201.431,,39,you
screen,html.Screen,0_2_0_1_40,2021-12-03T13:18:39.945Z,,,,,,,,,,,,,,,,53,,,,,,,,,,,,,,462.169000023845,,response,,,99,,,,,,Space,keypress(Space),,,,,---- -- ----- -- ------ - ------- --- ----------<br>------------- ------ ------ ---- ---- ------- ----- -- ----<br>-------- ------- -- ---------- --- - --- ----- ----- ----<br>---- --- --- ----- --- ---- ---- ------- ----- ---- -------<br>--- are -- ----- -- --- ---- -- --- ---- -- ------ ------<br>--- ----- -- ----,82664.19999998808,82663.60000002384,82184.766,82192.30000001192,82201.431,82668.15,,40,are
screen,html.Screen,0_2_0_1_41,2021-12-03T13:18:40.433Z,,,,,,,,,,,,,,,,53,,,,,,,,,,,,,,483.3500000000058,,response,,,99,,,,,,Space,keypress(Space),,,,,---- -- ----- -- ------ - ------- --- ----------<br>------------- ------ ------ ---- ---- ------- ----- -- ----<br>-------- ------- -- ---------- --- - --- ----- ----- ----<br>---- --- --- ----- --- ---- ---- ------- ----- ---- -------<br>--- --- as ----- -- --- ---- -- --- ---- -- ------ ------<br>--- ----- -- ----,83152.10000002384,83151.5,82651.484,82664.30000001192,82668.15,83168.052,,41,as
screen,html.Screen,0_2_0_1_42,2021-12-03T13:18:40.897Z,,,,,,,,,,,,,,,,53,,,,,,,,,,,,,,447.5480000238458,,response,,,99,,,,,,Space,keypress(Space),,,,,---- -- ----- -- ------ - ------- --- ----------<br>------------- ------ ------ ---- ---- ------- ----- -- ----<br>-------- ------- -- ---------- --- - --- ----- ----- ----<br>---- --- --- ----- --- ---- ---- ------- ----- ---- -------<br>--- --- -- close -- --- ---- -- --- ---- -- ------ ------<br>--- ----- -- ----,83616.19999998808,83615.60000002384,83151.387,83152.19999998808,83168.052,83618.115,,42,close
screen,html.Screen,0_2_0_1_43,2021-12-03T13:18:41.329Z,,,,,,,,,,,,,,,,53,,,,,,,,,,,,,,429.38499999999476,,response,,,99,,,,,,Space,keypress(Space),,,,,---- -- ----- -- ------ - ------- --- ----------<br>------------- ------ ------ ---- ---- ------- ----- -- ----<br>-------- ------- -- ---------- --- - --- ----- ----- ----<br>---- --- --- ----- --- ---- ---- ------- ----- ---- -------<br>--- --- -- ----- as --- ---- -- --- ---- -- ------ ------<br>--- ----- -- ----,84048,84047.5,83601.449,83616.39999997616,83618.115,84051.443,,43,as
screen,html.Screen,0_2_0_1_44,2021-12-03T13:18:41.793Z,,,,,,,,,,,,,,,,53,,,,,,,,,,,,,,460.0570000000007,,response,,,99,,,,,,Space,keypress(Space),,,,,---- -- ----- -- ------ - ------- --- ----------<br>------------- ------ ------ ---- ---- ------- ----- -- ----<br>-------- ------- -- ---------- --- - --- ----- ----- ----<br>---- --- --- ----- --- ---- ---- ------- ----- ---- -------<br>--- --- -- ----- -- you ---- -- --- ---- -- ------ ------<br>--- ----- -- ----,84512.19999998808,84511.5,84034.777,84048.19999998808,84051.443,84518.032,,44,you
screen,html.Screen,0_2_0_1_45,2021-12-03T13:18:42.305Z,,,,,,,,,,,,,,,,53,,,,,,,,,,,,,,505.4679999999935,,response,,,99,,,,,,Space,keypress(Space),,,,,---- -- ----- -- ------ - ------- --- ----------<br>------------- ------ ------ ---- ---- ------- ----- -- ----<br>-------- ------- -- ---------- --- - --- ----- ----- ----<br>---- --- --- ----- --- ---- ---- ------- ----- ---- -------<br>--- --- -- ----- -- --- want -- --- ---- -- ------ ------<br>--- ----- -- ----,85024.10000002384,85023.5,84501.367,84512.39999997616,84518.032,85034.683,,45,want
screen,html.Screen,0_2_0_1_46,2021-12-03T13:18:42.761Z,,,,,,,,,,,,,,,,53,,,,,,,,,,,,,,445.1170000119164,,response,,,99,,,,,,Space,keypress(Space),,,,,---- -- ----- -- ------ - ------- --- ----------<br>------------- ------ ------ ---- ---- ------- ----- -- ----<br>-------- ------- -- ---------- --- - --- ----- ----- ----<br>---- --- --- ----- --- ---- ---- ------- ----- ---- -------<br>--- --- -- ----- -- --- ---- to --- ---- -- ------ ------<br>--- ----- -- ----,85480.30000001192,85479.80000001192,85018.018,85024.30000001192,85034.683,85484.565,,46,to
screen,html.Screen,0_2_0_1_47,2021-12-03T13:18:43.177Z,,,,,,,,,,,,,,,,53,,,,,,,,,,,,,,410.9349999999977,,response,,,99,,,,,,Space,keypress(Space),,,,,"---- -- ----- -- ------ - ------- --- ----------<br>------------- ------ ------ ---- ---- ------- ----- -- ----<br>-------- ------- -- ---------- --- - --- ----- ----- ----<br>---- --- --- ----- --- ---- ---- ------- ----- ---- -------<br>--- --- -- ----- -- --- ---- -- be, ---- -- ------ ------<br>--- ----- -- ----",85896,85895.5,85467.901,85480.5,85484.565,85901.411,,47,"be,"
screen,html.Screen,0_2_0_1_48,2021-12-03T13:18:43.625Z,,,,,,,,,,,,,,,,53,,,,,,,,,,,,,,441.98899997616536,,response,,,99,,,,,,Space,keypress(Space),,,,,---- -- ----- -- ------ - ------- --- ----------<br>------------- ------ ------ ---- ---- ------- ----- -- ----<br>-------- ------- -- ---------- --- - --- ----- ----- ----<br>---- --- --- ----- --- ---- ---- ------- ----- ---- -------<br>--- --- -- ----- -- --- ---- -- --- even -- ------ ------<br>--- ----- -- ----,86344.10000002384,86343.39999997616,85884.744,85896.19999998808,85901.411,86351.345,,48,even
screen,html.Screen,0_2_0_1_49,2021-12-03T13:18:44.009Z,,,,,,,,,,,,,,,,53,,,,,,,,,,,,,,376.054999976157,,response,,,99,,,,,,Space,keypress(Space),,,,,---- -- ----- -- ------ - ------- --- ----------<br>------------- ------ ------ ---- ---- ------- ----- -- ----<br>-------- ------- -- ---------- --- - --- ----- ----- ----<br>---- --- --- ----- --- ---- ---- ------- ----- ---- -------<br>--- --- -- ----- -- --- ---- -- --- ---- if ------ ------<br>--- ----- -- ----,86728,86727.39999997616,86334.679,86344.19999998808,86351.345,86734.564,,49,if
screen,html.Screen,0_2_0_1_50,2021-12-03T13:18:44.393Z,,,,,,,,,,,,,,,,53,,,,,,,,,,,,,,376.83599997615966,,response,,,99,,,,,,Space,keypress(Space),,,,,---- -- ----- -- ------ - ------- --- ----------<br>------------- ------ ------ ---- ---- ------- ----- -- ----<br>-------- ------- -- ---------- --- - --- ----- ----- ----<br>---- --- --- ----- --- ---- ---- ------- ----- ---- -------<br>--- --- -- ----- -- --- ---- -- --- ---- -- that's ------<br>--- ----- -- ----,87112,87111.39999997616,86717.9,86728.19999998808,86734.564,87117.993,,50,that's
screen,html.Screen,0_2_0_1_51,2021-12-03T13:18:44.969Z,,,,,,,,,,,,,,,,53,,,,,,,,,,,,,,569.4069999761559,,response,,,99,,,,,,Space,keypress(Space),,,,,---- -- ----- -- ------ - ------- --- ----------<br>------------- ------ ------ ---- ---- ------- ----- -- ----<br>-------- ------- -- ---------- --- - --- ----- ----- ----<br>---- --- --- ----- --- ---- ---- ------- ----- ---- -------<br>--- --- -- ----- -- --- ---- -- --- ---- -- ------ really<br>--- ----- -- ----,87688,87687.39999997616,87101.327,87112.10000002384,87117.993,87701.296,,51,really
screen,html.Screen,0_2_0_1_52,2021-12-03T13:18:45.425Z,,,,,,,,,,,,,,,,53,,,,,,,,,,,,,,442.00400001191883,,response,,,99,,,,,,Space,keypress(Space),,,,,---- -- ----- -- ------ - ------- --- ----------<br>------------- ------ ------ ---- ---- ------- ----- -- ----<br>-------- ------- -- ---------- --- - --- ----- ----- ----<br>---- --- --- ----- --- ---- ---- ------- ----- ---- -------<br>--- --- -- ----- -- --- ---- -- --- ---- -- ------ ------<br>not ----- -- ----,88143.89999997616,88143.30000001192,87684.63,87688.19999998808,87701.296,88151.227,,52,not
screen,html.Screen,0_2_0_1_53,2021-12-03T13:18:45.889Z,,,,,,,,,,,,,,,,53,,,,,,,,,,,,,,456.1729999761592,,response,,,99,,,,,,Space,keypress(Space),,,,,---- -- ----- -- ------ - ------- --- ----------<br>------------- ------ ------ ---- ---- ------- ----- -- ----<br>-------- ------- -- ---------- --- - --- ----- ----- ----<br>---- --- --- ----- --- ---- ---- ------- ----- ---- -------<br>--- --- -- ----- -- --- ---- -- --- ---- -- ------ ------<br>--- close -- ----,88607.89999997616,88607.39999997616,88134.562,88144.10000002384,88151.227,88617.86,,53,close
screen,html.Screen,0_2_0_1_54,2021-12-03T13:18:46.320Z,,,,,,,,,,,,,,,,53,,,,,,,,,,,,,,421.44000001192035,,response,,,99,,,,,,Space,keypress(Space),,,,,---- -- ----- -- ------ - ------- --- ----------<br>------------- ------ ------ ---- ---- ------- ----- -- ----<br>-------- ------- -- ---------- --- - --- ----- ----- ----<br>---- --- --- ----- --- ---- ---- ------- ----- ---- -------<br>--- --- -- ----- -- --- ---- -- --- ---- -- ------ ------<br>--- ----- at ----,89039.89999997616,89039.30000001192,88601.195,88608.10000002384,88617.86,89051.257,,54,at
screen,html.Screen,0_2_0_1_55,2021-12-03T13:18:47.313Z,,,,,,,,,,,,,,,,53,,,,,,,,,,,,,,980.0430000119231,,response,,,99,,,,,,Space,keypress(Space),,,,,---- -- ----- -- ------ - ------- --- ----------<br>------------- ------ ------ ---- ---- ------- ----- -- ----<br>-------- ------- -- ---------- --- - --- ----- ----- ----<br>---- --- --- ----- --- ---- ---- ------- ----- ---- -------<br>--- --- -- ----- -- --- ---- -- --- ---- -- ------ ------<br>--- ----- -- all.,90032,90031.30000001192,89034.591,89040,89051.257,90050.918,,55,all.
Item 99,flow.Loop,0_2_0_1,2021-12-03T13:18:47.315Z,,,,,,,,,,,,,,,,,,,,,,,,,,,,,,32578.994000011924,,completion,,,,D,,,,,,,,,,silence,,90034.89999997616,90031.30000001192,57435.641,57439.10000002384,57452.306,90050.918,,,
Question 1,html.Screen,0_2_0_2,2021-12-03T13:18:55.618Z,,,,,,,,,,,,,,,,,,,,,,,,,,,true,FALSE,,8285.382000011916,,response,,,99,D,,,,,FALSE,click #choice-2,,,,silence,,98337.19999998808,98336.30000001192,90034.255,90035.10000002384,90050.918,98350.854,,,
Question 2,html.Screen,0_2_0_3,2021-12-03T13:19:02.886Z,,,,,,,,,,,,,,,,,,,,,,,,,,,true,TRUE,,7253.5459999761515,,response,,,99,D,,,,,TRUE,click #choice-1,,,,silence,,105605.10000002384,105604.39999997616,98334.189,98337.39999997616,98350.854,105617.177,,,
Item 99,flow.Sequence,0_2_0,2021-12-03T13:19:02.886Z,,,,,,,,,,,,,,,,,,,,,,,,,,,,,,58151.76699997616,,completion,,,,,,,,,,,,,,,,105605.39999997616,105604.39999997616,47435.968,47437.60000002384,47452.633,105617.177,,,
Holding screen,html.Screen,0_2_1_0,2021-12-03T13:19:12.882Z,,,,,,,,,,,,,,,,,,,,,,,,,,,,,,9999.627000000008,,timeout,,,,,,,,,,,,,,,,115601.30000001192,115600.139,105600.513,105605.60000002384,105617.177,115616.804,,,
screen,html.Screen,0_2_1_1_0,2021-12-03T13:19:13.728Z,,,,,,,,,,,,,,,,54,,,,,,,,,,,,,,829.7960000238381,,response,,,100,,,,,,Space,keypress(Space),,,,,At --- ---- --- ------ ----- ------- ---- -- --- ------- --<br>------- ---------- ------ -- ----- -- ----- -- ---- ------<br>--- ----- --- --- ------ -------- ----- --- ------ ----- --<br>----- ----- ---------- --- --- ------ ------ ---- -- ------<br>------- --- ------ ----- --- ---- ------- -- ---- --- --<br>------- ------,116447.30000001192,116446.60000002384,115600.139,115601.60000002384,115616.804,116450.136,,0,At
screen,html.Screen,0_2_1_1_1,2021-12-03T13:19:14.168Z,,,,,,,,,,,,,,,,54,,,,,,,,,,,,,,436.26399997615954,,response,,,100,,,,,,Space,keypress(Space),,,,,-- the ---- --- ------ ----- ------- ---- -- --- ------- --<br>------- ---------- ------ -- ----- -- ----- -- ---- ------<br>--- ----- --- --- ------ -------- ----- --- ------ ----- --<br>----- ----- ---------- --- --- ------ ------ ---- -- ------<br>------- --- ------ ----- --- ---- ------- -- ---- --- --<br>------- ------,116886.89999997616,116886.39999997616,116433.471,116447.5,116450.136,116900.205,,1,the
screen,html.Screen,0_2_1_1_2,2021-12-03T13:19:14.591Z,,,,,,,,,,,,,,,,54,,,,,,,,,,,,,,409.9949999880773,,response,,,100,,,,,,Space,keypress(Space),,,,,-- --- time --- ------ ----- ------- ---- -- --- ------- --<br>------- ---------- ------ -- ----- -- ----- -- ---- ------<br>--- ----- --- --- ------ -------- ----- --- ------ ----- --<br>----- ----- ---------- --- --- ------ ------ ---- -- ------<br>------- --- ------ ----- --- ---- ------- -- ---- --- --<br>------- ------,117310.69999998808,117310.19999998808,116883.539,116887.10000002384,116900.205,117316.861,,2,time
screen,html.Screen,0_2_1_1_3,2021-12-03T13:19:15.087Z,,,,,,,,,,,,,,,,54,,,,,,,,,,,,,,489.4390000119165,,response,,,100,,,,,,Space,keypress(Space),,,,,-- --- ---- the ------ ----- ------- ---- -- --- ------- --<br>------- ---------- ------ -- ----- -- ----- -- ---- ------<br>--- ----- --- --- ------ -------- ----- --- ------ ----- --<br>----- ----- ---------- --- --- ------ ------ ---- -- ------<br>------- --- ------ ----- --- ---- ------- -- ---- --- --<br>------- ------,117806.89999997616,117806.30000001192,117300.195,117311,117316.861,117816.769,,3,the
screen,html.Screen,0_2_1_1_4,2021-12-03T13:19:15.623Z,,,,,,,,,,,,,,,,54,,,,,,,,,,,,,,525.4309999880788,,response,,,100,,,,,,Space,keypress(Space),,,,,-- --- ---- --- French ----- ------- ---- -- --- ------- --<br>------- ---------- ------ -- ----- -- ----- -- ---- ------<br>--- ----- --- --- ------ -------- ----- --- ------ ----- --<br>----- ----- ---------- --- --- ------ ------ ---- -- ------<br>------- --- ------ ----- --- ---- ------- -- ---- --- --<br>------- ------,118342.80000001192,118342.19999998808,117800.104,117807.10000002384,117816.769,118350.17,,4,French
screen,html.Screen,0_2_1_1_5,2021-12-03T13:19:16.136Z,,,,,,,,,,,,,,,,54,,,,,,,,,,,,,,504.0299999880808,,response,,,100,,,,,,Space,keypress(Space),,,,,-- --- ---- --- ------ crown ------- ---- -- --- ------- --<br>------- ---------- ------ -- ----- -- ----- -- ---- ------<br>--- ----- --- --- ------ -------- ----- --- ------ ----- --<br>----- ----- ---------- --- --- ------ ------ ---- -- ------<br>------- --- ------ ----- --- ---- ------- -- ---- --- --<br>------- ------,118854.89999997616,118854.19999998808,118333.504,118343,118350.17,118866.801,,5,crown
screen,html.Screen,0_2_1_1_6,2021-12-03T13:19:16.599Z,,,,,,,,,,,,,,,,54,,,,,,,,,,,,,,451.3989999880723,,response,,,100,,,,,,Space,keypress(Space),,,,,-- --- ---- --- ------ ----- secured ---- -- --- ------- --<br>------- ---------- ------ -- ----- -- ----- -- ---- ------<br>--- ----- --- --- ------ -------- ----- --- ------ ----- --<br>----- ----- ---------- --- --- ------ ------ ---- -- ------<br>------- --- ------ ----- --- ---- ------- -- ---- --- --<br>------- ------,119318.80000001192,119318.19999998808,118850.135,118855.10000002384,118866.801,119333.414,,6,secured
screen,html.Screen,0_2_1_1_7,2021-12-03T13:19:17.039Z,,,,,,,,,,,,,,,,54,,,,,,,,,,,,,,424.78599998807476,,response,,,100,,,,,,Space,keypress(Space),,,,,-- --- ---- --- ------ ----- ------- much -- --- ------- --<br>------- ---------- ------ -- ----- -- ----- -- ---- ------<br>--- ----- --- --- ------ -------- ----- --- ------ ----- --<br>----- ----- ---------- --- --- ------ ------ ---- -- ------<br>------- --- ------ ----- --- ---- ------- -- ---- --- --<br>------- ------,119758.80000001192,119758.19999998808,119316.749,119319,119333.414,119766.698,,7,much
screen,html.Screen,0_2_1_1_8,2021-12-03T13:19:17.455Z,,,,,,,,,,,,,,,,54,,,,,,,,,,,,,,407.4020000238379,,response,,,100,,,,,,Space,keypress(Space),,,,,-- --- ---- --- ------ ----- ------- ---- of --- ------- --<br>------- ---------- ------ -- ----- -- ----- -- ---- ------<br>--- ----- --- --- ------ -------- ----- --- ------ ----- --<br>----- ----- ---------- --- --- ------ ------ ---- -- ------<br>------- --- ------ ----- --- ---- ------- -- ---- --- --<br>------- ------,120174.69999998808,120174.10000002384,119750.033,119759,119766.698,120183.438,,8,of
screen,html.Screen,0_2_1_1_9,2021-12-03T13:19:17.809Z,,,,,,,,,,,,,,,,54,,,,,,,,,,,,,,342.7619999880844,,response,,,100,,,,,,Space,keypress(Space),,,,,-- --- ---- --- ------ ----- ------- ---- -- its ------- --<br>------- ---------- ------ -- ----- -- ----- -- ---- ------<br>--- ----- --- --- ------ -------- ----- --- ------ ----- --<br>----- ----- ---------- --- --- ------ ------ ---- -- ------<br>------- --- ------ ----- --- ---- ------- -- ---- --- --<br>------- ------,120526.80000001192,120526.19999998808,120166.772,120174.80000001192,120183.438,120533.242,,9,its
screen,html.Screen,0_2_1_1_10,2021-12-03T13:19:18.265Z,,,,,,,,,,,,,,,,54,,,,,,,,,,,,,,448.9579999880807,,response,,,100,,,,,,Space,keypress(Space),,,,,-- --- ---- --- ------ ----- ------- ---- -- --- revenue --<br>------- ---------- ------ -- ----- -- ----- -- ---- ------<br>--- ----- --- --- ------ -------- ----- --- ------ ----- --<br>----- ----- ---------- --- --- ------ ------ ---- -- ------<br>------- --- ------ ----- --- ---- ------- -- ---- --- --<br>------- ------,120982.69999998808,120982.19999998808,120516.579,120526.89999997616,120533.242,121000.096,,10,revenue
screen,html.Screen,0_2_1_1_11,2021-12-03T13:19:18.737Z,,,,,,,,,,,,,,,,54,,,,,,,,,,,,,,454.10399998807407,,response,,,100,,,,,,Space,keypress(Space),,,,,-- --- ---- --- ------ ----- ------- ---- -- --- ------- by<br>------- ---------- ------ -- ----- -- ----- -- ---- ------<br>--- ----- --- --- ------ -------- ----- --- ------ ----- --<br>----- ----- ---------- --- --- ------ ------ ---- -- ------<br>------- --- ------ ----- --- ---- ------- -- ---- --- --<br>------- ------,121454.69999998808,121454.19999998808,120983.428,120982.89999997616,121000.096,121466.671,,11,by
screen,html.Screen,0_2_1_1_12,2021-12-03T13:19:19.185Z,,,,,,,,,,,,,,,,54,,,,,,,,,,,,,,435.42900002383976,,response,,,100,,,,,,Space,keypress(Space),,,,,-- --- ---- --- ------ ----- ------- ---- -- --- ------- --<br>issuing ---------- ------ -- ----- -- ----- -- ---- ------<br>--- ----- --- --- ------ -------- ----- --- ------ ----- --<br>----- ----- ---------- --- --- ------ ------ ---- -- ------<br>------- --- ------ ----- --- ---- ------- -- ---- --- --<br>------- ------,121902.69999998808,121902.10000002384,121450.006,121454.80000001192,121466.671,121916.659,,12,issuing
screen,html.Screen,0_2_1_1_13,2021-12-03T13:19:19.641Z,,,,,,,,,,,,,,,,54,,,,,,,,,,,,,,441.5409999880794,,response,,,100,,,,,,Space,keypress(Space),,,,,-- --- ---- --- ------ ----- ------- ---- -- --- ------- --<br>------- government ------ -- ----- -- ----- -- ---- ------<br>--- ----- --- --- ------ -------- ----- --- ------ ----- --<br>----- ----- ---------- --- --- ------ ------ ---- -- ------<br>------- --- ------ ----- --- ---- ------- -- ---- --- --<br>------- ------,122358.69999998808,122358.19999998808,121899.994,121902.89999997616,121916.659,122366.626,,13,government
screen,html.Screen,0_2_1_1_14,2021-12-03T13:19:20.073Z,,,,,,,,,,,,,,,,54,,,,,,,,,,,,,,423.474000023838,,response,,,100,,,,,,Space,keypress(Space),,,,,-- --- ---- --- ------ ----- ------- ---- -- --- ------- --<br>------- ---------- bonds. -- ----- -- ----- -- ---- ------<br>--- ----- --- --- ------ -------- ----- --- ------ ----- --<br>----- ----- ---------- --- --- ------ ------ ---- -- ------<br>------- --- ------ ----- --- ---- ------- -- ---- --- --<br>------- ------,122790.69999998808,122790.10000002384,122349.961,122358.89999997616,122366.626,122799.993,,14,bonds.
screen,html.Screen,0_2_1_1_15,2021-12-03T13:19:20.569Z,,,,,,,,,,,,,,,,54,,,,,,,,,,,,,,486.0069999999978,,response,,,100,,,,,,Space,keypress(Space),,,,,-- --- ---- --- ------ ----- ------- ---- -- --- ------- --<br>------- ---------- ------ In ----- -- ----- -- ---- ------<br>--- ----- --- --- ------ -------- ----- --- ------ ----- --<br>----- ----- ---------- --- --- ------ ------ ---- -- ------<br>------- --- ------ ----- --- ---- ------- -- ---- --- --<br>------- ------,123286.60000002384,123286,122783.327,122790.80000001192,122799.993,123299.983,,15,In
screen,html.Screen,0_2_1_1_16,2021-12-03T13:19:20.961Z,,,,,,,,,,,,,,,,54,,,,,,,,,,,,,,378.11700002384896,,response,,,100,,,,,,Space,keypress(Space),,,,,"-- --- ---- --- ------ ----- ------- ---- -- --- ------- --<br>------- ---------- ------ -- 1727, -- ----- -- ---- ------<br>--- ----- --- --- ------ -------- ----- --- ------ ----- --<br>----- ----- ---------- --- --- ------ ------ ---- -- ------<br>------- --- ------ ----- --- ---- ------- -- ---- --- --<br>------- ------",123678.80000001192,123678.10000002384,123283.317,123286.69999998808,123299.983,123683.179,,16,"1727,"
screen,html.Screen,0_2_1_1_17,2021-12-03T13:19:22.217Z,,,,,,,,,,,,,,,,54,,,,,,,,,,,,,,1250.9210000238381,,response,,,100,,,,,,Space,keypress(Space),,,,,-- --- ---- --- ------ ----- ------- ---- -- --- ------- --<br>------- ---------- ------ -- ----- in ----- -- ---- ------<br>--- ----- --- --- ------ -------- ----- --- ------ ----- --<br>----- ----- ---------- --- --- ------ ------ ---- -- ------<br>------- --- ------ ----- --- ---- ------- -- ---- --- --<br>------- ------,124934.60000002384,124934.10000002384,123666.515,123678.80000001192,123683.179,124949.803,,17,in
screen,html.Screen,0_2_1_1_18,2021-12-03T13:19:23.089Z,,,,,,,,,,,,,,,,54,,,,,,,,,,,,,,856.297000023842,,response,,,100,,,,,,Space,keypress(Space),,,,,-- --- ---- --- ------ ----- ------- ---- -- --- ------- --<br>------- ---------- ------ -- ----- -- order -- ---- ------<br>--- ----- --- --- ------ -------- ----- --- ------ ----- --<br>----- ----- ---------- --- --- ------ ------ ---- -- ------<br>------- --- ------ ----- --- ---- ------- -- ---- --- --<br>------- ------,125806.69999998808,125806.10000002384,124933.138,124934.80000001192,124949.803,125816.557,,18,order
screen,html.Screen,0_2_1_1_19,2021-12-03T13:19:23.577Z,,,,,,,,,,,,,,,,54,,,,,,,,,,,,,,477.34299997615744,,response,,,100,,,,,,Space,keypress(Space),,,,,-- --- ---- --- ------ ----- ------- ---- -- --- ------- --<br>------- ---------- ------ -- ----- -- ----- to ---- ------<br>--- ----- --- --- ------ -------- ----- --- ------ ----- --<br>----- ----- ---------- --- --- ------ ------ ---- -- ------<br>------- --- ------ ----- --- ---- ------- -- ---- --- --<br>------- ------,126294.5,126293.89999997616,125799.891,125806.89999997616,125816.557,126299.797,,19,to
screen,html.Screen,0_2_1_1_20,2021-12-03T13:19:24.009Z,,,,,,,,,,,,,,,,54,,,,,,,,,,,,,,426.40299998807313,,response,,,100,,,,,,Space,keypress(Space),,,,,-- --- ---- --- ------ ----- ------- ---- -- --- ------- --<br>------- ---------- ------ -- ----- -- ----- -- save ------<br>--- ----- --- --- ------ -------- ----- --- ------ ----- --<br>----- ----- ---------- --- --- ------ ------ ---- -- ------<br>------- --- ------ ----- --- ---- ------- -- ---- --- --<br>------- ------,126726.80000001192,126726.19999998808,126283.132,126294.69999998808,126299.797,126733.174,,20,save
screen,html.Screen,0_2_1_1_21,2021-12-03T13:19:24.504Z,,,,,,,,,,,,,,,,54,,,,,,,,,,,,,,488.7259999761591,,response,,,100,,,,,,Space,keypress(Space),,,,,"-- --- ---- --- ------ ----- ------- ---- -- --- ------- --<br>------- ---------- ------ -- ----- -- ----- -- ---- money,<br>--- ----- --- --- ------ -------- ----- --- ------ ----- --<br>----- ----- ---------- --- --- ------ ------ ---- -- ------<br>------- --- ------ ----- --- ---- ------- -- ---- --- --<br>------- ------",127222.5,127221.89999997616,126716.508,126726.89999997616,126733.174,127233.016,,21,"money,"
screen,html.Screen,0_2_1_1_22,2021-12-03T13:19:25.297Z,,,,,,,,,,,,,,,,54,,,,,,,,,,,,,,780.9839999999967,,response,,,100,,,,,,Space,keypress(Space),,,,,-- --- ---- --- ------ ----- ------- ---- -- --- ------- --<br>------- ---------- ------ -- ----- -- ----- -- ---- ------<br>the ----- --- --- ------ -------- ----- --- ------ ----- --<br>----- ----- ---------- --- --- ------ ------ ---- -- ------<br>------- --- ------ ----- --- ---- ------- -- ---- --- --<br>------- ------,128014.60000002384,128014,127216.352,127222.60000002384,127233.016,128016.535,,22,the
screen,html.Screen,0_2_1_1_23,2021-12-03T13:19:25.792Z,,,,,,,,,,,,,,,,54,,,,,,,,,,,,,,493.36499997615465,,response,,,100,,,,,,Space,keypress(Space),,,,,-- --- ---- --- ------ ----- ------- ---- -- --- ------- --<br>------- ---------- ------ -- ----- -- ----- -- ---- ------<br>--- state --- --- ------ -------- ----- --- ------ ----- --<br>----- ----- ---------- --- --- ------ ------ ---- -- ------<br>------- --- ------ ----- --- ---- ------- -- ---- --- --<br>------- ------,128510.39999997616,128509.89999997616,127999.868,128014.69999998808,128016.535,128516.388,,23,state
screen,html.Screen,0_2_1_1_24,2021-12-03T13:19:26.272Z,,,,,,,,,,,,,,,,54,,,,,,,,,,,,,,473.41200001191464,,response,,,100,,,,,,Space,keypress(Space),,,,,-- --- ---- --- ------ ----- ------- ---- -- --- ------- --<br>------- ---------- ------ -- ----- -- ----- -- ---- ------<br>--- ----- cut --- ------ -------- ----- --- ------ ----- --<br>----- ----- ---------- --- --- ------ ------ ---- -- ------<br>------- --- ------ ----- --- ---- ------- -- ---- --- --<br>------- ------,128990.5,128989.80000001192,128499.723,128510.60000002384,128516.388,128999.757,,24,cut
screen,html.Screen,0_2_1_1_25,2021-12-03T13:19:26.689Z,,,,,,,,,,,,,,,,54,,,,,,,,,,,,,,406.04300001192314,,response,,,100,,,,,,Space,keypress(Space),,,,,-- --- ---- --- ------ ----- ------- ---- -- --- ------- --<br>------- ---------- ------ -- ----- -- ----- -- ---- ------<br>--- ----- --- the ------ -------- ----- --- ------ ----- --<br>----- ----- ---------- --- --- ------ ------ ---- -- ------<br>------- --- ------ ----- --- ---- ------- -- ---- --- --<br>------- ------,129406.60000002384,129405.80000001192,128983.091,128990.60000002384,128999.757,129416.374,,25,the
screen,html.Screen,0_2_1_1_26,2021-12-03T13:19:27.096Z,,,,,,,,,,,,,,,,54,,,,,,,,,,,,,,397.42600001192477,,response,,,100,,,,,,Space,keypress(Space),,,,,-- --- ---- --- ------ ----- ------- ---- -- --- ------- --<br>------- ---------- ------ -- ----- -- ----- -- ---- ------<br>--- ----- --- --- bonds' -------- ----- --- ------ ----- --<br>----- ----- ---------- --- --- ------ ------ ---- -- ------<br>------- --- ------ ----- --- ---- ------- -- ---- --- --<br>------- ------,129814.30000001192,129813.80000001192,129399.709,129406.69999998808,129416.374,129816.327,,26,bonds'
screen,html.Screen,0_2_1_1_27,2021-12-03T13:19:27.712Z,,,,,,,,,,,,,,,,54,,,,,,,,,,,,,,613.4730000119162,,response,,,100,,,,,,Space,keypress(Space),,,,,-- --- ---- --- ------ ----- ------- ---- -- --- ------- --<br>------- ---------- ------ -- ----- -- ----- -- ---- ------<br>--- ----- --- --- ------ interest ----- --- ------ ----- --<br>----- ----- ---------- --- --- ------ ------ ---- -- ------<br>------- --- ------ ----- --- ---- ------- -- ---- --- --<br>------- ------,130430.5,130429.80000001192,129799.662,129814.60000002384,129816.327,130433.05,,27,interest
screen,html.Screen,0_2_1_1_28,2021-12-03T13:19:28.200Z,,,,,,,,,,,,,,,,54,,,,,,,,,,,,,,484.750000011918,,response,,,100,,,,,,Space,keypress(Space),,,,,-- --- ---- --- ------ ----- ------- ---- -- --- ------- --<br>------- ---------- ------ -- ----- -- ----- -- ---- ------<br>--- ----- --- --- ------ -------- rate. --- ------ ----- --<br>----- ----- ---------- --- --- ------ ------ ---- -- ------<br>------- --- ------ ----- --- ---- ------- -- ---- --- --<br>------- ------,130918.30000001192,130917.80000001192,130416.384,130430.60000002384,130433.05,130932.979,,28,rate.
screen,html.Screen,0_2_1_1_29,2021-12-03T13:19:28.752Z,,,,,,,,,,,,,,,,54,,,,,,,,,,,,,,536.8210000119143,,response,,,100,,,,,,Space,keypress(Space),,,,,-- --- ---- --- ------ ----- ------- ---- -- --- ------- --<br>------- ---------- ------ -- ----- -- ----- -- ---- ------<br>--- ----- --- --- ------ -------- ----- The ------ ----- --<br>----- ----- ---------- --- --- ------ ------ ---- -- ------<br>------- --- ------ ----- --- ---- ------- -- ---- --- --<br>------- ------,131470.39999997616,131469.80000001192,130916.314,130918.60000002384,130932.979,131482.837,,29,The
screen,html.Screen,0_2_1_1_30,2021-12-03T13:19:29.256Z,,,,,,,,,,,,,,,,54,,,,,,,,,,,,,,490.9630000119214,,response,,,100,,,,,,Space,keypress(Space),,,,,-- --- ---- --- ------ ----- ------- ---- -- --- ------- --<br>------- ---------- ------ -- ----- -- ----- -- ---- ------<br>--- ----- --- --- ------ -------- ----- --- market ----- --<br>----- ----- ---------- --- --- ------ ------ ---- -- ------<br>------- --- ------ ----- --- ---- ------- -- ---- --- --<br>------- ------,131974.39999997616,131973.80000001192,131466.173,131470.60000002384,131482.837,131982.955,,30,market
screen,html.Screen,0_2_1_1_31,2021-12-03T13:19:29.688Z,,,,,,,,,,,,,,,,54,,,,,,,,,,,,,,422.84500001193373,,response,,,100,,,,,,Space,keypress(Space),,,,,-- --- ---- --- ------ ----- ------- ---- -- --- ------- --<br>------- ---------- ------ -- ----- -- ----- -- ---- ------<br>--- ----- --- --- ------ -------- ----- --- ------ value --<br>----- ----- ---------- --- --- ------ ------ ---- -- ------<br>------- --- ------ ----- --- ---- ------- -- ---- --- --<br>------- ------,132406.30000001192,132405.80000001192,131966.289,131974.60000002384,131982.955,132416.269,,31,value
screen,html.Screen,0_2_1_1_32,2021-12-03T13:19:30.096Z,,,,,,,,,,,,,,,,54,,,,,,,,,,,,,,397.43099998807884,,response,,,100,,,,,,Space,keypress(Space),,,,,-- --- ---- --- ------ ----- ------- ---- -- --- ------- --<br>------- ---------- ------ -- ----- -- ----- -- ---- ------<br>--- ----- --- --- ------ -------- ----- --- ------ ----- of<br>----- ----- ---------- --- --- ------ ------ ---- -- ------<br>------- --- ------ ----- --- ---- ------- -- ---- --- --<br>------- ------,132814.30000001192,132813.69999998808,132399.603,132406.5,132416.269,132816.333,,32,of
screen,html.Screen,0_2_1_1_33,2021-12-03T13:19:30.544Z,,,,,,,,,,,,,,,,54,,,,,,,,,,,,,,445.2670000238286,,response,,,100,,,,,,Space,keypress(Space),,,,,-- --- ---- --- ------ ----- ------- ---- -- --- ------- --<br>------- ---------- ------ -- ----- -- ----- -- ---- ------<br>--- ----- --- --- ------ -------- ----- --- ------ ----- --<br>these ----- ---------- --- --- ------ ------ ---- -- ------<br>------- --- ------ ----- --- ---- ------- -- ---- --- --<br>------- ------,133262.30000001192,133261.60000002384,132799.666,132814.5,132816.333,133266.232,,33,these
screen,html.Screen,0_2_1_1_34,2021-12-03T13:19:30.969Z,,,,,,,,,,,,,,,,54,,,,,,,,,,,,,,419.5680000119319,,response,,,100,,,,,,Space,keypress(Space),,,,,-- --- ---- --- ------ ----- ------- ---- -- --- ------- --<br>------- ---------- ------ -- ----- -- ----- -- ---- ------<br>--- ----- --- --- ------ -------- ----- --- ------ ----- --<br>----- bonds ---------- --- --- ------ ------ ---- -- ------<br>------- --- ------ ----- --- ---- ------- -- ---- --- --<br>------- ------,133686.5,133685.80000001192,133249.567,133262.5,133266.232,133699.591,,34,bonds
screen,html.Screen,0_2_1_1_35,2021-12-03T13:19:31.496Z,,,,,,,,,,,,,,,,54,,,,,,,,,,,,,,514.1089999880933,,response,,,100,,,,,,Space,keypress(Space),,,,,"-- --- ---- --- ------ ----- ------- ---- -- --- ------- --<br>------- ---------- ------ -- ----- -- ----- -- ---- ------<br>--- ----- --- --- ------ -------- ----- --- ------ ----- --<br>----- ----- plummeted, --- --- ------ ------ ---- -- ------<br>------- --- ------ ----- --- ---- ------- -- ---- --- --<br>------- ------",134214.30000001192,134213.69999998808,133682.925,133686.69999998808,133699.591,134216.184,,35,"plummeted,"
screen,html.Screen,0_2_1_1_36,2021-12-03T13:19:32.056Z,,,,,,,,,,,,,,,,54,,,,,,,,,,,,,,557.5159999880707,,response,,,100,,,,,,Space,keypress(Space),,,,,-- --- ---- --- ------ ----- ------- ---- -- --- ------- --<br>------- ---------- ------ -- ----- -- ----- -- ---- ------<br>--- ----- --- --- ------ -------- ----- --- ------ ----- --<br>----- ----- ---------- and --- ------ ------ ---- -- ------<br>------- --- ------ ----- --- ---- ------- -- ---- --- --<br>------- ------,134774.39999997616,134773.69999998808,134199.519,134214.5,134216.184,134782.796,,36,and
screen,html.Screen,0_2_1_1_37,2021-12-03T13:19:32.448Z,,,,,,,,,,,,,,,,54,,,,,,,,,,,,,,382.80400002383976,,response,,,100,,,,,,Space,keypress(Space),,,,,-- --- ---- --- ------ ----- ------- ---- -- --- ------- --<br>------- ---------- ------ -- ----- -- ----- -- ---- ------<br>--- ----- --- --- ------ -------- ----- --- ------ ----- --<br>----- ----- ---------- --- the ------ ------ ---- -- ------<br>------- --- ------ ----- --- ---- ------- -- ---- --- --<br>------- ------,135166.19999998808,135165.60000002384,134766.131,134774.60000002384,134782.796,135182.873,,37,the
screen,html.Screen,0_2_1_1_38,2021-12-03T13:19:32.872Z,,,,,,,,,,,,,,,,54,,,,,,,,,,,,,,406.82699998808675,,response,,,100,,,,,,Space,keypress(Space),,,,,-- --- ---- --- ------ ----- ------- ---- -- --- ------- --<br>------- ---------- ------ -- ----- -- ----- -- ---- ------<br>--- ----- --- --- ------ -------- ----- --- ------ ----- --<br>----- ----- ---------- --- --- market ------ ---- -- ------<br>------- --- ------ ----- --- ---- ------- -- ---- --- --<br>------- ------,135590.30000001192,135589.69999998808,135166.207,135166.30000001192,135182.873,135599.516,,38,market
screen,html.Screen,0_2_1_1_39,2021-12-03T13:19:33.288Z,,,,,,,,,,,,,,,,54,,,,,,,,,,,,,,406.0840000238386,,response,,,100,,,,,,Space,keypress(Space),,,,,-- --- ---- --- ------ ----- ------- ---- -- --- ------- --<br>------- ---------- ------ -- ----- -- ----- -- ---- ------<br>--- ----- --- --- ------ -------- ----- --- ------ ----- --<br>----- ----- ---------- --- --- ------ became ---- -- ------<br>------- --- ------ ----- --- ---- ------- -- ---- --- --<br>------- ------,136006.19999998808,136005.60000002384,135582.85,135590.5,135599.516,136015.994,,39,became
screen,html.Screen,0_2_1_1_40,2021-12-03T13:19:33.704Z,,,,,,,,,,,,,,,,54,,,,,,,,,,,,,,405.6060000238358,,response,,,100,,,,,,Space,keypress(Space),,,,,-- --- ---- --- ------ ----- ------- ---- -- --- ------- --<br>------- ---------- ------ -- ----- -- ----- -- ---- ------<br>--- ----- --- --- ------ -------- ----- --- ------ ----- --<br>----- ----- ---------- --- --- ------ ------ wary -- ------<br>------- --- ------ ----- --- ---- ------- -- ---- --- --<br>------- ------,136422.19999998808,136421.60000002384,135999.331,136006.30000001192,136015.994,136432.81,,40,wary
screen,html.Screen,0_2_1_1_41,2021-12-03T13:19:34.088Z,,,,,,,,,,,,,,,,54,,,,,,,,,,,,,,372.8899999880814,,response,,,100,,,,,,Space,keypress(Space),,,,,-- --- ---- --- ------ ----- ------- ---- -- --- ------- --<br>------- ---------- ------ -- ----- -- ----- -- ---- ------<br>--- ----- --- --- ------ -------- ----- --- ------ ----- --<br>----- ----- ---------- --- --- ------ ------ ---- of ------<br>------- --- ------ ----- --- ---- ------- -- ---- --- --<br>------- ------,136806.5,136805.69999998808,136416.144,136422.30000001192,136432.81,136816.001,,41,of
screen,html.Screen,0_2_1_1_42,2021-12-03T13:19:34.472Z,,,,,,,,,,,,,,,,54,,,,,,,,,,,,,,373.4990000000107,,response,,,100,,,,,,Space,keypress(Space),,,,,-- --- ---- --- ------ ----- ------- ---- -- --- ------- --<br>------- ---------- ------ -- ----- -- ----- -- ---- ------<br>--- ----- --- --- ------ -------- ----- --- ------ ----- --<br>----- ----- ---------- --- --- ------ ------ ---- -- French<br>------- --- ------ ----- --- ---- ------- -- ---- --- --<br>------- ------,137190.10000002384,137189.5,136799.337,136807.39999997616,136816.001,137199.528,,42,French
screen,html.Screen,0_2_1_1_43,2021-12-03T13:19:34.880Z,,,,,,,,,,,,,,,,54,,,,,,,,,,,,,,397.97200000000885,,response,,,100,,,,,,Space,keypress(Space),,,,,-- --- ---- --- ------ ----- ------- ---- -- --- ------- --<br>------- ---------- ------ -- ----- -- ----- -- ---- ------<br>--- ----- --- --- ------ -------- ----- --- ------ ----- --<br>----- ----- ---------- --- --- ------ ------ ---- -- ------<br>credit. --- ------ ----- --- ---- ------- -- ---- --- --<br>------- ------,137598.19999998808,137597.5,137182.86,137190.19999998808,137199.528,137599.348,,43,credit.
screen,html.Screen,0_2_1_1_44,2021-12-03T13:19:35.408Z,,,,,,,,,,,,,,,,54,,,,,,,,,,,,,,526.1520000000019,,response,,,100,,,,,,Space,keypress(Space),,,,,-- --- ---- --- ------ ----- ------- ---- -- --- ------- --<br>------- ---------- ------ -- ----- -- ----- -- ---- ------<br>--- ----- --- --- ------ -------- ----- --- ------ ----- --<br>----- ----- ---------- --- --- ------ ------ ---- -- ------<br>------- The ------ ----- --- ---- ------- -- ---- --- --<br>------- ------,138126.10000002384,138125.5,137582.684,137598.39999997616,137599.348,138132.739,,44,The
screen,html.Screen,0_2_1_1_45,2021-12-03T13:19:35.792Z,,,,,,,,,,,,,,,,54,,,,,,,,,,,,,,376.7609999999986,,response,,,100,,,,,,Space,keypress(Space),,,,,-- --- ---- --- ------ ----- ------- ---- -- --- ------- --<br>------- ---------- ------ -- ----- -- ----- -- ---- ------<br>--- ----- --- --- ------ -------- ----- --- ------ ----- --<br>----- ----- ---------- --- --- ------ ------ ---- -- ------<br>------- --- French ----- --- ---- ------- -- ---- --- --<br>------- ------,138510.10000002384,138509.5,138116.073,138126.30000001192,138132.739,138516.01,,45,French
screen,html.Screen,0_2_1_1_46,2021-12-03T13:19:36.184Z,,,,,,,,,,,,,,,,54,,,,,,,,,,,,,,385.4899999999907,,response,,,100,,,,,,Space,keypress(Space),,,,,-- --- ---- --- ------ ----- ------- ---- -- --- ------- --<br>------- ---------- ------ -- ----- -- ----- -- ---- ------<br>--- ----- --- --- ------ -------- ----- --- ------ ----- --<br>----- ----- ---------- --- --- ------ ------ ---- -- ------<br>------- --- ------ state --- ---- ------- -- ---- --- --<br>------- ------,138902.19999998808,138901.5,138499.345,138510.30000001192,138516.01,138916.076,,46,state
screen,html.Screen,0_2_1_1_47,2021-12-03T13:19:36.736Z,,,,,,,,,,,,,,,,54,,,,,,,,,,,,,,537.4239999999991,,response,,,100,,,,,,Space,keypress(Space),,,,,-- --- ---- --- ------ ----- ------- ---- -- --- ------- --<br>------- ---------- ------ -- ----- -- ----- -- ---- ------<br>--- ----- --- --- ------ -------- ----- --- ------ ----- --<br>----- ----- ---------- --- --- ------ ------ ---- -- ------<br>------- --- ------ ----- was ---- ------- -- ---- --- --<br>------- ------,139454.19999998808,139453.5,138899.41,138902.30000001192,138916.076,139465.996,,47,was
screen,html.Screen,0_2_1_1_48,2021-12-03T13:19:37.176Z,,,,,,,,,,,,,,,,54,,,,,,,,,,,,,,427.4039999761444,,response,,,100,,,,,,Space,keypress(Space),,,,,-- --- ---- --- ------ ----- ------- ---- -- --- ------- --<br>------- ---------- ------ -- ----- -- ----- -- ---- ------<br>--- ----- --- --- ------ -------- ----- --- ------ ----- --<br>----- ----- ---------- --- --- ------ ------ ---- -- ------<br>------- --- ------ ----- --- left ------- -- ---- --- --<br>------- ------,139894.10000002384,139893.39999997616,139449.331,139454.30000001192,139465.996,139899.319,,48,left
screen,html.Screen,0_2_1_1_49,2021-12-03T13:19:37.624Z,,,,,,,,,,,,,,,,54,,,,,,,,,,,,,,442.08099997616955,,response,,,100,,,,,,Space,keypress(Space),,,,,-- --- ---- --- ------ ----- ------- ---- -- --- ------- --<br>------- ---------- ------ -- ----- -- ----- -- ---- ------<br>--- ----- --- --- ------ -------- ----- --- ------ ----- --<br>----- ----- ---------- --- --- ------ ------ ---- -- ------<br>------- --- ------ ----- --- ---- without -- ---- --- --<br>------- ------,140342,140341.39999997616,139882.654,139894.30000001192,139899.319,140349.301,,49,without
screen,html.Screen,0_2_1_1_50,2021-12-03T13:19:38.016Z,,,,,,,,,,,,,,,,54,,,,,,,,,,,,,,384.0989999761514,,response,,,100,,,,,,Space,keypress(Space),,,,,-- --- ---- --- ------ ----- ------- ---- -- --- ------- --<br>------- ---------- ------ -- ----- -- ----- -- ---- ------<br>--- ----- --- --- ------ -------- ----- --- ------ ----- --<br>----- ----- ---------- --- --- ------ ------ ---- -- ------<br>------- --- ------ ----- --- ---- ------- an ---- --- --<br>------- ------,140734,140733.39999997616,140332.636,140342.19999998808,140349.301,140749.286,,50,an
screen,html.Screen,0_2_1_1_51,2021-12-03T13:19:38.392Z,,,,,,,,,,,,,,,,54,,,,,,,,,,,,,,360.11399997616536,,response,,,100,,,,,,Space,keypress(Space),,,,,-- --- ---- --- ------ ----- ------- ---- -- --- ------- --<br>------- ---------- ------ -- ----- -- ----- -- ---- ------<br>--- ----- --- --- ------ -------- ----- --- ------ ----- --<br>----- ----- ---------- --- --- ------ ------ ---- -- ------<br>------- --- ------ ----- --- ---- ------- -- easy --- --<br>------- ------,141110,141109.39999997616,140732.621,140734.30000001192,140749.286,141115.871,,51,easy
screen,html.Screen,0_2_1_1_52,2021-12-03T13:19:38.792Z,,,,,,,,,,,,,,,,54,,,,,,,,,,,,,,393.5289999761444,,response,,,100,,,,,,Space,keypress(Space),,,,,-- --- ---- --- ------ ----- ------- ---- -- --- ------- --<br>------- ---------- ------ -- ----- -- ----- -- ---- ------<br>--- ----- --- --- ------ -------- ----- --- ------ ----- --<br>----- ----- ---------- --- --- ------ ------ ---- -- ------<br>------- --- ------ ----- --- ---- ------- -- ---- way --<br>------- ------,141510,141509.39999997616,141099.207,141110.10000002384,141115.871,141515.946,,52,way
screen,html.Screen,0_2_1_1_53,2021-12-03T13:19:39.192Z,,,,,,,,,,,,,,,,54,,,,,,,,,,,,,,393.45399997616187,,response,,,100,,,,,,Space,keypress(Space),,,,,-- --- ---- --- ------ ----- ------- ---- -- --- ------- --<br>------- ---------- ------ -- ----- -- ----- -- ---- ------<br>--- ----- --- --- ------ -------- ----- --- ------ ----- --<br>----- ----- ---------- --- --- ------ ------ ---- -- ------<br>------- --- ------ ----- --- ---- ------- -- ---- --- of<br>------- ------,141910,141909.39999997616,141499.28,141510.10000002384,141515.946,141915.992,,53,of
screen,html.Screen,0_2_1_1_54,2021-12-03T13:19:39.664Z,,,,,,,,,,,,,,,,54,,,,,,,,,,,,,,465.30800001192256,,response,,,100,,,,,,Space,keypress(Space),,,,,-- --- ---- --- ------ ----- ------- ---- -- --- ------- --<br>------- ---------- ------ -- ----- -- ----- -- ---- ------<br>--- ----- --- --- ------ -------- ----- --- ------ ----- --<br>----- ----- ---------- --- --- ------ ------ ---- -- ------<br>------- --- ------ ----- --- ---- ------- -- ---- --- --<br>raising ------,142382,142381.30000001192,141899.325,141910.19999998808,141915.992,142399.223,,54,raising
screen,html.Screen,0_2_1_1_55,2021-12-03T13:19:40.144Z,,,,,,,,,,,,,,,,54,,,,,,,,,,,,,,462.0770000119228,,response,,,100,,,,,,Space,keypress(Space),,,,,-- --- ---- --- ------ ----- ------- ---- -- --- ------- --<br>------- ---------- ------ -- ----- -- ----- -- ---- ------<br>--- ----- --- --- ------ -------- ----- --- ------ ----- --<br>----- ----- ---------- --- --- ------ ------ ---- -- ------<br>------- --- ------ ----- --- ---- ------- -- ---- --- --<br>------- money.,142861.89999997616,142861.30000001192,142382.558,142382.10000002384,142399.223,142865.872,,55,money.
Item 100,flow.Loop,0_2_1_1,2021-12-03T13:19:40.144Z,,,,,,,,,,,,,,,,,,,,,,,,,,,,,,27244.496000011917,,completion,,,,D,,,,,,,,,,silence,,142862.30000001192,142861.30000001192,115600.139,115601.5,115616.804,142865.872,,,
Question 1,html.Screen,0_2_1_2,2021-12-03T13:19:44.110Z,,,,,,,,,,,,,,,,,,,,,,,,,,,true,TRUE,,3961.228000023839,,response,,,100,D,,,,,TRUE,click #choice-1,,,,silence,,146828,146827.10000002384,142849.207,142862.39999997616,142865.872,146832.36,,,
Question 2,html.Screen,0_2_1_3,2021-12-03T13:19:47.933Z,,,,,,,,,,,,,,,,,,,,,,,,,,,true,FALSE,,3817.539999976172,,response,,,100,D,,,,,FALSE,click #choice-2,,,,silence,,150650.60000002384,150649.89999997616,146815.695,146828.10000002384,146832.36,150665.556,,,
Item 100,flow.Sequence,0_2_1,2021-12-03T13:19:47.933Z,,,,,,,,,,,,,,,,,,,,,,,,,,,,,,45032.72299997616,,completion,,,,,,,,,,,,,,,,150650.89999997616,150649.89999997616,105600.513,105605.60000002384,105617.177,150665.556,,,
End of Practice,html.Page,0_2_2,2021-12-03T13:19:55.384Z,,,,,,,,,,,,,,,,,,,,,,,,,,,,,,7436.443999999989,,form submission,,,,,,,,,,,,,,,,158102.39999997616,158102,150648.891,150651,150665.556,158115.039,,,
Practice,flow.Sequence,0_2,2021-12-03T13:19:55.385Z,,,,,,,,,,,,,,,,,,,,,,,,,,,,,,110649.367,,completion,,,,,,,,,,,,,,,,158102.60000002384,158102,47435.968,47437.5,47452.633,158115.039,,,
Trap_instruction,html.Page,0_3_0,2021-12-03T13:20:01.155Z,,,,,,,,,,,,,,,,,,,,,,,,,,,,,,5757.561000023852,,form submission,,,,,,,,,,,,,,,,163872.89999997616,163872.60000002384,158098.374,158102.80000001192,158115.039,163881.947,,,
trap_trial,html.Screen,0_3_1,2021-12-03T13:20:04.322Z,,,,,,,,,,,,,,,,,,,,,,,,,,,true,1,,3156.9529999761726,,response,,,,,,,,,1,click #choice-1,,,,,,167039.89999997616,167038.89999997616,163865.277,163873,163881.947,167048.332,,,
end of trap trial,html.Page,0_3_2,2021-12-03T13:20:07.327Z,,,,,,,,,,,,,,,,,,,,,,,,,,,,,,2996.768000023847,,form submission,,,,,,,,,,,,,,,,170045.39999997616,170045.10000002384,167031.666,167040.10000002384,167048.332,170048.112,,,
Trap 1,flow.Sequence,0_3,2021-12-03T13:20:07.328Z,,,,,,,,,,,,,,,,,,,,,,,,,,,,,,11930.061000023852,,completion,,,,,,,,,,,,,,,,170045.69999998808,170045.10000002384,158098.374,158102.69999998808,158115.039,170048.112,,,
Standby,html.Page,0_4_0,2021-12-03T13:20:15.314Z,,,,,,,,,,,,,,,,,,,,,,,,,,,,,,7999.789000000019,,timeout,,,,,,,,,,,,,,,,178032.19999998808,178031.235,170031.447,170045.80000001192,170048.112,178047.901,,,
Holding screen,html.Screen,0_4_1_0_0,2021-12-03T13:20:22.316Z,,,,,,,,,,,,,,,,,,,,,,,,,,,,,,6999.801999999996,,timeout,,,,,,,,,,,,,,,,185032.39999997616,185031.037,178031.235,178032.39999997616,178047.901,185047.703,,,
screen,html.Screen,0_4_1_0_1_0,2021-12-03T13:20:23.905Z,,,,,,,,,,,,,,,,11,,,,,,,,,,,,,,1572.2969999999914,,response,,,4,D,,,,,Space,keypress(Space),,,,silence,Known -- ---- --- -- --- -------- ------------ ---------- --<br>- ------- ------ --------- -- ------------ -- --- ---- -----<br>------ ---- ---- ------ ------ ------- --- ----- ---------<br>---- --- -------- -------- --- --- -- ------- --- --- -----<br>-- --- ------ ------- --- --- -------- ---- --------- --<br>---------- -- -------- ----------------,186620.80000001192,186620,185031.037,185032.69999998808,185047.703,186630.843,,0,Known
screen,html.Screen,0_4_1_0_1_1,2021-12-03T13:20:24.424Z,,,,,,,,,,,,,,,,11,,,,,,,,,,,,,,508.95700001192745,,response,,,4,D,,,,,Space,keypress(Space),,,,silence,----- as ---- --- -- --- -------- ------------ ---------- --<br>- ------- ------ --------- -- ------------ -- --- ---- -----<br>------ ---- ---- ------ ------ ------- --- ----- ---------<br>---- --- -------- -------- --- --- -- ------- --- --- -----<br>-- --- ------ ------- --- --- -------- ---- --------- --<br>---------- -- -------- ----------------,187140.39999997616,187139.80000001192,186614.178,186620.89999997616,186630.843,187147.542,,1,as
screen,html.Screen,0_4_1_0_1_2,2021-12-03T13:20:25.424Z,,,,,,,,,,,,,,,,11,,,,,,,,,,,,,,992.1579999880923,,response,,,4,D,,,,,Space,keypress(Space),,,,silence,----- -- Rapa --- -- --- -------- ------------ ---------- --<br>- ------- ------ --------- -- ------------ -- --- ---- -----<br>------ ---- ---- ------ ------ ------- --- ----- ---------<br>---- --- -------- -------- --- --- -- ------- --- --- -----<br>-- --- ------ ------- --- --- -------- ---- --------- --<br>---------- -- -------- ----------------,188140.30000001192,188139.69999998808,187130.877,187140.5,187147.542,188147.482,,2,Rapa
screen,html.Screen,0_4_1_0_1_3,2021-12-03T13:20:26.096Z,,,,,,,,,,,,,,,,11,,,,,,,,,,,,,,664.21799998809,,response,,,4,D,,,,,Space,keypress(Space),,,,silence,----- -- ---- Nui -- --- -------- ------------ ---------- --<br>- ------- ------ --------- -- ------------ -- --- ---- -----<br>------ ---- ---- ------ ------ ------- --- ----- ---------<br>---- --- -------- -------- --- --- -- ------- --- --- -----<br>-- --- ------ ------- --- --- -------- ---- --------- --<br>---------- -- -------- ----------------,188812.30000001192,188811.69999998808,188130.817,188140.39999997616,188147.482,188814.2,,3,Nui
screen,html.Screen,0_4_1_0_1_4,2021-12-03T13:20:26.600Z,,,,,,,,,,,,,,,,11,,,,,,,,,,,,,,501.4000000238302,,response,,,4,D,,,,,Space,keypress(Space),,,,silence,----- -- ---- --- to --- -------- ------------ ---------- --<br>- ------- ------ --------- -- ------------ -- --- ---- -----<br>------ ---- ---- ------ ------ ------- --- ----- ---------<br>---- --- -------- -------- --- --- -- ------- --- --- -----<br>-- --- ------ ------- --- --- -------- ---- --------- --<br>---------- -- -------- ----------------,189316.30000001192,189315.60000002384,188797.534,188812.39999997616,188814.2,189330.74,,4,to
screen,html.Screen,0_4_1_0_1_5,2021-12-03T13:20:27.016Z,,,,,,,,,,,,,,,,11,,,,,,,,,,,,,,400.9599999880884,,response,,,4,D,,,,,Space,keypress(Space),,,,silence,----- -- ---- --- -- the -------- ------------ ---------- --<br>- ------- ------ --------- -- ------------ -- --- ---- -----<br>------ ---- ---- ------ ------ ------- --- ----- ---------<br>---- --- -------- -------- --- --- -- ------- --- --- -----<br>-- --- ------ ------- --- --- -------- ---- --------- --<br>---------- -- -------- ----------------,189732.19999998808,189731.69999998808,189314.075,189316.5,189330.74,189747.509,,5,the
screen,html.Screen,0_4_1_0_1_6,2021-12-03T13:20:27.448Z,,,,,,,,,,,,,,,,11,,,,,,,,,,,,,,416.09100002385094,,response,,,4,D,,,,,Space,keypress(Space),,,,silence,----- -- ---- --- -- --- island's ------------ ---------- --<br>- ------- ------ --------- -- ------------ -- --- ---- -----<br>------ ---- ---- ------ ------ ------- --- ----- ---------<br>---- --- -------- -------- --- --- -- ------- --- --- -----<br>-- --- ------ ------- --- --- -------- ---- --------- --<br>---------- -- -------- ----------------,190164.19999998808,190163.60000002384,189730.843,189732.39999997616,189747.509,190180.775,,6,island's
screen,html.Screen,0_4_1_0_1_7,2021-12-03T13:20:28.056Z,,,,,,,,,,,,,,,,11,,,,,,,,,,,,,,590.8250000238477,,response,,,4,D,,,,,Space,keypress(Space),,,,silence,"----- -- ---- --- -- --- -------- inhabitants, ---------- --<br>- ------- ------ --------- -- ------------ -- --- ---- -----<br>------ ---- ---- ------ ------ ------- --- ----- ---------<br>---- --- -------- -------- --- --- -- ------- --- --- -----<br>-- --- ------ ------- --- --- -------- ---- --------- --<br>---------- -- -------- ----------------",190772.30000001192,190771.60000002384,190164.11,190164.39999997616,190180.775,190780.807,,7,"inhabitants,"
screen,html.Screen,0_4_1_0_1_8,2021-12-03T13:20:30.480Z,,,,,,,,,,,,,,,,11,,,,,,,,,,,,,,2414.6929999999993,,response,,,4,D,,,,,Space,keypress(Space),,,,silence,----- -- ---- --- -- --- -------- ------------ Rongorongo --<br>- ------- ------ --------- -- ------------ -- --- ---- -----<br>------ ---- ---- ------ ------ ------- --- ----- ---------<br>---- --- -------- -------- --- --- -- ------- --- --- -----<br>-- --- ------ ------- --- --- -------- ---- --------- --<br>---------- -- -------- ----------------,193196.30000001192,193195.5,190764.141,190772.39999997616,190780.807,193197.193,,8,Rongorongo
screen,html.Screen,0_4_1_0_1_9,2021-12-03T13:20:31.000Z,,,,,,,,,,,,,,,,11,,,,,,,,,,,,,,518.3070000000007,,response,,,4,D,,,,,Space,keypress(Space),,,,silence,----- -- ---- --- -- --- -------- ------------ ---------- is<br>- ------- ------ --------- -- ------------ -- --- ---- -----<br>------ ---- ---- ------ ------ ------- --- ----- ---------<br>---- --- -------- -------- --- --- -- ------- --- --- -----<br>-- --- ------ ------- --- --- -------- ---- --------- --<br>---------- -- -------- ----------------,193716.19999998808,193715.5,193180.528,193196.5,193197.193,193730.607,,9,is
screen,html.Screen,0_4_1_0_1_10,2021-12-03T13:20:31.464Z,,,,,,,,,,,,,,,,11,,,,,,,,,,,,,,448.89300000001094,,response,,,4,D,,,,,Space,keypress(Space),,,,silence,----- -- ---- --- -- --- -------- ------------ ---------- --<br>a ------- ------ --------- -- ------------ -- --- ---- -----<br>------ ---- ---- ------ ------ ------- --- ----- ---------<br>---- --- -------- -------- --- --- -- ------- --- --- -----<br>-- --- ------ ------- --- --- -------- ---- --------- --<br>---------- -- -------- ----------------,194180.10000002384,194179.5,193713.942,193716.30000001192,193730.607,194197.335,,10,a
screen,html.Screen,0_4_1_0_1_11,2021-12-03T13:20:31.864Z,,,,,,,,,,,,,,,,11,,,,,,,,,,,,,,382.0649999761663,,response,,,4,D,,,,,Space,keypress(Space),,,,silence,----- -- ---- --- -- --- -------- ------------ ---------- --<br>- writing ------ --------- -- ------------ -- --- ---- -----<br>------ ---- ---- ------ ------ ------- --- ----- ---------<br>---- --- -------- -------- --- --- -- ------- --- --- -----<br>-- --- ------ ------- --- --- -------- ---- --------- --<br>---------- -- -------- ----------------,194580,194579.39999997616,194180.669,194180.19999998808,194197.335,194597.247,,11,writing
screen,html.Screen,0_4_1_0_1_12,2021-12-03T13:20:32.336Z,,,,,,,,,,,,,,,,11,,,,,,,,,,,,,,454.1529999761551,,response,,,4,D,,,,,Space,keypress(Space),,,,silence,----- -- ---- --- -- --- -------- ------------ ---------- --<br>- ------- system --------- -- ------------ -- --- ---- -----<br>------ ---- ---- ------ ------ ------- --- ----- ---------<br>---- --- -------- -------- --- --- -- ------- --- --- -----<br>-- --- ------ ------- --- --- -------- ---- --------- --<br>---------- -- -------- ----------------,195052,195051.39999997616,194580.582,194580.19999998808,194597.247,195063.951,,12,system
screen,html.Screen,0_4_1_0_1_13,2021-12-03T13:20:32.768Z,,,,,,,,,,,,,,,,11,,,,,,,,,,,,,,419.34900001192,,response,,,4,D,,,,,Space,keypress(Space),,,,silence,----- -- ---- --- -- --- -------- ------------ ---------- --<br>- ------- ------ comprised -- ------------ -- --- ---- -----<br>------ ---- ---- ------ ------ ------- --- ----- ---------<br>---- --- -------- -------- --- --- -- ------- --- --- -----<br>-- --- ------ ------- --- --- -------- ---- --------- --<br>---------- -- -------- ----------------,195484,195483.30000001192,195047.285,195052.19999998808,195063.951,195497.235,,13,comprised
screen,html.Screen,0_4_1_0_1_14,2021-12-03T13:20:33.736Z,,,,,,,,,,,,,,,,11,,,,,,,,,,,,,,954.1649999761721,,response,,,4,D,,,,,Space,keypress(Space),,,,silence,----- -- ---- --- -- --- -------- ------------ ---------- --<br>- ------- ------ --------- of ------------ -- --- ---- -----<br>------ ---- ---- ------ ------ ------- --- ----- ---------<br>---- --- -------- -------- --- --- -- ------- --- --- -----<br>-- --- ------ ------- --- --- -------- ---- --------- --<br>---------- -- -------- ----------------,196452.19999998808,196451.39999997616,195480.57,195484.30000001192,195497.235,196463.939,,14,of
screen,html.Screen,0_4_1_0_1_15,2021-12-03T13:20:34.976Z,,,,,,,,,,,,,,,,11,,,,,,,,,,,,,,1227.6610000238288,,response,,,4,D,,,,,Space,keypress(Space),,,,silence,----- -- ---- --- -- --- -------- ------------ ---------- --<br>- ------- ------ --------- -- pictographs. -- --- ---- -----<br>------ ---- ---- ------ ------ ------- --- ----- ---------<br>---- --- -------- -------- --- --- -- ------- --- --- -----<br>-- --- ------ ------- --- --- -------- ---- --------- --<br>---------- -- -------- ----------------,197692.19999998808,197691.60000002384,196447.273,196452.30000001192,196463.939,197696.969,,15,pictographs.
screen,html.Screen,0_4_1_0_1_16,2021-12-03T13:20:35.536Z,,,,,,,,,,,,,,,,11,,,,,,,,,,,,,,554.331000011909,,response,,,4,D,,,,,Space,keypress(Space),,,,silence,----- -- ---- --- -- --- -------- ------------ ---------- --<br>- ------- ------ --------- -- ------------ It --- ---- -----<br>------ ---- ---- ------ ------ ------- --- ----- ---------<br>---- --- -------- -------- --- --- -- ------- --- --- -----<br>-- --- ------ ------- --- --- -------- ---- --------- --<br>---------- -- -------- ----------------,198251.89999997616,198251.30000001192,197680.305,197692.5,197696.969,198263.855,,16,It
screen,html.Screen,0_4_1_0_1_17,2021-12-03T13:20:35.944Z,,,,,,,,,,,,,,,,11,,,,,,,,,,,,,,395.44500001191045,,response,,,4,D,,,,,Space,keypress(Space),,,,silence,----- -- ---- --- -- --- -------- ------------ ---------- --<br>- ------- ------ --------- -- ------------ -- has ---- -----<br>------ ---- ---- ------ ------ ------- --- ----- ---------<br>---- --- -------- -------- --- --- -- ------- --- --- -----<br>-- --- ------ ------- --- --- -------- ---- --------- --<br>---------- -- -------- ----------------,198659.80000001192,198659.30000001192,198247.189,198252.10000002384,198263.855,198663.761,,17,has
screen,html.Screen,0_4_1_0_1_18,2021-12-03T13:20:36.312Z,,,,,,,,,,,,,,,,11,,,,,,,,,,,,,,363.5390000119223,,response,,,4,D,,,,,Space,keypress(Space),,,,silence,----- -- ---- --- -- --- -------- ------------ ---------- --<br>- ------- ------ --------- -- ------------ -- --- been -----<br>------ ---- ---- ------ ------ ------- --- ----- ---------<br>---- --- -------- -------- --- --- -- ------- --- --- -----<br>-- --- ------ ------- --- --- -------- ---- --------- --<br>---------- -- -------- ----------------,199027.80000001192,199027.30000001192,198647.096,198660,198663.761,199030.469,,18,been
screen,html.Screen,0_4_1_0_1_19,2021-12-03T13:20:36.720Z,,,,,,,,,,,,,,,,11,,,,,,,,,,,,,,404.7309999880672,,response,,,4,D,,,,,Space,keypress(Space),,,,silence,----- -- ---- --- -- --- -------- ------------ ---------- --<br>- ------- ------ --------- -- ------------ -- --- ---- found<br>------ ---- ---- ------ ------ ------- --- ----- ---------<br>---- --- -------- -------- --- --- -- ------- --- --- -----<br>-- --- ------ ------- --- --- -------- ---- --------- --<br>---------- -- -------- ----------------,199435.80000001192,199435.19999998808,199013.803,199028,199030.469,199447.071,,19,found
screen,html.Screen,0_4_1_0_1_20,2021-12-03T13:20:37.120Z,,,,,,,,,,,,,,,,11,,,,,,,,,,,,,,388.1289999880828,,response,,,4,D,,,,,Space,keypress(Space),,,,silence,----- -- ---- --- -- --- -------- ------------ ---------- --<br>- ------- ------ --------- -- ------------ -- --- ---- -----<br>carved ---- ---- ------ ------ ------- --- ----- ---------<br>---- --- -------- -------- --- --- -- ------- --- --- -----<br>-- --- ------ ------- --- --- -------- ---- --------- --<br>---------- -- -------- ----------------,199835.69999998808,199835.19999998808,199430.406,199436,199447.071,199847.181,,20,carved
screen,html.Screen,0_4_1_0_1_21,2021-12-03T13:20:37.760Z,,,,,,,,,,,,,,,,11,,,,,,,,,,,,,,628.1190000119095,,response,,,4,D,,,,,Space,keypress(Space),,,,silence,----- -- ---- --- -- --- -------- ------------ ---------- --<br>- ------- ------ --------- -- ------------ -- --- ---- -----<br>------ into ---- ------ ------ ------- --- ----- ---------<br>---- --- -------- -------- --- --- -- ------- --- --- -----<br>-- --- ------ ------- --- --- -------- ---- --------- --<br>---------- -- -------- ----------------,200475.89999997616,200475.30000001192,199830.514,199835.89999997616,199847.181,200480.393,,21,into
screen,html.Screen,0_4_1_0_1_22,2021-12-03T13:20:38.192Z,,,,,,,,,,,,,,,,11,,,,,,,,,,,,,,426.8069999880681,,response,,,4,D,,,,,Space,keypress(Space),,,,silence,----- -- ---- --- -- --- -------- ------------ ---------- --<br>- ------- ------ --------- -- ------------ -- --- ---- -----<br>------ ---- many ------ ------ ------- --- ----- ---------<br>---- --- -------- -------- --- --- -- ------- --- --- -----<br>-- --- ------ ------- --- --- -------- ---- --------- --<br>---------- -- -------- ----------------,200907.80000001192,200907.19999998808,200463.728,200476.10000002384,200480.393,200913.718,,22,many
screen,html.Screen,0_4_1_0_1_23,2021-12-03T13:20:38.632Z,,,,,,,,,,,,,,,,11,,,,,,,,,,,,,,433.3820000238484,,response,,,4,D,,,,,Space,keypress(Space),,,,silence,----- -- ---- --- -- --- -------- ------------ ---------- --<br>- ------- ------ --------- -- ------------ -- --- ---- -----<br>------ ---- ---- oblong ------ ------- --- ----- ---------<br>---- --- -------- -------- --- --- -- ------- --- --- -----<br>-- --- ------ ------- --- --- -------- ---- --------- --<br>---------- -- -------- ----------------,201347.69999998808,201347.10000002384,200897.053,200907.89999997616,200913.718,201363.745,,23,oblong
screen,html.Screen,0_4_1_0_1_24,2021-12-03T13:20:39.168Z,,,,,,,,,,,,,,,,11,,,,,,,,,,,,,,519.3550000238465,,response,,,4,D,,,,,Space,keypress(Space),,,,silence,----- -- ---- --- -- --- -------- ------------ ---------- --<br>- ------- ------ --------- -- ------------ -- --- ---- -----<br>------ ---- ---- ------ wooden ------- --- ----- ---------<br>---- --- -------- -------- --- --- -- ------- --- --- -----<br>-- --- ------ ------- --- --- -------- ---- --------- --<br>---------- -- -------- ----------------,201883.80000001192,201883.10000002384,201347.079,201347.89999997616,201363.745,201897.013,,24,wooden
screen,html.Screen,0_4_1_0_1_25,2021-12-03T13:20:39.600Z,,,,,,,,,,,,,,,,11,,,,,,,,,,,,,,418.08700002383557,,response,,,4,D,,,,,Space,keypress(Space),,,,silence,----- -- ---- --- -- --- -------- ------------ ---------- --<br>- ------- ------ --------- -- ------------ -- --- ---- -----<br>------ ---- ---- ------ ------ tablets --- ----- ---------<br>---- --- -------- -------- --- --- -- ------- --- --- -----<br>-- --- ------ ------- --- --- -------- ---- --------- --<br>---------- -- -------- ----------------,202315.60000002384,202315.10000002384,201880.348,201883.89999997616,201897.013,202330.333,,25,tablets
screen,html.Screen,0_4_1_0_1_26,2021-12-03T13:20:40.056Z,,,,,,,,,,,,,,,,11,,,,,,,,,,,,,,440.8669999880658,,response,,,4,D,,,,,Space,keypress(Space),,,,silence,----- -- ---- --- -- --- -------- ------------ ---------- --<br>- ------- ------ --------- -- ------------ -- --- ---- -----<br>------ ---- ---- ------ ------ ------- and ----- ---------<br>---- --- -------- -------- --- --- -- ------- --- --- -----<br>-- --- ------ ------- --- --- -------- ---- --------- --<br>---------- -- -------- ----------------,202771.69999998808,202771.19999998808,202313.668,202315.80000001192,202330.333,202780.292,,26,and
screen,html.Screen,0_4_1_0_1_27,2021-12-03T13:20:40.456Z,,,,,,,,,,,,,,,,11,,,,,,,,,,,,,,390.70800000001327,,response,,,4,D,,,,,Space,keypress(Space),,,,silence,----- -- ---- --- -- --- -------- ------------ ---------- --<br>- ------- ------ --------- -- ------------ -- --- ---- -----<br>------ ---- ---- ------ ------ ------- --- other ---------<br>---- --- -------- -------- --- --- -- ------- --- --- -----<br>-- --- ------ ------- --- --- -------- ---- --------- --<br>---------- -- -------- ----------------,203171.69999998808,203171,202763.627,202771.89999997616,202780.292,203180.337,,27,other
screen,html.Screen,0_4_1_0_1_28,2021-12-03T13:20:40.872Z,,,,,,,,,,,,,,,,11,,,,,,,,,,,,,,406.7630000238423,,response,,,4,D,,,,,Space,keypress(Space),,,,silence,----- -- ---- --- -- --- -------- ------------ ---------- --<br>- ------- ------ --------- -- ------------ -- --- ---- -----<br>------ ---- ---- ------ ------ ------- --- ----- artifacts<br>---- --- -------- -------- --- --- -- ------- --- --- -----<br>-- --- ------ ------- --- --- -------- ---- --------- --<br>---------- -- -------- ----------------,203587.69999998808,203587.10000002384,203163.671,203171.80000001192,203180.337,203596.946,,28,artifacts
screen,html.Screen,0_4_1_0_1_29,2021-12-03T13:20:41.400Z,,,,,,,,,,,,,,,,11,,,,,,,,,,,,,,518.0540000000037,,response,,,4,D,,,,,Space,keypress(Space),,,,silence,----- -- ---- --- -- --- -------- ------------ ---------- --<br>- ------- ------ --------- -- ------------ -- --- ---- -----<br>------ ---- ---- ------ ------ ------- --- ----- ---------<br>from --- -------- -------- --- --- -- ------- --- --- -----<br>-- --- ------ ------- --- --- -------- ---- --------- --<br>---------- -- -------- ----------------,204115.69999998808,204115,203580.281,203587.89999997616,203596.946,204130.251,,29,from
screen,html.Screen,0_4_1_0_1_30,2021-12-03T13:20:41.784Z,,,,,,,,,,,,,,,,11,,,,,,,,,,,,,,368.84900002385257,,response,,,4,D,,,,,Space,keypress(Space),,,,silence,----- -- ---- --- -- --- -------- ------------ ---------- --<br>- ------- ------ --------- -- ------------ -- --- ---- -----<br>------ ---- ---- ------ ------ ------- --- ----- ---------<br>---- the -------- -------- --- --- -- ------- --- --- -----<br>-- --- ------ ------- --- --- -------- ---- --------- --<br>---------- -- -------- ----------------,204499.69999998808,204499.10000002384,204113.586,204115.80000001192,204130.251,204513.554,,30,the
screen,html.Screen,0_4_1_0_1_31,2021-12-03T13:20:42.200Z,,,,,,,,,,,,,,,,11,,,,,,,,,,,,,,401.54600002383813,,response,,,4,D,,,,,Space,keypress(Space),,,,silence,----- -- ---- --- -- --- -------- ------------ ---------- --<br>- ------- ------ --------- -- ------------ -- --- ---- -----<br>------ ---- ---- ------ ------ ------- --- ----- ---------<br>---- --- island's -------- --- --- -- ------- --- --- -----<br>-- --- ------ ------- --- --- -------- ---- --------- --<br>---------- -- -------- ----------------,204915.69999998808,204915.10000002384,204496.889,204499.80000001192,204513.554,204930.268,,31,island's
screen,html.Screen,0_4_1_0_1_32,2021-12-03T13:20:42.624Z,,,,,,,,,,,,,,,,11,,,,,,,,,,,,,,408.8320000238309,,response,,,4,D,,,,,Space,keypress(Space),,,,silence,----- -- ---- --- -- --- -------- ------------ ---------- --<br>- ------- ------ --------- -- ------------ -- --- ---- -----<br>------ ---- ---- ------ ------ ------- --- ----- ---------<br>---- --- -------- history. --- --- -- ------- --- --- -----<br>-- --- ------ ------- --- --- -------- ---- --------- --<br>---------- -- -------- ----------------,205339.60000002384,205339.10000002384,204913.602,204915.80000001192,204930.268,205346.921,,32,history.
screen,html.Screen,0_4_1_0_1_33,2021-12-03T13:20:43.104Z,,,,,,,,,,,,,,,,11,,,,,,,,,,,,,,472.0789999999979,,response,,,4,D,,,,,Space,keypress(Space),,,,silence,----- -- ---- --- -- --- -------- ------------ ---------- --<br>- ------- ------ --------- -- ------------ -- --- ---- -----<br>------ ---- ---- ------ ------ ------- --- ----- ---------<br>---- --- -------- -------- The --- -- ------- --- --- -----<br>-- --- ------ ------- --- --- -------- ---- --------- --<br>---------- -- -------- ----------------,205819.69999998808,205819,205330.255,205339.89999997616,205346.921,205830.195,,33,The
screen,html.Screen,0_4_1_0_1_34,2021-12-03T13:20:43.480Z,,,,,,,,,,,,,,,,11,,,,,,,,,,,,,,364.804999999993,,response,,,4,D,,,,,Space,keypress(Space),,,,silence,----- -- ---- --- -- --- -------- ------------ ---------- --<br>- ------- ------ --------- -- ------------ -- --- ---- -----<br>------ ---- ---- ------ ------ ------- --- ----- ---------<br>---- --- -------- -------- --- art -- ------- --- --- -----<br>-- --- ------ ------- --- --- -------- ---- --------- --<br>---------- -- -------- ----------------,206195.60000002384,206195,205813.53,205819.80000001192,205830.195,206196.903,,34,art
screen,html.Screen,0_4_1_0_1_35,2021-12-03T13:20:43.872Z,,,,,,,,,,,,,,,,11,,,,,,,,,,,,,,390.09700000000885,,response,,,4,D,,,,,Space,keypress(Space),,,,silence,----- -- ---- --- -- --- -------- ------------ ---------- --<br>- ------- ------ --------- -- ------------ -- --- ---- -----<br>------ ---- ---- ------ ------ ------- --- ----- ---------<br>---- --- -------- -------- --- --- of ------- --- --- -----<br>-- --- ------ ------- --- --- -------- ---- --------- --<br>---------- -- -------- ----------------,206587.60000002384,206587,206180.237,206195.69999998808,206196.903,206596.83,,35,of
screen,html.Screen,0_4_1_0_1_36,2021-12-03T13:20:44.232Z,,,,,,,,,,,,,,,,11,,,,,,,,,,,,,,350.1700000000128,,response,,,4,D,,,,,Space,keypress(Space),,,,silence,----- -- ---- --- -- --- -------- ------------ ---------- --<br>- ------- ------ --------- -- ------------ -- --- ---- -----<br>------ ---- ---- ------ ------ ------- --- ----- ---------<br>---- --- -------- -------- --- --- -- writing --- --- -----<br>-- --- ------ ------- --- --- -------- ---- --------- --<br>---------- -- -------- ----------------,206947.5,206947,206580.165,206587.69999998808,206596.83,206963.477,,36,writing
screen,html.Screen,0_4_1_0_1_37,2021-12-03T13:20:44.648Z,,,,,,,,,,,,,,,,11,,,,,,,,,,,,,,399.42299997614464,,response,,,4,D,,,,,Space,keypress(Space),,,,silence,----- -- ---- --- -- --- -------- ------------ ---------- --<br>- ------- ------ --------- -- ------------ -- --- ---- -----<br>------ ---- ---- ------ ------ ------- --- ----- ---------<br>---- --- -------- -------- --- --- -- ------- was --- -----<br>-- --- ------ ------- --- --- -------- ---- --------- --<br>---------- -- -------- ----------------,207363.5,207362.89999997616,206946.812,206947.69999998808,206963.477,207380.171,,37,was
screen,html.Screen,0_4_1_0_1_38,2021-12-03T13:20:45.024Z,,,,,,,,,,,,,,,,11,,,,,,,,,,,,,,359.028999988077,,response,,,4,D,,,,,Space,keypress(Space),,,,silence,----- -- ---- --- -- --- -------- ------------ ---------- --<br>- ------- ------ --------- -- ------------ -- --- ---- -----<br>------ ---- ---- ------ ------ ------- --- ----- ---------<br>---- --- -------- -------- --- --- -- ------- --- not -----<br>-- --- ------ ------- --- --- -------- ---- --------- --<br>---------- -- -------- ----------------,207739.80000001192,207739.19999998808,207363.505,207363.69999998808,207380.171,207746.84,,38,not
screen,html.Screen,0_4_1_0_1_39,2021-12-03T13:20:45.368Z,,,,,,,,,,,,,,,,11,,,,,,,,,,,,,,336.05999997616163,,response,,,4,D,,,,,Space,keypress(Space),,,,silence,----- -- ---- --- -- --- -------- ------------ ---------- --<br>- ------- ------ --------- -- ------------ -- --- ---- -----<br>------ ---- ---- ------ ------ ------- --- ----- ---------<br>---- --- -------- -------- --- --- -- ------- --- --- known<br>-- --- ------ ------- --- --- -------- ---- --------- --<br>---------- -- -------- ----------------,208083.5,208082.89999997616,207730.174,207739.89999997616,207746.84,208096.761,,39,known
screen,html.Screen,0_4_1_0_1_40,2021-12-03T13:20:45.936Z,,,,,,,,,,,,,,,,11,,,,,,,,,,,,,,554.1389999761595,,response,,,4,D,,,,,Space,keypress(Space),,,,silence,----- -- ---- --- -- --- -------- ------------ ---------- --<br>- ------- ------ --------- -- ------------ -- --- ---- -----<br>------ ---- ---- ------ ------ ------- --- ----- ---------<br>---- --- -------- -------- --- --- -- ------- --- --- -----<br>in --- ------ ------- --- --- -------- ---- --------- --<br>---------- -- -------- ----------------,208651.5,208650.89999997616,208080.096,208083.69999998808,208096.761,208663.479,,40,in
screen,html.Screen,0_4_1_0_1_41,2021-12-03T13:20:46.304Z,,,,,,,,,,,,,,,,11,,,,,,,,,,,,,,355.32100001192885,,response,,,4,D,,,,,Space,keypress(Space),,,,silence,----- -- ---- --- -- --- -------- ------------ ---------- --<br>- ------- ------ --------- -- ------------ -- --- ---- -----<br>------ ---- ---- ------ ------ ------- --- ----- ---------<br>---- --- -------- -------- --- --- -- ------- --- --- -----<br>-- any ------ ------- --- --- -------- ---- --------- --<br>---------- -- -------- ----------------,209019.5,209018.80000001192,208646.813,208651.69999998808,208663.479,209030.017,,41,any
screen,html.Screen,0_4_1_0_1_42,2021-12-03T13:20:46.672Z,,,,,,,,,,,,,,,,11,,,,,,,,,,,,,,356.8829999761656,,response,,,4,D,,,,,Space,keypress(Space),,,,silence,----- -- ---- --- -- --- -------- ------------ ---------- --<br>- ------- ------ --------- -- ------------ -- --- ---- -----<br>------ ---- ---- ------ ------ ------- --- ----- ---------<br>---- --- -------- -------- --- --- -- ------- --- --- -----<br>-- --- nearby ------- --- --- -------- ---- --------- --<br>---------- -- -------- ----------------,209387.39999997616,209386.89999997616,209013.353,209019.60000002384,209030.017,209396.778,,42,nearby
screen,html.Screen,0_4_1_0_1_43,2021-12-03T13:20:47.056Z,,,,,,,,,,,,,,,,11,,,,,,,,,,,,,,374.121999976167,,response,,,4,D,,,,,Space,keypress(Space),,,,silence,----- -- ---- --- -- --- -------- ------------ ---------- --<br>- ------- ------ --------- -- ------------ -- --- ---- -----<br>------ ---- ---- ------ ------ ------- --- ----- ---------<br>---- --- -------- -------- --- --- -- ------- --- --- -----<br>-- --- ------ islands --- --- -------- ---- --------- --<br>---------- -- -------- ----------------,209771.39999997616,209770.89999997616,209380.112,209387.60000002384,209396.778,209779.934,,43,islands
screen,html.Screen,0_4_1_0_1_44,2021-12-03T13:20:47.432Z,,,,,,,,,,,,,,,,11,,,,,,,,,,,,,,366.96599997614976,,response,,,4,D,,,,,Space,keypress(Space),,,,silence,----- -- ---- --- -- --- -------- ------------ ---------- --<br>- ------- ------ --------- -- ------------ -- --- ---- -----<br>------ ---- ---- ------ ------ ------- --- ----- ---------<br>---- --- -------- -------- --- --- -- ------- --- --- -----<br>-- --- ------ ------- and --- -------- ---- --------- --<br>---------- -- -------- ----------------,210147.39999997616,210146.89999997616,209763.271,209771.60000002384,209779.934,210163.433,,44,and
screen,html.Screen,0_4_1_0_1_45,2021-12-03T13:20:47.783Z,,,,,,,,,,,,,,,,11,,,,,,,,,,,,,,335.36700001193094,,response,,,4,D,,,,,Space,keypress(Space),,,,silence,----- -- ---- --- -- --- -------- ------------ ---------- --<br>- ------- ------ --------- -- ------------ -- --- ---- -----<br>------ ---- ---- ------ ------ ------- --- ----- ---------<br>---- --- -------- -------- --- --- -- ------- --- --- -----<br>-- --- ------ ------- --- the -------- ---- --------- --<br>---------- -- -------- ----------------,210499.39999997616,210498.80000001192,210146.766,210147.60000002384,210163.433,210513.441,,45,the
screen,html.Screen,0_4_1_0_1_46,2021-12-03T13:20:48.232Z,,,,,,,,,,,,,,,,11,,,,,,,,,,,,,,433.3590000119293,,response,,,4,D,,,,,Space,keypress(Space),,,,silence,----- -- ---- --- -- --- -------- ------------ ---------- --<br>- ------- ------ --------- -- ------------ -- --- ---- -----<br>------ ---- ---- ------ ------ ------- --- ----- ---------<br>---- --- -------- -------- --- --- -- ------- --- --- -----<br>-- --- ------ ------- --- --- script's ---- --------- --<br>---------- -- -------- ----------------,210947.39999997616,210946.80000001192,210496.774,210499.60000002384,210513.441,210963.351,,46,script's
screen,html.Screen,0_4_1_0_1_47,2021-12-03T13:20:48.679Z,,,,,,,,,,,,,,,,11,,,,,,,,,,,,,,431.34899998808396,,response,,,4,D,,,,,Space,keypress(Space),,,,silence,----- -- ---- --- -- --- -------- ------------ ---------- --<br>- ------- ------ --------- -- ------------ -- --- ---- -----<br>------ ---- ---- ------ ------ ------- --- ----- ---------<br>---- --- -------- -------- --- --- -- ------- --- --- -----<br>-- --- ------ ------- --- --- -------- mere --------- --<br>---------- -- -------- ----------------,211395.30000001192,211394.69999998808,210946.686,210947.60000002384,210963.351,211396.665,,47,mere
screen,html.Screen,0_4_1_0_1_48,2021-12-03T13:20:49.160Z,,,,,,,,,,,,,,,,11,,,,,,,,,,,,,,478.1350000119128,,response,,,4,D,,,,,Space,keypress(Space),,,,silence,----- -- ---- --- -- --- -------- ------------ ---------- --<br>- ------- ------ --------- -- ------------ -- --- ---- -----<br>------ ---- ---- ------ ------ ------- --- ----- ---------<br>---- --- -------- -------- --- --- -- ------- --- --- -----<br>-- --- ------ ------- --- --- -------- ---- existence --<br>---------- -- -------- ----------------,211875.5,211874.80000001192,211380,211395.5,211396.665,211880.02,,48,existence
screen,html.Screen,0_4_1_0_1_49,2021-12-03T13:20:49.583Z,,,,,,,,,,,,,,,,11,,,,,,,,,,,,,,418.7800000119314,,response,,,4,D,,,,,Space,keypress(Space),,,,silence,----- -- ---- --- -- --- -------- ------------ ---------- --<br>- ------- ------ --------- -- ------------ -- --- ---- -----<br>------ ---- ---- ------ ------ ------- --- ----- ---------<br>---- --- -------- -------- --- --- -- ------- --- --- -----<br>-- --- ------ ------- --- --- -------- ---- --------- is<br>---------- -- -------- ----------------,212299.39999997616,212298.80000001192,211863.354,211875.69999998808,211880.02,212313.27,,49,is
screen,html.Screen,0_4_1_0_1_50,2021-12-03T13:20:50.160Z,,,,,,,,,,,,,,,,11,,,,,,,,,,,,,,561.6299999761686,,response,,,4,D,,,,,Space,keypress(Space),,,,silence,----- -- ---- --- -- --- -------- ------------ ---------- --<br>- ------- ------ --------- -- ------------ -- --- ---- -----<br>------ ---- ---- ------ ------ ------- --- ----- ---------<br>---- --- -------- -------- --- --- -- ------- --- --- -----<br>-- --- ------ ------- --- --- -------- ---- --------- --<br>sufficient -- -------- ----------------,212875.5,212874.89999997616,212296.605,212299.5,212313.27,212879.989,,50,sufficient
screen,html.Screen,0_4_1_0_1_51,2021-12-03T13:20:50.551Z,,,,,,,,,,,,,,,,11,,,,,,,,,,,,,,386.7109999880777,,response,,,4,D,,,,,Space,keypress(Space),,,,silence,----- -- ---- --- -- --- -------- ------------ ---------- --<br>- ------- ------ --------- -- ------------ -- --- ---- -----<br>------ ---- ---- ------ ------ ------- --- ----- ---------<br>---- --- -------- -------- --- --- -- ------- --- --- -----<br>-- --- ------ ------- --- --- -------- ---- --------- --<br>---------- to -------- ----------------,213267.30000001192,213266.69999998808,212863.323,212875.60000002384,212879.989,213279.76,,51,to
