sender,sender_type,sender_id,timestamp,meta,,Blues,Classical,Country,Dance,Electronic,Folk,Gospel,Hip-Hop,Jazz,Latin,Musical/Film,New-age,Pop,Provo_ID,R&B,Rap,Reggae,Religious,Rock,Soul,Swing,Traditional,age,artist_name,correct,correctResponse,distraction,duration,education,ended_on,familiarity,gender,item,list,music_frequency,offensiveness,pleasantness,preference,response,response_action,snippet_file,song_name,song_rating,sound,text,time_commit,time_end,time_render,time_run,time_show,time_switch,url,word,word_ID
Instructions,html.Page,0_0,2021-11-05T13:40:30.529Z,"{""labjs_version"":""20.2.3"",""labjs_build"":{""flavor"":""production"",""commit"":""7ea907d66ca8aeef8054924ca5d82ffbe11e34e5""},""location"":""https://run.pavlovia.org/mvasilev/lab_music_a/"",""userAgent"":""Mozilla/5.0 (Windows NT 6.1; Win64; x64) AppleWebKit/537.36 (KHTML, like Gecko) Chrome/95.0.4638.69 Safari/537.36"",""platform"":""Win32"",""language"":""en-US"",""locale"":""en-US"",""timeZone"":""Europe/London"",""timezoneOffset"":0,""screen_width"":1920,""screen_height"":1080,""scroll_width"":1920,""scroll_height"":959,""window_innerWidth"":1920,""window_innerHeight"":1007,""devicePixelRatio"":1}",,,,,,,,,,,,,,,,,,,,,,,,,,,,,23773.00099999702,,form submission,,,,,,,,,,,,,,,,31519.09999999404,31517.79999999702,7711.459,7730.29999999702,7744.799,31518.191,{},,
Headphones,html.Page,0_1,2021-11-05T13:40:32.491Z,,,,,,,,,,,,,,,,,,,,,,,,,,,,,,1962.1089999970209,,form submission,,,,,,,,,,,,,,,,33480.79999999702,33480.29999999702,31501.518,31519.89999999106,31518.191,33485.303,,,
Holding screen,html.Screen,0_2_0_0,2021-11-05T13:40:42.487Z,,,,,,,,,,,,,,,,,,,,,,,,,,,,,,10002.525000000001,,timeout,,,,,,,,,,,,,,,,43477.5,43471.158,33468.632,33481.20000000298,33485.303,43487.828,,,
screen,html.Screen,0_2_0_1_0,2021-11-05T13:40:43.378Z,,,,,,,,,,,,,,,,53,,,,,,,,,,,,,,878.7719999940382,,response,,,99,,,,,,Space,keypress(Space),,,,,When -- ----- -- ------ - ------- --- ----------<br>------------- ------ ------ ---- ---- ------- ----- -- ----<br>-------- ------- -- ---------- --- - --- ----- ----- ----<br>---- --- --- ----- --- ---- ---- ------- ----- ---- -------<br>--- --- -- ----- -- --- ---- -- --- ---- -- ------ ------<br>--- ----- -- ----,44368,44366.59999999404,43471.158,43477.89999999106,43487.828,44371.616,,0,When
screen,html.Screen,0_2_0_1_1,2021-11-05T13:40:44.081Z,,,,,,,,,,,,,,,,53,,,,,,,,,,,,,,698.8839999999982,,response,,,99,,,,,,Space,keypress(Space),,,,,---- it ----- -- ------ - ------- --- ----------<br>------------- ------ ------ ---- ---- ------- ----- -- ----<br>-------- ------- -- ---------- --- - --- ----- ----- ----<br>---- --- --- ----- --- ---- ---- ------- ----- ---- -------<br>--- --- -- ----- -- --- ---- -- --- ---- -- ------ ------<br>--- ----- -- ----,45071.39999999106,45070.5,44354.944,44368.29999999702,44371.616,45088.374,,1,it
screen,html.Screen,0_2_0_1_2,2021-11-05T13:40:44.577Z,,,,,,,,,,,,,,,,53,,,,,,,,,,,,,,478.12599999999657,,response,,,99,,,,,,Space,keypress(Space),,,,,---- -- comes -- ------ - ------- --- ----------<br>------------- ------ ------ ---- ---- ------- ----- -- ----<br>-------- ------- -- ---------- --- - --- ----- ----- ----<br>---- --- --- ----- --- ---- ---- ------- ----- ---- -------<br>--- --- -- ----- -- --- ---- -- --- ---- -- ------ ------<br>--- ----- -- ----,45567.39999999106,45566.5,45071.704,45071.79999999702,45088.374,45571.903,,2,comes
screen,html.Screen,0_2_0_1_3,2021-11-05T13:40:45.089Z,,,,,,,,,,,,,,,,53,,,,,,,,,,,,,,506.5970000000016,,response,,,99,,,,,,Space,keypress(Space),,,,,---- -- ----- to ------ - ------- --- ----------<br>------------- ------ ------ ---- ---- ------- ----- -- ----<br>-------- ------- -- ---------- --- - --- ----- ----- ----<br>---- --- --- ----- --- ---- ---- ------- ----- ---- -------<br>--- --- -- ----- -- --- ---- -- --- ---- -- ------ ------<br>--- ----- -- ----,46079.5,46078.5,45555.232,45567.59999999404,45571.903,46088.735,,3,to
screen,html.Screen,0_2_0_1_4,2021-11-05T13:40:45.594Z,,,,,,,,,,,,,,,,53,,,,,,,,,,,,,,493.7649999999994,,response,,,99,,,,,,Space,keypress(Space),,,,,---- -- ----- -- having - ------- --- ----------<br>------------- ------ ------ ---- ---- ------- ----- -- ----<br>-------- ------- -- ---------- --- - --- ----- ----- ----<br>---- --- --- ----- --- ---- ---- ------- ----- ---- -------<br>--- --- -- ----- -- --- ---- -- --- ---- -- ------ ------<br>--- ----- -- ----,46583.59999999404,46582.5,46072.064,46080,46088.735,46588.652,,4,having
screen,html.Screen,0_2_0_1_5,2021-11-05T13:40:46.073Z,,,,,,,,,,,,,,,,53,,,,,,,,,,,,,,473.84799999999814,,response,,,99,,,,,,Space,keypress(Space),,,,,---- -- ----- -- ------ a ------- --- ----------<br>------------- ------ ------ ---- ---- ------- ----- -- ----<br>-------- ------- -- ---------- --- - --- ----- ----- ----<br>---- --- --- ----- --- ---- ---- ------- ----- ---- -------<br>--- --- -- ----- -- --- ---- -- --- ---- -- ------ ------<br>--- ----- -- ----,47063.39999999106,47062.5,46571.984,46584,46588.652,47072.367,,5,a
screen,html.Screen,0_2_0_1_6,2021-11-05T13:40:46.593Z,,,,,,,,,,,,,,,,53,,,,,,,,,,,,,,510.13300000000163,,response,,,99,,,,,,Space,keypress(Space),,,,,---- -- ----- -- ------ - lasting --- ----------<br>------------- ------ ------ ---- ---- ------- ----- -- ----<br>-------- ------- -- ---------- --- - --- ----- ----- ----<br>---- --- --- ----- --- ---- ---- ------- ----- ---- -------<br>--- --- -- ----- -- --- ---- -- --- ---- -- ------ ------<br>--- ----- -- ----,47583.39999999106,47582.5,47055.695,47063.89999999106,47072.367,47589.141,,6,lasting
screen,html.Screen,0_2_0_1_7,2021-11-05T13:40:47.338Z,,,,,,,,,,,,,,,,53,,,,,,,,,,,,,,737.6589999970165,,response,,,99,,,,,,Space,keypress(Space),,,,,---- -- ----- -- ------ - ------- and ----------<br>------------- ------ ------ ---- ---- ------- ----- -- ----<br>-------- ------- -- ---------- --- - --- ----- ----- ----<br>---- --- --- ----- --- ---- ---- ------- ----- ---- -------<br>--- --- -- ----- -- --- ---- -- --- ---- -- ------ ------<br>--- ----- -- ----,48327.79999999702,48326.79999999702,47572.47,47583.70000000298,47589.141,48355.932,,7,and
screen,html.Screen,0_2_0_1_8,2021-11-05T13:40:48.066Z,,,,,,,,,,,,,,,,53,,,,,,,,,,,,,,698.4679999910586,,response,,,99,,,,,,Space,keypress(Space),,,,,---- -- ----- -- ------ - ------- --- fulfilling<br>------------- ------ ------ ---- ---- ------- ----- -- ----<br>-------- ------- -- ---------- --- - --- ----- ----- ----<br>---- --- --- ----- --- ---- ---- ------- ----- ---- -------<br>--- --- -- ----- -- --- ---- -- --- ---- -- ------ ------<br>--- ----- -- ----,49055.59999999404,49054.39999999106,48339.262,48328.09999999404,48355.932,49072.842,,8,fulfilling
screen,html.Screen,0_2_0_1_9,2021-11-05T13:40:49.865Z,,,,,,,,,,,,,,,,53,,,,,,,,,,,,,,1781.4579999970229,,response,,,99,,,,,,Space,keypress(Space),,,,,"---- -- ----- -- ------ - ------- --- ----------<br>relationship, ------ ------ ---- ---- ------- ----- -- ----<br>-------- ------- -- ---------- --- - --- ----- ----- ----<br>---- --- --- ----- --- ---- ---- ------- ----- ---- -------<br>--- --- -- ----- -- --- ---- -- --- ---- -- ------ ------<br>--- ----- -- ----",50855.20000000298,50854.29999999702,49056.171,49055.89999999106,49072.842,50856.652,,9,"relationship,"
screen,html.Screen,0_2_0_1_10,2021-11-05T13:40:50.610Z,,,,,,,,,,,,,,,,53,,,,,,,,,,,,,,742.0480000029784,,response,,,99,,,,,,Space,keypress(Space),,,,,---- -- ----- -- ------ - ------- --- ----------<br>------------- common ------ ---- ---- ------- ----- -- ----<br>-------- ------- -- ---------- --- - --- ----- ----- ----<br>---- --- --- ----- --- ---- ---- ------- ----- ---- -------<br>--- --- -- ----- -- --- ---- -- --- ---- -- ------ ------<br>--- ----- -- ----,51599.59999999404,51598.70000000298,50839.981,50855.59999999404,50856.652,51606.854,,10,common
screen,html.Screen,0_2_0_1_11,2021-11-05T13:40:51.353Z,,,,,,,,,,,,,,,,53,,,,,,,,,,,,,,735.4459999970204,,response,,,99,,,,,,Space,keypress(Space),,,,,---- -- ----- -- ------ - ------- --- ----------<br>------------- ------ wisdom ---- ---- ------- ----- -- ----<br>-------- ------- -- ---------- --- - --- ----- ----- ----<br>---- --- --- ----- --- ---- ---- ------- ----- ---- -------<br>--- --- -- ----- -- --- ---- -- --- ---- -- ------ ------<br>--- ----- -- ----,52343.20000000298,52342.29999999702,51590.183,51599.89999999106,51606.854,52357.054,,11,wisdom
screen,html.Screen,0_2_0_1_12,2021-11-05T13:40:51.977Z,,,,,,,,,,,,,,,,53,,,,,,,,,,,,,,609.2459999970233,,response,,,99,,,,,,Space,keypress(Space),,,,,---- -- ----- -- ------ - ------- --- ----------<br>------------- ------ ------ says ---- ------- ----- -- ----<br>-------- ------- -- ---------- --- - --- ----- ----- ----<br>---- --- --- ----- --- ---- ---- ------- ----- ---- -------<br>--- --- -- ----- -- --- ---- -- --- ---- -- ------ ------<br>--- ----- -- ----,52967.09999999404,52966.29999999702,52340.383,52343.39999999106,52357.054,52973.915,,12,says
screen,html.Screen,0_2_0_1_13,2021-11-05T13:40:52.609Z,,,,,,,,,,,,,,,,53,,,,,,,,,,,,,,624.1849999940387,,response,,,99,,,,,,Space,keypress(Space),,,,,---- -- ----- -- ------ - ------- --- ----------<br>------------- ------ ------ ---- that ------- ----- -- ----<br>-------- ------- -- ---------- --- - --- ----- ----- ----<br>---- --- --- ----- --- ---- ---- ------- ----- ---- -------<br>--- --- -- ----- -- --- ---- -- --- ---- -- ------ ------<br>--- ----- -- ----,53598.89999999106,53598.09999999404,52957.244,52967.39999999106,52973.915,53607.406,,13,that
screen,html.Screen,0_2_0_1_14,2021-11-05T13:40:56.305Z,,,,,,,,,,,,,,,,53,,,,,,,,,,,,,,3686.4939999910566,,response,,,99,,,,,,Space,keypress(Space),,,,,---- -- ----- -- ------ - ------- --- ----------<br>------------- ------ ------ ---- ---- feeling ----- -- ----<br>-------- ------- -- ---------- --- - --- ----- ----- ----<br>---- --- --- ----- --- ---- ---- ------- ----- ---- -------<br>--- --- -- ----- -- --- ---- -- --- ---- -- ------ ------<br>--- ----- -- ----,57294.70000000298,57293.89999999106,53590.735,53599.09999999404,53607.406,57308.378,,14,feeling
screen,html.Screen,0_2_0_1_15,2021-11-05T13:40:57.433Z,,,,,,,,,,,,,,,,53,,,,,,,,,,,,,,1113.5219999910623,,response,,,99,,,,,,Space,keypress(Space),,,,,---- -- ----- -- ------ - ------- --- ----------<br>------------- ------ ------ ---- ---- ------- close -- ----<br>-------- ------- -- ---------- --- - --- ----- ----- ----<br>---- --- --- ----- --- ---- ---- ------- ----- ---- -------<br>--- --- -- ----- -- --- ---- -- --- ---- -- ------ ------<br>--- ----- -- ----,58422.79999999702,58421.89999999106,57291.707,57295,57308.378,58425.213,,15,close
screen,html.Screen,0_2_0_1_16,2021-11-05T13:40:58.041Z,,,,,,,,,,,,,,,,53,,,,,,,,,,,,,,604.6869999910559,,response,,,99,,,,,,Space,keypress(Space),,,,,---- -- ----- -- ------ - ------- --- ----------<br>------------- ------ ------ ---- ---- ------- ----- to ----<br>-------- ------- -- ---------- --- - --- ----- ----- ----<br>---- --- --- ----- --- ---- ---- ------- ----- ---- -------<br>--- --- -- ----- -- --- ---- -- --- ---- -- ------ ------<br>--- ----- -- ----,59030.79999999702,59029.89999999106,58408.543,58423.20000000298,58425.213,59042.063,,16,to
screen,html.Screen,0_2_0_1_17,2021-11-05T13:40:58.561Z,,,,,,,,,,,,,,,,53,,,,,,,,,,,,,,507.8369999910574,,response,,,99,,,,,,Space,keypress(Space),,,,,---- -- ----- -- ------ - ------- --- ----------<br>------------- ------ ------ ---- ---- ------- ----- -- your<br>-------- ------- -- ---------- --- - --- ----- ----- ----<br>---- --- --- ----- --- ---- ---- ------- ----- ---- -------<br>--- --- -- ----- -- --- ---- -- --- ---- -- ------ ------<br>--- ----- -- ----,59550.79999999702,59549.89999999106,59025.393,59031.29999999702,59042.063,59559.069,,17,your
screen,html.Screen,0_2_0_1_18,2021-11-05T13:40:59.220Z,,,,,,,,,,,,,,,,53,,,,,,,,,,,,,,646.8309999910562,,response,,,99,,,,,,Space,keypress(Space),,,,,---- -- ----- -- ------ - ------- --- ----------<br>------------- ------ ------ ---- ---- ------- ----- -- ----<br>romantic ------- -- ---------- --- - --- ----- ----- ----<br>---- --- --- ----- --- ---- ---- ------- ----- ---- -------<br>--- --- -- ----- -- --- ---- -- --- ---- -- ------ ------<br>--- ----- -- ----,60206.79999999702,60205.89999999106,59542.397,59551.20000000298,59559.069,60209.176,,18,romantic
screen,html.Screen,0_2_0_1_19,2021-11-05T13:40:59.788Z,,,,,,,,,,,,,,,,53,,,,,,,,,,,,,,564.7239999910598,,response,,,99,,,,,,Space,keypress(Space),,,,,---- -- ----- -- ------ - ------- --- ----------<br>------------- ------ ------ ---- ---- ------- ----- -- ----<br>-------- partner -- ---------- --- - --- ----- ----- ----<br>---- --- --- ----- --- ---- ---- ------- ----- ---- -------<br>--- --- -- ----- -- --- ---- -- --- ---- -- ------ ------<br>--- ----- -- ----,60774.70000000298,60773.89999999106,60192.505,60207,60209.176,60775.992,,19,partner
screen,html.Screen,0_2_0_1_20,2021-11-05T13:41:00.292Z,,,,,,,,,,,,,,,,53,,,,,,,,,,,,,,501.90799999106093,,response,,,99,,,,,,Space,keypress(Space),,,,,---- -- ----- -- ------ - ------- --- ----------<br>------------- ------ ------ ---- ---- ------- ----- -- ----<br>-------- ------- is ---------- --- - --- ----- ----- ----<br>---- --- --- ----- --- ---- ---- ------- ----- ---- -------<br>--- --- -- ----- -- --- ---- -- --- ---- -- ------ ------<br>--- ----- -- ----,61278.70000000298,61277.89999999106,60759.321,60775,60775.992,61292.745,,20,is
screen,html.Screen,0_2_0_1_21,2021-11-05T13:41:02.684Z,,,,,,,,,,,,,,,,53,,,,,,,,,,,,,,2377.554999997017,,response,,,99,,,,,,Space,keypress(Space),,,,,---- -- ----- -- ------ - ------- --- ----------<br>------------- ------ ------ ---- ---- ------- ----- -- ----<br>-------- ------- -- paramount. --- - --- ----- ----- ----<br>---- --- --- ----- --- ---- ---- ------- ----- ---- -------<br>--- --- -- ----- -- --- ---- -- --- ---- -- ------ ------<br>--- ----- -- ----,63671.09999999404,63670.29999999702,61276.075,61279.09999999404,61292.745,63676.785,,21,paramount.
screen,html.Screen,0_2_0_1_22,2021-11-05T13:41:03.523Z,,,,,,,,,,,,,,,,53,,,,,,,,,,,,,,832.9150000029767,,response,,,99,,,,,,Space,keypress(Space),,,,,---- -- ----- -- ------ - ------- --- ----------<br>------------- ------ ------ ---- ---- ------- ----- -- ----<br>-------- ------- -- ---------- But - --- ----- ----- ----<br>---- --- --- ----- --- ---- ---- ------- ----- ---- -------<br>--- --- -- ----- -- --- ---- -- --- ---- -- ------ ------<br>--- ----- -- ----,64510.59999999404,64509.70000000298,63660.114,63671.70000000298,63676.785,64526.5,,22,But
screen,html.Screen,0_2_0_1_23,2021-11-05T13:41:04.139Z,,,,,,,,,,,,,,,,53,,,,,,,,,,,,,,599.2000000029802,,response,,,99,,,,,,Space,keypress(Space),,,,,---- -- ----- -- ------ - ------- --- ----------<br>------------- ------ ------ ---- ---- ------- ----- -- ----<br>-------- ------- -- ---------- --- a --- ----- ----- ----<br>---- --- --- ----- --- ---- ---- ------- ----- ---- -------<br>--- --- -- ----- -- --- ---- -- --- ---- -- ------ ------<br>--- ----- -- ----,65126.59999999404,65125.70000000298,64509.832,64510.89999999106,64526.5,65143.773,,23,a
screen,html.Screen,0_2_0_1_24,2021-11-05T13:41:04.683Z,,,,,,,,,,,,,,,,53,,,,,,,,,,,,,,525.726999999999,,response,,,99,,,,,,Space,keypress(Space),,,,,---- -- ----- -- ------ - ------- --- ----------<br>------------- ------ ------ ---- ---- ------- ----- -- ----<br>-------- ------- -- ---------- --- - new ----- ----- ----<br>---- --- --- ----- --- ---- ---- ------- ----- ---- -------<br>--- --- -- ----- -- --- ---- -- --- ---- -- ------ ------<br>--- ----- -- ----,65670.29999999702,65669.5,65127.102,65126.89999999106,65143.773,65677.274,,24,new
screen,html.Screen,0_2_0_1_25,2021-11-05T13:41:05.179Z,,,,,,,,,,,,,,,,53,,,,,,,,,,,,,,488.32599999403465,,response,,,99,,,,,,Space,keypress(Space),,,,,---- -- ----- -- ------ - ------- --- ----------<br>------------- ------ ------ ---- ---- ------- ----- -- ----<br>-------- ------- -- ---------- --- - --- study ----- ----<br>---- --- --- ----- --- ---- ---- ------- ----- ---- -------<br>--- --- -- ----- -- --- ---- -- --- ---- -- ------ ------<br>--- ----- -- ----,66166.5,66165.59999999404,65660.603,65670.70000000298,65677.274,66177.397,,25,study
screen,html.Screen,0_2_0_1_26,2021-11-05T13:41:05.731Z,,,,,,,,,,,,,,,,53,,,,,,,,,,,,,,540.2029999940423,,response,,,99,,,,,,Space,keypress(Space),,,,,---- -- ----- -- ------ - ------- --- ----------<br>------------- ------ ------ ---- ---- ------- ----- -- ----<br>-------- ------- -- ---------- --- - --- ----- finds ----<br>---- --- --- ----- --- ---- ---- ------- ----- ---- -------<br>--- --- -- ----- -- --- ---- -- --- ---- -- ------ ------<br>--- ----- -- ----,66718.5,66717.59999999404,66160.726,66166.89999999106,66177.397,66727.64,,26,finds
screen,html.Screen,0_2_0_1_27,2021-11-05T13:41:06.171Z,,,,,,,,,,,,,,,,53,,,,,,,,,,,,,,430.0600000029808,,response,,,99,,,,,,Space,keypress(Space),,,,,---- -- ----- -- ------ - ------- --- ----------<br>------------- ------ ------ ---- ---- ------- ----- -- ----<br>-------- ------- -- ---------- --- - --- ----- ----- that<br>---- --- --- ----- --- ---- ---- ------- ----- ---- -------<br>--- --- -- ----- -- --- ---- -- --- ---- -- ------ ------<br>--- ----- -- ----,67158.39999999106,67157.70000000298,66710.968,66718.79999999702,66727.64,67161.044,,27,that
screen,html.Screen,0_2_0_1_28,2021-11-05T13:41:07.075Z,,,,,,,,,,,,,,,,53,,,,,,,,,,,,,,900.5559999940451,,response,,,99,,,,,,Space,keypress(Space),,,,,---- -- ----- -- ------ - ------- --- ----------<br>------------- ------ ------ ---- ---- ------- ----- -- ----<br>-------- ------- -- ---------- --- - --- ----- ----- ----<br>it's --- --- ----- --- ---- ---- ------- ----- ---- -------<br>--- --- -- ----- -- --- ---- -- --- ---- -- ------ ------<br>--- ----- -- ----,68062.5,68061.59999999404,67144.373,67158.59999999404,67161.044,68077.953,,28,it's
screen,html.Screen,0_2_0_1_29,2021-11-05T13:41:07.603Z,,,,,,,,,,,,,,,,53,,,,,,,,,,,,,,511.54700000000594,,response,,,99,,,,,,Space,keypress(Space),,,,,---- -- ----- -- ------ - ------- --- ----------<br>------------- ------ ------ ---- ---- ------- ----- -- ----<br>-------- ------- -- ---------- --- - --- ----- ----- ----<br>---- not --- ----- --- ---- ---- ------- ----- ---- -------<br>--- --- -- ----- -- --- ---- -- --- ---- -- ------ ------<br>--- ----- -- ----,68590.29999999702,68589.5,68061.282,68062.70000000298,68077.953,68594.76,,29,not
screen,html.Screen,0_2_0_1_30,2021-11-05T13:41:08.243Z,,,,,,,,,,,,,,,,53,,,,,,,,,,,,,,634.7400000000052,,response,,,99,,,,,,Space,keypress(Space),,,,,---- -- ----- -- ------ - ------- --- ----------<br>------------- ------ ------ ---- ---- ------- ----- -- ----<br>-------- ------- -- ---------- --- - --- ----- ----- ----<br>---- --- how ----- --- ---- ---- ------- ----- ---- -------<br>--- --- -- ----- -- --- ---- -- --- ---- -- ------ ------<br>--- ----- -- ----,69230.29999999702,69229.5,68578.089,68590.59999999404,68594.76,69244.879,,30,how
screen,html.Screen,0_2_0_1_31,2021-11-05T13:41:08.923Z,,,,,,,,,,,,,,,,53,,,,,,,,,,,,,,664.6209999999992,,response,,,99,,,,,,Space,keypress(Space),,,,,---- -- ----- -- ------ - ------- --- ----------<br>------------- ------ ------ ---- ---- ------- ----- -- ----<br>-------- ------- -- ---------- --- - --- ----- ----- ----<br>---- --- --- close --- ---- ---- ------- ----- ---- -------<br>--- --- -- ----- -- --- ---- -- --- ---- -- ------ ------<br>--- ----- -- ----,69910.29999999702,69909.5,69228.209,69230.5,69244.879,69911.775,,31,close
screen,html.Screen,0_2_0_1_32,2021-11-05T13:41:09.443Z,,,,,,,,,,,,,,,,53,,,,,,,,,,,,,,517.6249999910651,,response,,,99,,,,,,Space,keypress(Space),,,,,---- -- ----- -- ------ - ------- --- ----------<br>------------- ------ ------ ---- ---- ------- ----- -- ----<br>-------- ------- -- ---------- --- - --- ----- ----- ----<br>---- --- --- ----- you ---- ---- ------- ----- ---- -------<br>--- --- -- ----- -- --- ---- -- --- ---- -- ------ ------<br>--- ----- -- ----,70430.20000000298,70429.39999999106,69895.104,69910.59999999404,69911.775,70445.254,,32,you
screen,html.Screen,0_2_0_1_33,2021-11-05T13:41:09.963Z,,,,,,,,,,,,,,,,53,,,,,,,,,,,,,,504.1459999910585,,response,,,99,,,,,,Space,keypress(Space),,,,,---- -- ----- -- ------ - ------- --- ----------<br>------------- ------ ------ ---- ---- ------- ----- -- ----<br>-------- ------- -- ---------- --- - --- ----- ----- ----<br>---- --- --- ----- --- feel ---- ------- ----- ---- -------<br>--- --- -- ----- -- --- ---- -- --- ---- -- ------ ------<br>--- ----- -- ----,70950.20000000298,70949.39999999106,70428.583,70430.39999999106,70445.254,70961.989,,33,feel
screen,html.Screen,0_2_0_1_34,2021-11-05T13:41:10.491Z,,,,,,,,,,,,,,,,53,,,,,,,,,,,,,,515.4109999910579,,response,,,99,,,,,,Space,keypress(Space),,,,,---- -- ----- -- ------ - ------- --- ----------<br>------------- ------ ------ ---- ---- ------- ----- -- ----<br>-------- ------- -- ---------- --- - --- ----- ----- ----<br>---- --- --- ----- --- ---- that ------- ----- ---- -------<br>--- --- -- ----- -- --- ---- -- --- ---- -- ------ ------<br>--- ----- -- ----,71478.20000000298,71477.39999999106,70945.319,70950.5,70961.989,71495.568,,34,that
screen,html.Screen,0_2_0_1_35,2021-11-05T13:41:11.083Z,,,,,,,,,,,,,,,,53,,,,,,,,,,,,,,573.83199999106,,response,,,99,,,,,,Space,keypress(Space),,,,,---- -- ----- -- ------ - ------- --- ----------<br>------------- ------ ------ ---- ---- ------- ----- -- ----<br>-------- ------- -- ---------- --- - --- ----- ----- ----<br>---- --- --- ----- --- ---- ---- matters ----- ---- -------<br>--- --- -- ----- -- --- ---- -- --- ---- -- ------ ------<br>--- ----- -- ----,72070.5,72069.39999999106,71478.897,71478.39999999106,71495.568,72079.047,,35,matters
screen,html.Screen,0_2_0_1_36,2021-11-05T13:41:11.771Z,,,,,,,,,,,,,,,,53,,,,,,,,,,,,,,678.3529999910534,,response,,,99,,,,,,Space,keypress(Space),,,,,"---- -- ----- -- ------ - ------- --- ----------<br>------------- ------ ------ ---- ---- ------- ----- -- ----<br>-------- ------- -- ---------- --- - --- ----- ----- ----<br>---- --- --- ----- --- ---- ---- ------- most, ---- -------<br>--- --- -- ----- -- --- ---- -- --- ---- -- ------ ------<br>--- ----- -- ----",72758.20000000298,72757.39999999106,72062.376,72070.79999999702,72079.047,72762.298,,36,"most,"
screen,html.Screen,0_2_0_1_37,2021-11-05T13:41:12.459Z,,,,,,,,,,,,,,,,53,,,,,,,,,,,,,,683.0019999970245,,response,,,99,,,,,,Space,keypress(Space),,,,,---- -- ----- -- ------ - ------- --- ----------<br>------------- ------ ------ ---- ---- ------- ----- -- ----<br>-------- ------- -- ---------- --- - --- ----- ----- ----<br>---- --- --- ----- --- ---- ---- ------- ----- it's -------<br>--- --- -- ----- -- --- ---- -- --- ---- -- ------ ------<br>--- ----- -- ----,73446.20000000298,73445.29999999702,72745.63,72758.5,72762.298,73462.818,,37,it's
screen,html.Screen,0_2_0_1_38,2021-11-05T13:41:12.971Z,,,,,,,,,,,,,,,,53,,,,,,,,,,,,,,494.78199999404023,,response,,,99,,,,,,Space,keypress(Space),,,,,---- -- ----- -- ------ - ------- --- ----------<br>------------- ------ ------ ---- ---- ------- ----- -- ----<br>-------- ------- -- ---------- --- - --- ----- ----- ----<br>---- --- --- ----- --- ---- ---- ------- ----- ---- whether<br>--- --- -- ----- -- --- ---- -- --- ---- -- ------ ------<br>--- ----- -- ----,73958.29999999702,73957.59999999404,73446.146,73446.39999999106,73462.818,73962.829,,38,whether
screen,html.Screen,0_2_0_1_39,2021-11-05T13:41:13.451Z,,,,,,,,,,,,,,,,53,,,,,,,,,,,,,,474.47099999702186,,response,,,99,,,,,,Space,keypress(Space),,,,,---- -- ----- -- ------ - ------- --- ----------<br>------------- ------ ------ ---- ---- ------- ----- -- ----<br>-------- ------- -- ---------- --- - --- ----- ----- ----<br>---- --- --- ----- --- ---- ---- ------- ----- ---- -------<br>you --- -- ----- -- --- ---- -- --- ---- -- ------ ------<br>--- ----- -- ----,74438.09999999404,74437.29999999702,73946.159,73958.59999999404,73962.829,74446.334,,39,you
screen,html.Screen,0_2_0_1_40,2021-11-05T13:41:13.899Z,,,,,,,,,,,,,,,,53,,,,,,,,,,,,,,438.9659999970172,,response,,,99,,,,,,Space,keypress(Space),,,,,---- -- ----- -- ------ - ------- --- ----------<br>------------- ------ ------ ---- ---- ------- ----- -- ----<br>-------- ------- -- ---------- --- - --- ----- ----- ----<br>---- --- --- ----- --- ---- ---- ------- ----- ---- -------<br>--- are -- ----- -- --- ---- -- --- ---- -- ------ ------<br>--- ----- -- ----,74886.09999999404,74885.29999999702,74429.663,74438.29999999702,74446.334,74896.314,,40,are
screen,html.Screen,0_2_0_1_41,2021-11-05T13:41:14.403Z,,,,,,,,,,,,,,,,53,,,,,,,,,,,,,,492.9859999970213,,response,,,99,,,,,,Space,keypress(Space),,,,,---- -- ----- -- ------ - ------- --- ----------<br>------------- ------ ------ ---- ---- ------- ----- -- ----<br>-------- ------- -- ---------- --- - --- ----- ----- ----<br>---- --- --- ----- --- ---- ---- ------- ----- ---- -------<br>--- --- as ----- -- --- ---- -- --- ---- -- ------ ------<br>--- ----- -- ----,75390,75389.29999999702,74879.645,74886.39999999106,74896.314,75396.666,,41,as
screen,html.Screen,0_2_0_1_42,2021-11-05T13:41:14.939Z,,,,,,,,,,,,,,,,53,,,,,,,,,,,,,,528.6339999970223,,response,,,99,,,,,,Space,keypress(Space),,,,,---- -- ----- -- ------ - ------- --- ----------<br>------------- ------ ------ ---- ---- ------- ----- -- ----<br>-------- ------- -- ---------- --- - --- ----- ----- ----<br>---- --- --- ----- --- ---- ---- ------- ----- ---- -------<br>--- --- -- close -- --- ---- -- --- ---- -- ------ ------<br>--- ----- -- ----,75926,75925.29999999702,75379.994,75390.29999999702,75396.666,75930.084,,42,close
screen,html.Screen,0_2_0_1_43,2021-11-05T13:41:15.427Z,,,,,,,,,,,,,,,,53,,,,,,,,,,,,,,483.11600000297767,,response,,,99,,,,,,Space,keypress(Space),,,,,---- -- ----- -- ------ - ------- --- ----------<br>------------- ------ ------ ---- ---- ------- ----- -- ----<br>-------- ------- -- ---------- --- - --- ----- ----- ----<br>---- --- --- ----- --- ---- ---- ------- ----- ---- -------<br>--- --- -- ----- as --- ---- -- --- ---- -- ------ ------<br>--- ----- -- ----,76414,76413.20000000298,75913.413,75926.29999999702,75930.084,76430.161,,43,as
screen,html.Screen,0_2_0_1_44,2021-11-05T13:41:15.915Z,,,,,,,,,,,,,,,,53,,,,,,,,,,,,,,471.03900000298745,,response,,,99,,,,,,Space,keypress(Space),,,,,---- -- ----- -- ------ - ------- --- ----------<br>------------- ------ ------ ---- ---- ------- ----- -- ----<br>-------- ------- -- ---------- --- - --- ----- ----- ----<br>---- --- --- ----- --- ---- ---- ------- ----- ---- -------<br>--- --- -- ----- -- you ---- -- --- ---- -- ------ ------<br>--- ----- -- ----,76902,76901.20000000298,76413.491,76414.29999999702,76430.161,76913.664,,44,you
screen,html.Screen,0_2_0_1_45,2021-11-05T13:41:16.419Z,,,,,,,,,,,,,,,,53,,,,,,,,,,,,,,491.5360000029759,,response,,,99,,,,,,Space,keypress(Space),,,,,---- -- ----- -- ------ - ------- --- ----------<br>------------- ------ ------ ---- ---- ------- ----- -- ----<br>-------- ------- -- ---------- --- - --- ----- ----- ----<br>---- --- --- ----- --- ---- ---- ------- ----- ---- -------<br>--- --- -- ----- -- --- want -- --- ---- -- ------ ------<br>--- ----- -- ----,77406,77405.20000000298,76896.993,76902.20000000298,76913.664,77413.801,,45,want
screen,html.Screen,0_2_0_1_46,2021-11-05T13:41:16.883Z,,,,,,,,,,,,,,,,53,,,,,,,,,,,,,,455.19899999999325,,response,,,99,,,,,,Space,keypress(Space),,,,,---- -- ----- -- ------ - ------- --- ----------<br>------------- ------ ------ ---- ---- ------- ----- -- ----<br>-------- ------- -- ---------- --- - --- ----- ----- ----<br>---- --- --- ----- --- ---- ---- ------- ----- ---- -------<br>--- --- -- ----- -- --- ---- to --- ---- -- ------ ------<br>--- ----- -- ----,77869.70000000298,77869,77397.13,77406.29999999702,77413.801,77880.535,,46,to
screen,html.Screen,0_2_0_1_47,2021-11-05T13:41:17.323Z,,,,,,,,,,,,,,,,53,,,,,,,,,,,,,,428.4649999999965,,response,,,99,,,,,,Space,keypress(Space),,,,,"---- -- ----- -- ------ - ------- --- ----------<br>------------- ------ ------ ---- ---- ------- ----- -- ----<br>-------- ------- -- ---------- --- - --- ----- ----- ----<br>---- --- --- ----- --- ---- ---- ------- ----- ---- -------<br>--- --- -- ----- -- --- ---- -- be, ---- -- ------ ------<br>--- ----- -- ----",78309.79999999702,78309,77863.865,77870,77880.535,78314.068,,47,"be,"
screen,html.Screen,0_2_0_1_48,2021-11-05T13:41:17.859Z,,,,,,,,,,,,,,,,53,,,,,,,,,,,,,,531.0319999940402,,response,,,99,,,,,,Space,keypress(Space),,,,,---- -- ----- -- ------ - ------- --- ----------<br>------------- ------ ------ ---- ---- ------- ----- -- ----<br>-------- ------- -- ---------- --- - --- ----- ----- ----<br>---- --- --- ----- --- ---- ---- ------- ----- ---- -------<br>--- --- -- ----- -- --- ---- -- --- even -- ------ ------<br>--- ----- -- ----,78846,78845.09999999404,78297.397,78310,78314.068,78847.316,,48,even
screen,html.Screen,0_2_0_1_49,2021-11-05T13:41:18.347Z,,,,,,,,,,,,,,,,53,,,,,,,,,,,,,,485.78399999403337,,response,,,99,,,,,,Space,keypress(Space),,,,,---- -- ----- -- ------ - ------- --- ----------<br>------------- ------ ------ ---- ---- ------- ----- -- ----<br>-------- ------- -- ---------- --- - --- ----- ----- ----<br>---- --- --- ----- --- ---- ---- ------- ----- ---- -------<br>--- --- -- ----- -- --- ---- -- --- ---- if ------ ------<br>--- ----- -- ----,79333.79999999702,79333.09999999404,78830.648,78846.20000000298,78847.316,79347.717,,49,if
screen,html.Screen,0_2_0_1_50,2021-11-05T13:41:18.955Z,,,,,,,,,,,,,,,,53,,,,,,,,,,,,,,593.3829999940353,,response,,,99,,,,,,Space,keypress(Space),,,,,---- -- ----- -- ------ - ------- --- ----------<br>------------- ------ ------ ---- ---- ------- ----- -- ----<br>-------- ------- -- ---------- --- - --- ----- ----- ----<br>---- --- --- ----- --- ---- ---- ------- ----- ---- -------<br>--- --- -- ----- -- --- ---- -- --- ---- -- that's ------<br>--- ----- -- ----,79941.89999999106,79941.09999999404,79331.045,79334.29999999702,79347.717,79947.822,,50,that's
screen,html.Screen,0_2_0_1_51,2021-11-05T13:41:19.451Z,,,,,,,,,,,,,,,,53,,,,,,,,,,,,,,489.1779999999999,,response,,,99,,,,,,Space,keypress(Space),,,,,---- -- ----- -- ------ - ------- --- ----------<br>------------- ------ ------ ---- ---- ------- ----- -- ----<br>-------- ------- -- ---------- --- - --- ----- ----- ----<br>---- --- --- ----- --- ---- ---- ------- ----- ---- -------<br>--- --- -- ----- -- --- ---- -- --- ---- -- ------ really<br>--- ----- -- ----,80438,80437,79931.151,79945.09999999404,79947.822,80447.867,,51,really
screen,html.Screen,0_2_0_1_52,2021-11-05T13:41:20.035Z,,,,,,,,,,,,,,,,53,,,,,,,,,,,,,,573.0329999910609,,response,,,99,,,,,,Space,keypress(Space),,,,,---- -- ----- -- ------ - ------- --- ----------<br>------------- ------ ------ ---- ---- ------- ----- -- ----<br>-------- ------- -- ---------- --- - --- ----- ----- ----<br>---- --- --- ----- --- ---- ---- ------- ----- ---- -------<br>--- --- -- ----- -- --- ---- -- --- ---- -- ------ ------<br>not ----- -- ----,81021.79999999702,81020.89999999106,80431.197,80438.29999999702,80447.867,81031.438,,52,not
screen,html.Screen,0_2_0_1_53,2021-11-05T13:41:20.571Z,,,,,,,,,,,,,,,,53,,,,,,,,,,,,,,525.4619999910647,,response,,,99,,,,,,Space,keypress(Space),,,,,---- -- ----- -- ------ - ------- --- ----------<br>------------- ------ ------ ---- ---- ------- ----- -- ----<br>-------- ------- -- ---------- --- - --- ----- ----- ----<br>---- --- --- ----- --- ---- ---- ------- ----- ---- -------<br>--- --- -- ----- -- --- ---- -- --- ---- -- ------ ------<br>--- close -- ----,81557.70000000298,81556.89999999106,81014.767,81022,81031.438,81564.908,,53,close
screen,html.Screen,0_2_0_1_54,2021-11-05T13:41:21.106Z,,,,,,,,,,,,,,,,53,,,,,,,,,,,,,,527.891999997024,,response,,,99,,,,,,Space,keypress(Space),,,,,---- -- ----- -- ------ - ------- --- ----------<br>------------- ------ ------ ---- ---- ------- ----- -- ----<br>-------- ------- -- ---------- --- - --- ----- ----- ----<br>---- --- --- ----- --- ---- ---- ------- ----- ---- -------<br>--- --- -- ----- -- --- ---- -- --- ---- -- ------ ------<br>--- ----- at ----,82093.59999999404,82092.79999999702,81548.237,81558,81564.908,82098.39,,54,at
screen,html.Screen,0_2_0_1_55,2021-11-05T13:41:21.554Z,,,,,,,,,,,,,,,,53,,,,,,,,,,,,,,442.40999999702035,,response,,,99,,,,,,Space,keypress(Space),,,,,---- -- ----- -- ------ - ------- --- ----------<br>------------- ------ ------ ---- ---- ------- ----- -- ----<br>-------- ------- -- ---------- --- - --- ----- ----- ----<br>---- --- --- ----- --- ---- ---- ------- ----- ---- -------<br>--- --- -- ----- -- --- ---- -- --- ---- -- ------ ------<br>--- ----- -- all.,82541.5,82540.79999999702,82081.719,82093.79999999702,82098.39,82548.467,,55,all.
Item 99,flow.Loop,0_2_0_1,2021-11-05T13:41:21.559Z,,,,,,,,,,,,,,,,,,,,,,,,,,,,,,39052.97199999702,,completion,,,,A,,,,,,,,,,silence,,82546,82540.79999999702,43471.158,43477.79999999702,43487.828,82548.467,,,
Question 1,html.Screen,0_2_0_2,2021-11-05T13:41:27.923Z,,,,,,,,,,,,,,,,,,,,,,,,,,,false,FALSE,,6360.032999999996,,response,,,99,A,,,,,TRUE,click #choice-1,,,,silence,,88909.89999999106,88908.5,82531.797,82546.20000000298,82548.467,88916.852,,,
Question 2,html.Screen,0_2_0_3,2021-11-05T13:41:33.642Z,,,,,,,,,,,,,,,,,,,,,,,,,,,true,TRUE,,5711.247999994041,,response,,,99,A,,,,,TRUE,click #choice-1,,,,silence,,94629.39999999106,94628.09999999404,88900.182,88910.20000000298,88916.852,94635.085,,,
Item 99,flow.Sequence,0_2_0,2021-11-05T13:41:33.643Z,,,,,,,,,,,,,,,,,,,,,,,,,,,,,,61142.79699999404,,completion,,,,,,,,,,,,,,,,94629.79999999702,94628.09999999404,33468.632,33481.20000000298,33485.303,94635.085,,,
Holding screen,html.Screen,0_2_1_0,2021-11-05T13:41:43.635Z,,,,,,,,,,,,,,,,,,,,,,,,,,,,,,10002.627999999997,,timeout,,,,,,,,,,,,,,,,104622.5,104621.042,94618.414,94630.20000000298,94635.085,104637.713,,,
screen,html.Screen,0_2_1_1_0,2021-11-05T13:41:45.682Z,,,,,,,,,,,,,,,,54,,,,,,,,,,,,,,2030.5869999970164,,response,,,100,,,,,,Space,keypress(Space),,,,,At --- ---- --- ------ ----- ------- ---- -- --- ------- --<br>------- ---------- ------ -- ----- -- ----- -- ---- ------<br>--- ----- --- --- ------ -------- ----- --- ------ ----- --<br>----- ----- ---------- --- --- ------ ------ ---- -- ------<br>------- --- ------ ----- --- ---- ------- -- ---- --- --<br>------- ------,106669.20000000298,106668.29999999702,104621.042,104622.89999999106,104637.713,106671.614,,0,At
screen,html.Screen,0_2_1_1_1,2021-11-05T13:41:46.530Z,,,,,,,,,,,,,,,,54,,,,,,,,,,,,,,844.1859999970184,,response,,,100,,,,,,Space,keypress(Space),,,,,-- the ---- --- ------ ----- ------- ---- -- --- ------- --<br>------- ---------- ------ -- ----- -- ----- -- ---- ------<br>--- ----- --- --- ------ -------- ----- --- ------ ----- --<br>----- ----- ---------- --- --- ------ ------ ---- -- ------<br>------- --- ------ ----- --- ---- ------- -- ---- --- --<br>------- ------,107516.59999999404,107515.79999999702,106654.943,106669.5,106671.614,107521.88,,1,the
screen,html.Screen,0_2_1_1_2,2021-11-05T13:41:47.370Z,,,,,,,,,,,,,,,,54,,,,,,,,,,,,,,833.9199999970151,,response,,,100,,,,,,Space,keypress(Space),,,,,-- --- time --- ------ ----- ------- ---- -- --- ------- --<br>------- ---------- ------ -- ----- -- ----- -- ---- ------<br>--- ----- --- --- ------ -------- ----- --- ------ ----- --<br>----- ----- ---------- --- --- ------ ------ ---- -- ------<br>------- --- ------ ----- --- ---- ------- -- ---- --- --<br>------- ------,108356.59999999404,108355.79999999702,107505.209,107516.89999999106,107521.88,108372.121,,2,time
screen,html.Screen,0_2_1_1_3,2021-11-05T13:41:48.267Z,,,,,,,,,,,,,,,,54,,,,,,,,,,,,,,879.6789999970206,,response,,,100,,,,,,Space,keypress(Space),,,,,-- --- ---- the ------ ----- ------- ---- -- --- ------- --<br>------- ---------- ------ -- ----- -- ----- -- ---- ------<br>--- ----- --- --- ------ -------- ----- --- ------ ----- --<br>----- ----- ---------- --- --- ------ ------ ---- -- ------<br>------- --- ------ ----- --- ---- ------- -- ---- --- --<br>------- ------,109253.79999999702,109251.79999999702,108355.45,108356.89999999106,108372.121,109255.704,,3,the
screen,html.Screen,0_2_1_1_4,2021-11-05T13:41:50.801Z,,,,,,,,,,,,,,,,54,,,,,,,,,,,,,,2531.8959999940416,,response,,,100,,,,,,Space,keypress(Space),,,,,-- --- ---- --- French ----- ------- ---- -- --- ------- --<br>------- ---------- ------ -- ----- -- ----- -- ---- ------<br>--- ----- --- --- ------ -------- ----- --- ------ ----- --<br>----- ----- ---------- --- --- ------ ------ ---- -- ------<br>------- --- ------ ----- --- ---- ------- -- ---- --- --<br>------- ------,111788.39999999106,111787.59999999404,109239.033,109254,109255.704,111789.513,,4,French
screen,html.Screen,0_2_1_1_5,2021-11-05T13:41:52.313Z,,,,,,,,,,,,,,,,54,,,,,,,,,,,,,,1509.9869999999937,,response,,,100,,,,,,Space,keypress(Space),,,,,-- --- ---- --- ------ crown ------- ---- -- --- ------- --<br>------- ---------- ------ -- ----- -- ----- -- ---- ------<br>--- ----- --- --- ------ -------- ----- --- ------ ----- --<br>----- ----- ---------- --- --- ------ ------ ---- -- ------<br>------- --- ------ ----- --- ---- ------- -- ---- --- --<br>------- ------,113300.39999999106,113299.5,111772.843,111788.59999999404,111789.513,113306.741,,5,crown
screen,html.Screen,0_2_1_1_6,2021-11-05T13:41:53.185Z,,,,,,,,,,,,,,,,54,,,,,,,,,,,,,,864.6589999910648,,response,,,100,,,,,,Space,keypress(Space),,,,,-- --- ---- --- ------ ----- secured ---- -- --- ------- --<br>------- ---------- ------ -- ----- -- ----- -- ---- ------<br>--- ----- --- --- ------ -------- ----- --- ------ ----- --<br>----- ----- ---------- --- --- ------ ------ ---- -- ------<br>------- --- ------ ----- --- ---- ------- -- ---- --- --<br>------- ------,114172.20000000298,114171.39999999106,113290.07,113300.59999999404,113306.741,114173.535,,6,secured
screen,html.Screen,0_2_1_1_7,2021-11-05T13:42:02.020Z,,,,,,,,,,,,,,,,54,,,,,,,,,,,,,,8830.264999997016,,response,,,100,,,,,,Space,keypress(Space),,,,,-- --- ---- --- ------ ----- ------- much -- --- ------- --<br>------- ---------- ------ -- ----- -- ----- -- ---- ------<br>--- ----- --- --- ------ -------- ----- --- ------ ----- --<br>----- ----- ---------- --- --- ------ ------ ---- -- ------<br>------- --- ------ ----- --- ---- ------- -- ---- --- --<br>------- ------,123004.5,123003.79999999702,114156.865,114172.5,114173.535,123009.332,,7,much
screen,html.Screen,0_2_1_1_8,2021-11-05T13:42:02.579Z,,,,,,,,,,,,,,,,54,,,,,,,,,,,,,,553.5679999910644,,response,,,100,,,,,,Space,keypress(Space),,,,,-- --- ---- --- ------ ----- ------- ---- of --- ------- --<br>------- ---------- ------ -- ----- -- ----- -- ---- ------<br>--- ----- --- --- ------ -------- ----- --- ------ ----- --<br>----- ----- ---------- --- --- ------ ------ ---- -- ------<br>------- --- ------ ----- --- ---- ------- -- ---- --- --<br>------- ------,123563.79999999702,123562.89999999106,122992.661,123004.70000000298,123009.332,123575.955,,8,of
screen,html.Screen,0_2_1_1_9,2021-11-05T13:42:03.027Z,,,,,,,,,,,,,,,,54,,,,,,,,,,,,,,435.1449999940378,,response,,,100,,,,,,Space,keypress(Space),,,,,-- --- ---- --- ------ ----- ------- ---- -- its ------- --<br>------- ---------- ------ -- ----- -- ----- -- ---- ------<br>--- ----- --- --- ------ -------- ----- --- ------ ----- --<br>----- ----- ---------- --- --- ------ ------ ---- -- ------<br>------- --- ------ ----- --- ---- ------- -- ---- --- --<br>------- ------,124011.89999999106,124011.09999999404,123559.285,123564.09999999404,123575.955,124026.217,,9,its
screen,html.Screen,0_2_1_1_10,2021-11-05T13:42:03.700Z,,,,,,,,,,,,,,,,54,,,,,,,,,,,,,,656.8829999940353,,response,,,100,,,,,,Space,keypress(Space),,,,,-- --- ---- --- ------ ----- ------- ---- -- --- revenue --<br>------- ---------- ------ -- ----- -- ----- -- ---- ------<br>--- ----- --- --- ------ -------- ----- --- ------ ----- --<br>----- ----- ---------- --- --- ------ ------ ---- -- ------<br>------- --- ------ ----- --- ---- ------- -- ---- --- --<br>------- ------,124683.89999999106,124683.09999999404,124009.547,124012.09999999404,124026.217,124693.334,,10,revenue
screen,html.Screen,0_2_1_1_11,2021-11-05T13:42:04.371Z,,,,,,,,,,,,,,,,54,,,,,,,,,,,,,,661.765999994037,,response,,,100,,,,,,Space,keypress(Space),,,,,-- --- ---- --- ------ ----- ------- ---- -- --- ------- by<br>------- ---------- ------ -- ----- -- ----- -- ---- ------<br>--- ----- --- --- ------ -------- ----- --- ------ ----- --<br>----- ----- ---------- --- --- ------ ------ ---- -- ------<br>------- --- ------ ----- --- ---- ------- -- ---- --- --<br>------- ------,125355.89999999106,125355.09999999404,124676.661,124684.29999999702,124693.334,125359.945,,11,by
screen,html.Screen,0_2_1_1_12,2021-11-05T13:42:05.291Z,,,,,,,,,,,,,,,,54,,,,,,,,,,,,,,915.054999999993,,response,,,100,,,,,,Space,keypress(Space),,,,,-- --- ---- --- ------ ----- ------- ---- -- --- ------- --<br>issuing ---------- ------ -- ----- -- ----- -- ---- ------<br>--- ----- --- --- ------ -------- ----- --- ------ ----- --<br>----- ----- ---------- --- --- ------ ------ ---- -- ------<br>------- --- ------ ----- --- ---- ------- -- ---- --- --<br>------- ------,126275.79999999702,126275,125343.275,125356,125359.945,126293.596,,12,issuing
screen,html.Screen,0_2_1_1_13,2021-11-05T13:42:05.955Z,,,,,,,,,,,,,,,,54,,,,,,,,,,,,,,645.3039999910543,,response,,,100,,,,,,Space,keypress(Space),,,,,-- --- ---- --- ------ ----- ------- ---- -- --- ------- --<br>------- government ------ -- ----- -- ----- -- ---- ------<br>--- ----- --- --- ------ -------- ----- --- ------ ----- --<br>----- ----- ---------- --- --- ------ ------ ---- -- ------<br>------- --- ------ ----- --- ---- ------- -- ---- --- --<br>------- ------,126939.70000000298,126938.89999999106,126276.925,126276.09999999404,126293.596,126943.775,,13,government
screen,html.Screen,0_2_1_1_14,2021-11-05T13:42:09.123Z,,,,,,,,,,,,,,,,54,,,,,,,,,,,,,,3163.124999991065,,response,,,100,,,,,,Space,keypress(Space),,,,,-- --- ---- --- ------ ----- ------- ---- -- --- ------- --<br>------- ---------- bonds. -- ----- -- ----- -- ---- ------<br>--- ----- --- --- ------ -------- ----- --- ------ ----- --<br>----- ----- ---------- --- --- ------ ------ ---- -- ------<br>------- --- ------ ----- --- ---- ------- -- ---- --- --<br>------- ------,130107.70000000298,130106.89999999106,126927.104,126940.09999999404,126943.775,130111.062,,14,bonds.
screen,html.Screen,0_2_1_1_15,2021-11-05T13:42:09.675Z,,,,,,,,,,,,,,,,54,,,,,,,,,,,,,,547.6380000029749,,response,,,100,,,,,,Space,keypress(Space),,,,,-- --- ---- --- ------ ----- ------- ---- -- --- ------- --<br>------- ---------- ------ In ----- -- ----- -- ---- ------<br>--- ----- --- --- ------ -------- ----- --- ------ ----- --<br>----- ----- ---------- --- --- ------ ------ ---- -- ------<br>------- --- ------ ----- --- ---- ------- -- ---- --- --<br>------- ------,130659.70000000298,130658.70000000298,130094.392,130107.89999999106,130111.062,130661.324,,15,In
screen,html.Screen,0_2_1_1_16,2021-11-05T13:42:11.363Z,,,,,,,,,,,,,,,,54,,,,,,,,,,,,,,1685.376000002987,,response,,,100,,,,,,Space,keypress(Space),,,,,"-- --- ---- --- ------ ----- ------- ---- -- --- ------- --<br>------- ---------- ------ -- 1727, -- ----- -- ---- ------<br>--- ----- --- --- ------ -------- ----- --- ------ ----- --<br>----- ----- ---------- --- --- ------ ------ ---- -- ------<br>------- --- ------ ----- --- ---- ------- -- ---- --- --<br>------- ------",132347.59999999404,132346.70000000298,130644.654,130660.09999999404,130661.324,132361.705,,16,"1727,"
screen,html.Screen,0_2_1_1_17,2021-11-05T13:42:12.628Z,,,,,,,,,,,,,,,,54,,,,,,,,,,,,,,1249.495000002993,,response,,,100,,,,,,Space,keypress(Space),,,,,-- --- ---- --- ------ ----- ------- ---- -- --- ------- --<br>------- ---------- ------ -- ----- in ----- -- ---- ------<br>--- ----- --- --- ------ -------- ----- --- ------ ----- --<br>----- ----- ---------- --- --- ------ ------ ---- -- ------<br>------- --- ------ ----- --- ---- ------- -- ---- --- --<br>------- ------,133612,133611.20000000298,132345.035,132347.89999999106,132361.705,133629.142,,17,in
screen,html.Screen,0_2_1_1_18,2021-11-05T13:42:13.227Z,,,,,,,,,,,,,,,,54,,,,,,,,,,,,,,581.5580000029877,,response,,,100,,,,,,Space,keypress(Space),,,,,-- --- ---- --- ------ ----- ------- ---- -- --- ------- --<br>------- ---------- ------ -- ----- -- order -- ---- ------<br>--- ----- --- --- ------ -------- ----- --- ------ ----- --<br>----- ----- ---------- --- --- ------ ------ ---- -- ------<br>------- --- ------ ----- --- ---- ------- -- ---- --- --<br>------- ------,134211.59999999404,134210.70000000298,133612.469,133612.39999999106,133629.142,134229.062,,18,order
screen,html.Screen,0_2_1_1_19,2021-11-05T13:42:13.723Z,,,,,,,,,,,,,,,,54,,,,,,,,,,,,,,477.5379999940342,,response,,,100,,,,,,Space,keypress(Space),,,,,-- --- ---- --- ------ ----- ------- ---- -- --- ------- --<br>------- ---------- ------ -- ----- -- ----- to ---- ------<br>--- ----- --- --- ------ -------- ----- --- ------ ----- --<br>----- ----- ---------- --- --- ------ ------ ---- -- ------<br>------- --- ------ ----- --- ---- ------- -- ---- --- --<br>------- ------,134707.5,134706.59999999404,134212.391,134211.79999999702,134229.062,134712.524,,19,to
screen,html.Screen,0_2_1_1_20,2021-11-05T13:42:14.179Z,,,,,,,,,,,,,,,,54,,,,,,,,,,,,,,450.17600000297534,,response,,,100,,,,,,Space,keypress(Space),,,,,-- --- ---- --- ------ ----- ------- ---- -- --- ------- --<br>------- ---------- ------ -- ----- -- ----- -- save ------<br>--- ----- --- --- ------ -------- ----- --- ------ ----- --<br>----- ----- ---------- --- --- ------ ------ ---- -- ------<br>------- --- ------ ----- --- ---- ------- -- ---- --- --<br>------- ------,135163.59999999404,135162.70000000298,134695.853,134707.79999999702,134712.524,135179.32,,20,save
screen,html.Screen,0_2_1_1_21,2021-11-05T13:42:14.755Z,,,,,,,,,,,,,,,,54,,,,,,,,,,,,,,559.2799999940326,,response,,,100,,,,,,Space,keypress(Space),,,,,"-- --- ---- --- ------ ----- ------- ---- -- --- ------- --<br>------- ---------- ------ -- ----- -- ----- -- ---- money,<br>--- ----- --- --- ------ -------- ----- --- ------ ----- --<br>----- ----- ---------- --- --- ------ ------ ---- -- ------<br>------- --- ------ ----- --- ---- ------- -- ---- --- --<br>------- ------",135739.5,135738.59999999404,135162.649,135163.89999999106,135179.32,135746.141,,21,"money,"
screen,html.Screen,0_2_1_1_22,2021-11-05T13:42:15.435Z,,,,,,,,,,,,,,,,54,,,,,,,,,,,,,,672.4589999940363,,response,,,100,,,,,,Space,keypress(Space),,,,,-- --- ---- --- ------ ----- ------- ---- -- --- ------- --<br>------- ---------- ------ -- ----- -- ----- -- ---- ------<br>the ----- --- --- ------ -------- ----- --- ------ ----- --<br>----- ----- ---------- --- --- ------ ------ ---- -- ------<br>------- --- ------ ----- --- ---- ------- -- ---- --- --<br>------- ------,136419.39999999106,136418.59999999404,135729.47,135739.89999999106,135746.141,136429.602,,22,the
screen,html.Screen,0_2_1_1_23,2021-11-05T13:42:15.915Z,,,,,,,,,,,,,,,,54,,,,,,,,,,,,,,468.99799999402603,,response,,,100,,,,,,Space,keypress(Space),,,,,-- --- ---- --- ------ ----- ------- ---- -- --- ------- --<br>------- ---------- ------ -- ----- -- ----- -- ---- ------<br>--- state --- --- ------ -------- ----- --- ------ ----- --<br>----- ----- ---------- --- --- ------ ------ ---- -- ------<br>------- --- ------ ----- --- ---- ------- -- ---- --- --<br>------- ------,136899.39999999106,136898.59999999404,136412.932,136419.70000000298,136429.602,136913.135,,23,state
screen,html.Screen,0_2_1_1_24,2021-11-05T13:42:16.459Z,,,,,,,,,,,,,,,,54,,,,,,,,,,,,,,529.4649999940302,,response,,,100,,,,,,Space,keypress(Space),,,,,-- --- ---- --- ------ ----- ------- ---- -- --- ------- --<br>------- ---------- ------ -- ----- -- ----- -- ---- ------<br>--- ----- cut --- ------ -------- ----- --- ------ ----- --<br>----- ----- ---------- --- --- ------ ------ ---- -- ------<br>------- --- ------ ----- --- ---- ------- -- ---- --- --<br>------- ------,137443.29999999702,137442.59999999404,136896.464,136899.70000000298,136913.135,137446.55,,24,cut
screen,html.Screen,0_2_1_1_25,2021-11-05T13:42:16.931Z,,,,,,,,,,,,,,,,54,,,,,,,,,,,,,,468.0499999940512,,response,,,100,,,,,,Space,keypress(Space),,,,,-- --- ---- --- ------ ----- ------- ---- -- --- ------- --<br>------- ---------- ------ -- ----- -- ----- -- ---- ------<br>--- ----- --- the ------ -------- ----- --- ------ ----- --<br>----- ----- ---------- --- --- ------ ------ ---- -- ------<br>------- --- ------ ----- --- ---- ------- -- ---- --- --<br>------- ------,137915.29999999702,137914.59999999404,137429.88,137443.59999999404,137446.55,137930.071,,25,the
screen,html.Screen,0_2_1_1_26,2021-11-05T13:42:17.475Z,,,,,,,,,,,,,,,,54,,,,,,,,,,,,,,528.4290000000037,,response,,,100,,,,,,Space,keypress(Space),,,,,-- --- ---- --- ------ ----- ------- ---- -- --- ------- --<br>------- ---------- ------ -- ----- -- ----- -- ---- ------<br>--- ----- --- --- bonds' -------- ----- --- ------ ----- --<br>----- ----- ---------- --- --- ------ ------ ---- -- ------<br>------- --- ------ ----- --- ---- ------- -- ---- --- --<br>------- ------,138459.29999999702,138458.5,137913.4,137915.59999999404,137930.071,138463.493,,26,bonds'
screen,html.Screen,0_2_1_1_27,2021-11-05T13:42:18.147Z,,,,,,,,,,,,,,,,54,,,,,,,,,,,,,,667.0070000000123,,response,,,100,,,,,,Space,keypress(Space),,,,,-- --- ---- --- ------ ----- ------- ---- -- --- ------- --<br>------- ---------- ------ -- ----- -- ----- -- ---- ------<br>--- ----- --- --- ------ interest ----- --- ------ ----- --<br>----- ----- ---------- --- --- ------ ------ ---- -- ------<br>------- --- ------ ----- --- ---- ------- -- ---- --- --<br>------- ------,139131.5,139130.5,138446.823,138459.5,138463.493,139147.065,,27,interest
screen,html.Screen,0_2_1_1_28,2021-11-05T13:42:18.707Z,,,,,,,,,,,,,,,,54,,,,,,,,,,,,,,543.4349999999977,,response,,,100,,,,,,Space,keypress(Space),,,,,-- --- ---- --- ------ ----- ------- ---- -- --- ------- --<br>------- ---------- ------ -- ----- -- ----- -- ---- ------<br>--- ----- --- --- ------ -------- rate. --- ------ ----- --<br>----- ----- ---------- --- --- ------ ------ ---- -- ------<br>------- --- ------ ----- --- ---- ------- -- ---- --- --<br>------- ------,139691.39999999106,139690.5,139130.394,139131.79999999702,139147.065,139697.031,,28,rate.
screen,html.Screen,0_2_1_1_29,2021-11-05T13:42:19.651Z,,,,,,,,,,,,,,,,54,,,,,,,,,,,,,,937.3689999910712,,response,,,100,,,,,,Space,keypress(Space),,,,,-- --- ---- --- ------ ----- ------- ---- -- --- ------- --<br>------- ---------- ------ -- ----- -- ----- -- ---- ------<br>--- ----- --- --- ------ -------- ----- The ------ ----- --<br>----- ----- ---------- --- --- ------ ------ ---- -- ------<br>------- --- ------ ----- --- ---- ------- -- ---- --- --<br>------- ------,140635.09999999404,140634.39999999106,139680.362,139691.59999999404,139697.031,140647.553,,29,The
screen,html.Screen,0_2_1_1_30,2021-11-05T13:42:20.131Z,,,,,,,,,,,,,,,,54,,,,,,,,,,,,,,466.84699999104487,,response,,,100,,,,,,Space,keypress(Space),,,,,-- --- ---- --- ------ ----- ------- ---- -- --- ------- --<br>------- ---------- ------ -- ----- -- ----- -- ---- ------<br>--- ----- --- --- ------ -------- ----- --- market ----- --<br>----- ----- ---------- --- --- ------ ------ ---- -- ------<br>------- --- ------ ----- --- ---- ------- -- ---- --- --<br>------- ------,141115.29999999702,141114.39999999106,140630.881,140635.39999999106,140647.553,141130.923,,30,market
screen,html.Screen,0_2_1_1_31,2021-11-05T13:42:20.627Z,,,,,,,,,,,,,,,,54,,,,,,,,,,,,,,479.4769999910495,,response,,,100,,,,,,Space,keypress(Space),,,,,-- --- ---- --- ------ ----- ------- ---- -- --- ------- --<br>------- ---------- ------ -- ----- -- ----- -- ---- ------<br>--- ----- --- --- ------ -------- ----- --- ------ value --<br>----- ----- ---------- --- --- ------ ------ ---- -- ------<br>------- --- ------ ----- --- ---- ------- -- ---- --- --<br>------- ------,141611.09999999404,141610.39999999106,141114.252,141115.5,141130.923,141614.397,,31,value
screen,html.Screen,0_2_1_1_32,2021-11-05T13:42:21.171Z,,,,,,,,,,,,,,,,54,,,,,,,,,,,,,,540.0029999910621,,response,,,100,,,,,,Space,keypress(Space),,,,,-- --- ---- --- ------ ----- ------- ---- -- --- ------- --<br>------- ---------- ------ -- ----- -- ----- -- ---- ------<br>--- ----- --- --- ------ -------- ----- --- ------ ----- of<br>----- ----- ---------- --- --- ------ ------ ---- -- ------<br>------- --- ------ ----- --- ---- ------- -- ---- --- --<br>------- ------,142155.20000000298,142154.39999999106,141597.726,141611.39999999106,141614.397,142164.475,,32,of
screen,html.Screen,0_2_1_1_33,2021-11-05T13:42:21.659Z,,,,,,,,,,,,,,,,54,,,,,,,,,,,,,,477.9249999910535,,response,,,100,,,,,,Space,keypress(Space),,,,,-- --- ---- --- ------ ----- ------- ---- -- --- ------- --<br>------- ---------- ------ -- ----- -- ----- -- ---- ------<br>--- ----- --- --- ------ -------- ----- --- ------ ----- --<br>these ----- ---------- --- --- ------ ------ ---- -- ------<br>------- --- ------ ----- --- ---- ------- -- ---- --- --<br>------- ------,142643.29999999702,142642.39999999106,142147.805,142155.39999999106,142164.475,142647.988,,33,these
screen,html.Screen,0_2_1_1_34,2021-11-05T13:42:22.139Z,,,,,,,,,,,,,,,,54,,,,,,,,,,,,,,474.31199999700766,,response,,,100,,,,,,Space,keypress(Space),,,,,-- --- ---- --- ------ ----- ------- ---- -- --- ------- --<br>------- ---------- ------ -- ----- -- ----- -- ---- ------<br>--- ----- --- --- ------ -------- ----- --- ------ ----- --<br>----- bonds ---------- --- --- ------ ------ ---- -- ------<br>------- --- ------ ----- --- ---- ------- -- ---- --- --<br>------- ------,143123.09999999404,143122.29999999702,142631.317,142643.39999999106,142647.988,143131.485,,34,bonds
screen,html.Screen,0_2_1_1_35,2021-11-05T13:42:22.995Z,,,,,,,,,,,,,,,,54,,,,,,,,,,,,,,847.2150000029942,,response,,,100,,,,,,Space,keypress(Space),,,,,"-- --- ---- --- ------ ----- ------- ---- -- --- ------- --<br>------- ---------- ------ -- ----- -- ----- -- ---- ------<br>--- ----- --- --- ------ -------- ----- --- ------ ----- --<br>----- ----- plummeted, --- --- ------ ------ ---- -- ------<br>------- --- ------ ----- --- ---- ------- -- ---- --- --<br>------- ------",143979.5,143978.70000000298,143114.814,143123.39999999106,143131.485,143981.592,,35,"plummeted,"
screen,html.Screen,0_2_1_1_36,2021-11-05T13:42:23.987Z,,,,,,,,,,,,,,,,54,,,,,,,,,,,,,,988.608000002976,,response,,,100,,,,,,Space,keypress(Space),,,,,-- --- ---- --- ------ ----- ------- ---- -- --- ------- --<br>------- ---------- ------ -- ----- -- ----- -- ---- ------<br>--- ----- --- --- ------ -------- ----- --- ------ ----- --<br>----- ----- ---------- and --- ------ ------ ---- -- ------<br>------- --- ------ ----- --- ---- ------- -- ---- --- --<br>------- ------,144971,144970.20000000298,143964.922,143979.79999999702,143981.592,144981.978,,36,and
screen,html.Screen,0_2_1_1_37,2021-11-05T13:42:24.571Z,,,,,,,,,,,,,,,,54,,,,,,,,,,,,,,572.2220000029774,,response,,,100,,,,,,Space,keypress(Space),,,,,-- --- ---- --- ------ ----- ------- ---- -- --- ------- --<br>------- ---------- ------ -- ----- -- ----- -- ---- ------<br>--- ----- --- --- ------ -------- ----- --- ------ ----- --<br>----- ----- ---------- --- the ------ ------ ---- -- ------<br>------- --- ------ ----- --- ---- ------- -- ---- --- --<br>------- ------,145554.89999999106,145554.20000000298,144965.307,144971.29999999702,144981.978,145565.442,,37,the
screen,html.Screen,0_2_1_1_38,2021-11-05T13:42:25.115Z,,,,,,,,,,,,,,,,54,,,,,,,,,,,,,,532.7580000029702,,response,,,100,,,,,,Space,keypress(Space),,,,,-- --- ---- --- ------ ----- ------- ---- -- --- ------- --<br>------- ---------- ------ -- ----- -- ----- -- ---- ------<br>--- ----- --- --- ------ -------- ----- --- ------ ----- --<br>----- ----- ---------- --- --- market ------ ---- -- ------<br>------- --- ------ ----- --- ---- ------- -- ---- --- --<br>------- ------,146099.09999999404,146098.20000000298,145548.771,145555.29999999702,145565.442,146115.596,,38,market
screen,html.Screen,0_2_1_1_39,2021-11-05T13:42:25.650Z,,,,,,,,,,,,,,,,54,,,,,,,,,,,,,,518.5039999940491,,response,,,100,,,,,,Space,keypress(Space),,,,,-- --- ---- --- ------ ----- ------- ---- -- --- ------- --<br>------- ---------- ------ -- ----- -- ----- -- ---- ------<br>--- ----- --- --- ------ -------- ----- --- ------ ----- --<br>----- ----- ---------- --- --- ------ became ---- -- ------<br>------- --- ------ ----- --- ---- ------- -- ---- --- --<br>------- ------,146634.79999999702,146634.09999999404,146098.925,146099.29999999702,146115.596,146649.072,,39,became
screen,html.Screen,0_2_1_1_40,2021-11-05T13:42:26.154Z,,,,,,,,,,,,,,,,54,,,,,,,,,,,,,,488.92800000001444,,response,,,100,,,,,,Space,keypress(Space),,,,,-- --- ---- --- ------ ----- ------- ---- -- --- ------- --<br>------- ---------- ------ -- ----- -- ----- -- ---- ------<br>--- ----- --- --- ------ -------- ----- --- ------ ----- --<br>----- ----- ---------- --- --- ------ ------ wary -- ------<br>------- --- ------ ----- --- ---- ------- -- ---- --- --<br>------- ------,147138.70000000298,147138,146632.401,146635.09999999404,146649.072,147149.204,,40,wary
screen,html.Screen,0_2_1_1_41,2021-11-05T13:42:26.666Z,,,,,,,,,,,,,,,,54,,,,,,,,,,,,,,500.6959999910614,,response,,,100,,,,,,Space,keypress(Space),,,,,-- --- ---- --- ------ ----- ------- ---- -- --- ------- --<br>------- ---------- ------ -- ----- -- ----- -- ---- ------<br>--- ----- --- --- ------ -------- ----- --- ------ ----- --<br>----- ----- ---------- --- --- ------ ------ ---- of ------<br>------- --- ------ ----- --- ---- ------- -- ---- --- --<br>------- ------,147650.70000000298,147649.89999999106,147132.533,147139,147149.204,147665.966,,41,of
screen,html.Screen,0_2_1_1_42,2021-11-05T13:42:27.306Z,,,,,,,,,,,,,,,,54,,,,,,,,,,,,,,624.0340000000142,,response,,,100,,,,,,Space,keypress(Space),,,,,-- --- ---- --- ------ ----- ------- ---- -- --- ------- --<br>------- ---------- ------ -- ----- -- ----- -- ---- ------<br>--- ----- --- --- ------ -------- ----- --- ------ ----- --<br>----- ----- ---------- --- --- ------ ------ ---- -- French<br>------- --- ------ ----- --- ---- ------- -- ---- --- --<br>------- ------,148290.89999999106,148290,147649.296,147651,147665.966,148299.512,,42,French
screen,html.Screen,0_2_1_1_43,2021-11-05T13:42:28.594Z,,,,,,,,,,,,,,,,54,,,,,,,,,,,,,,1278.3879999910714,,response,,,100,,,,,,Space,keypress(Space),,,,,-- --- ---- --- ------ ----- ------- ---- -- --- ------- --<br>------- ---------- ------ -- ----- -- ----- -- ---- ------<br>--- ----- --- --- ------ -------- ----- --- ------ ----- --<br>----- ----- ---------- --- --- ------ ------ ---- -- ------<br>credit. --- ------ ----- --- ---- ------- -- ---- --- --<br>------- ------,149578.70000000298,149577.89999999106,148282.841,148291,148299.512,149583.092,,43,credit.
screen,html.Screen,0_2_1_1_44,2021-11-05T13:42:29.282Z,,,,,,,,,,,,,,,,54,,,,,,,,,,,,,,682.9079999999958,,response,,,100,,,,,,Space,keypress(Space),,,,,-- --- ---- --- ------ ----- ------- ---- -- --- ------- --<br>------- ---------- ------ -- ----- -- ----- -- ---- ------<br>--- ----- --- --- ------ -------- ----- --- ------ ----- --<br>----- ----- ---------- --- --- ------ ------ ---- -- ------<br>------- The ------ ----- --- ---- ------- -- ---- --- --<br>------- ------,150266.70000000298,150266,149566.422,149579,149583.092,150283.373,,44,The
screen,html.Screen,0_2_1_1_45,2021-11-05T13:42:29.834Z,,,,,,,,,,,,,,,,54,,,,,,,,,,,,,,534.526999991067,,response,,,100,,,,,,Space,keypress(Space),,,,,-- --- ---- --- ------ ----- ------- ---- -- --- ------- --<br>------- ---------- ------ -- ----- -- ----- -- ---- ------<br>--- ----- --- --- ------ -------- ----- --- ------ ----- --<br>----- ----- ---------- --- --- ------ ------ ---- -- ------<br>------- --- French ----- --- ---- ------- -- ---- --- --<br>------- ------,150818.70000000298,150817.89999999106,150266.702,150267,150283.373,150833.526,,45,French
screen,html.Screen,0_2_1_1_46,2021-11-05T13:42:30.306Z,,,,,,,,,,,,,,,,54,,,,,,,,,,,,,,456.37399999104673,,response,,,100,,,,,,Space,keypress(Space),,,,,-- --- ---- --- ------ ----- ------- ---- -- --- ------- --<br>------- ---------- ------ -- ----- -- ----- -- ---- ------<br>--- ----- --- --- ------ -------- ----- --- ------ ----- --<br>----- ----- ---------- --- --- ------ ------ ---- -- ------<br>------- --- ------ state --- ---- ------- -- ---- --- --<br>------- ------,151290.70000000298,151289.89999999106,150816.855,150818.89999999106,150833.526,151300.317,,46,state
screen,html.Screen,0_2_1_1_47,2021-11-05T13:42:30.802Z,,,,,,,,,,,,,,,,54,,,,,,,,,,,,,,485.48299999700976,,response,,,100,,,,,,Space,keypress(Space),,,,,-- --- ---- --- ------ ----- ------- ---- -- --- ------- --<br>------- ---------- ------ -- ----- -- ----- -- ---- ------<br>--- ----- --- --- ------ -------- ----- --- ------ ----- --<br>----- ----- ---------- --- --- ------ ------ ---- -- ------<br>------- --- ------ ----- was ---- ------- -- ---- --- --<br>------- ------,151786.70000000298,151785.79999999702,151283.646,151291,151300.317,151800.449,,47,was
screen,html.Screen,0_2_1_1_48,2021-11-05T13:42:31.290Z,,,,,,,,,,,,,,,,54,,,,,,,,,,,,,,473.45099999106606,,response,,,100,,,,,,Space,keypress(Space),,,,,-- --- ---- --- ------ ----- ------- ---- -- --- ------- --<br>------- ---------- ------ -- ----- -- ----- -- ---- ------<br>--- ----- --- --- ------ -------- ----- --- ------ ----- --<br>----- ----- ---------- --- --- ------ ------ ---- -- ------<br>------- --- ------ ----- --- left ------- -- ---- --- --<br>------- ------,152274.70000000298,152273.89999999106,151783.778,151786.89999999106,151800.449,152283.93,,48,left
screen,html.Screen,0_2_1_1_49,2021-11-05T13:42:31.746Z,,,,,,,,,,,,,,,,54,,,,,,,,,,,,,,445.9699999910663,,response,,,100,,,,,,Space,keypress(Space),,,,,-- --- ---- --- ------ ----- ------- ---- -- --- ------- --<br>------- ---------- ------ -- ----- -- ----- -- ---- ------<br>--- ----- --- --- ------ -------- ----- --- ------ ----- --<br>----- ----- ---------- --- --- ------ ------ ---- -- ------<br>------- --- ------ ----- --- ---- without -- ---- --- --<br>------- ------,152730.59999999404,152729.89999999106,152267.259,152274.89999999106,152283.93,152734.002,,49,without
screen,html.Screen,0_2_1_1_50,2021-11-05T13:42:32.186Z,,,,,,,,,,,,,,,,54,,,,,,,,,,,,,,435.8979999910516,,response,,,100,,,,,,Space,keypress(Space),,,,,-- --- ---- --- ------ ----- ------- ---- -- --- ------- --<br>------- ---------- ------ -- ----- -- ----- -- ---- ------<br>--- ----- --- --- ------ -------- ----- --- ------ ----- --<br>----- ----- ---------- --- --- ------ ------ ---- -- ------<br>------- --- ------ ----- --- ---- ------- an ---- --- --<br>------- ------,153170.59999999404,153169.89999999106,152717.332,152730.89999999106,152734.002,153184.156,,50,an
screen,html.Screen,0_2_1_1_51,2021-11-05T13:42:32.834Z,,,,,,,,,,,,,,,,54,,,,,,,,,,,,,,633.7439999910712,,response,,,100,,,,,,Space,keypress(Space),,,,,-- --- ---- --- ------ ----- ------- ---- -- --- ------- --<br>------- ---------- ------ -- ----- -- ----- -- ---- ------<br>--- ----- --- --- ------ -------- ----- --- ------ ----- --<br>----- ----- ---------- --- --- ------ ------ ---- -- ------<br>------- --- ------ ----- --- ---- ------- -- easy --- --<br>------- ------,153818.70000000298,153817.89999999106,153167.485,153170.89999999106,153184.156,153834.191,,51,easy
screen,html.Screen,0_2_1_1_52,2021-11-05T13:42:33.387Z,,,,,,,,,,,,,,,,54,,,,,,,,,,,,,,536.0090000029886,,response,,,100,,,,,,Space,keypress(Space),,,,,-- --- ---- --- ------ ----- ------- ---- -- --- ------- --<br>------- ---------- ------ -- ----- -- ----- -- ---- ------<br>--- ----- --- --- ------ -------- ----- --- ------ ----- --<br>----- ----- ---------- --- --- ------ ------ ---- -- ------<br>------- --- ------ ----- --- ---- ------- -- ---- way --<br>------- ------,154371,154370.20000000298,153817.522,153819,153834.191,154384.559,,52,way
screen,html.Screen,0_2_1_1_53,2021-11-05T13:42:34.154Z,,,,,,,,,,,,,,,,54,,,,,,,,,,,,,,753.2409999970114,,response,,,100,,,,,,Space,keypress(Space),,,,,-- --- ---- --- ------ ----- ------- ---- -- --- ------- --<br>------- ---------- ------ -- ----- -- ----- -- ---- ------<br>--- ----- --- --- ------ -------- ----- --- ------ ----- --<br>----- ----- ---------- --- --- ------ ------ ---- -- ------<br>------- --- ------ ----- --- ---- ------- -- ---- --- of<br>------- ------,155138.5,155137.79999999702,154367.887,154371.20000000298,154384.559,155151.356,,53,of
screen,html.Screen,0_2_1_1_54,2021-11-05T13:42:34.786Z,,,,,,,,,,,,,,,,54,,,,,,,,,,,,,,618.3440000029805,,response,,,100,,,,,,Space,keypress(Space),,,,,-- --- ---- --- ------ ----- ------- ---- -- --- ------- --<br>------- ---------- ------ -- ----- -- ----- -- ---- ------<br>--- ----- --- --- ------ -------- ----- --- ------ ----- --<br>----- ----- ---------- --- --- ------ ------ ---- -- ------<br>------- --- ------ ----- --- ---- ------- -- ---- --- --<br>raising ------,155770.5,155769.70000000298,155134.685,155138.79999999702,155151.356,155784.887,,54,raising
screen,html.Screen,0_2_1_1_55,2021-11-05T13:42:35.346Z,,,,,,,,,,,,,,,,54,,,,,,,,,,,,,,544.8130000029923,,response,,,100,,,,,,Space,keypress(Space),,,,,-- --- ---- --- ------ ----- ------- ---- -- --- ------- --<br>------- ---------- ------ -- ----- -- ----- -- ---- ------<br>--- ----- --- --- ------ -------- ----- --- ------ ----- --<br>----- ----- ---------- --- --- ------ ------ ---- -- ------<br>------- --- ------ ----- --- ---- ------- -- ---- --- --<br>------- money.,156330.5,156329.70000000298,155768.216,155770.79999999702,155784.887,156334.968,,55,money.
Item 100,flow.Loop,0_2_1_1,2021-11-05T13:42:35.347Z,,,,,,,,,,,,,,,,,,,,,,,,,,,,,,51691.98700000298,,completion,,,,A,,,,,,,,,,silence,,156330.89999999106,156329.70000000298,104621.042,104622.79999999702,104637.713,156334.968,,,
Question 1,html.Screen,0_2_1_2,2021-11-05T13:42:40.330Z,,,,,,,,,,,,,,,,,,,,,,,,,,,false,TRUE,,4978.331999997026,,response,,,100,A,,,,,FALSE,click #choice-2,,,,silence,,161314.5,161313.29999999702,156318.298,156331.20000000298,156334.968,161319.678,,,
Question 2,html.Screen,0_2_1_3,2021-11-05T13:42:42.266Z,,,,,,,,,,,,,,,,,,,,,,,,,,,true,FALSE,,1929.6219999970053,,response,,,100,A,,,,,FALSE,click #choice-2,,,,silence,,163250.5,163249.29999999702,161303.007,161314.79999999702,161319.678,163253.478,,,
Item 100,flow.Sequence,0_2_1,2021-11-05T13:42:42.267Z,,,,,,,,,,,,,,,,,,,,,,,,,,,,,,68614.21499999701,,completion,,,,,,,,,,,,,,,,163251,163249.29999999702,94618.414,94630,94635.085,163253.478,,,
End of Practice,html.Page,0_2_2,2021-11-05T13:42:48.275Z,,,,,,,,,,,,,,,,,,,,,,,,,,,,,,6004.9219999910565,,form submission,,,,,,,,,,,,,,,,169258.89999999106,169258.39999999106,163236.81,163251.29999999702,163253.478,169271.702,,,
Practice,flow.Sequence,0_2,2021-11-05T13:42:48.275Z,,,,,,,,,,,,,,,,,,,,,,,,,,,,,,135773.09699999104,,completion,,,,,,,,,,,,,,,,169259.39999999106,169258.39999999106,33468.632,33481.09999999404,33485.303,169271.702,,,
Trap_instruction,html.Page,0_3_0,2021-11-05T13:42:52.634Z,,,,,,,,,,,,,,,,,,,,,,,,,,,,,,4346.397999994049,,form submission,,,,,,,,,,,,,,,,173618.59999999404,173618.09999999404,169255.033,169259.79999999702,169271.702,173639.392,,,
trap_trial,html.Screen,0_3_1,2021-11-05T13:42:55.913Z,,,,,,,,,,,,,,,,,,,,,,,,,,,true,1,,3257.207999994047,,response,,,,,,,,,1,click #choice-1,,,,,,176897.89999999106,176896.59999999404,173606.052,173618.79999999702,173639.392,176906.929,,,
end of trap trial,html.Page,0_3_2,2021-11-05T13:42:57.730Z,,,,,,,,,,,,,,,,,,,,,,,,,,,,,,1807.0709999999963,,form submission,,,,,,,,,,,,,,,,178714.39999999106,178714,176890.259,176898.09999999404,176906.929,178724.296,,,
Trap 1,flow.Sequence,0_3,2021-11-05T13:42:57.730Z,,,,,,,,,,,,,,,,,,,,,,,,,,,,,,9442.29800000001,,completion,,,,,,,,,,,,,,,,178714.89999999106,178714,169255.033,169259.70000000298,169271.702,178724.296,,,
Standby,html.Page,0_4_0,2021-11-05T13:43:05.729Z,,,,,,,,,,,,,,,,,,,,,,,,,,,,,,8002.098999999987,,timeout,,,,,,,,,,,,,,,,186710.5,186709.724,178707.625,178715.09999999404,178724.296,186726.395,,,
Holding screen,html.Screen,0_4_1_0_0,2021-11-05T13:43:12.731Z,,,,,,,,,,,,,,,,,,,,,,,,,,,,,,7001.988000000012,,timeout,,,,,,,,,,,,,,,,193712.59999999404,193711.712,186709.724,186711,186726.395,193728.383,,,
screen,html.Screen,0_4_1_0_1_0,2021-11-05T13:43:13.916Z,,,,,,,,,,,,,,,,15,,,,,,,,,,,,,,1168.216999994038,,response,,,7,A,,,,,Space,keypress(Space),,,,silence,Greg --------- ---------- - --- ------- -- --- ------------<br>----- -- -------- ------- ---- ------ - -------- ---- -----<br>--- ------- ---- -- --- -------- --- - ----- ------ ---- --<br>-------- --- -------- -------- --- -------- ---- -- ----- -<br>-------- ---- --- ---------- --------- -- ------- ------ -<br>--------- ----- -----,194897.5,194896.59999999404,193711.712,193713,193728.383,194912.019,,0,Greg
screen,html.Screen,0_4_1_0_1_1,2021-11-05T13:43:14.971Z,,,,,,,,,,,,,,,,15,,,,,,,,,,,,,,1039.880999991059,,response,,,7,A,,,,,Space,keypress(Space),,,,silence,"---- Anderson, ---------- - --- ------- -- --- ------------<br>----- -- -------- ------- ---- ------ - -------- ---- -----<br>--- ------- ---- -- --- -------- --- - ----- ------ ---- --<br>-------- --- -------- -------- --- -------- ---- -- ----- -<br>-------- ---- --- ---------- --------- -- ------- ------ -<br>--------- ----- -----",195952.89999999106,195951.89999999106,194895.348,194897.79999999702,194912.019,195962.211,,1,"Anderson,"
screen,html.Screen,0_4_1_0_1_2,2021-11-05T13:43:16.035Z,,,,,,,,,,,,,,,,15,,,,,,,,,,,,,,1053.688999991049,,response,,,7,A,,,,,Space,keypress(Space),,,,silence,---- --------- considered - --- ------- -- --- ------------<br>----- -- -------- ------- ---- ------ - -------- ---- -----<br>--- ------- ---- -- --- -------- --- - ----- ------ ---- --<br>-------- --- -------- -------- --- -------- ---- -- ----- -<br>-------- ---- --- ---------- --------- -- ------- ------ -<br>--------- ----- -----,197016.70000000298,197015.89999999106,195945.541,195953.09999999404,195962.211,197029.281,,2,considered
screen,html.Screen,0_4_1_0_1_3,2021-11-05T13:43:16.531Z,,,,,,,,,,,,,,,,15,,,,,,,,,,,,,,482.6189999910712,,response,,,7,A,,,,,Space,keypress(Space),,,,silence,---- --------- ---------- a --- ------- -- --- ------------<br>----- -- -------- ------- ---- ------ - -------- ---- -----<br>--- ------- ---- -- --- -------- --- - ----- ------ ---- --<br>-------- --- -------- -------- --- -------- ---- -- ----- -<br>-------- ---- --- ---------- --------- -- ------- ------ -<br>--------- ----- -----,197512.70000000298,197511.89999999106,197012.61,197016.89999999106,197029.281,197529.293,,3,a
screen,html.Screen,0_4_1_0_1_4,2021-11-05T13:43:17.083Z,,,,,,,,,,,,,,,,15,,,,,,,,,,,,,,534.5069999970146,,response,,,7,A,,,,,Space,keypress(Space),,,,silence,---- --------- ---------- - key ------- -- --- ------------<br>----- -- -------- ------- ---- ------ - -------- ---- -----<br>--- ------- ---- -- --- -------- --- - ----- ------ ---- --<br>-------- --- -------- -------- --- -------- ---- -- ----- -<br>-------- ---- --- ---------- --------- -- ------- ------ -<br>--------- ----- -----,198064.70000000298,198063.79999999702,197512.623,197513,197529.293,198079.533,,4,key
screen,html.Screen,0_4_1_0_1_5,2021-11-05T13:43:17.683Z,,,,,,,,,,,,,,,,15,,,,,,,,,,,,,,584.266999997024,,response,,,7,A,,,,,Space,keypress(Space),,,,silence,---- --------- ---------- - --- witness -- --- ------------<br>----- -- -------- ------- ---- ------ - -------- ---- -----<br>--- ------- ---- -- --- -------- --- - ----- ------ ---- --<br>-------- --- -------- -------- --- -------- ---- -- ----- -<br>-------- ---- --- ---------- --------- -- ------- ------ -<br>--------- ----- -----,198664.5,198663.79999999702,198062.862,198064.89999999106,198079.533,198679.727,,5,witness
screen,html.Screen,0_4_1_0_1_6,2021-11-05T13:43:18.211Z,,,,,,,,,,,,,,,,15,,,,,,,,,,,,,,512.0729999970063,,response,,,7,A,,,,,Space,keypress(Space),,,,silence,---- --------- ---------- - --- ------- by --- ------------<br>----- -- -------- ------- ---- ------ - -------- ---- -----<br>--- ------- ---- -- --- -------- --- - ----- ------ ---- --<br>-------- --- -------- -------- --- -------- ---- -- ----- -<br>-------- ---- --- ---------- --------- -- ------- ------ -<br>--------- ----- -----,199192.70000000298,199191.79999999702,198663.056,198664.79999999702,198679.727,199196.517,,6,by
screen,html.Screen,0_4_1_0_1_7,2021-11-05T13:43:18.675Z,,,,,,,,,,,,,,,,15,,,,,,,,,,,,,,459.2829999970272,,response,,,7,A,,,,,Space,keypress(Space),,,,silence,---- --------- ---------- - --- ------- -- the ------------<br>----- -- -------- ------- ---- ------ - -------- ---- -----<br>--- ------- ---- -- --- -------- --- - ----- ------ ---- --<br>-------- --- -------- -------- --- -------- ---- -- ----- -<br>-------- ---- --- ---------- --------- -- ------- ------ -<br>--------- ----- -----,199656.79999999702,199655.79999999702,199179.846,199192.89999999106,199196.517,199663.326,,7,the
screen,html.Screen,0_4_1_0_1_8,2021-11-05T13:43:20.539Z,,,,,,,,,,,,,,,,15,,,,,,,,,,,,,,1856.3740000029793,,response,,,7,A,,,,,Space,keypress(Space),,,,silence,"---- --------- ---------- - --- ------- -- --- prosecution,<br>----- -- -------- ------- ---- ------ - -------- ---- -----<br>--- ------- ---- -- --- -------- --- - ----- ------ ---- --<br>-------- --- -------- -------- --- -------- ---- -- ----- -<br>-------- ---- --- ---------- --------- -- ------- ------ -<br>--------- ----- -----",201520.5,201519.70000000298,199646.655,199657.09999999404,199663.326,201530.492,,8,"prosecution,"
screen,html.Screen,0_4_1_0_1_9,2021-11-05T13:43:22.442Z,,,,,,,,,,,,,,,,15,,,,,,,,,,,,,,1893.1079999940412,,response,,,7,A,,,,,Space,keypress(Space),,,,silence,---- --------- ---------- - --- ------- -- --- ------------<br>vowed -- -------- ------- ---- ------ - -------- ---- -----<br>--- ------- ---- -- --- -------- --- - ----- ------ ---- --<br>-------- --- -------- -------- --- -------- ---- -- ----- -<br>-------- ---- --- ---------- --------- -- ------- ------ -<br>--------- ----- -----,203424.39999999106,203423.59999999404,201513.821,201520.79999999702,201530.492,203430.839,,9,vowed
screen,html.Screen,0_4_1_0_1_10,2021-11-05T13:43:23.211Z,,,,,,,,,,,,,,,,15,,,,,,,,,,,,,,760.7609999940323,,response,,,7,A,,,,,Space,keypress(Space),,,,silence,---- --------- ---------- - --- ------- -- --- ------------<br>----- he -------- ------- ---- ------ - -------- ---- -----<br>--- ------- ---- -- --- -------- --- - ----- ------ ---- --<br>-------- --- -------- -------- --- -------- ---- -- ----- -<br>-------- ---- --- ---------- --------- -- ------- ------ -<br>--------- ----- -----,204192.5,204191.59999999404,203414.169,203424.59999999404,203430.839,204197.694,,10,he
screen,html.Screen,0_4_1_0_1_11,2021-11-05T13:43:23.810Z,,,,,,,,,,,,,,,,15,,,,,,,,,,,,,,593.8060000000114,,response,,,7,A,,,,,Space,keypress(Space),,,,silence,---- --------- ---------- - --- ------- -- --- ------------<br>----- -- wouldn't ------- ---- ------ - -------- ---- -----<br>--- ------- ---- -- --- -------- --- - ----- ------ ---- --<br>-------- --- -------- -------- --- -------- ---- -- ----- -<br>-------- ---- --- ---------- --------- -- ------- ------ -<br>--------- ----- -----,204792.39999999106,204791.5,204181.024,204192.70000000298,204197.694,204797.909,,11,wouldn't
screen,html.Screen,0_4_1_0_1_12,2021-11-05T13:43:24.347Z,,,,,,,,,,,,,,,,15,,,,,,,,,,,,,,529.9909999910451,,response,,,7,A,,,,,Space,keypress(Space),,,,silence,---- --------- ---------- - --- ------- -- --- ------------<br>----- -- -------- testify ---- ------ - -------- ---- -----<br>--- ------- ---- -- --- -------- --- - ----- ------ ---- --<br>-------- --- -------- -------- --- -------- ---- -- ----- -<br>-------- ---- --- ---------- --------- -- ------- ------ -<br>--------- ----- -----,205328.79999999702,205327.89999999106,204781.239,204792.70000000298,204797.909,205331.598,,12,testify
screen,html.Screen,0_4_1_0_1_13,2021-11-05T13:43:24.954Z,,,,,,,,,,,,,,,,15,,,,,,,,,,,,,,603.9020000000019,,response,,,7,A,,,,,Space,keypress(Space),,,,silence,---- --------- ---------- - --- ------- -- --- ------------<br>----- -- -------- ------- when ------ - -------- ---- -----<br>--- ------- ---- -- --- -------- --- - ----- ------ ---- --<br>-------- --- -------- -------- --- -------- ---- -- ----- -<br>-------- ---- --- ---------- --------- -- ------- ------ -<br>--------- ----- -----,205936.39999999106,205935.5,205314.926,205329.20000000298,205331.598,205948.341,,13,when
screen,html.Screen,0_4_1_0_1_14,2021-11-05T13:43:25.522Z,,,,,,,,,,,,,,,,15,,,,,,,,,,,,,,555.1590000000142,,response,,,7,A,,,,,Space,keypress(Space),,,,silence,---- --------- ---------- - --- ------- -- --- ------------<br>----- -- -------- ------- ---- served - -------- ---- -----<br>--- ------- ---- -- --- -------- --- - ----- ------ ---- --<br>-------- --- -------- -------- --- -------- ---- -- ----- -<br>-------- ---- --- ---------- --------- -- ------- ------ -<br>--------- ----- -----,206504.29999999702,206503.5,205931.67,205936.59999999404,205948.341,206515.11,,14,served
screen,html.Screen,0_4_1_0_1_15,2021-11-05T13:43:25.978Z,,,,,,,,,,,,,,,,15,,,,,,,,,,,,,,444.39000000001397,,response,,,7,A,,,,,Space,keypress(Space),,,,silence,---- --------- ---------- - --- ------- -- --- ------------<br>----- -- -------- ------- ---- ------ a -------- ---- -----<br>--- ------- ---- -- --- -------- --- - ----- ------ ---- --<br>-------- --- -------- -------- --- -------- ---- -- ----- -<br>-------- ---- --- ---------- --------- -- ------- ------ -<br>--------- ----- -----,206960.29999999702,206959.5,206498.44,206504.5,206515.11,206965.294,,15,a
screen,html.Screen,0_4_1_0_1_16,2021-11-05T13:43:26.890Z,,,,,,,,,,,,,,,,15,,,,,,,,,,,,,,906.1059999910649,,response,,,7,A,,,,,Space,keypress(Space),,,,silence,---- --------- ---------- - --- ------- -- --- ------------<br>----- -- -------- ------- ---- ------ - subpoena ---- -----<br>--- ------- ---- -- --- -------- --- - ----- ------ ---- --<br>-------- --- -------- -------- --- -------- ---- -- ----- -<br>-------- ---- --- ---------- --------- -- ------- ------ -<br>--------- ----- -----,207872.20000000298,207871.39999999106,206948.623,206960.59999999404,206965.294,207882.195,,16,subpoena
screen,html.Screen,0_4_1_0_1_17,2021-11-05T13:43:27.546Z,,,,,,,,,,,,,,,,15,,,,,,,,,,,,,,645.2049999910523,,response,,,7,A,,,,,Space,keypress(Space),,,,silence,---- --------- ---------- - --- ------- -- --- ------------<br>----- -- -------- ------- ---- ------ - -------- last -----<br>--- ------- ---- -- --- -------- --- - ----- ------ ---- --<br>-------- --- -------- -------- --- -------- ---- -- ----- -<br>-------- ---- --- ---------- --------- -- ------- ------ -<br>--------- ----- -----,208528.20000000298,208527.39999999106,207865.524,207872.5,207882.195,208532.308,,17,last
screen,html.Screen,0_4_1_0_1_18,2021-11-05T13:43:28.058Z,,,,,,,,,,,,,,,,15,,,,,,,,,,,,,,507.0919999910693,,response,,,7,A,,,,,Space,keypress(Space),,,,silence,---- --------- ---------- - --- ------- -- --- ------------<br>----- -- -------- ------- ---- ------ - -------- ---- week.<br>--- ------- ---- -- --- -------- --- - ----- ------ ---- --<br>-------- --- -------- -------- --- -------- ---- -- ----- -<br>-------- ---- --- ---------- --------- -- ------- ------ -<br>--------- ----- -----,209040.29999999702,209039.39999999106,208515.638,208528.5,208532.308,209049.172,,18,week.
screen,html.Screen,0_4_1_0_1_19,2021-11-05T13:43:29.786Z,,,,,,,,,,,,,,,,15,,,,,,,,,,,,,,1718.1279999970284,,response,,,7,A,,,,,Space,keypress(Space),,,,silence,---- --------- ---------- - --- ------- -- --- ------------<br>----- -- -------- ------- ---- ------ - -------- ---- -----<br>His ------- ---- -- --- -------- --- - ----- ------ ---- --<br>-------- --- -------- -------- --- -------- ---- -- ----- -<br>-------- ---- --- ---------- --------- -- ------- ------ -<br>--------- ----- -----,210768.20000000298,210767.29999999702,209032.501,209040.39999999106,209049.172,210782.959,,19,His
screen,html.Screen,0_4_1_0_1_20,2021-11-05T13:43:30.674Z,,,,,,,,,,,,,,,,15,,,,,,,,,,,,,,872.3409999970172,,response,,,7,A,,,,,Space,keypress(Space),,,,silence,---- --------- ---------- - --- ------- -- --- ------------<br>----- -- -------- ------- ---- ------ - -------- ---- -----<br>--- lawyers ---- -- --- -------- --- - ----- ------ ---- --<br>-------- --- -------- -------- --- -------- ---- -- ----- -<br>-------- ---- --- ---------- --------- -- ------- ------ -<br>--------- ----- -----,211656.20000000298,211655.29999999702,210766.288,210768.39999999106,210782.959,211666.532,,20,lawyers
screen,html.Screen,0_4_1_0_1_21,2021-11-05T13:43:31.178Z,,,,,,,,,,,,,,,,15,,,,,,,,,,,,,,492.6680000029737,,response,,,7,A,,,,,Space,keypress(Space),,,,silence,---- --------- ---------- - --- ------- -- --- ------------<br>----- -- -------- ------- ---- ------ - -------- ---- -----<br>--- ------- said -- --- -------- --- - ----- ------ ---- --<br>-------- --- -------- -------- --- -------- ---- -- ----- -<br>-------- ---- --- ---------- --------- -- ------- ------ -<br>--------- ----- -----,212160.09999999404,212159.20000000298,211649.861,211656.59999999404,211666.532,212166.56,,21,said
screen,html.Screen,0_4_1_0_1_22,2021-11-05T13:43:31.634Z,,,,,,,,,,,,,,,,15,,,,,,,,,,,,,,448.7399999970221,,response,,,7,A,,,,,Space,keypress(Space),,,,silence,---- --------- ---------- - --- ------- -- --- ------------<br>----- -- -------- ------- ---- ------ - -------- ---- -----<br>--- ------- ---- he --- -------- --- - ----- ------ ---- --<br>-------- --- -------- -------- --- -------- ---- -- ----- -<br>-------- ---- --- ---------- --------- -- ------- ------ -<br>--------- ----- -----,212616.09999999404,212615.29999999702,212149.89,212160.39999999106,212166.56,212633.478,,22,he
screen,html.Screen,0_4_1_0_1_23,2021-11-05T13:43:32.098Z,,,,,,,,,,,,,,,,15,,,,,,,,,,,,,,445.72200000297744,,response,,,7,A,,,,,Space,keypress(Space),,,,silence,---- --------- ---------- - --- ------- -- --- ------------<br>----- -- -------- ------- ---- ------ - -------- ---- -----<br>--- ------- ---- -- was -------- --- - ----- ------ ---- --<br>-------- --- -------- -------- --- -------- ---- -- ----- -<br>-------- ---- --- ---------- --------- -- ------- ------ -<br>--------- ----- -----,213080,213079.20000000298,212616.807,212616.29999999702,212633.478,213083.612,,23,was
screen,html.Screen,0_4_1_0_1_24,2021-11-05T13:43:32.874Z,,,,,,,,,,,,,,,,15,,,,,,,,,,,,,,771.5880000029865,,response,,,7,A,,,,,Space,keypress(Space),,,,silence,---- --------- ---------- - --- ------- -- --- ------------<br>----- -- -------- ------- ---- ------ - -------- ---- -----<br>--- ------- ---- -- --- prepared --- - ----- ------ ---- --<br>-------- --- -------- -------- --- -------- ---- -- ----- -<br>-------- ---- --- ---------- --------- -- ------- ------ -<br>--------- ----- -----,213856,213855.20000000298,213066.941,213080.29999999702,213083.612,213866.97,,24,prepared
screen,html.Screen,0_4_1_0_1_25,2021-11-05T13:43:33.458Z,,,,,,,,,,,,,,,,15,,,,,,,,,,,,,,572.1299999940384,,response,,,7,A,,,,,Space,keypress(Space),,,,silence,---- --------- ---------- - --- ------- -- --- ------------<br>----- -- -------- ------- ---- ------ - -------- ---- -----<br>--- ------- ---- -- --- -------- for - ----- ------ ---- --<br>-------- --- -------- -------- --- -------- ---- -- ----- -<br>-------- ---- --- ---------- --------- -- ------- ------ -<br>--------- ----- -----,214439.89999999106,214439.09999999404,213850.301,213856.20000000298,213866.97,214450.656,,25,for
screen,html.Screen,0_4_1_0_1_26,2021-11-05T13:43:33.922Z,,,,,,,,,,,,,,,,15,,,,,,,,,,,,,,452.5440000029921,,response,,,7,A,,,,,Space,keypress(Space),,,,silence,---- --------- ---------- - --- ------- -- --- ------------<br>----- -- -------- ------- ---- ------ - -------- ---- -----<br>--- ------- ---- -- --- -------- --- a ----- ------ ---- --<br>-------- --- -------- -------- --- -------- ---- -- ----- -<br>-------- ---- --- ---------- --------- -- ------- ------ -<br>--------- ----- -----,214904,214903.20000000298,214433.985,214440.29999999702,214450.656,214917.43,,26,a
screen,html.Screen,0_4_1_0_1_27,2021-11-05T13:43:34.482Z,,,,,,,,,,,,,,,,15,,,,,,,,,,,,,,546.070000000007,,response,,,7,A,,,,,Space,keypress(Space),,,,silence,---- --------- ---------- - --- ------- -- --- ------------<br>----- -- -------- ------- ---- ------ - -------- ---- -----<br>--- ------- ---- -- --- -------- --- - third ------ ---- --<br>-------- --- -------- -------- --- -------- ---- -- ----- -<br>-------- ---- --- ---------- --------- -- ------- ------ -<br>--------- ----- -----,215464.39999999106,215463.5,214900.759,214904.20000000298,214917.43,215467.515,,27,third
screen,html.Screen,0_4_1_0_1_28,2021-11-05T13:43:35.058Z,,,,,,,,,,,,,,,,15,,,,,,,,,,,,,,571.484999999986,,response,,,7,A,,,,,Space,keypress(Space),,,,silence,---- --------- ---------- - --- ------- -- --- ------------<br>----- -- -------- ------- ---- ------ - -------- ---- -----<br>--- ------- ---- -- --- -------- --- - ----- prison ---- --<br>-------- --- -------- -------- --- -------- ---- -- ----- -<br>-------- ---- --- ---------- --------- -- ------- ------ -<br>--------- ----- -----,216039.89999999106,216039,215450.845,215464.79999999702,215467.515,216051.068,,28,prison
screen,html.Screen,0_4_1_0_1_29,2021-11-05T13:43:35.730Z,,,,,,,,,,,,,,,,15,,,,,,,,,,,,,,660.0319999940402,,response,,,7,A,,,,,Space,keypress(Space),,,,silence,---- --------- ---------- - --- ------- -- --- ------------<br>----- -- -------- ------- ---- ------ - -------- ---- -----<br>--- ------- ---- -- --- -------- --- - ----- ------ stay --<br>-------- --- -------- -------- --- -------- ---- -- ----- -<br>-------- ---- --- ---------- --------- -- ------- ------ -<br>--------- ----- -----,216711.79999999702,216711.09999999404,216034.397,216040.09999999404,216051.068,216717.906,,29,stay
screen,html.Screen,0_4_1_0_1_30,2021-11-05T13:43:36.538Z,,,,,,,,,,,,,,,,15,,,,,,,,,,,,,,800.9939999910712,,response,,,7,A,,,,,Space,keypress(Space),,,,silence,---- --------- ---------- - --- ------- -- --- ------------<br>----- -- -------- ------- ---- ------ - -------- ---- -----<br>--- ------- ---- -- --- -------- --- - ----- ------ ---- to<br>-------- --- -------- -------- --- -------- ---- -- ----- -<br>-------- ---- --- ---------- --------- -- ------- ------ -<br>--------- ----- -----,217519.70000000298,217518.89999999106,216701.235,216712.09999999404,216717.906,217534.718,,30,to
screen,html.Screen,0_4_1_0_1_31,2021-11-05T13:43:37.842Z,,,,,,,,,,,,,,,,15,,,,,,,,,,,,,,1288.1819999910658,,response,,,7,A,,,,,Space,keypress(Space),,,,silence,---- --------- ---------- - --- ------- -- --- ------------<br>----- -- -------- ------- ---- ------ - -------- ---- -----<br>--- ------- ---- -- --- -------- --- - ----- ------ ---- --<br>maintain --- -------- -------- --- -------- ---- -- ----- -<br>-------- ---- --- ---------- --------- -- ------- ------ -<br>--------- ----- -----,218823.79999999702,218822.89999999106,217518.048,217519.89999999106,217534.718,218834.87,,31,maintain
screen,html.Screen,0_4_1_0_1_32,2021-11-05T13:43:38.362Z,,,,,,,,,,,,,,,,15,,,,,,,,,,,,,,508.02999999106396,,response,,,7,A,,,,,Space,keypress(Space),,,,silence,---- --------- ---------- - --- ------- -- --- ------------<br>----- -- -------- ------- ---- ------ - -------- ---- -----<br>--- ------- ---- -- --- -------- --- - ----- ------ ---- --<br>-------- his -------- -------- --- -------- ---- -- ----- -<br>-------- ---- --- ---------- --------- -- ------- ------ -<br>--------- ----- -----,219343.79999999702,219342.89999999106,218818.201,218824,218834.87,219351.913,,32,his
screen,html.Screen,0_4_1_0_1_33,2021-11-05T13:43:39.642Z,,,,,,,,,,,,,,,,15,,,,,,,,,,,,,,1270.8869999970193,,response,,,7,A,,,,,Space,keypress(Space),,,,silence,---- --------- ---------- - --- ------- -- --- ------------<br>----- -- -------- ------- ---- ------ - -------- ---- -----<br>--- ------- ---- -- --- -------- --- - ----- ------ ---- --<br>-------- --- silence. -------- --- -------- ---- -- ----- -<br>-------- ---- --- ---------- --------- -- ------- ------ -<br>--------- ----- -----,220623.59999999404,220622.79999999702,219335.242,219344.09999999404,219351.913,220635.442,,33,silence.
screen,html.Screen,0_4_1_0_1_34,2021-11-05T13:43:40.802Z,,,,,,,,,,,,,,,,15,,,,,,,,,,,,,,1147.4579999910493,,response,,,7,A,,,,,Space,keypress(Space),,,,silence,---- --------- ---------- - --- ------- -- --- ------------<br>----- -- -------- ------- ---- ------ - -------- ---- -----<br>--- ------- ---- -- --- -------- --- - ----- ------ ---- --<br>-------- --- -------- Anderson --- -------- ---- -- ----- -<br>-------- ---- --- ---------- --------- -- ------- ------ -<br>--------- ----- -----,221783.70000000298,221782.89999999106,220618.772,220624,220635.442,221785.939,,34,Anderson
screen,html.Screen,0_4_1_0_1_35,2021-11-05T13:43:41.402Z,,,,,,,,,,,,,,,,15,,,,,,,,,,,,,,596.8609999970067,,response,,,7,A,,,,,Space,keypress(Space),,,,silence,---- --------- ---------- - --- ------- -- --- ------------<br>----- -- -------- ------- ---- ------ - -------- ---- -----<br>--- ------- ---- -- --- -------- --- - ----- ------ ---- --<br>-------- --- -------- -------- was -------- ---- -- ----- -<br>-------- ---- --- ---------- --------- -- ------- ------ -<br>--------- ----- -----,222383.70000000298,222382.79999999702,221769.268,221784,221785.939,222386.057,,35,was
screen,html.Screen,0_4_1_0_1_36,2021-11-05T13:43:42.146Z,,,,,,,,,,,,,,,,15,,,,,,,,,,,,,,740.7429999970191,,response,,,7,A,,,,,Space,keypress(Space),,,,silence,---- --------- ---------- - --- ------- -- --- ------------<br>----- -- -------- ------- ---- ------ - -------- ---- -----<br>--- ------- ---- -- --- -------- --- - ----- ------ ---- --<br>-------- --- -------- -------- --- released ---- -- ----- -<br>-------- ---- --- ---------- --------- -- ------- ------ -<br>--------- ----- -----,223127.59999999404,223126.79999999702,222369.386,222384,222386.057,223136.169,,36,released
screen,html.Screen,0_4_1_0_1_37,2021-11-05T13:43:42.762Z,,,,,,,,,,,,,,,,15,,,,,,,,,,,,,,606.6309999970254,,response,,,7,A,,,,,Space,keypress(Space),,,,silence,---- --------- ---------- - --- ------- -- --- ------------<br>----- -- -------- ------- ---- ------ - -------- ---- -----<br>--- ------- ---- -- --- -------- --- - ----- ------ ---- --<br>-------- --- -------- -------- --- -------- July -- ----- -<br>-------- ---- --- ---------- --------- -- ------- ------ -<br>--------- ----- -----,223743.5,223742.79999999702,223119.499,223127.89999999106,223136.169,223753.234,,37,July
screen,html.Screen,0_4_1_0_1_38,2021-11-05T13:43:43.346Z,,,,,,,,,,,,,,,,15,,,,,,,,,,,,,,573.565999997023,,response,,,7,A,,,,,Space,keypress(Space),,,,silence,---- --------- ---------- - --- ------- -- --- ------------<br>----- -- -------- ------- ---- ------ - -------- ---- -----<br>--- ------- ---- -- --- -------- --- - ----- ------ ---- --<br>-------- --- -------- -------- --- -------- ---- 20 ----- -<br>-------- ---- --- ---------- --------- -- ------- ------ -<br>--------- ----- -----,224327.5,224326.79999999702,223736.562,223743.89999999106,223753.234,224336.62,,38,20
screen,html.Screen,0_4_1_0_1_39,2021-11-05T13:43:44.090Z,,,,,,,,,,,,,,,,15,,,,,,,,,,,,,,734.0800000029849,,response,,,7,A,,,,,Space,keypress(Space),,,,silence,---- --------- ---------- - --- ------- -- --- ------------<br>----- -- -------- ------- ---- ------ - -------- ---- -----<br>--- ------- ---- -- --- -------- --- - ----- ------ ---- --<br>-------- --- -------- -------- --- -------- ---- -- after -<br>-------- ---- --- ---------- --------- -- ------- ------ -<br>--------- ----- -----,225071.5,225070.70000000298,224319.949,224327.79999999702,224336.62,225086.756,,39,after
screen,html.Screen,0_4_1_0_1_40,2021-11-05T13:43:44.706Z,,,,,,,,,,,,,,,,15,,,,,,,,,,,,,,600.4440000029863,,response,,,7,A,,,,,Space,keypress(Space),,,,silence,---- --------- ---------- - --- ------- -- --- ------------<br>----- -- -------- ------- ---- ------ - -------- ---- -----<br>--- ------- ---- -- --- -------- --- - ----- ------ ---- --<br>-------- --- -------- -------- --- -------- ---- -- ----- a<br>-------- ---- --- ---------- --------- -- ------- ------ -<br>--------- ----- -----,225688,225687.20000000298,225070.086,225071.79999999702,225086.756,225703.539,,40,a
screen,html.Screen,0_4_1_0_1_41,2021-11-05T13:43:45.306Z,,,,,,,,,,,,,,,,15,,,,,,,,,,,,,,583.1610000029905,,response,,,7,A,,,,,Space,keypress(Space),,,,silence,---- --------- ---------- - --- ------- -- --- ------------<br>----- -- -------- ------- ---- ------ - -------- ---- -----<br>--- ------- ---- -- --- -------- --- - ----- ------ ---- --<br>-------- --- -------- -------- --- -------- ---- -- ----- -<br>two-week ---- --- ---------- --------- -- ------- ------ -<br>--------- ----- -----,226287.5,226286.70000000298,225686.869,225688.20000000298,225703.539,226303.83,,41,two-week
screen,html.Screen,0_4_1_0_1_42,2021-11-05T13:43:45.778Z,,,,,,,,,,,,,,,,15,,,,,,,,,,,,,,454.76999999405234,,response,,,7,A,,,,,Space,keypress(Space),,,,silence,---- --------- ---------- - --- ------- -- --- ------------<br>----- -- -------- ------- ---- ------ - -------- ---- -----<br>--- ------- ---- -- --- -------- --- - ----- ------ ---- --<br>-------- --- -------- -------- --- -------- ---- -- ----- -<br>-------- stay --- ---------- --------- -- ------- ------ -<br>--------- ----- -----,226759.39999999106,226758.59999999404,226287.159,226287.70000000298,226303.83,226770.468,,42,stay
screen,html.Screen,0_4_1_0_1_43,2021-11-05T13:43:46.570Z,,,,,,,,,,,,,,,,15,,,,,,,,,,,,,,780.131999994046,,response,,,7,A,,,,,Space,keypress(Space),,,,silence,---- --------- ---------- - --- ------- -- --- ------------<br>----- -- -------- ------- ---- ------ - -------- ---- -----<br>--- ------- ---- -- --- -------- --- - ----- ------ ---- --<br>-------- --- -------- -------- --- -------- ---- -- ----- -<br>-------- ---- for ---------- --------- -- ------- ------ -<br>--------- ----- -----,227551.5,227550.59999999404,226753.799,226759.79999999702,226770.468,227554.167,,43,for
screen,html.Screen,0_4_1_0_1_44,2021-11-05T13:43:47.377Z,,,,,,,,,,,,,,,,15,,,,,,,,,,,,,,804.4329999940528,,response,,,7,A,,,,,Space,keypress(Space),,,,silence,---- --------- ---------- - --- ------- -- --- ------------<br>----- -- -------- ------- ---- ------ - -------- ---- -----<br>--- ------- ---- -- --- -------- --- - ----- ------ ---- --<br>-------- --- -------- -------- --- -------- ---- -- ----- -<br>-------- ---- --- previously --------- -- ------- ------ -<br>--------- ----- -----,228359.29999999702,228358.59999999404,227537.496,227551.79999999702,227554.167,228371.048,,44,previously
screen,html.Screen,0_4_1_0_1_45,2021-11-05T13:43:47.993Z,,,,,,,,,,,,,,,,15,,,,,,,,,,,,,,603.5519999940298,,response,,,7,A,,,,,Space,keypress(Space),,,,silence,---- --------- ---------- - --- ------- -- --- ------------<br>----- -- -------- ------- ---- ------ - -------- ---- -----<br>--- ------- ---- -- --- -------- --- - ----- ------ ---- --<br>-------- --- -------- -------- --- -------- ---- -- ----- -<br>-------- ---- --- ---------- declining -- ------- ------ -<br>--------- ----- -----,228975.39999999106,228974.59999999404,228354.377,228359.59999999404,228371.048,228987.687,,45,declining
screen,html.Screen,0_4_1_0_1_46,2021-11-05T13:43:48.457Z,,,,,,,,,,,,,,,,15,,,,,,,,,,,,,,450.81299999999464,,response,,,7,A,,,,,Space,keypress(Space),,,,silence,---- --------- ---------- - --- ------- -- --- ------------<br>----- -- -------- ------- ---- ------ - -------- ---- -----<br>--- ------- ---- -- --- -------- --- - ----- ------ ---- --<br>-------- --- -------- -------- --- -------- ---- -- ----- -<br>-------- ---- --- ---------- --------- to ------- ------ -<br>--------- ----- -----,229439.39999999106,229438.5,228971.018,228975.70000000298,228987.687,229454.681,,46,to
screen,html.Screen,0_4_1_0_1_47,2021-11-05T13:43:49.017Z,,,,,,,,,,,,,,,,15,,,,,,,,,,,,,,543.7189999910479,,response,,,7,A,,,,,Space,keypress(Space),,,,silence,---- --------- ---------- - --- ------- -- --- ------------<br>----- -- -------- ------- ---- ------ - -------- ---- -----<br>--- ------- ---- -- --- -------- --- - ----- ------ ---- --<br>-------- --- -------- -------- --- -------- ---- -- ----- -<br>-------- ---- --- ---------- --------- -- testify ------ -<br>--------- ----- -----,229999.20000000298,229998.39999999106,229438.01,229439.59999999404,229454.681,230004.745,,47,testify
screen,html.Screen,0_4_1_0_1_48,2021-11-05T13:43:49.657Z,,,,,,,,,,,,,,,,15,,,,,,,,,,,,,,633.7550000000047,,response,,,7,A,,,,,Space,keypress(Space),,,,silence,---- --------- ---------- - --- ------- -- --- ------------<br>----- -- -------- ------- ---- ------ - -------- ---- -----<br>--- ------- ---- -- --- -------- --- - ----- ------ ---- --<br>-------- --- -------- -------- --- -------- ---- -- ----- -<br>-------- ---- --- ---------- --------- -- ------- before -<br>--------- ----- -----,230639.39999999106,230638.5,229988.075,229999.5,230004.745,230654.997,,48,before
screen,html.Screen,0_4_1_0_1_49,2021-11-05T13:43:50.185Z,,,,,,,,,,,,,,,,15,,,,,,,,,,,,,,511.502999999997,,response,,,7,A,,,,,Space,keypress(Space),,,,silence,---- --------- ---------- - --- ------- -- --- ------------<br>----- -- -------- ------- ---- ------ - -------- ---- -----<br>--- ------- ---- -- --- -------- --- - ----- ------ ---- --<br>-------- --- -------- -------- --- -------- ---- -- ----- -<br>-------- ---- --- ---------- --------- -- ------- ------ a<br>--------- ----- -----,231167.29999999702,231166.5,230638.326,230639.59999999404,230654.997,231171.784,,49,a
screen,html.Screen,0_4_1_0_1_50,2021-11-05T13:43:50.793Z,,,,,,,,,,,,,,,,15,,,,,,,,,,,,,,602.6159999910451,,response,,,7,A,,,,,Space,keypress(Space),,,,silence,---- --------- ---------- - --- ------- -- --- ------------<br>----- -- -------- ------- ---- ------ - -------- ---- -----<br>--- ------- ---- -- --- -------- --- - ----- ------ ---- --<br>-------- --- -------- -------- --- -------- ---- -- ----- -<br>-------- ---- --- ---------- --------- -- ------- ------ -<br>different ----- -----,231775.20000000298,231774.39999999106,231155.113,231167.59999999404,231171.784,231788.617,,50,different
screen,html.Screen,0_4_1_0_1_51,2021-11-05T13:43:51.369Z,,,,,,,,,,,,,,,,15,,,,,,,,,,,,,,561.7829999910609,,response,,,7,A,,,,,Space,keypress(Space),,,,silence,---- --------- ---------- - --- ------- -- --- ------------<br>----- -- -------- ------- ---- ------ - -------- ---- -----<br>--- ------- ---- -- --- -------- --- - ----- ------ ---- --<br>-------- --- -------- -------- --- -------- ---- -- ----- -<br>-------- ---- --- ---------- --------- -- ------- ------ -<br>--------- grand -----,232351.20000000298,232350.39999999106,231771.946,231775.39999999106,231788.617,232355.385,,51,grand
screen,html.Screen,0_4_1_0_1_52,2021-11-05T13:43:51.913Z,,,,,,,,,,,,,,,,15,,,,,,,,,,,,,,539.01499999105,,response,,,7,A,,,,,Space,keypress(Space),,,,silence,---- --------- ---------- - --- ------- -- --- ------------<br>----- -- -------- ------- ---- ------ - -------- ---- -----<br>--- ------- ---- -- --- -------- --- - ----- ------ ---- --<br>-------- --- -------- -------- --- -------- ---- -- ----- -<br>-------- ---- --- ---------- --------- -- ------- ------ -<br>--------- ----- jury.,232895.20000000298,232894.39999999106,232338.715,232351.5,232355.385,232905.6,,52,jury.
Item 7,flow.Loop,0_4_1_0_1,2021-11-05T13:43:51.914Z,,,,,,,,,,,,,,,,,,,,,,,,,,,,,,39166.01699999106,,completion,,,,,,,,,,,,,,,,232895.5,232894.39999999106,193711.712,193712.89999999106,193728.383,232905.6,,,
