sender,sender_type,sender_id,timestamp,meta,,Blues,Classical,Country,Dance,Electronic,Folk,Gospel,Hip-Hop,Jazz,Latin,Musical/Film,New-age,Pop,Provo_ID,R&B,Rap,Reggae,Religious,Rock,Soul,Swing,Traditional,age,artist_name,correct,correctResponse,distraction,duration,education,ended_on,familiarity,gender,item,list,music_frequency,offensiveness,pleasantness,preference,response,response_action,snippet_file,song_name,song_rating,sound,text,time_commit,time_end,time_render,time_run,time_show,time_switch,url,word,word_ID
Instructions,html.Page,0_0,2021-10-22T11:44:57.781Z,"{""labjs_version"":""20.2.3"",""labjs_build"":{""flavor"":""production"",""commit"":""7ea907d66ca8aeef8054924ca5d82ffbe11e34e5""},""location"":""https://run.pavlovia.org/mvasilev/lab_music_a/"",""userAgent"":""Mozilla/5.0 (Windows NT 6.1; Win64; x64) AppleWebKit/537.36 (KHTML, like Gecko) Chrome/80.0.3987.132 Safari/537.36"",""platform"":""Win32"",""language"":""en-US"",""locale"":""en-US"",""timeZone"":""Europe/London"",""timezoneOffset"":-60,""screen_width"":1920,""screen_height"":1080,""scroll_width"":1920,""scroll_height"":951,""window_innerWidth"":1920,""window_innerHeight"":975,""devicePixelRatio"":1}",,,,,,,,,,,,,,,,,,,,,,,,,,,,,28815.160000026764,,form submission,,,,,,,,,,,,,,,,41977.81000001123,41976.115000026766,13110.96,13127.429999993183,13160.955,41977.015,{},,
Headphones,html.Page,0_1,2021-10-22T11:45:01.388Z,,,,,,,,,,,,,,,,,,,,,,,,,,,,,,3606.4700000101147,,form submission,,,,,,,,,,,,,,,,45584.13999999175,45583.485000010114,41960.35,41979.165000026114,41977.015,45610.174,,,
Holding screen,html.Screen,0_2_0_0,2021-10-22T11:45:11.405Z,,,,,,,,,,,,,,,,,,,,,,,,,,,,,,10032.915,,timeout,,,,,,,,,,,,,,,,55601.16500000004,55593.094,45576.844,45584.734999982174,45610.174,55643.089,,,
screen,html.Screen,0_2_0_1_0,2021-10-22T11:45:14.113Z,,,,,,,,,,,,,,,,53,,,,,,,,,,,,,,2664.596000007041,,response,,,99,,,,,,Space,keypress(Space),,,,,When -- ----- -- ------ - ------- --- ----------<br>------------- ------ ------ ---- ---- ------- ----- -- ----<br>-------- ------- -- ---------- --- - --- ----- ----- ----<br>---- --- --- ----- --- ---- ---- ------- ----- ---- -------<br>--- --- -- ----- -- --- ---- -- --- ---- -- ------ ------<br>--- ----- -- ----,58309.189999999944,58307.68500000704,55593.094,55601.68000002159,55643.089,58326.218,,0,When
screen,html.Screen,0_2_0_1_1,2021-10-22T11:45:15.408Z,,,,,,,,,,,,,,,,53,,,,,,,,,,,,,,1277.0970000148445,,response,,,99,,,,,,Space,keypress(Space),,,,,---- it ----- -- ------ - ------- --- ----------<br>------------- ------ ------ ---- ---- ------- ----- -- ----<br>-------- ------- -- ---------- --- - --- ----- ----- ----<br>---- --- --- ----- --- ---- ---- ------- ----- ---- -------<br>--- --- -- ----- -- --- ---- -- --- ---- -- ------ ------<br>--- ----- -- ----,59604.37999997521,59603.315000014845,58309.553,58309.565000003204,58326.218,59626.402,,1,it
screen,html.Screen,0_2_0_1_2,2021-10-22T11:45:16.642Z,,,,,,,,,,,,,,,,53,,,,,,,,,,,,,,1208.8880000172649,,response,,,99,,,,,,Space,keypress(Space),,,,,---- -- comes -- ------ - ------- --- ----------<br>------------- ------ ------ ---- ---- ------- ----- -- ----<br>-------- ------- -- ---------- --- - --- ----- ----- ----<br>---- --- --- ----- --- ---- ---- ------- ----- ---- -------<br>--- --- -- ----- -- --- ---- -- --- ---- -- ------ ------<br>--- ----- -- ----,60836.149999988265,60835.29000001727,59593.07,59604.65499997372,59626.402,60859.57,,2,comes
screen,html.Screen,0_2_0_1_3,2021-10-22T11:45:17.778Z,,,,,,,,,,,,,,,,53,,,,,,,,,,,,,,1111.6549999865892,,response,,,99,,,,,,Space,keypress(Space),,,,,---- -- ----- to ------ - ------- --- ----------<br>------------- ------ ------ ---- ---- ------- ----- -- ----<br>-------- ------- -- ---------- --- - --- ----- ----- ----<br>---- --- --- ----- --- ---- ---- ------- ----- ---- -------<br>--- --- -- ----- -- --- ---- -- --- ---- -- ------ ------<br>--- ----- -- ----,61972.08999999566,61971.22499998659,60826.24,60836.415000027046,60859.57,61992.822,,3,to
screen,html.Screen,0_2_0_1_4,2021-10-22T11:45:18.793Z,,,,,,,,,,,,,,,,53,,,,,,,,,,,,,,994.2830000074318,,response,,,99,,,,,,Space,keypress(Space),,,,,---- -- ----- -- having - ------- --- ----------<br>------------- ------ ------ ---- ---- ------- ----- -- ----<br>-------- ------- -- ---------- --- - --- ----- ----- ----<br>---- --- --- ----- --- ---- ---- ------- ----- ---- -------<br>--- --- -- ----- -- --- ---- -- --- ---- -- ------ ------<br>--- ----- -- ----,62987.945000000764,62987.10500000743,61959.492,61972.34999999637,61992.822,63009.581,,4,having
screen,html.Screen,0_2_0_1_5,2021-10-22T11:45:19.298Z,,,,,,,,,,,,,,,,53,,,,,,,,,,,,,,481.61899998947774,,response,,,99,,,,,,Space,keypress(Space),,,,,---- -- ----- -- ------ a ------- --- ----------<br>------------- ------ ------ ---- ---- ------- ----- -- ----<br>-------- ------- -- ---------- --- - --- ----- ----- ----<br>---- --- --- ----- --- ---- ---- ------- ----- ---- -------<br>--- --- -- ----- -- --- ---- -- --- ---- -- ------ ------<br>--- ----- -- ----,63492.09499999415,63491.199999989476,62976.249,62988.194999983534,63009.581,63509.479,,5,a
screen,html.Screen,0_2_0_1_6,2021-10-22T11:45:20.401Z,,,,,,,,,,,,,,,,53,,,,,,,,,,,,,,1085.64599999255,,response,,,99,,,,,,Space,keypress(Space),,,,,---- -- ----- -- ------ - lasting --- ----------<br>------------- ------ ------ ---- ---- ------- ----- -- ----<br>-------- ------- -- ---------- --- - --- ----- ----- ----<br>---- --- --- ----- --- ---- ---- ------- ----- ---- -------<br>--- --- -- ----- -- --- ---- -- --- ---- -- ------ ------<br>--- ----- -- ----,64595.94999998808,64595.12499999255,63492.814,63492.374999972526,63509.479,64609.51,,6,lasting
screen,html.Screen,0_2_0_1_7,2021-10-22T11:45:20.913Z,,,,,,,,,,,,,,,,53,,,,,,,,,,,,,,497.56500000716915,,response,,,99,,,,,,Space,keypress(Space),,,,,---- -- ----- -- ------ - ------- and ----------<br>------------- ------ ------ ---- ---- ------- ----- -- ----<br>-------- ------- -- ---------- --- - --- ----- ----- ----<br>---- --- --- ----- --- ---- ---- ------- ----- ---- -------<br>--- --- -- ----- -- --- ---- -- --- ---- -- ------ ------<br>--- ----- -- ----,65107.88999998476,65107.07500000717,64592.844,64596.19000001112,64609.51,65126.119,,7,and
screen,html.Screen,0_2_0_1_8,2021-10-22T11:45:21.561Z,,,,,,,,,,,,,,,,53,,,,,,,,,,,,,,628.9559999936682,,response,,,99,,,,,,Space,keypress(Space),,,,,---- -- ----- -- ------ - ------- --- fulfilling<br>------------- ------ ------ ---- ---- ------- ----- -- ----<br>-------- ------- -- ---------- --- - --- ----- ----- ----<br>---- --- --- ----- --- ---- ---- ------- ----- ---- -------<br>--- --- -- ----- -- --- ---- -- --- ---- -- ------ ------<br>--- ----- -- ----,65755.8999999892,65755.07499999367,65092.789,65108.13499998767,65126.119,65776.096,,8,fulfilling
screen,html.Screen,0_2_0_1_9,2021-10-22T11:45:24.049Z,,,,,,,,,,,,,,,,53,,,,,,,,,,,,,,2466.934000012363,,response,,,99,,,,,,Space,keypress(Space),,,,,"---- -- ----- -- ------ - ------- --- ----------<br>relationship, ------ ------ ---- ---- ------- ----- -- ----<br>-------- ------- -- ---------- --- - --- ----- ----- ----<br>---- --- --- ----- --- ---- ---- ------- ----- ---- -------<br>--- --- -- ----- -- --- ---- -- --- ---- -- ------ ------<br>--- ----- -- ----",68243.92500001704,68243.03000001237,65742.766,65756.13499997417,65776.096,68259.216,,9,"relationship,"
screen,html.Screen,0_2_0_1_10,2021-10-22T11:45:24.690Z,,,,,,,,,,,,,,,,53,,,,,,,,,,,,,,624.0490000113059,,response,,,99,,,,,,Space,keypress(Space),,,,,---- -- ----- -- ------ - ------- --- ----------<br>------------- common ------ ---- ---- ------- ----- -- ----<br>-------- ------- -- ---------- --- - --- ----- ----- ----<br>---- --- --- ----- --- ---- ---- ------- ----- ---- -------<br>--- --- -- ----- -- --- ---- -- --- ---- -- ------ ------<br>--- ----- -- ----,68884.13000002038,68883.2650000113,68242.551,68244.16499998188,68259.216,68909.35,,10,common
screen,html.Screen,0_2_0_1_11,2021-10-22T11:45:25.097Z,,,,,,,,,,,,,,,,53,,,,,,,,,,,,,,381.55500000165193,,response,,,99,,,,,,Space,keypress(Space),,,,,---- -- ----- -- ------ - ------- --- ----------<br>------------- ------ wisdom ---- ---- ------- ----- -- ----<br>-------- ------- -- ---------- --- - --- ----- ----- ----<br>---- --- --- ----- --- ---- ---- ------- ----- ---- -------<br>--- --- -- ----- -- --- ---- -- --- ---- -- ------ ------<br>--- ----- -- ----,69291.81000002427,69290.90500000166,68876.018,68884.36999998521,68909.35,69309.29,,11,wisdom
screen,html.Screen,0_2_0_1_12,2021-10-22T11:45:25.505Z,,,,,,,,,,,,,,,,53,,,,,,,,,,,,,,389.5950000198063,,response,,,99,,,,,,Space,keypress(Space),,,,,---- -- ----- -- ------ - ------- --- ----------<br>------------- ------ ------ says ---- ------- ----- -- ----<br>-------- ------- -- ---------- --- - --- ----- ----- ----<br>---- --- --- ----- --- ---- ---- ------- ----- ---- -------<br>--- --- -- ----- -- --- ---- -- --- ---- -- ------ ------<br>--- ----- -- ----,69699.74000001093,69698.8850000198,69275.96,69292.0499999891,69309.29,69709.314,,12,says
screen,html.Screen,0_2_0_1_13,2021-10-22T11:45:25.849Z,,,,,,,,,,,,,,,,53,,,,,,,,,,,,,,333.57100000257196,,response,,,99,,,,,,Space,keypress(Space),,,,,---- -- ----- -- ------ - ------- --- ----------<br>------------- ------ ------ ---- that ------- ----- -- ----<br>-------- ------- -- ---------- --- - --- ----- ----- ----<br>---- --- --- ----- --- ---- ---- ------- ----- ---- -------<br>--- --- -- ----- -- --- ---- -- --- ---- -- ------ ------<br>--- ----- -- ----,70043.82500000065,70042.88500000257,69692.648,69699.9749999959,69709.314,70059.329,,13,that
screen,html.Screen,0_2_0_1_14,2021-10-22T11:45:26.177Z,,,,,,,,,,,,,,,,53,,,,,,,,,,,,,,311.55599998208345,,response,,,99,,,,,,Space,keypress(Space),,,,,---- -- ----- -- ------ - ------- --- ----------<br>------------- ------ ------ ---- ---- feeling ----- -- ----<br>-------- ------- -- ---------- --- - --- ----- ----- ----<br>---- --- --- ----- --- ---- ---- ------- ----- ---- -------<br>--- --- -- ----- -- --- ---- -- --- ---- -- ------ ------<br>--- ----- -- ----,70371.679999982,70370.88499998208,70042.663,70044.0650000237,70059.329,70392.531,,14,feeling
screen,html.Screen,0_2_0_1_15,2021-10-22T11:45:26.593Z,,,,,,,,,,,,,,,,53,,,,,,,,,,,,,,394.328999992882,,response,,,99,,,,,,Space,keypress(Space),,,,,---- -- ----- -- ------ - ------- --- ----------<br>------------- ------ ------ ---- ---- ------- close -- ----<br>-------- ------- -- ---------- --- - --- ----- ----- ----<br>---- --- --- ----- --- ---- ---- ------- ----- ---- -------<br>--- --- -- ----- -- --- ---- -- --- ---- -- ------ ------<br>--- ----- -- ----,70787.6249999972,70786.85999999288,70359.203,70371.91500002518,70392.531,70809.32,,15,close
screen,html.Screen,0_2_0_1_16,2021-10-22T11:45:26.905Z,,,,,,,,,,,,,,,,53,,,,,,,,,,,,,,289.47999997792067,,response,,,99,,,,,,Space,keypress(Space),,,,,---- -- ----- -- ------ - ------- --- ----------<br>------------- ------ ------ ---- ---- ------- ----- to ----<br>-------- ------- -- ---------- --- - --- ----- ----- ----<br>---- --- --- ----- --- ---- ---- ------- ----- ---- -------<br>--- --- -- ----- -- --- ---- -- --- ---- -- ------ ------<br>--- ----- -- ----,71099.57999998005,71098.79999997793,70775.986,70787.85500000231,70809.32,71109.316,,16,to
screen,html.Screen,0_2_0_1_17,2021-10-22T11:45:27.401Z,,,,,,,,,,,,,,,,53,,,,,,,,,,,,,,485.54400001197064,,response,,,99,,,,,,Space,keypress(Space),,,,,---- -- ----- -- ------ - ------- --- ----------<br>------------- ------ ------ ---- ---- ------- ----- -- your<br>-------- ------- -- ---------- --- - --- ----- ----- ----<br>---- --- --- ----- --- ---- ---- ------- ----- ---- -------<br>--- --- -- ----- -- --- ---- -- --- ---- -- ------ ------<br>--- ----- -- ----,71595.66499997163,71594.86000001198,71092.649,71099.82000000309,71109.316,71609.163,,17,your
screen,html.Screen,0_2_0_1_18,2021-10-22T11:45:27.825Z,,,,,,,,,,,,,,,,53,,,,,,,,,,,,,,409.63199998176424,,response,,,99,,,,,,Space,keypress(Space),,,,,---- -- ----- -- ------ - ------- --- ----------<br>------------- ------ ------ ---- ---- ------- ----- -- ----<br>romantic ------- -- ---------- --- - --- ----- ----- ----<br>---- --- --- ----- --- ---- ---- ------- ----- ---- -------<br>--- --- -- ----- -- --- ---- -- --- ---- -- ------ ------<br>--- ----- -- ----,72019.55000002636,72018.79499998176,71592.499,71595.90000001481,71609.163,72025.943,,18,romantic
screen,html.Screen,0_2_0_1_19,2021-10-22T11:45:28.169Z,,,,,,,,,,,,,,,,53,,,,,,,,,,,,,,336.8720000004105,,response,,,99,,,,,,Space,keypress(Space),,,,,---- -- ----- -- ------ - ------- --- ----------<br>------------- ------ ------ ---- ---- ------- ----- -- ----<br>-------- partner -- ---------- --- - --- ----- ----- ----<br>---- --- --- ----- --- ---- ---- ------- ----- ---- -------<br>--- --- -- ----- -- --- ---- -- --- ---- -- ------ ------<br>--- ----- -- ----,72363.58000000473,72362.81500000041,72009.276,72019.80000000913,72025.943,72375.869,,19,partner
screen,html.Screen,0_2_0_1_20,2021-10-22T11:45:28.617Z,,,,,,,,,,,,,,,,53,,,,,,,,,,,,,,434.945999975258,,response,,,99,,,,,,Space,keypress(Space),,,,,---- -- ----- -- ------ - ------- --- ----------<br>------------- ------ ------ ---- ---- ------- ----- -- ----<br>-------- ------- is ---------- --- - --- ----- ----- ----<br>---- --- --- ----- --- ---- ---- ------- ----- ---- -------<br>--- --- -- ----- -- --- ---- -- --- ---- -- ------ ------<br>--- ----- -- ----,72811.57999997959,72810.81499997526,72359.204,72363.82000002777,72375.869,72825.891,,20,is
screen,html.Screen,0_2_0_1_21,2021-10-22T11:45:29.049Z,,,,,,,,,,,,,,,,53,,,,,,,,,,,,,,416.8839999915217,,response,,,99,,,,,,Space,keypress(Space),,,,,---- -- ----- -- ------ - ------- --- ----------<br>------------- ------ ------ ---- ---- ------- ----- -- ----<br>-------- ------- -- paramount. --- - --- ----- ----- ----<br>---- --- --- ----- --- ---- ---- ------- ----- ---- -------<br>--- --- -- ----- -- --- ---- -- --- ---- -- ------ ------<br>--- ----- -- ----,73243.62999998266,73242.77499999152,72809.225,72811.81500002276,72825.891,73259.175,,21,paramount.
screen,html.Screen,0_2_0_1_22,2021-10-22T11:45:29.705Z,,,,,,,,,,,,,,,,53,,,,,,,,,,,,,,639.6349999842205,,response,,,99,,,,,,Space,keypress(Space),,,,,---- -- ----- -- ------ - ------- --- ----------<br>------------- ------ ------ ---- ---- ------- ----- -- ----<br>-------- ------- -- ---------- But - --- ----- ----- ----<br>---- --- --- ----- --- ---- ---- ------- ----- ---- -------<br>--- --- -- ----- -- --- ---- -- --- ---- -- ------ ------<br>--- ----- -- ----,73899.58500000648,73898.80999998422,73242.51,73243.8700000057,73259.175,73909.137,,22,But
screen,html.Screen,0_2_0_1_23,2021-10-22T11:45:30.121Z,,,,,,,,,,,,,,,,53,,,,,,,,,,,,,,405.62299997928494,,response,,,99,,,,,,Space,keypress(Space),,,,,---- -- ----- -- ------ - ------- --- ----------<br>------------- ------ ------ ---- ---- ------- ----- -- ----<br>-------- ------- -- ---------- --- a --- ----- ----- ----<br>---- --- --- ----- --- ---- ---- ------- ----- ---- -------<br>--- --- -- ----- -- --- ---- -- --- ---- -- ------ ------<br>--- ----- -- ----,74315.53500000155,74314.75999997929,73892.472,73899.81999999145,73909.137,74325.795,,23,a
screen,html.Screen,0_2_0_1_24,2021-10-22T11:45:30.441Z,,,,,,,,,,,,,,,,53,,,,,,,,,,,,,,308.88999999726366,,response,,,99,,,,,,Space,keypress(Space),,,,,---- -- ----- -- ------ - ------- --- ----------<br>------------- ------ ------ ---- ---- ------- ----- -- ----<br>-------- ------- -- ---------- --- - new ----- ----- ----<br>---- --- --- ----- --- ---- ---- ------- ----- ---- -------<br>--- --- -- ----- -- --- ---- -- --- ---- -- ------ ------<br>--- ----- -- ----,74635.42499998584,74634.68499999726,74309.13,74315.76999998651,74325.795,74642.456,,24,new
screen,html.Screen,0_2_0_1_25,2021-10-22T11:45:30.857Z,,,,,,,,,,,,,,,,53,,,,,,,,,,,,,,408.229000023799,,response,,,99,,,,,,Space,keypress(Space),,,,,---- -- ----- -- ------ - ------- --- ----------<br>------------- ------ ------ ---- ---- ------- ----- -- ----<br>-------- ------- -- ---------- --- - --- study ----- ----<br>---- --- --- ----- --- ---- ---- ------- ----- ---- -------<br>--- --- -- ----- -- --- ---- -- --- ---- -- ------ ------<br>--- ----- -- ----,75051.4700000058,75050.6850000238,74625.791,74635.65499999095,74642.456,75059.137,,25,study
screen,html.Screen,0_2_0_1_26,2021-10-22T11:45:31.193Z,,,,,,,,,,,,,,,,53,,,,,,,,,,,,,,327.5680000117136,,response,,,99,,,,,,Space,keypress(Space),,,,,---- -- ----- -- ------ - ------- --- ----------<br>------------- ------ ------ ---- ---- ------- ----- -- ----<br>-------- ------- -- ---------- --- - --- ----- finds ----<br>---- --- --- ----- --- ---- ---- ------- ----- ---- -------<br>--- --- -- ----- -- --- ---- -- --- ---- -- ------ ------<br>--- ----- -- ----,75387.47999997577,75386.70500001172,75042.471,75051.71000002883,75059.137,75409.036,,26,finds
screen,html.Screen,0_2_0_1_27,2021-10-22T11:45:31.561Z,,,,,,,,,,,,,,,,53,,,,,,,,,,,,,,345.66900002848706,,response,,,99,,,,,,Space,keypress(Space),,,,,---- -- ----- -- ------ - ------- --- ----------<br>------------- ------ ------ ---- ---- ------- ----- -- ----<br>-------- ------- -- ---------- --- - --- ----- ----- that<br>---- --- --- ----- --- ---- ---- ------- ----- ---- -------<br>--- --- -- ----- -- --- ---- -- --- ---- -- ------ ------<br>--- ----- -- ----,75755.2400000277,75754.70500002848,75375.708,75387.70999998087,75409.036,75759.112,,27,that
screen,html.Screen,0_2_0_1_28,2021-10-22T11:45:31.953Z,,,,,,,,,,,,,,,,53,,,,,,,,,,,,,,387.60800001883763,,response,,,99,,,,,,Space,keypress(Space),,,,,---- -- ----- -- ------ - ------- --- ----------<br>------------- ------ ------ ---- ---- ------- ----- -- ----<br>-------- ------- -- ---------- --- - --- ----- ----- ----<br>it's --- --- ----- --- ---- ---- ------- ----- ---- -------<br>--- --- -- ----- -- --- ---- -- --- ---- -- ------ ------<br>--- ----- -- ----,76147.49000000302,76146.72000001883,75742.446,75755.35499997204,75759.112,76158.983,,28,it's
screen,html.Screen,0_2_0_1_29,2021-10-22T11:45:32.297Z,,,,,,,,,,,,,,,,53,,,,,,,,,,,,,,331.63699999685923,,response,,,99,,,,,,Space,keypress(Space),,,,,---- -- ----- -- ------ - ------- --- ----------<br>------------- ------ ------ ---- ---- ------- ----- -- ----<br>-------- ------- -- ---------- --- - --- ----- ----- ----<br>---- not --- ----- --- ---- ---- ------- ----- ---- -------<br>--- --- -- ----- -- --- ---- -- --- ---- -- ------ ------<br>--- ----- -- ----,76491.35999998543,76490.61999999685,76142.319,76147.71500002826,76158.983,76509.084,,29,not
screen,html.Screen,0_2_0_1_30,2021-10-22T11:45:32.593Z,,,,,,,,,,,,,,,,53,,,,,,,,,,,,,,277.56600002365303,,response,,,99,,,,,,Space,keypress(Space),,,,,---- -- ----- -- ------ - ------- --- ----------<br>------------- ------ ------ ---- ---- ------- ----- -- ----<br>-------- ------- -- ---------- --- - --- ----- ----- ----<br>---- --- how ----- --- ---- ---- ------- ----- ---- -------<br>--- --- -- ----- -- --- ---- -- --- ---- -- ------ ------<br>--- ----- -- ----,76787.39000001224,76786.65000002366,76475.752,76491.58999999054,76509.084,76809.073,,30,how
screen,html.Screen,0_2_0_1_31,2021-10-22T11:45:32.857Z,,,,,,,,,,,,,,,,53,,,,,,,,,,,,,,241.50699998097843,,response,,,99,,,,,,Space,keypress(Space),,,,,---- -- ----- -- ------ - ------- --- ----------<br>------------- ------ ------ ---- ---- ------- ----- -- ----<br>-------- ------- -- ---------- --- - --- ----- ----- ----<br>---- --- --- close --- ---- ---- ------- ----- ---- -------<br>--- --- -- ----- -- --- ---- -- --- ---- -- ------ ------<br>--- ----- -- ----,77051.36500002118,77050.57999998098,76775.741,76787.6249999972,76809.073,77059.038,,31,close
screen,html.Screen,0_2_0_1_32,2021-10-22T11:45:33.169Z,,,,,,,,,,,,,,,,53,,,,,,,,,,,,,,303.5820000289823,,response,,,99,,,,,,Space,keypress(Space),,,,,---- -- ----- -- ------ - ------- --- ----------<br>------------- ------ ------ ---- ---- ------- ----- -- ----<br>-------- ------- -- ---------- --- - --- ----- ----- ----<br>---- --- --- ----- you ---- ---- ------- ----- ---- -------<br>--- --- -- ----- -- --- ---- -- --- ---- -- ------ ------<br>--- ----- -- ----,77363.3849999751,77362.62000002898,77042.373,77051.59500002628,77059.038,77375.642,,32,you
screen,html.Screen,0_2_0_1_33,2021-10-22T11:45:33.665Z,,,,,,,,,,,,,,,,53,,,,,,,,,,,,,,482.9979999912757,,response,,,99,,,,,,Space,keypress(Space),,,,,---- -- ----- -- ------ - ------- --- ----------<br>------------- ------ ------ ---- ---- ------- ----- -- ----<br>-------- ------- -- ---------- --- - --- ----- ----- ----<br>---- --- --- ----- --- feel ---- ------- ----- ---- -------<br>--- --- -- ----- -- --- ---- -- --- ---- -- ------ ------<br>--- ----- -- ----,77859.43000001134,77858.63999999128,77358.978,77363.62499999814,77375.642,77875.74,,33,feel
screen,html.Screen,0_2_0_1_34,2021-10-22T11:45:34.105Z,,,,,,,,,,,,,,,,53,,,,,,,,,,,,,,422.87499997786654,,response,,,99,,,,,,Space,keypress(Space),,,,,---- -- ----- -- ------ - ------- --- ----------<br>------------- ------ ------ ---- ---- ------- ----- -- ----<br>-------- ------- -- ---------- --- - --- ----- ----- ----<br>---- --- --- ----- --- ---- that ------- ----- ---- -------<br>--- --- -- ----- -- --- ---- -- --- ---- -- ------ ------<br>--- ----- -- ----,78299.50000002282,78298.61499997787,77859.073,77859.66499999631,77875.74,78309.014,,34,that
screen,html.Screen,0_2_0_1_35,2021-10-22T11:45:34.449Z,,,,,,,,,,,,,,,,53,,,,,,,,,,,,,,333.5359999895736,,response,,,99,,,,,,Space,keypress(Space),,,,,---- -- ----- -- ------ - ------- --- ----------<br>------------- ------ ------ ---- ---- ------- ----- -- ----<br>-------- ------- -- ---------- --- - --- ----- ----- ----<br>---- --- --- ----- --- ---- ---- matters ----- ---- -------<br>--- --- -- ----- -- --- ---- -- --- ---- -- ------ ------<br>--- ----- -- ----,78643.31499999389,78642.54999998957,78292.348,78299.74500002572,78309.014,78658.992,,35,matters
screen,html.Screen,0_2_0_1_36,2021-10-22T11:45:34.921Z,,,,,,,,,,,,,,,,53,,,,,,,,,,,,,,455.79299998338684,,response,,,99,,,,,,Space,keypress(Space),,,,,"---- -- ----- -- ------ - ------- --- ----------<br>------------- ------ ------ ---- ---- ------- ----- -- ----<br>-------- ------- -- ---------- --- - --- ----- ----- ----<br>---- --- --- ----- --- ---- ---- ------- most, ---- -------<br>--- --- -- ----- -- --- ---- -- --- ---- -- ------ ------<br>--- ----- -- ----",79115.57500000345,79114.78499998339,78642.326,78643.54999997886,78658.992,79125.619,,36,"most,"
screen,html.Screen,0_2_0_1_37,2021-10-22T11:45:35.377Z,,,,,,,,,,,,,,,,53,,,,,,,,,,,,,,444.8909999904572,,response,,,99,,,,,,Space,keypress(Space),,,,,---- -- ----- -- ------ - ------- --- ----------<br>------------- ------ ------ ---- ---- ------- ----- -- ----<br>-------- ------- -- ---------- --- - --- ----- ----- ----<br>---- --- --- ----- --- ---- ---- ------- ----- it's -------<br>--- --- -- ----- -- --- ---- -- --- ---- -- ------ ------<br>--- ----- -- ----,79571.25500001712,79570.50999999046,79108.954,79115.80999998841,79125.619,79592.262,,37,it's
screen,html.Screen,0_2_0_1_38,2021-10-22T11:45:35.793Z,,,,,,,,,,,,,,,,53,,,,,,,,,,,,,,394.2579999767331,,response,,,99,,,,,,Space,keypress(Space),,,,,---- -- ----- -- ------ - ------- --- ----------<br>------------- ------ ------ ---- ---- ------- ----- -- ----<br>-------- ------- -- ---------- --- - --- ----- ----- ----<br>---- --- --- ----- --- ---- ---- ------- ----- ---- whether<br>--- --- -- ----- -- --- ---- -- --- ---- -- ------ ------<br>--- ----- -- ----,79987.28499998106,79986.51999997674,79558.932,79571.49000000209,79592.262,80008.878,,38,whether
screen,html.Screen,0_2_0_1_39,2021-10-22T11:45:36.209Z,,,,,,,,,,,,,,,,53,,,,,,,,,,,,,,393.6420000032813,,response,,,99,,,,,,Space,keypress(Space),,,,,---- -- ----- -- ------ - ------- --- ----------<br>------------- ------ ------ ---- ---- ------- ----- -- ----<br>-------- ------- -- ---------- --- - --- ----- ----- ----<br>---- --- --- ----- --- ---- ---- ------- ----- ---- -------<br>you --- -- ----- -- --- ---- -- --- ---- -- ------ ------<br>--- ----- -- ----,80403.28999998746,80402.52000000328,79975.548,79987.51499998616,80008.878,80408.851,,39,you
screen,html.Screen,0_2_0_1_40,2021-10-22T11:45:36.569Z,,,,,,,,,,,,,,,,53,,,,,,,,,,,,,,353.6539999915112,,response,,,99,,,,,,Space,keypress(Space),,,,,---- -- ----- -- ------ - ------- --- ----------<br>------------- ------ ------ ---- ---- ------- ----- -- ----<br>-------- ------- -- ---------- --- - --- ----- ----- ----<br>---- --- --- ----- --- ---- ---- ------- ----- ---- -------<br>--- are -- ----- -- --- ---- -- --- ---- -- ------ ------<br>--- ----- -- ----,80763.25499999803,80762.5049999915,80392.186,80403.52499997243,80408.851,80775.624,,40,are
screen,html.Screen,0_2_0_1_41,2021-10-22T11:45:36.961Z,,,,,,,,,,,,,,,,53,,,,,,,,,,,,,,378.79599997711193,,response,,,99,,,,,,Space,keypress(Space),,,,,---- -- ----- -- ------ - ------- --- ----------<br>------------- ------ ------ ---- ---- ------- ----- -- ----<br>-------- ------- -- ---------- --- - --- ----- ----- ----<br>---- --- --- ----- --- ---- ---- ------- ----- ---- -------<br>--- --- as ----- -- --- ---- -- --- ---- -- ------ ------<br>--- ----- -- ----,81155.19999997923,81154.41999997711,80758.957,80763.48500000313,80775.624,81175.535,,41,as
screen,html.Screen,0_2_0_1_42,2021-10-22T11:45:37.353Z,,,,,,,,,,,,,,,,53,,,,,,,,,,,,,,370.8600000121223,,response,,,99,,,,,,Space,keypress(Space),,,,,---- -- ----- -- ------ - ------- --- ----------<br>------------- ------ ------ ---- ---- ------- ----- -- ----<br>-------- ------- -- ---------- --- - --- ----- ----- ----<br>---- --- --- ----- --- ---- ---- ------- ----- ---- -------<br>--- --- -- close -- --- ---- -- --- ---- -- ------ ------<br>--- ----- -- ----,81547.10000002524,81546.39500001213,81142.205,81155.42999998434,81175.535,81558.727,,42,close
screen,html.Screen,0_2_0_1_43,2021-10-22T11:45:37.641Z,,,,,,,,,,,,,,,,53,,,,,,,,,,,,,,275.66800001259253,,response,,,99,,,,,,Space,keypress(Space),,,,,---- -- ----- -- ------ - ------- --- ----------<br>------------- ------ ------ ---- ---- ------- ----- -- ----<br>-------- ------- -- ---------- --- - --- ----- ----- ----<br>---- --- --- ----- --- ---- ---- ------- ----- ---- -------<br>--- --- -- ----- as --- ---- -- --- ---- -- ------ ------<br>--- ----- -- ----,81835.10500000557,81834.39500001259,81542.064,81547.32999997213,81558.727,81842.223,,43,as
screen,html.Screen,0_2_0_1_44,2021-10-22T11:45:37.937Z,,,,,,,,,,,,,,,,53,,,,,,,,,,,,,,288.14199998998083,,response,,,99,,,,,,Space,keypress(Space),,,,,---- -- ----- -- ------ - ------- --- ----------<br>------------- ------ ------ ---- ---- ------- ----- -- ----<br>-------- ------- -- ---------- --- - --- ----- ----- ----<br>---- --- --- ----- --- ---- ---- ------- ----- ---- -------<br>--- --- -- ----- -- you ---- -- --- ---- -- ------ ------<br>--- ----- -- ----,82131.14999997197,82130.36499998998,81825.555,81835.33500001067,81842.223,82142.193,,44,you
screen,html.Screen,0_2_0_1_45,2021-10-22T11:45:38.257Z,,,,,,,,,,,,,,,,53,,,,,,,,,,,,,,308.1719999969646,,response,,,99,,,,,,Space,keypress(Space),,,,,---- -- ----- -- ------ - ------- --- ----------<br>------------- ------ ------ ---- ---- ------- ----- -- ----<br>-------- ------- -- ---------- --- - --- ----- ----- ----<br>---- --- --- ----- --- ---- ---- ------- ----- ---- -------<br>--- --- -- ----- -- --- want -- --- ---- -- ------ ------<br>--- ----- -- ----,82451.10000000568,82450.36499999696,82125.528,82131.37999997707,82142.193,82458.773,,45,want
screen,html.Screen,0_2_0_1_46,2021-10-22T11:45:38.569Z,,,,,,,,,,,,,,,,53,,,,,,,,,,,,,,303.57199999554723,,response,,,99,,,,,,Space,keypress(Space),,,,,---- -- ----- -- ------ - ------- --- ----------<br>------------- ------ ------ ---- ---- ------- ----- -- ----<br>-------- ------- -- ---------- --- - --- ----- ----- ----<br>---- --- --- ----- --- ---- ---- ------- ----- ---- -------<br>--- --- -- ----- -- --- ---- to --- ---- -- ------ ------<br>--- ----- -- ----,82763.06999998633,82762.34499999555,82442.109,82451.33499999065,82458.773,82775.524,,46,to
screen,html.Screen,0_2_0_1_47,2021-10-22T11:45:38.881Z,,,,,,,,,,,,,,,,53,,,,,,,,,,,,,,298.82600000986713,,response,,,99,,,,,,Space,keypress(Space),,,,,"---- -- ----- -- ------ - ------- --- ----------<br>------------- ------ ------ ---- ---- ------- ----- -- ----<br>-------- ------- -- ---------- --- - --- ----- ----- ----<br>---- --- --- ----- --- ---- ---- ------- ----- ---- -------<br>--- --- -- ----- -- --- ---- -- be, ---- -- ------ ------<br>--- ----- -- ----",83075.10499999626,83074.35000000987,82758.858,82763.3049999713,82775.524,83092.175,,47,"be,"
screen,html.Screen,0_2_0_1_48,2021-10-22T11:45:39.913Z,,,,,,,,,,,,,,,,53,,,,,,,,,,,,,,1014.260000023336,,response,,,99,,,,,,Space,keypress(Space),,,,,---- -- ----- -- ------ - ------- --- ----------<br>------------- ------ ------ ---- ---- ------- ----- -- ----<br>-------- ------- -- ---------- --- - --- ----- ----- ----<br>---- --- --- ----- --- ---- ---- ------- ----- ---- -------<br>--- --- -- ----- -- --- ---- -- --- even -- ------ ------<br>--- ----- -- ----,84107.2549999808,84106.43500002334,83075.509,83075.33999998122,83092.175,84125.464,,48,even
screen,html.Screen,0_2_0_1_49,2021-10-22T11:45:40.281Z,,,,,,,,,,,,,,,,53,,,,,,,,,,,,,,348.8659999972733,,response,,,99,,,,,,Space,keypress(Space),,,,,---- -- ----- -- ------ - ------- --- ----------<br>------------- ------ ------ ---- ---- ------- ----- -- ----<br>-------- ------- -- ---------- --- - --- ----- ----- ----<br>---- --- --- ----- --- ---- ---- ------- ----- ---- -------<br>--- --- -- ----- -- --- ---- -- --- ---- if ------ ------<br>--- ----- -- ----,84475.06000002613,84474.32999999728,84092.132,84107.49000002397,84125.464,84491.966,,49,if
screen,html.Screen,0_2_0_1_50,2021-10-22T11:45:40.745Z,,,,,,,,,,,,,,,,53,,,,,,,,,,,,,,446.3589999955293,,response,,,99,,,,,,Space,keypress(Space),,,,,---- -- ----- -- ------ - ------- --- ----------<br>------------- ------ ------ ---- ---- ------- ----- -- ----<br>-------- ------- -- ---------- --- - --- ----- ----- ----<br>---- --- --- ----- --- ---- ---- ------- ----- ---- -------<br>--- --- -- ----- -- --- ---- -- --- ---- -- that's ------<br>--- ----- -- ----,84939.10499999765,84938.32499999553,84475.302,84475.33500002464,84491.966,84958.688,,50,that's
screen,html.Screen,0_2_0_1_51,2021-10-22T11:45:41.177Z,,,,,,,,,,,,,,,,53,,,,,,,,,,,,,,411.69700001654564,,response,,,99,,,,,,Space,keypress(Space),,,,,---- -- ----- -- ------ - ------- --- ----------<br>------------- ------ ------ ---- ---- ------- ----- -- ----<br>-------- ------- -- ---------- --- - --- ----- ----- ----<br>---- --- --- ----- --- ---- ---- ------- ----- ---- -------<br>--- --- -- ----- -- --- ---- -- --- ---- -- ------ really<br>--- ----- -- ----,85371.25000002561,85370.38500001654,84925.358,84939.41499997163,84958.688,85392.081,,51,really
screen,html.Screen,0_2_0_1_52,2021-10-22T11:45:41.617Z,,,,,,,,,,,,,,,,53,,,,,,,,,,,,,,418.2640000053216,,response,,,99,,,,,,Space,keypress(Space),,,,,---- -- ----- -- ------ - ------- --- ----------<br>------------- ------ ------ ---- ---- ------- ----- -- ----<br>-------- ------- -- ---------- --- - --- ----- ----- ----<br>---- --- --- ----- --- ---- ---- ------- ----- ---- -------<br>--- --- -- ----- -- --- ---- -- --- ---- -- ------ ------<br>not ----- -- ----,85811.1800000188,85810.34500000533,85358.749,85371.60000001313,85392.081,85825.272,,52,not
screen,html.Screen,0_2_0_1_53,2021-10-22T11:45:41.977Z,,,,,,,,,,,,,,,,53,,,,,,,,,,,,,,345.0779999712249,,response,,,99,,,,,,Space,keypress(Space),,,,,---- -- ----- -- ------ - ------- --- ----------<br>------------- ------ ------ ---- ---- ------- ----- -- ----<br>-------- ------- -- ---------- --- - --- ----- ----- ----<br>---- --- --- ----- --- ---- ---- ------- ----- ---- -------<br>--- --- -- ----- -- --- ---- -- --- ---- -- ------ ------<br>--- close -- ----,86171.23500001617,86170.34999997122,85808.608,85811.48500001291,85825.272,86192.091,,53,close
screen,html.Screen,0_2_0_1_54,2021-10-22T11:45:42.304Z,,,,,,,,,,,,,,,,53,,,,,,,,,,,,,,306.13399998845125,,response,,,99,,,,,,Space,keypress(Space),,,,,---- -- ----- -- ------ - ------- --- ----------<br>------------- ------ ------ ---- ---- ------- ----- -- ----<br>-------- ------- -- ---------- --- - --- ----- ----- ----<br>---- --- --- ----- --- ---- ---- ------- ----- ---- -------<br>--- --- -- ----- -- --- ---- -- --- ---- -- ------ ------<br>--- ----- at ----,86498.93499998143,86498.22499998845,86158.757,86171.57499998575,86192.091,86508.691,,54,at
screen,html.Screen,0_2_0_1_55,2021-10-22T11:45:43.041Z,,,,,,,,,,,,,,,,53,,,,,,,,,,,,,,725.5889999751089,,response,,,99,,,,,,Space,keypress(Space),,,,,---- -- ----- -- ------ - ------- --- ----------<br>------------- ------ ------ ---- ---- ------- ----- -- ----<br>-------- ------- -- ---------- --- - --- ----- ----- ----<br>---- --- --- ----- --- ---- ---- ------- ----- ---- -------<br>--- --- -- ----- -- --- ---- -- --- ---- -- ------ ------<br>--- ----- -- all.,87235.12500000652,87234.27999997512,86492.026,86500.39000000106,86508.691,87275.342,,55,all.
Item 99,flow.Loop,0_2_0_1,2021-10-22T11:45:43.044Z,,,,,,,,,,,,,,,,,,,,,,,,,,,,,,31591.190999975115,,completion,,,,A,,,,,,,,,,silence,,87238.71499998495,87234.27999997512,55593.094,55601.525000005495,55643.089,87275.342,,,
Question 1,html.Screen,0_2_0_2,2021-10-22T11:45:55.477Z,,,,,,,,,,,,,,,,,,,,,,,,,,,true,FALSE,,12395.258000012196,,response,,,99,A,,,,,FALSE,click #choice-2,,,,silence,,99671.86499998206,99670.6000000122,87225.344,87238.98000002373,87275.342,99708.223,,,
Question 2,html.Screen,0_2_0_3,2021-10-22T11:46:05.807Z,,,,,,,,,,,,,,,,,,,,,,,,,,,true,TRUE,,10292.642000009073,,response,,,99,A,,,,,TRUE,click #choice-1,,,,silence,,110001.93000002764,110000.86500000907,99658.225,99672.14500001865,99708.223,110041.156,,,
Item 99,flow.Sequence,0_2_0,2021-10-22T11:46:05.808Z,,,,,,,,,,,,,,,,,,,,,,,,,,,,,,64390.69100000907,,completion,,,,,,,,,,,,,,,,110002.36500002211,110000.86500000907,45576.844,45584.60499998182,45610.174,110041.156,,,
Holding screen,html.Screen,0_2_1_0,2021-10-22T11:46:15.832Z,,,,,,,,,,,,,,,,,,,,,,,,,,,,,,10016.312999999995,,timeout,,,,,,,,,,,,,,,,120026.3799999957,120024.137,109991.158,110002.74000002537,110041.156,120057.469,,,
screen,html.Screen,0_2_1_1_0,2021-10-22T11:46:17.554Z,,,,,,,,,,,,,,,,54,,,,,,,,,,,,,,1687.820999991658,,response,,,100,,,,,,Space,keypress(Space),,,,,At --- ---- --- ------ ----- ------- ---- -- --- ------- --<br>------- ---------- ------ -- ----- -- ----- -- ---- ------<br>--- ----- --- --- ------ -------- ----- --- ------ ----- --<br>----- ----- ---------- --- --- ------ ------ ---- -- ------<br>------- --- ------ ----- --- ---- ------- -- ---- --- --<br>------- ------,121746.04499997804,121745.28999999166,120024.137,120026.72999998322,120057.469,121757.282,,0,At
screen,html.Screen,0_2_1_1_1,2021-10-22T11:46:18.082Z,,,,,,,,,,,,,,,,54,,,,,,,,,,,,,,515.657999995281,,response,,,100,,,,,,Space,keypress(Space),,,,,-- the ---- --- ------ ----- ------- ---- -- --- ------- --<br>------- ---------- ------ -- ----- -- ----- -- ---- ------<br>--- ----- --- --- ------ -------- ----- --- ------ ----- --<br>----- ----- ---------- --- --- ------ ------ ---- -- ------<br>------- --- ------ ----- --- ---- ------- -- ---- --- --<br>------- ------,122273.63499999046,122272.93999999529,121740.617,121746.30499997875,121757.282,122290.544,,1,the
screen,html.Screen,0_2_1_1_2,2021-10-22T11:46:18.338Z,,,,,,,,,,,,,,,,54,,,,,,,,,,,,,,238.35099999583326,,response,,,100,,,,,,Space,keypress(Space),,,,,-- --- time --- ------ ----- ------- ---- -- --- ------- --<br>------- ---------- ------ -- ----- -- ----- -- ---- ------<br>--- ----- --- --- ------ -------- ----- --- ------ ----- --<br>----- ----- ---------- --- --- ------ ------ ---- -- ------<br>------- --- ------ ----- --- ---- ------- -- ---- --- --<br>------- ------,122529.59500002908,122528.89499999583,122273.879,122273.86999997543,122290.544,122540.714,,2,time
screen,html.Screen,0_2_1_1_3,2021-10-22T11:46:18.738Z,,,,,,,,,,,,,,,,54,,,,,,,,,,,,,,388.2110000147077,,response,,,100,,,,,,Space,keypress(Space),,,,,-- --- ---- the ------ ----- ------- ---- -- --- ------- --<br>------- ---------- ------ -- ----- -- ----- -- ---- ------<br>--- ----- --- --- ------ -------- ----- --- ------ ----- --<br>----- ----- ---------- --- --- ------ ------ ---- -- ------<br>------- --- ------ ----- --- ---- ------- -- ---- --- --<br>------- ------,122929.6500000055,122928.92500001471,122524.048,122529.82499997597,122540.714,122940.64,,3,the
screen,html.Screen,0_2_1_1_4,2021-10-22T11:46:19.290Z,,,,,,,,,,,,,,,,54,,,,,,,,,,,,,,540.3099999973929,,response,,,100,,,,,,Space,keypress(Space),,,,,-- --- ---- --- French ----- ------- ---- -- --- ------- --<br>------- ---------- ------ -- ----- -- ----- -- ---- ------<br>--- ----- --- --- ------ -------- ----- --- ------ ----- --<br>----- ----- ---------- --- --- ------ ------ ---- -- ------<br>------- --- ------ ----- --- ---- ------- -- ---- --- --<br>------- ------,123481.70499998378,123480.94999999739,122923.975,122929.8800000106,122940.64,123490.708,,4,French
screen,html.Screen,0_2_1_1_5,2021-10-22T11:46:19.626Z,,,,,,,,,,,,,,,,54,,,,,,,,,,,,,,326.21200001203397,,response,,,100,,,,,,Space,keypress(Space),,,,,-- --- ---- --- ------ crown ------- ---- -- --- ------- --<br>------- ---------- ------ -- ----- -- ----- -- ---- ------<br>--- ----- --- --- ------ -------- ----- --- ------ ----- --<br>----- ----- ---------- --- --- ------ ------ ---- -- ------<br>------- --- ------ ----- --- ---- ------- -- ---- --- --<br>------- ------,123817.67999997828,123816.92000001203,123474.041,123481.94000002695,123490.708,123840.592,,5,crown
screen,html.Screen,0_2_1_1_6,2021-10-22T11:46:19.922Z,,,,,,,,,,,,,,,,54,,,,,,,,,,,,,,272.32799998502014,,response,,,100,,,,,,Space,keypress(Space),,,,,-- --- ---- --- ------ ----- secured ---- -- --- ------- --<br>------- ---------- ------ -- ----- -- ----- -- ---- ------<br>--- ----- --- --- ------ -------- ----- --- ------ ----- --<br>----- ----- ---------- --- --- ------ ------ ---- -- ------<br>------- --- ------ ----- --- ---- ------- -- ---- --- --<br>------- ------,124113.74499998055,124112.91999998502,123807.262,123817.91500002146,123840.592,124123.973,,6,secured
screen,html.Screen,0_2_1_1_7,2021-10-22T11:46:20.442Z,,,,,,,,,,,,,,,,54,,,,,,,,,,,,,,508.9020000102464,,response,,,100,,,,,,Space,keypress(Space),,,,,-- --- ---- --- ------ ----- ------- much -- --- ------- --<br>------- ---------- ------ -- ----- -- ----- -- ---- ------<br>--- ----- --- --- ------ -------- ----- --- ------ ----- --<br>----- ----- ---------- --- --- ------ ------ ---- -- ------<br>------- --- ------ ----- --- ---- ------- -- ---- --- --<br>------- ------,124633.62500001676,124632.87500001024,124107.307,124113.98000002373,124123.973,124640.633,,7,much
screen,html.Screen,0_2_1_1_8,2021-10-22T11:46:20.850Z,,,,,,,,,,,,,,,,54,,,,,,,,,,,,,,400.2120000104478,,response,,,100,,,,,,Space,keypress(Space),,,,,-- --- ---- --- ------ ----- ------- ---- of --- ------- --<br>------- ---------- ------ -- ----- -- ----- -- ---- ------<br>--- ----- --- --- ------ -------- ----- --- ------ ----- --<br>----- ----- ---------- --- --- ------ ------ ---- -- ------<br>------- --- ------ ----- --- ---- ------- -- ---- --- --<br>------- ------,125041.70000000158,125040.84500001045,124623.967,124633.85500002187,124640.633,125057.282,,8,of
screen,html.Screen,0_2_1_1_9,2021-10-22T11:46:21.178Z,,,,,,,,,,,,,,,,54,,,,,,,,,,,,,,311.55299997201655,,response,,,100,,,,,,Space,keypress(Space),,,,,-- --- ---- --- ------ ----- ------- ---- -- its ------- --<br>------- ---------- ------ -- ----- -- ----- -- ---- ------<br>--- ----- --- --- ------ -------- ----- --- ------ ----- --<br>----- ----- ---------- --- --- ------ ------ ---- -- ------<br>------- --- ------ ----- --- ---- ------- -- ---- --- --<br>------- ------,125369.57999999868,125368.83499997202,125040.616,125041.94000002462,125057.282,125390.541,,9,its
screen,html.Screen,0_2_1_1_10,2021-10-22T11:46:21.626Z,,,,,,,,,,,,,,,,54,,,,,,,,,,,,,,426.2790000072855,,response,,,100,,,,,,Space,keypress(Space),,,,,-- --- ---- --- ------ ----- ------- ---- -- --- revenue --<br>------- ---------- ------ -- ----- -- ----- -- ---- ------<br>--- ----- --- --- ------ -------- ----- --- ------ ----- --<br>----- ----- ---------- --- --- ------ ------ ---- -- ------<br>------- --- ------ ----- --- ---- ------- -- ---- --- --<br>------- ------,125817.54499999806,125816.82000000728,125357.211,125369.81499998365,125390.541,125823.92,,10,revenue
screen,html.Screen,0_2_1_1_11,2021-10-22T11:46:22.026Z,,,,,,,,,,,,,,,,54,,,,,,,,,,,,,,392.84999999908905,,response,,,100,,,,,,Space,keypress(Space),,,,,-- --- ---- --- ------ ----- ------- ---- -- --- ------- by<br>------- ---------- ------ -- ----- -- ----- -- ---- ------<br>--- ----- --- --- ------ -------- ----- --- ------ ----- --<br>----- ----- ---------- --- --- ------ ------ ---- -- ------<br>------- --- ------ ----- --- ---- ------- -- ---- --- --<br>------- ------,126217.56000001915,126216.76999999909,125807.254,125817.77500000317,125823.92,126223.837,,11,by
screen,html.Screen,0_2_1_1_12,2021-10-22T11:46:22.530Z,,,,,,,,,,,,,,,,54,,,,,,,,,,,,,,496.96799998992356,,response,,,100,,,,,,Space,keypress(Space),,,,,-- --- ---- --- ------ ----- ------- ---- -- --- ------- --<br>issuing ---------- ------ -- ----- -- ----- -- ---- ------<br>--- ----- --- --- ------ -------- ----- --- ------ ----- --<br>----- ----- ---------- --- --- ------ ------ ---- -- ------<br>------- --- ------ ----- --- ---- ------- -- ---- --- --<br>------- ------,126721.53999999864,126720.80499998992,126207.172,126217.79000002425,126223.837,126740.473,,12,issuing
screen,html.Screen,0_2_1_1_13,2021-10-22T11:46:22.882Z,,,,,,,,,,,,,,,,54,,,,,,,,,,,,,,332.25700001441874,,response,,,100,,,,,,Space,keypress(Space),,,,,-- --- ---- --- ------ ----- ------- ---- -- --- ------- --<br>------- government ------ -- ----- -- ----- -- ---- ------<br>--- ----- --- --- ------ -------- ----- --- ------ ----- --<br>----- ----- ---------- --- --- ------ ------ ---- -- ------<br>------- --- ------ ----- --- ---- ------- -- ---- --- --<br>------- ------,127073.4999999986,127072.73000001442,126707.143,126721.77000000374,126740.473,127090.525,,13,government
screen,html.Screen,0_2_1_1_14,2021-10-22T11:46:23.242Z,,,,,,,,,,,,,,,,54,,,,,,,,,,,,,,342.2450000139943,,response,,,100,,,,,,Space,keypress(Space),,,,,-- --- ---- --- ------ ----- ------- ---- -- --- ------- --<br>------- ---------- bonds. -- ----- -- ----- -- ---- ------<br>--- ----- --- --- ------ -------- ----- --- ------ ----- --<br>----- ----- ---------- --- --- ------ ------ ---- -- ------<br>------- --- ------ ----- --- ---- ------- -- ---- --- --<br>------- ------,127433.5050000227,127432.77000001399,127073.859,127073.74000002164,127090.525,127440.461,,14,bonds.
screen,html.Screen,0_2_1_1_15,2021-10-22T11:46:23.722Z,,,,,,,,,,,,,,,,54,,,,,,,,,,,,,,472.29899997742905,,response,,,100,,,,,,Space,keypress(Space),,,,,-- --- ---- --- ------ ----- ------- ---- -- --- ------- --<br>------- ---------- ------ In ----- -- ----- -- ---- ------<br>--- ----- --- --- ------ -------- ----- --- ------ ----- --<br>----- ----- ---------- --- --- ------ ------ ---- -- ------<br>------- --- ------ ----- --- ---- ------- -- ---- --- --<br>------- ------,127913.48500002641,127912.75999997742,127423.796,127433.74000000767,127440.461,127923.825,,15,In
screen,html.Screen,0_2_1_1_16,2021-10-22T11:46:24.082Z,,,,,,,,,,,,,,,,54,,,,,,,,,,,,,,348.9149999857909,,response,,,100,,,,,,Space,keypress(Space),,,,,"-- --- ---- --- ------ ----- ------- ---- -- --- ------- --<br>------- ---------- ------ -- 1727, -- ----- -- ---- ------<br>--- ----- --- --- ------ -------- ----- --- ------ ----- --<br>----- ----- ---------- --- --- ------ ------ ---- -- ------<br>------- --- ------ ----- --- ---- ------- -- ---- --- --<br>------- ------",128273.4749999945,128272.73999998579,127907.159,127913.72000001138,127923.825,128290.474,,16,"1727,"
screen,html.Screen,0_2_1_1_17,2021-10-22T11:46:26.346Z,,,,,,,,,,,,,,,,54,,,,,,,,,,,,,,2246.2309999767895,,response,,,100,,,,,,Space,keypress(Space),,,,,-- --- ---- --- ------ ----- ------- ---- -- --- ------- --<br>------- ---------- ------ -- ----- in ----- -- ---- ------<br>--- ----- --- --- ------ -------- ----- --- ------ ----- --<br>----- ----- ---------- --- --- ------ ------ ---- -- ------<br>------- --- ------ ----- --- ---- ------- -- ---- --- --<br>------- ------,130537.50500001479,130536.70499997679,128273.808,128273.70000001974,128290.474,130557.089,,17,in
screen,html.Screen,0_2_1_1_18,2021-10-22T11:46:26.721Z,,,,,,,,,,,,,,,,54,,,,,,,,,,,,,,355.51600001953193,,response,,,100,,,,,,Space,keypress(Space),,,,,-- --- ---- --- ------ ----- ------- ---- -- --- ------- --<br>------- ---------- ------ -- ----- -- order -- ---- ------<br>--- ----- --- --- ------ -------- ----- --- ------ ----- --<br>----- ----- ---------- --- --- ------ ------ ---- -- ------<br>------- --- ------ ----- --- ---- ------- -- ---- --- --<br>------- ------,130913.33499999018,130912.60500001954,130523.757,130537.73999999976,130557.089,130923.464,,18,order
screen,html.Screen,0_2_1_1_19,2021-10-22T11:46:27.001Z,,,,,,,,,,,,,,,,54,,,,,,,,,,,,,,269.07099998011836,,response,,,100,,,,,,Space,keypress(Space),,,,,-- --- ---- --- ------ ----- ------- ---- -- --- ------- --<br>------- ---------- ------ -- ----- -- ----- to ---- ------<br>--- ----- --- --- ------ -------- ----- --- ------ ----- --<br>----- ----- ---------- --- --- ------ ------ ---- -- ------<br>------- --- ------ ----- --- ---- ------- -- ---- --- --<br>------- ------,131193.3699999936,131192.53499998013,130906.8,130913.57500001322,130923.464,131207.005,,19,to
screen,html.Screen,0_2_1_1_20,2021-10-22T11:46:27.297Z,,,,,,,,,,,,,,,,54,,,,,,,,,,,,,,281.5649999867892,,response,,,100,,,,,,Space,keypress(Space),,,,,-- --- ---- --- ------ ----- ------- ---- -- --- ------- --<br>------- ---------- ------ -- ----- -- ----- -- save ------<br>--- ----- --- --- ------ -------- ----- --- ------ ----- --<br>----- ----- ---------- --- --- ------ ------ ---- -- ------<br>------- --- ------ ----- --- ---- ------- -- ---- --- --<br>------- ------,131489.32499997318,131488.5699999868,131190.34,131193.60499997856,131207.005,131507.063,,20,save
screen,html.Screen,0_2_1_1_21,2021-10-22T11:46:27.754Z,,,,,,,,,,,,,,,,54,,,,,,,,,,,,,,437.8119999865012,,response,,,100,,,,,,Space,keypress(Space),,,,,"-- --- ---- --- ------ ----- ------- ---- -- --- ------- --<br>------- ---------- ------ -- ----- -- ----- -- ---- money,<br>--- ----- --- --- ------ -------- ----- --- ------ ----- --<br>----- ----- ---------- --- --- ------ ------ ---- -- ------<br>------- --- ------ ----- --- ---- ------- -- ---- --- --<br>------- ------",131945.62000001315,131944.8749999865,131473.729,131489.56499999622,131507.063,131956.915,,21,"money,"
screen,html.Screen,0_2_1_1_22,2021-10-22T11:46:28.161Z,,,,,,,,,,,,,,,,54,,,,,,,,,,,,,,395.68499998378684,,response,,,100,,,,,,Space,keypress(Space),,,,,-- --- ---- --- ------ ----- ------- ---- -- --- ------- --<br>------- ---------- ------ -- ----- -- ----- -- ---- ------<br>the ----- --- --- ------ -------- ----- --- ------ ----- --<br>----- ----- ---------- --- --- ------ ------ ---- -- ------<br>------- --- ------ ----- --- ---- ------- -- ---- --- --<br>------- ------,132353.36000000825,132352.5999999838,131940.251,131945.85499999812,131956.915,132373.671,,22,the
screen,html.Screen,0_2_1_1_23,2021-10-22T11:46:28.505Z,,,,,,,,,,,,,,,,54,,,,,,,,,,,,,,322.8639999954903,,response,,,100,,,,,,Space,keypress(Space),,,,,-- --- ---- --- ------ ----- ------- ---- -- --- ------- --<br>------- ---------- ------ -- ----- -- ----- -- ---- ------<br>--- state --- --- ------ -------- ----- --- ------ ----- --<br>----- ----- ---------- --- --- ------ ------ ---- -- ------<br>------- --- ------ ----- --- ---- ------- -- ---- --- --<br>------- ------,132697.35500001116,132696.5349999955,132340.339,132353.59999997308,132373.671,132706.89,,23,state
screen,html.Screen,0_2_1_1_24,2021-10-22T11:46:28.793Z,,,,,,,,,,,,,,,,54,,,,,,,,,,,,,,277.6400000160793,,response,,,100,,,,,,Space,keypress(Space),,,,,-- --- ---- --- ------ ----- ------- ---- -- --- ------- --<br>------- ---------- ------ -- ----- -- ----- -- ---- ------<br>--- ----- cut --- ------ -------- ----- --- ------ ----- --<br>----- ----- ---------- --- --- ------ ------ ---- -- ------<br>------- --- ------ ----- --- ---- ------- -- ---- --- --<br>------- ------,132985.31000001822,132984.5300000161,132690.226,132697.6700000232,132706.89,133006.983,,24,cut
screen,html.Screen,0_2_1_1_25,2021-10-22T11:46:29.137Z,,,,,,,,,,,,,,,,54,,,,,,,,,,,,,,321.53200000105426,,response,,,100,,,,,,Space,keypress(Space),,,,,-- --- ---- --- ------ ----- ------- ---- -- --- ------- --<br>------- ---------- ------ -- ----- -- ----- -- ---- ------<br>--- ----- --- the ------ -------- ----- --- ------ ----- --<br>----- ----- ---------- --- --- ------ ------ ---- -- ------<br>------- --- ------ ----- --- ---- ------- -- ---- --- --<br>------- ------,133329.3699999922,133328.51500000106,132973.651,132985.64500000793,133006.983,133340.338,,25,the
screen,html.Screen,0_2_1_1_26,2021-10-22T11:46:29.457Z,,,,,,,,,,,,,,,,54,,,,,,,,,,,,,,308.16699999012053,,response,,,100,,,,,,Space,keypress(Space),,,,,-- --- ---- --- ------ ----- ------- ---- -- --- ------- --<br>------- ---------- ------ -- ----- -- ----- -- ---- ------<br>--- ----- --- --- bonds' -------- ----- --- ------ ----- --<br>----- ----- ---------- --- --- ------ ------ ---- -- ------<br>------- --- ------ ----- --- ---- ------- -- ---- --- --<br>------- ------,133649.3500000215,133648.5049999901,133323.671,133329.68500000425,133340.338,133656.869,,26,bonds'
screen,html.Screen,0_2_1_1_27,2021-10-22T11:46:30.009Z,,,,,,,,,,,,,,,,54,,,,,,,,,,,,,,543.670999990718,,response,,,100,,,,,,Space,keypress(Space),,,,,-- --- ---- --- ------ ----- ------- ---- -- --- ------- --<br>------- ---------- ------ -- ----- -- ----- -- ---- ------<br>--- ----- --- --- ------ interest ----- --- ------ ----- --<br>----- ----- ---------- --- --- ------ ------ ---- -- ------<br>------- --- ------ ----- --- ---- ------- -- ---- --- --<br>------- ------,134201.390000002,134200.53999999072,133640.205,133649.67000001343,133656.869,134206.882,,27,interest
screen,html.Screen,0_2_1_1_28,2021-10-22T11:46:30.401Z,,,,,,,,,,,,,,,,54,,,,,,,,,,,,,,385.5979999920528,,response,,,100,,,,,,Space,keypress(Space),,,,,-- --- ---- --- ------ ----- ------- ---- -- --- ------- --<br>------- ---------- ------ -- ----- -- ----- -- ---- ------<br>--- ----- --- --- ------ -------- rate. --- ------ ----- --<br>----- ----- ---------- --- --- ------ ------ ---- -- ------<br>------- --- ------ ----- --- ---- ------- -- ---- --- --<br>------- ------,134593.27000001213,134592.47999999207,134190.217,134201.73500000965,134206.882,134606.983,,28,rate.
screen,html.Screen,0_2_1_1_29,2021-10-22T11:46:30.825Z,,,,,,,,,,,,,,,,54,,,,,,,,,,,,,,409.4770000134595,,response,,,100,,,,,,Space,keypress(Space),,,,,-- --- ---- --- ------ ----- ------- ---- -- --- ------- --<br>------- ---------- ------ -- ----- -- ----- -- ---- ------<br>--- ----- --- --- ------ -------- ----- The ------ ----- --<br>----- ----- ---------- --- --- ------ ------ ---- -- ------<br>------- --- ------ ----- --- ---- ------- -- ---- --- --<br>------- ------,135017.34000002034,135016.46000001347,134590.316,134593.61999999965,134606.983,135023.541,,29,The
screen,html.Screen,0_2_1_1_30,2021-10-22T11:46:31.161Z,,,,,,,,,,,,,,,,54,,,,,,,,,,,,,,328.92400000357884,,response,,,100,,,,,,Space,keypress(Space),,,,,-- --- ---- --- ------ ----- ------- ---- -- --- ------- --<br>------- ---------- ------ -- ----- -- ----- -- ---- ------<br>--- ----- --- --- ------ -------- ----- --- market ----- --<br>----- ----- ---------- --- --- ------ ------ ---- -- ------<br>------- --- ------ ----- --- ---- ------- -- ---- --- --<br>------- ------,135353.30999997677,135352.46500000358,135006.876,135017.66000001226,135023.541,135373.537,,30,market
screen,html.Screen,0_2_1_1_31,2021-10-22T11:46:31.489Z,,,,,,,,,,,,,,,,54,,,,,,,,,,,,,,306.9879999742843,,response,,,100,,,,,,Space,keypress(Space),,,,,-- --- ---- --- ------ ----- ------- ---- -- --- ------- --<br>------- ---------- ------ -- ----- -- ----- -- ---- ------<br>--- ----- --- --- ------ -------- ----- --- ------ value --<br>----- ----- ---------- --- --- ------ ------ ---- -- ------<br>------- --- ------ ----- --- ---- ------- -- ---- --- --<br>------- ------,135681.41999997897,135680.5249999743,135340.207,135353.60999999102,135373.537,135690.224,,31,value
screen,html.Screen,0_2_1_1_32,2021-10-22T11:46:31.857Z,,,,,,,,,,,,,,,,54,,,,,,,,,,,,,,358.2309999819263,,response,,,100,,,,,,Space,keypress(Space),,,,,-- --- ---- --- ------ ----- ------- ---- -- --- ------- --<br>------- ---------- ------ -- ----- -- ----- -- ---- ------<br>--- ----- --- --- ------ -------- ----- --- ------ ----- of<br>----- ----- ---------- --- --- ------ ------ ---- -- ------<br>------- --- ------ ----- --- ---- ------- -- ---- --- --<br>------- ------,136049.30999997305,136048.4549999819,135673.558,135681.73499999102,135690.224,136056.882,,32,of
screen,html.Screen,0_2_1_1_33,2021-10-22T11:46:32.185Z,,,,,,,,,,,,,,,,54,,,,,,,,,,,,,,319.5430000240158,,response,,,100,,,,,,Space,keypress(Space),,,,,-- --- ---- --- ------ ----- ------- ---- -- --- ------- --<br>------- ---------- ------ -- ----- -- ----- -- ---- ------<br>--- ----- --- --- ------ -------- ----- --- ------ ----- --<br>these ----- ---------- --- --- ------ ------ ---- -- ------<br>------- --- ------ ----- --- ---- ------- -- ---- --- --<br>------- ------,136377.20500002615,136376.42500002403,136040.216,136049.63000002317,136056.882,136390.058,,33,these
screen,html.Screen,0_2_1_1_34,2021-10-22T11:46:32.513Z,,,,,,,,,,,,,,,,54,,,,,,,,,,,,,,314.3370000079449,,response,,,100,,,,,,Space,keypress(Space),,,,,-- --- ---- --- ------ ----- ------- ---- -- --- ------- --<br>------- ---------- ------ -- ----- -- ----- -- ---- ------<br>--- ----- --- --- ------ -------- ----- --- ------ ----- --<br>----- bonds ---------- --- --- ------ ------ ---- -- ------<br>------- --- ------ ----- --- ---- ------- -- ---- --- --<br>------- ------,136705.17999998992,136704.39500000793,136373.395,136377.51000002027,136390.058,136723.555,,34,bonds
screen,html.Screen,0_2_1_1_35,2021-10-22T11:46:32.849Z,,,,,,,,,,,,,,,,54,,,,,,,,,,,,,,316.8400000181864,,response,,,100,,,,,,Space,keypress(Space),,,,,"-- --- ---- --- ------ ----- ------- ---- -- --- ------- --<br>------- ---------- ------ -- ----- -- ----- -- ---- ------<br>--- ----- --- --- ------ -------- ----- --- ------ ----- --<br>----- ----- plummeted, --- --- ------ ------ ---- -- ------<br>------- --- ------ ----- --- ---- ------- -- ---- --- --<br>------- ------",137041.26000002725,137040.39500001818,136690.221,136705.45499998843,136723.555,137056.747,,35,"plummeted,"
screen,html.Screen,0_2_1_1_36,2021-10-22T11:46:33.537Z,,,,,,,,,,,,,,,,54,,,,,,,,,,,,,,671.668000019592,,response,,,100,,,,,,Space,keypress(Space),,,,,-- --- ---- --- ------ ----- ------- ---- -- --- ------- --<br>------- ---------- ------ -- ----- -- ----- -- ---- ------<br>--- ----- --- --- ------ -------- ----- --- ------ ----- --<br>----- ----- ---------- and --- ------ ------ ---- -- ------<br>------- --- ------ ----- --- ---- ------- -- ---- --- --<br>------- ------,137729.22500001732,137728.4150000196,137040.083,137041.59999999683,137056.747,137740.183,,36,and
screen,html.Screen,0_2_1_1_37,2021-10-22T11:46:33.905Z,,,,,,,,,,,,,,,,54,,,,,,,,,,,,,,356.1469999712135,,response,,,100,,,,,,Space,keypress(Space),,,,,-- --- ---- --- ------ ----- ------- ---- -- --- ------- --<br>------- ---------- ------ -- ----- -- ----- -- ---- ------<br>--- ----- --- --- ------ -------- ----- --- ------ ----- --<br>----- ----- ---------- --- the ------ ------ ---- -- ------<br>------- --- ------ ----- --- ---- ------- -- ---- --- --<br>------- ------,138097.14999998687,138096.3299999712,137723.516,137729.5799999847,137740.183,138106.76,,37,the
screen,html.Screen,0_2_1_1_38,2021-10-22T11:46:34.249Z,,,,,,,,,,,,,,,,54,,,,,,,,,,,,,,333.6250000235159,,response,,,100,,,,,,Space,keypress(Space),,,,,-- --- ---- --- ------ ----- ------- ---- -- --- ------- --<br>------- ---------- ------ -- ----- -- ----- -- ---- ------<br>--- ----- --- --- ------ -------- ----- --- ------ ----- --<br>----- ----- ---------- --- --- market ------ ---- -- ------<br>------- --- ------ ----- --- ---- ------- -- ---- --- --<br>------- ------,138441.24499999452,138440.38500002353,138090.095,138097.39499998977,138106.76,138456.724,,38,market
screen,html.Screen,0_2_1_1_39,2021-10-22T11:46:34.697Z,,,,,,,,,,,,,,,,54,,,,,,,,,,,,,,431.6359999826527,,response,,,100,,,,,,Space,keypress(Space),,,,,-- --- ---- --- ------ ----- ------- ---- -- --- ------- --<br>------- ---------- ------ -- ----- -- ----- -- ---- ------<br>--- ----- --- --- ------ -------- ----- --- ------ ----- --<br>----- ----- ---------- --- --- ------ became ---- -- ------<br>------- --- ------ ----- --- ---- ------- -- ---- --- --<br>------- ------,138889.21499997377,138888.35999998264,138440.059,138441.5550000267,138456.724,138906.796,,39,became
screen,html.Screen,0_2_1_1_40,2021-10-22T11:46:35.065Z,,,,,,,,,,,,,,,,54,,,,,,,,,,,,,,349.544000021735,,response,,,100,,,,,,Space,keypress(Space),,,,,-- --- ---- --- ------ ----- ------- ---- -- --- ------- --<br>------- ---------- ------ -- ----- -- ----- -- ---- ------<br>--- ----- --- --- ------ -------- ----- --- ------ ----- --<br>----- ----- ---------- --- --- ------ ------ wary -- ------<br>------- --- ------ ----- --- ---- ------- -- ---- --- --<br>------- ------,139257.16500001727,139256.34000002174,138890.129,138891.56000001822,138906.796,139273.383,,40,wary
screen,html.Screen,0_2_1_1_41,2021-10-22T11:46:35.553Z,,,,,,,,,,,,,,,,54,,,,,,,,,,,,,,470.89699998442666,,response,,,100,,,,,,Space,keypress(Space),,,,,-- --- ---- --- ------ ----- ------- ---- -- --- ------- --<br>------- ---------- ------ -- ----- -- ----- -- ---- ------<br>--- ----- --- --- ------ -------- ----- --- ------ ----- --<br>----- ----- ---------- --- --- ------ ------ ---- of ------<br>------- --- ------ ----- --- ---- ------- -- ---- --- --<br>------- ------,139745.07499998435,139744.27999998443,139256.718,139257.47499999125,139273.383,139756.693,,41,of
screen,html.Screen,0_2_1_1_42,2021-10-22T11:46:35.945Z,,,,,,,,,,,,,,,,54,,,,,,,,,,,,,,379.55699998137425,,response,,,100,,,,,,Space,keypress(Space),,,,,-- --- ---- --- ------ ----- ------- ---- -- --- ------- --<br>------- ---------- ------ -- ----- -- ----- -- ---- ------<br>--- ----- --- --- ------ -------- ----- --- ------ ----- --<br>----- ----- ---------- --- --- ------ ------ ---- -- French<br>------- --- ------ ----- --- ---- ------- -- ---- --- --<br>------- ------,140137.09999999264,140136.24999998137,139740.028,139745.3899999964,139756.693,140156.721,,42,French
screen,html.Screen,0_2_1_1_43,2021-10-22T11:46:36.457Z,,,,,,,,,,,,,,,,54,,,,,,,,,,,,,,491.62399999416084,,response,,,100,,,,,,Space,keypress(Space),,,,,-- --- ---- --- ------ ----- ------- ---- -- --- ------- --<br>------- ---------- ------ -- ----- -- ----- -- ---- ------<br>--- ----- --- --- ------ -------- ----- --- ------ ----- --<br>----- ----- ---------- --- --- ------ ------ ---- -- ------<br>credit. --- ------ ----- --- ---- ------- -- ---- --- --<br>------- ------,140649.23500001896,140648.34499999415,140123.389,140137.4450000003,140156.721,140656.661,,43,credit.
screen,html.Screen,0_2_1_1_44,2021-10-22T11:46:36.897Z,,,,,,,,,,,,,,,,54,,,,,,,,,,,,,,431.5539999961329,,response,,,100,,,,,,Space,keypress(Space),,,,,-- --- ---- --- ------ ----- ------- ---- -- --- ------- --<br>------- ---------- ------ -- ----- -- ----- -- ---- ------<br>--- ----- --- --- ------ -------- ----- --- ------ ----- --<br>----- ----- ---------- --- --- ------ ------ ---- -- ------<br>------- The ------ ----- --- ---- ------- -- ---- --- --<br>------- ------,141089.09000002313,141088.21499999613,140639.996,140649.55500001088,140656.661,141106.612,,44,The
screen,html.Screen,0_2_1_1_45,2021-10-22T11:46:37.393Z,,,,,,,,,,,,,,,,54,,,,,,,,,,,,,,477.57800002323347,,response,,,100,,,,,,Space,keypress(Space),,,,,-- --- ---- --- ------ ----- ------- ---- -- --- ------- --<br>------- ---------- ------ -- ----- -- ----- -- ---- ------<br>--- ----- --- --- ------ -------- ----- --- ------ ----- --<br>----- ----- ---------- --- --- ------ ------ ---- -- ------<br>------- --- French ----- --- ---- ------- -- ---- --- --<br>------- ------,141584.9600000074,141584.19000002323,141073.282,141089.3550000037,141106.612,141606.666,,45,French
screen,html.Screen,0_2_1_1_46,2021-10-22T11:46:37.737Z,,,,,,,,,,,,,,,,54,,,,,,,,,,,,,,321.5190000261355,,response,,,100,,,,,,Space,keypress(Space),,,,,-- --- ---- --- ------ ----- ------- ---- -- --- ------- --<br>------- ---------- ------ -- ----- -- ----- -- ---- ------<br>--- ----- --- --- ------ -------- ----- --- ------ ----- --<br>----- ----- ---------- --- --- ------ ------ ---- -- ------<br>------- --- ------ state --- ---- ------- -- ---- --- --<br>------- ------,141928.94000001252,141928.18500002613,141573.334,141585.23000002606,141606.666,141939.92,,46,state
screen,html.Screen,0_2_1_1_47,2021-10-22T11:46:38.057Z,,,,,,,,,,,,,,,,54,,,,,,,,,,,,,,308.53000001367764,,response,,,100,,,,,,Space,keypress(Space),,,,,-- --- ---- --- ------ ----- ------- ---- -- --- ------- --<br>------- ---------- ------ -- ----- -- ----- -- ---- ------<br>--- ----- --- --- ------ -------- ----- --- ------ ----- --<br>----- ----- ---------- --- --- ------ ------ ---- -- ------<br>------- --- ------ ----- was ---- ------- -- ---- --- --<br>------- ------,142249.23999997554,142248.4500000137,141923.255,141929.24500000663,141939.92,142256.643,,47,was
screen,html.Screen,0_2_1_1_48,2021-10-22T11:46:38.401Z,,,,,,,,,,,,,,,,54,,,,,,,,,,,,,,335.502000002336,,response,,,100,,,,,,Space,keypress(Space),,,,,-- --- ---- --- ------ ----- ------- ---- -- --- ------- --<br>------- ---------- ------ -- ----- -- ----- -- ---- ------<br>--- ----- --- --- ------ -------- ----- --- ------ ----- --<br>----- ----- ---------- --- --- ------ ------ ---- -- ------<br>------- --- ------ ----- --- left ------- -- ---- --- --<br>------- ------,142592.86500001326,142592.14500000235,142239.977,142249.5099999942,142256.643,142606.571,,48,left
screen,html.Screen,0_2_1_1_49,2021-10-22T11:46:38.713Z,,,,,,,,,,,,,,,,54,,,,,,,,,,,,,,297.5940000144765,,response,,,100,,,,,,Space,keypress(Space),,,,,-- --- ---- --- ------ ----- ------- ---- -- --- ------- --<br>------- ---------- ------ -- ----- -- ----- -- ---- ------<br>--- ----- --- --- ------ -------- ----- --- ------ ----- --<br>----- ----- ---------- --- --- ------ ------ ---- -- ------<br>------- --- ------ ----- --- ---- without -- ---- --- --<br>------- ------,142904.90999998292,142904.16500001447,142589.906,142593.17499998724,142606.571,142923.271,,49,without
screen,html.Screen,0_2_1_1_50,2021-10-22T11:46:39.057Z,,,,,,,,,,,,,,,,54,,,,,,,,,,,,,,324.868999981496,,response,,,100,,,,,,Space,keypress(Space),,,,,-- --- ---- --- ------ ----- ------- ---- -- --- ------- --<br>------- ---------- ------ -- ----- -- ----- -- ---- ------<br>--- ----- --- --- ------ -------- ----- --- ------ ----- --<br>----- ----- ---------- --- --- ------ ------ ---- -- ------<br>------- --- ------ ----- --- ---- ------- an ---- --- --<br>------- ------,143248.84499999462,143248.1399999815,142889.939,142905.18499998143,142923.271,143256.575,,50,an
screen,html.Screen,0_2_1_1_51,2021-10-22T11:46:39.393Z,,,,,,,,,,,,,,,,54,,,,,,,,,,,,,,327.5150000184658,,response,,,100,,,,,,Space,keypress(Space),,,,,-- --- ---- --- ------ ----- ------- ---- -- --- ------- --<br>------- ---------- ------ -- ----- -- ----- -- ---- ------<br>--- ----- --- --- ------ -------- ----- --- ------ ----- --<br>----- ----- ---------- --- --- ------ ------ ---- -- ------<br>------- --- ------ ----- --- ---- ------- -- easy --- --<br>------- ------,143584.8550000228,143584.09000001848,143239.91,143249.16000000667,143256.575,143589.896,,51,easy
screen,html.Screen,0_2_1_1_52,2021-10-22T11:46:39.705Z,,,,,,,,,,,,,,,,54,,,,,,,,,,,,,,306.2590000240016,,response,,,100,,,,,,Space,keypress(Space),,,,,-- --- ---- --- ------ ----- ------- ---- -- --- ------- --<br>------- ---------- ------ -- ----- -- ----- -- ---- ------<br>--- ----- --- --- ------ -------- ----- --- ------ ----- --<br>----- ----- ---------- --- --- ------ ------ ---- -- ------<br>------- --- ------ ----- --- ---- ------- -- ---- way --<br>------- ------,143896.92000002833,143896.155000024,143573.231,143585.0850000279,143589.896,143906.552,,52,way
screen,html.Screen,0_2_1_1_53,2021-10-22T11:46:40.153Z,,,,,,,,,,,,,,,,54,,,,,,,,,,,,,,437.54300000765943,,response,,,100,,,,,,Space,keypress(Space),,,,,-- --- ---- --- ------ ----- ------- ---- -- --- ------- --<br>------- ---------- ------ -- ----- -- ----- -- ---- ------<br>--- ----- --- --- ------ -------- ----- --- ------ ----- --<br>----- ----- ---------- --- --- ------ ------ ---- -- ------<br>------- --- ------ ----- --- ---- ------- -- ---- --- of<br>------- ------,144344.96000001673,144344.09500000766,143889.887,143897.14499999536,143906.552,144356.501,,53,of
screen,html.Screen,0_2_1_1_54,2021-10-22T11:46:40.585Z,,,,,,,,,,,,,,,,54,,,,,,,,,,,,,,419.58400001953123,,response,,,100,,,,,,Space,keypress(Space),,,,,-- --- ---- --- ------ ----- ------- ---- -- --- ------- --<br>------- ---------- ------ -- ----- -- ----- -- ---- ------<br>--- ----- --- --- ------ -------- ----- --- ------ ----- --<br>----- ----- ---------- --- --- ------ ------ ---- -- ------<br>------- --- ------ ----- --- ---- ------- -- ---- --- --<br>raising ------,144776.82000002824,144776.08500001952,144339.836,144345.30500002438,144356.501,144789.889,,54,raising
screen,html.Screen,0_2_1_1_55,2021-10-22T11:46:40.985Z,,,,,,,,,,,,,,,,54,,,,,,,,,,,,,,386.13599999339203,,response,,,100,,,,,,Space,keypress(Space),,,,,-- --- ---- --- ------ ----- ------- ---- -- --- ------- --<br>------- ---------- ------ -- ----- -- ----- -- ---- ------<br>--- ----- --- --- ------ -------- ----- --- ------ ----- --<br>----- ----- ---------- --- --- ------ ------ ---- -- ------<br>------- --- ------ ----- --- ---- ------- -- ---- --- --<br>------- money.,145176.78500001784,145176.0249999934,144773.223,144777.04499999527,144789.889,145206.496,,55,money.
Item 100,flow.Loop,0_2_1_1,2021-10-22T11:46:40.985Z,,,,,,,,,,,,,,,,,,,,,,,,,,,,,,25118.55599999339,,completion,,,,A,,,,,,,,,,silence,,145177.19499999657,145176.0249999934,120024.137,120026.59999998286,120057.469,145206.496,,,
Question 1,html.Screen,0_2_1_2,2021-10-22T11:46:47.369Z,,,,,,,,,,,,,,,,,,,,,,,,,,,false,TRUE,,6352.983999996242,,response,,,100,A,,,,,FALSE,click #choice-2,,,,silence,,151560.58500002837,151559.47999999626,145173.166,145177.38499998813,145206.496,151589.615,,,
Question 2,html.Screen,0_2_1_3,2021-10-22T11:46:49.804Z,,,,,,,,,,,,,,,,,,,,,,,,,,,true,FALSE,,2405.4650000224356,,response,,,100,A,,,,,FALSE,click #choice-2,,,,silence,,153996.16999999853,153995.08000002243,151556.285,151560.79999997746,151589.615,154022.874,,,
Item 100,flow.Sequence,0_2_1,2021-10-22T11:46:49.805Z,,,,,,,,,,,,,,,,,,,,,,,,,,,,,,43953.92400002242,,completion,,,,,,,,,,,,,,,,153996.51500000618,153995.08000002243,109991.158,110002.61000002502,110041.156,154022.874,,,
End of Practice,html.Page,0_2_2,2021-10-22T11:46:58.206Z,,,,,,,,,,,,,,,,,,,,,,,,,,,,,,8374.306000029028,,form submission,,,,,,,,,,,,,,,,162397.8600000264,162397.18000002904,153989.542,153996.6949999798,154022.874,162422.535,,,
Practice,flow.Sequence,0_2,2021-10-22T11:46:58.206Z,,,,,,,,,,,,,,,,,,,,,,,,,,,,,,116787.00600002904,,completion,,,,,,,,,,,,,,,,162398.2149999938,162397.18000002904,45576.844,45584.48000001954,45610.174,162422.535,,,
Trap_instruction,html.Page,0_3_0,2021-10-22T11:47:04.063Z,,,,,,,,,,,,,,,,,,,,,,,,,,,,,,5832.149999992602,,form submission,,,,,,,,,,,,,,,,168255.24500000756,168254.6849999926,162389.205,162398.4599999967,162422.535,168305.624,,,
trap_trial,html.Screen,0_3_1,2021-10-22T11:47:07.128Z,,,,,,,,,,,,,,,,,,,,,,,,,,,true,1,,3013.4360000088927,,response,,,,,,,,,1,click #choice-1,,,,,,171320.23999997182,171319.0600000089,168238.964,168255.44999999693,168305.624,171338.93,,,
end of trap trial,html.Page,0_3_2,2021-10-22T11:47:10.577Z,,,,,,,,,,,,,,,,,,,,,,,,,,,,,,3429.894999977376,,form submission,,,,,,,,,,,,,,,,174769.36500001466,174768.82499997737,171305.588,171320.48499997472,171338.93,174788.694,,,
Trap 1,flow.Sequence,0_3,2021-10-22T11:47:10.578Z,,,,,,,,,,,,,,,,,,,,,,,,,,,,,,12346.289999977365,,completion,,,,,,,,,,,,,,,,174769.6950000245,174768.82499997737,162389.205,162398.3850000077,162422.535,174788.694,,,
Standby,html.Page,0_4_0,2021-10-22T11:47:18.583Z,,,,,,,,,,,,,,,,,,,,,,,,,,,,,,8016.412000000011,,timeout,,,,,,,,,,,,,,,,182773.4150000033,182771.774,174755.364,174769.95500002522,174788.694,182805.106,,,
Holding screen,html.Screen,0_4_1_0_0,2021-10-22T11:47:25.600Z,,,,,,,,,,,,,,,,,,,,,,,,,,,,,,7016.3520000000135,,timeout,,,,,,,,,,,,,,,,189790.3149999911,189788.128,182771.774,182773.76000001095,182805.106,189821.458,,,
screen,html.Screen,0_4_1_0_1_0,2021-10-22T11:47:27.529Z,,,,,,,,,,,,,,,,11,,,,,,,,,,,,,,1897.2020000131743,,response,,,4,A,,,,,Space,keypress(Space),,,,silence,Known -- ---- --- -- --- -------- ------------ ---------- --<br>- ------- ------ --------- -- ------------ -- --- ---- -----<br>------ ---- ---- ------ ------ ------- --- ----- ---------<br>---- --- -------- -------- --- --- -- ------- --- --- -----<br>-- --- ------ ------- --- --- -------- ---- --------- --<br>---------- -- -------- ----------------,191719.5199999842,191718.6600000132,189788.128,189790.66499997862,189821.458,191737.986,,0,Known
screen,html.Screen,0_4_1_0_1_1,2021-10-22T11:47:28.121Z,,,,,,,,,,,,,,,,11,,,,,,,,,,,,,,572.3890000009269,,response,,,4,A,,,,,Space,keypress(Space),,,,silence,----- as ---- --- -- --- -------- ------------ ---------- --<br>- ------- ------ --------- -- ------------ -- --- ---- -----<br>------ ---- ---- ------ ------ ------- --- ----- ---------<br>---- --- -------- -------- --- --- -- ------- --- --- -----<br>-- --- ------ ------- --- --- -------- ---- --------- --<br>---------- -- -------- ----------------,192311.14499998512,192310.37500000093,191704.656,191719.7649999871,191737.986,192321.454,,1,as
screen,html.Screen,0_4_1_0_1_2,2021-10-22T11:47:28.545Z,,,,,,,,,,,,,,,,11,,,,,,,,,,,,,,412.9109999820648,,response,,,4,A,,,,,Space,keypress(Space),,,,silence,----- -- Rapa --- -- --- -------- ------------ ---------- --<br>- ------- ------ --------- -- ------------ -- --- ---- -----<br>------ ---- ---- ------ ------ ------- --- ----- ---------<br>---- --- -------- -------- --- --- -- ------- --- --- -----<br>-- --- ------ ------- --- --- -------- ---- --------- --<br>---------- -- -------- ----------------,192735.06999999518,192734.36499998206,192304.788,192311.35500001255,192321.454,192754.712,,2,Rapa
screen,html.Screen,0_4_1_0_1_3,2021-10-22T11:47:28.993Z,,,,,,,,,,,,,,,,11,,,,,,,,,,,,,,427.58300000597956,,response,,,4,A,,,,,Space,keypress(Space),,,,silence,----- -- ---- Nui -- --- -------- ------------ ---------- --<br>- ------- ------ --------- -- ------------ -- --- ---- -----<br>------ ---- ---- ------ ------ ------- --- ----- ---------<br>---- --- -------- -------- --- --- -- ------- --- --- -----<br>-- --- ------ ------- --- --- -------- ---- --------- --<br>---------- -- -------- ----------------,193183.10999998357,193182.29500000598,192721.382,192735.27499998454,192754.712,193204.771,,3,Nui
screen,html.Screen,0_4_1_0_1_4,2021-10-22T11:47:29.561Z,,,,,,,,,,,,,,,,11,,,,,,,,,,,,,,545.5639999897103,,response,,,4,A,,,,,Space,keypress(Space),,,,silence,----- -- ---- --- to --- -------- ------------ ---------- --<br>- ------- ------ --------- -- ------------ -- --- ---- -----<br>------ ---- ---- ------ ------ ------- --- ----- ---------<br>---- --- -------- -------- --- --- -- ------- --- --- -----<br>-- --- ------ ------- --- --- -------- ---- --------- --<br>---------- -- -------- ----------------,193751.08000001637,193750.33499998972,193171.439,193183.320000011,193204.771,193771.276,,4,to
screen,html.Screen,0_4_1_0_1_5,2021-10-22T11:47:30.113Z,,,,,,,,,,,,,,,,11,,,,,,,,,,,,,,530.9939999855706,,response,,,4,A,,,,,Space,keypress(Space),,,,silence,----- -- ---- --- -- the -------- ------------ ---------- --<br>- ------- ------ --------- -- ------------ -- --- ---- -----<br>------ ---- ---- ------ ------ ------- --- ----- ---------<br>---- --- -------- -------- --- --- -- ------- --- --- -----<br>-- --- ------ ------- --- --- -------- ---- --------- --<br>---------- -- -------- ----------------,194303.02499997197,194302.26999998558,193737.948,193751.29500002367,193771.276,194321.313,,5,the
screen,html.Screen,0_4_1_0_1_6,2021-10-22T11:47:30.633Z,,,,,,,,,,,,,,,,11,,,,,,,,,,,,,,500.9670000221522,,response,,,4,A,,,,,Space,keypress(Space),,,,silence,----- -- ---- --- -- --- island's ------------ ---------- --<br>- ------- ------ --------- -- ------------ -- --- ---- -----<br>------ ---- ---- ------ ------ ------- --- ----- ---------<br>---- --- -------- -------- --- --- -- ------- --- --- -----<br>-- --- ------ ------- --- --- -------- ---- --------- --<br>---------- -- -------- ----------------,194823.00500001293,194822.28000002215,194287.983,194303.23999997927,194321.313,194837.96,,6,island's
screen,html.Screen,0_4_1_0_1_7,2021-10-22T11:47:31.481Z,,,,,,,,,,,,,,,,11,,,,,,,,,,,,,,832.3149999822199,,response,,,4,A,,,,,Space,keypress(Space),,,,silence,"----- -- ---- --- -- --- -------- inhabitants, ---------- --<br>- ------- ------ --------- -- ------------ -- --- ---- -----<br>------ ---- ---- ------ ------ ------- --- ----- ---------<br>---- --- -------- -------- --- --- -- ------- --- --- -----<br>-- --- ------ ------- --- --- -------- ---- --------- --<br>---------- -- -------- ----------------",195671.06500000227,195670.2749999822,194821.295,194823.22000002023,194837.96,195687.888,,7,"inhabitants,"
screen,html.Screen,0_4_1_0_1_8,2021-10-22T11:47:33.881Z,,,,,,,,,,,,,,,,11,,,,,,,,,,,,,,2382.312000016478,,response,,,4,A,,,,,Space,keypress(Space),,,,silence,----- -- ---- --- -- --- -------- ------------ Rongorongo --<br>- ------- ------ --------- -- ------------ -- --- ---- -----<br>------ ---- ---- ------ ------ ------- --- ----- ---------<br>---- --- -------- -------- --- --- -- ------- --- --- -----<br>-- --- ------ ------- --- --- -------- ---- --------- --<br>---------- -- -------- ----------------,198071.08000002336,198070.20000001648,195671.223,195671.28000000957,195687.888,198087.894,,8,Rongorongo
screen,html.Screen,0_4_1_0_1_9,2021-10-22T11:47:34.513Z,,,,,,,,,,,,,,,,11,,,,,,,,,,,,,,614.2610000063141,,response,,,4,A,,,,,Space,keypress(Space),,,,silence,----- -- ---- --- -- --- -------- ------------ ---------- is<br>- ------- ------ --------- -- ------------ -- --- ---- -----<br>------ ---- ---- ------ ------ ------- --- ----- ---------<br>---- --- -------- -------- --- --- -- ------- --- --- -----<br>-- --- ------ ------- --- --- -------- ---- --------- --<br>---------- -- -------- ----------------,198702.92000001064,198702.1550000063,198071.228,198071.30000001052,198087.894,198721.201,,9,is
screen,html.Screen,0_4_1_0_1_10,2021-10-22T11:47:34.905Z,,,,,,,,,,,,,,,,11,,,,,,,,,,,,,,372.8640000120504,,response,,,4,A,,,,,Space,keypress(Space),,,,silence,----- -- ---- --- -- --- -------- ------------ ---------- --<br>a ------- ------ --------- -- ------------ -- --- ---- -----<br>------ ---- ---- ------ ------ ------- --- ----- ---------<br>---- --- -------- -------- --- --- -- ------- --- --- -----<br>-- --- ------ ------- --- --- -------- ---- --------- --<br>---------- -- -------- ----------------,199094.8099999805,199094.06500001205,198687.869,198703.13500001794,198721.201,199104.473,,10,a
screen,html.Screen,0_4_1_0_1_11,2021-10-22T11:47:35.345Z,,,,,,,,,,,,,,,,11,,,,,,,,,,,,,,429.60700001218356,,response,,,4,A,,,,,Space,keypress(Space),,,,silence,----- -- ---- --- -- --- -------- ------------ ---------- --<br>- writing ------ --------- -- ------------ -- --- ---- -----<br>------ ---- ---- ------ ------ ------- --- ----- ---------<br>---- --- -------- -------- --- --- -- ------- --- --- -----<br>-- --- ------ ------- --- --- -------- ---- --------- --<br>---------- -- -------- ----------------,199534.8150000209,199534.08000001218,199087.808,199095.03000002587,199104.473,199554.495,,11,writing
screen,html.Screen,0_4_1_0_1_12,2021-10-22T11:47:35.801Z,,,,,,,,,,,,,,,,11,,,,,,,,,,,,,,435.54999998409767,,response,,,4,A,,,,,Space,keypress(Space),,,,silence,----- -- ---- --- -- --- -------- ------------ ---------- --<br>- ------- system --------- -- ------------ -- --- ---- -----<br>------ ---- ---- ------ ------ ------- --- ----- ---------<br>---- --- -------- -------- --- --- -- ------- --- --- -----<br>-- --- ------ ------- --- --- -------- ---- --------- --<br>---------- -- -------- ----------------,199990.7499999972,199990.0449999841,199521.163,199535.02499999013,199554.495,200004.511,,12,system
screen,html.Screen,0_4_1_0_1_13,2021-10-22T11:47:36.561Z,,,,,,,,,,,,,,,,11,,,,,,,,,,,,,,745.5840000248863,,response,,,4,A,,,,,Space,keypress(Space),,,,silence,----- -- ---- --- -- --- -------- ------------ ---------- --<br>- ------- ------ comprised -- ------------ -- --- ---- -----<br>------ ---- ---- ------ ------ ------- --- ----- ---------<br>---- --- -------- -------- --- --- -- ------- --- --- -----<br>-- --- ------ ------- --- --- -------- ---- --------- --<br>---------- -- -------- ----------------,200750.86500000907,200750.09500002488,199987.845,199990.9650000045,200004.511,200770.947,,13,comprised
screen,html.Screen,0_4_1_0_1_14,2021-10-22T11:47:36.945Z,,,,,,,,,,,,,,,,11,,,,,,,,,,,,,,363.0329999841633,,response,,,4,A,,,,,Space,keypress(Space),,,,silence,----- -- ---- --- -- --- -------- ------------ ---------- --<br>- ------- ------ --------- of ------------ -- --- ---- -----<br>------ ---- ---- ------ ------ ------- --- ----- ---------<br>---- --- -------- -------- --- --- -- ------- --- --- -----<br>-- --- ------ ------- --- --- -------- ---- --------- --<br>---------- -- -------- ----------------,201134.710000013,201133.97999998415,200737.619,200751.0749999783,200770.947,201154.513,,14,of
screen,html.Screen,0_4_1_0_1_15,2021-10-22T11:47:38.313Z,,,,,,,,,,,,,,,,11,,,,,,,,,,,,,,1347.7670000151556,,response,,,4,A,,,,,Space,keypress(Space),,,,silence,----- -- ---- --- -- --- -------- ------------ ---------- --<br>- ------- ------ --------- -- pictographs. -- --- ---- -----<br>------ ---- ---- ------ ------ ------- --- ----- ---------<br>---- --- -------- -------- --- --- -- ------- --- --- -----<br>-- --- ------ ------- --- --- -------- ---- --------- --<br>---------- -- -------- ----------------,202503.0750000151,202502.28000001516,201121.179,201134.9250000203,201154.513,202520.977,,15,pictographs.
screen,html.Screen,0_4_1_0_1_16,2021-10-22T11:47:38.728Z,,,,,,,,,,,,,,,,11,,,,,,,,,,,,,,396.97299997363007,,response,,,4,A,,,,,Space,keypress(Space),,,,silence,----- -- ---- --- -- --- -------- ------------ ---------- --<br>- ------- ------ --------- -- ------------ It --- ---- -----<br>------ ---- ---- ------ ------ ------- --- ----- ---------<br>---- --- -------- -------- --- --- -- ------- --- --- -----<br>-- --- ------ ------- --- --- -------- ---- --------- --<br>---------- -- -------- ----------------,202918.68499998236,202917.94999997364,202487.647,202503.2900000224,202520.977,202937.606,,16,It
screen,html.Screen,0_4_1_0_1_17,2021-10-22T11:47:39.025Z,,,,,,,,,,,,,,,,11,,,,,,,,,,,,,,276.3039999913017,,response,,,4,A,,,,,Space,keypress(Space),,,,silence,----- -- ---- --- -- --- -------- ------------ ---------- --<br>- ------- ------ --------- -- ------------ -- has ---- -----<br>------ ---- ---- ------ ------ ------- --- ----- ---------<br>---- --- -------- -------- --- --- -- ------- --- --- -----<br>-- --- ------ ------- --- --- -------- ---- --------- --<br>---------- -- -------- ----------------,203214.85500002746,203213.9099999913,202904.276,202918.90500002773,202937.606,203237.662,,17,has
screen,html.Screen,0_4_1_0_1_18,2021-10-22T11:47:39.425Z,,,,,,,,,,,,,,,,11,,,,,,,,,,,,,,376.2979999878444,,response,,,4,A,,,,,Space,keypress(Space),,,,silence,----- -- ---- --- -- --- -------- ------------ ---------- --<br>- ------- ------ --------- -- ------------ -- --- been -----<br>------ ---- ---- ------ ------ ------- --- ----- ---------<br>---- --- -------- -------- --- --- -- ------- --- --- -----<br>-- --- ------ ------- --- --- -------- ---- --------- --<br>---------- -- -------- ----------------,203614.78499998339,203613.95999998786,203204.332,203215.1699999813,203237.662,203637.63,,18,been
screen,html.Screen,0_4_1_0_1_19,2021-10-22T11:47:39.777Z,,,,,,,,,,,,,,,,11,,,,,,,,,,,,,,328.3100000236882,,response,,,4,A,,,,,Space,keypress(Space),,,,silence,----- -- ---- --- -- --- -------- ------------ ---------- --<br>- ------- ------ --------- -- ------------ -- --- ---- found<br>------ ---- ---- ------ ------ ------- --- ----- ---------<br>---- --- -------- -------- --- --- -- ------- --- --- -----<br>-- --- ------ ------- --- --- -------- ---- --------- --<br>---------- -- -------- ----------------,203966.69500001008,203965.9400000237,203604.3,203614.98499999288,203637.63,203987.609,,19,found
screen,html.Screen,0_4_1_0_1_20,2021-10-22T11:47:40.136Z,,,,,,,,,,,,,,,,11,,,,,,,,,,,,,,338.3010000141221,,response,,,4,A,,,,,Space,keypress(Space),,,,silence,----- -- ---- --- -- --- -------- ------------ ---------- --<br>- ------- ------ --------- -- ------------ -- --- ---- -----<br>carved ---- ---- ------ ------ ------- --- ----- ---------<br>---- --- -------- -------- --- --- -- ------- --- --- -----<br>-- --- ------ ------- --- --- -------- ---- --------- --<br>---------- -- -------- ----------------,204326.66999998037,204325.91000001412,203954.279,203966.9049999793,203987.609,204337.65,,20,carved
screen,html.Screen,0_4_1_0_1_21,2021-10-22T11:47:41.017Z,,,,,,,,,,,,,,,,11,,,,,,,,,,,,,,868.200000027573,,response,,,4,A,,,,,Space,keypress(Space),,,,silence,----- -- ---- --- -- --- -------- ------------ ---------- --<br>- ------- ------ --------- -- ------------ -- --- ---- -----<br>------ into ---- ------ ------ ------- --- ----- ---------<br>---- --- -------- -------- --- --- -- ------- --- --- -----<br>-- --- ------ ------- --- --- -------- ---- --------- --<br>---------- -- -------- ----------------,205206.94000000367,205205.85000002757,204320.984,204326.88499998767,204337.65,205220.945,,21,into
screen,html.Screen,0_4_1_0_1_22,2021-10-22T11:47:41.416Z,,,,,,,,,,,,,,,,11,,,,,,,,,,,,,,384.9400000263122,,response,,,4,A,,,,,Space,keypress(Space),,,,silence,----- -- ---- --- -- --- -------- ------------ ---------- --<br>- ------- ------ --------- -- ------------ -- --- ---- -----<br>------ ---- many ------ ------ ------- --- ----- ---------<br>---- --- -------- -------- --- --- -- ------- --- --- -----<br>-- --- ------ ------- --- --- -------- ---- --------- --<br>---------- -- -------- ----------------,205606.66500002844,205605.88500002632,205204.279,205207.17499998864,205220.945,205620.937,,22,many
screen,html.Screen,0_4_1_0_1_23,2021-10-22T11:47:42.232Z,,,,,,,,,,,,,,,,11,,,,,,,,,,,,,,800.9180000223278,,response,,,4,A,,,,,Space,keypress(Space),,,,silence,----- -- ---- --- -- --- -------- ------------ ---------- --<br>- ------- ------ --------- -- ------------ -- --- ---- -----<br>------ ---- ---- oblong ------ ------- --- ----- ---------<br>---- --- -------- -------- --- --- -- ------- --- --- -----<br>-- --- ------ ------- --- --- -------- ---- --------- --<br>---------- -- -------- ----------------,206422.62999998638,206421.85500002233,205604.271,205606.8700000178,205620.937,206437.587,,23,oblong
screen,html.Screen,0_4_1_0_1_24,2021-10-22T11:47:42.776Z,,,,,,,,,,,,,,,,11,,,,,,,,,,,,,,528.2080000255373,,response,,,4,A,,,,,Space,keypress(Space),,,,silence,----- -- ---- --- -- --- -------- ------------ ---------- --<br>- ------- ------ --------- -- ------------ -- --- ---- -----<br>------ ---- ---- ------ wooden ------- --- ----- ---------<br>---- --- -------- -------- --- --- -- ------- --- --- -----<br>-- --- ------ ------- --- --- -------- ---- --------- --<br>---------- -- -------- ----------------,206966.53999999398,206965.79500002554,206420.921,206422.84000001382,206437.587,206987.574,,24,wooden
screen,html.Screen,0_4_1_0_1_25,2021-10-22T11:47:43.200Z,,,,,,,,,,,,,,,,11,,,,,,,,,,,,,,402.2210000246123,,response,,,4,A,,,,,Space,keypress(Space),,,,silence,----- -- ---- --- -- --- -------- ------------ ---------- --<br>- ------- ------ --------- -- ------------ -- --- ---- -----<br>------ ---- ---- ------ ------ tablets --- ----- ---------<br>---- --- -------- -------- --- --- -- ------- --- --- -----<br>-- --- ------ ------- --- --- -------- ---- --------- --<br>---------- -- -------- ----------------,207390.57500002673,207389.7950000246,206954.242,206966.74499998335,206987.574,207404.19,,25,tablets
screen,html.Screen,0_4_1_0_1_26,2021-10-22T11:47:43.688Z,,,,,,,,,,,,,,,,11,,,,,,,,,,,,,,473.6299999942421,,response,,,4,A,,,,,Space,keypress(Space),,,,silence,----- -- ---- --- -- --- -------- ------------ ---------- --<br>- ------- ------ --------- -- ------------ -- --- ---- -----<br>------ ---- ---- ------ ------ ------- and ----- ---------<br>---- --- -------- -------- --- --- -- ------- --- --- -----<br>-- --- ------ ------- --- --- -------- ---- --------- --<br>---------- -- -------- ----------------,207878.58499999857,207877.81999999424,207387.525,207390.7800000161,207404.19,207887.543,,26,and
screen,html.Screen,0_4_1_0_1_27,2021-10-22T11:47:44.064Z,,,,,,,,,,,,,,,,11,,,,,,,,,,,,,,366.212000012456,,response,,,4,A,,,,,Space,keypress(Space),,,,silence,----- -- ---- --- -- --- -------- ------------ ---------- --<br>- ------- ------ --------- -- ------------ -- --- ---- -----<br>------ ---- ---- ------ ------ ------- --- other ---------<br>---- --- -------- -------- --- --- -- ------- --- --- -----<br>-- --- ------ ------- --- --- -------- ---- --------- --<br>---------- -- -------- ----------------,208254.52000001678,208253.75500001246,207870.877,207878.78999998793,207887.543,208270.759,,27,other
screen,html.Screen,0_4_1_0_1_28,2021-10-22T11:47:44.512Z,,,,,,,,,,,,,,,,11,,,,,,,,,,,,,,431.016000023199,,response,,,4,A,,,,,Space,keypress(Space),,,,silence,----- -- ---- --- -- --- -------- ------------ ---------- --<br>- ------- ------ --------- -- ------------ -- --- ---- -----<br>------ ---- ---- ------ ------ ------- --- ----- artifacts<br>---- --- -------- -------- --- --- -- ------- --- --- -----<br>-- --- ------ ------- --- --- -------- ---- --------- --<br>---------- -- -------- ----------------,208702.53000000957,208701.7750000232,208254.095,208254.72500000615,208270.759,208720.787,,28,artifacts
screen,html.Screen,0_4_1_0_1_29,2021-10-22T11:47:45.192Z,,,,,,,,,,,,,,,,11,,,,,,,,,,,,,,660.9529999825172,,response,,,4,A,,,,,Space,keypress(Space),,,,silence,----- -- ---- --- -- --- -------- ------------ ---------- --<br>- ------- ------ --------- -- ------------ -- --- ---- -----<br>------ ---- ---- ------ ------ ------- --- ----- ---------<br>from --- -------- -------- --- --- -- ------- --- --- -----<br>-- --- ------ ------- --- --- -------- ---- --------- --<br>---------- -- -------- ----------------,209382.50499998685,209381.73999998253,208687.457,208702.73499999894,208720.787,209404.197,,29,from
screen,html.Screen,0_4_1_0_1_30,2021-10-22T11:47:45.536Z,,,,,,,,,,,,,,,,11,,,,,,,,,,,,,,321.51300002791686,,response,,,4,A,,,,,Space,keypress(Space),,,,silence,----- -- ---- --- -- --- -------- ------------ ---------- --<br>- ------- ------ --------- -- ------------ -- --- ---- -----<br>------ ---- ---- ------ ------ ------- --- ----- ---------<br>---- the -------- -------- --- --- -- ------- --- --- -----<br>-- --- ------ ------- --- --- -------- ---- --------- --<br>---------- -- -------- ----------------,209726.4449999784,209725.7100000279,209370.863,209382.7099999762,209404.197,209737.362,,30,the
screen,html.Screen,0_4_1_0_1_31,2021-10-22T11:47:46.040Z,,,,,,,,,,,,,,,,11,,,,,,,,,,,,,,492.3329999872658,,response,,,4,A,,,,,Space,keypress(Space),,,,silence,----- -- ---- --- -- --- -------- ------------ ---------- --<br>- ------- ------ --------- -- ------------ -- --- ---- -----<br>------ ---- ---- ------ ------ ------- --- ----- ---------<br>---- --- island's -------- --- --- -- ------- --- --- -----<br>-- --- ------ ------- --- --- -------- ---- --------- --<br>---------- -- -------- ----------------,210230.47000000952,210229.69499998726,209720.698,209726.65000002598,209737.362,210237.461,,31,island's
screen,html.Screen,0_4_1_0_1_32,2021-10-22T11:47:47.496Z,,,,,,,,,,,,,,,,11,,,,,,,,,,,,,,1448.2089999770978,,response,,,4,A,,,,,Space,keypress(Space),,,,silence,----- -- ---- --- -- --- -------- ------------ ---------- --<br>- ------- ------ --------- -- ------------ -- --- ---- -----<br>------ ---- ---- ------ ------ ------- --- ----- ---------<br>---- --- -------- history. --- --- -- ------- --- --- -----<br>-- --- ------ ------- --- --- -------- ---- --------- --<br>---------- -- -------- ----------------,211686.4400000195,211685.6699999771,210220.795,210230.67499999888,210237.461,211703.831,,32,history.
screen,html.Screen,0_4_1_0_1_33,2021-10-22T11:47:47.920Z,,,,,,,,,,,,,,,,11,,,,,,,,,,,,,,405.60899997106753,,response,,,4,A,,,,,Space,keypress(Space),,,,silence,----- -- ---- --- -- --- -------- ------------ ---------- --<br>- ------- ------ --------- -- ------------ -- --- ---- -----<br>------ ---- ---- ------ ------ ------- --- ----- ---------<br>---- --- -------- -------- The --- -- ------- --- --- -----<br>-- --- ------ ------- --- --- -------- ---- --------- --<br>---------- -- -------- ----------------,212109.89999998128,212109.43999997107,211687.167,211686.64999998873,211703.831,212120.648,,33,The
screen,html.Screen,0_4_1_0_1_34,2021-10-22T11:47:48.632Z,,,,,,,,,,,,,,,,11,,,,,,,,,,,,,,701.2720000167028,,response,,,4,A,,,,,Space,keypress(Space),,,,silence,----- -- ---- --- -- --- -------- ------------ ---------- --<br>- ------- ------ --------- -- ------------ -- --- ---- -----<br>------ ---- ---- ------ ------ ------- --- ----- ---------<br>---- --- -------- -------- --- art -- ------- --- --- -----<br>-- --- ------ ------- --- --- -------- ---- --------- --<br>---------- -- -------- ----------------,212822.69000000088,212821.9200000167,212103.983,212110.0050000241,212120.648,212837.362,,34,art
screen,html.Screen,0_4_1_0_1_35,2021-10-22T11:47:48.976Z,,,,,,,,,,,,,,,,11,,,,,,,,,,,,,,328.1780000163417,,response,,,4,A,,,,,Space,keypress(Space),,,,silence,----- -- ---- --- -- --- -------- ------------ ---------- --<br>- ------- ------ --------- -- ------------ -- --- ---- -----<br>------ ---- ---- ------ ------ ------- --- ----- ---------<br>---- --- -------- -------- --- --- of ------- --- --- -----<br>-- --- ------ ------- --- --- -------- ---- --------- --<br>---------- -- -------- ----------------,213166.22499999357,213165.54000001634,212820.696,212822.9000000283,212837.362,213187.191,,35,of
screen,html.Screen,0_4_1_0_1_36,2021-10-22T11:47:49.456Z,,,,,,,,,,,,,,,,11,,,,,,,,,,,,,,458.4190000068629,,response,,,4,A,,,,,Space,keypress(Space),,,,silence,----- -- ---- --- -- --- -------- ------------ ---------- --<br>- ------- ------ --------- -- ------------ -- --- ---- -----<br>------ ---- ---- ------ ------ ------- --- ----- ---------<br>---- --- -------- -------- --- --- -- writing --- --- -----<br>-- --- ------ ------- --- --- -------- ---- --------- --<br>---------- -- -------- ----------------,213646.4799999958,213645.61000000685,213153.863,213166.42999998294,213187.191,213653.981,,36,writing
screen,html.Screen,0_4_1_0_1_37,2021-10-22T11:47:49.840Z,,,,,,,,,,,,,,,,11,,,,,,,,,,,,,,375.5939999932016,,response,,,4,A,,,,,Space,keypress(Space),,,,silence,----- -- ---- --- -- --- -------- ------------ ---------- --<br>- ------- ------ --------- -- ------------ -- --- ---- -----<br>------ ---- ---- ------ ------ ------- --- ----- ---------<br>---- --- -------- -------- --- --- -- ------- was --- -----<br>-- --- ------ ------- --- --- -------- ---- --------- --<br>---------- -- -------- ----------------,214030.36999999313,214029.5749999932,213637.315,213646.68499998515,213653.981,214037.342,,37,was
screen,html.Screen,0_4_1_0_1_38,2021-10-22T11:47:50.112Z,,,,,,,,,,,,,,,,11,,,,,,,,,,,,,,264.1729999991949,,response,,,4,A,,,,,Space,keypress(Space),,,,silence,----- -- ---- --- -- --- -------- ------------ ---------- --<br>- ------- ------ --------- -- ------------ -- --- ---- -----<br>------ ---- ---- ------ ------ ------- --- ----- ---------<br>---- --- -------- -------- --- --- -- ------- --- not -----<br>-- --- ------ ------- --- --- -------- ---- --------- --<br>---------- -- -------- ----------------,214302.26999998558,214301.5149999992,214020.675,214030.65999998944,214037.342,214320.601,,38,not
screen,html.Screen,0_4_1_0_1_39,2021-10-22T11:47:50.536Z,,,,,,,,,,,,,,,,11,,,,,,,,,,,,,,404.91399999827263,,response,,,4,A,,,,,Space,keypress(Space),,,,silence,----- -- ---- --- -- --- -------- ------------ ---------- --<br>- ------- ------ --------- -- ------------ -- --- ---- -----<br>------ ---- ---- ------ ------ ------- --- ----- ---------<br>---- --- -------- -------- --- --- -- ------- --- --- known<br>-- --- ------ ------- --- --- -------- ---- --------- --<br>---------- -- -------- ----------------,214726.25000000698,214725.51499999827,214287.271,214302.52000002656,214320.601,214737.178,,39,known
screen,html.Screen,0_4_1_0_1_40,2021-10-22T11:47:51.008Z,,,,,,,,,,,,,,,,11,,,,,,,,,,,,,,460.34700002503814,,response,,,4,A,,,,,Space,keypress(Space),,,,silence,----- -- ---- --- -- --- -------- ------------ ---------- --<br>- ------- ------ --------- -- ------------ -- --- ---- -----<br>------ ---- ---- ------ ------ ------- --- ----- ---------<br>---- --- -------- -------- --- --- -- ------- --- --- -----<br>in --- ------ ------- --- --- -------- ---- --------- --<br>---------- -- -------- ----------------,215198.28999997117,215197.52500002505,214720.514,214726.45499999635,214737.178,215203.963,,40,in
screen,html.Screen,0_4_1_0_1_41,2021-10-22T11:47:51.360Z,,,,,,,,,,,,,,,,11,,,,,,,,,,,,,,345.48200001148507,,response,,,4,A,,,,,Space,keypress(Space),,,,silence,----- -- ---- --- -- --- -------- ------------ ---------- --<br>- ------- ------ --------- -- ------------ -- --- ---- -----<br>------ ---- ---- ------ ------ ------- --- ----- ---------<br>---- --- -------- -------- --- --- -- ------- --- --- -----<br>-- any ------ ------- --- --- -------- ---- --------- --<br>---------- -- -------- ----------------,215550.17499998212,215549.44500001147,215187.296,215198.49500001874,215203.963,215570.522,,41,any
screen,html.Screen,0_4_1_0_1_42,2021-10-22T11:47:51.880Z,,,,,,,,,,,,,,,,11,,,,,,,,,,,,,,498.9530000257073,,response,,,4,A,,,,,Space,keypress(Space),,,,silence,----- -- ---- --- -- --- -------- ------------ ---------- --<br>- ------- ------ --------- -- ------------ -- --- ---- -----<br>------ ---- ---- ------ ------ ------- --- ----- ---------<br>---- --- -------- -------- --- --- -- ------- --- --- -----<br>-- --- nearby ------- --- --- -------- ---- --------- --<br>---------- -- -------- ----------------,216070.21999999415,216069.4750000257,215537.192,215550.4100000253,215570.522,216087.237,,42,nearby
screen,html.Screen,0_4_1_0_1_43,2021-10-22T11:47:52.720Z,,,,,,,,,,,,,,,,11,,,,,,,,,,,,,,822.2279999751772,,response,,,4,A,,,,,Space,keypress(Space),,,,silence,----- -- ---- --- -- --- -------- ------------ ---------- --<br>- ------- ------ --------- -- ------------ -- --- ---- -----<br>------ ---- ---- ------ ------ ------- --- ----- ---------<br>---- --- -------- -------- --- --- -- ------- --- --- -----<br>-- --- ------ islands --- --- -------- ---- --------- --<br>---------- -- -------- ----------------,216910.23999999743,216909.46499997517,216070.571,216070.43500000145,216087.237,216920.473,,43,islands
screen,html.Screen,0_4_1_0_1_44,2021-10-22T11:47:53.128Z,,,,,,,,,,,,,,,,11,,,,,,,,,,,,,,396.9520000156481,,response,,,4,A,,,,,Space,keypress(Space),,,,silence,----- -- ---- --- -- --- -------- ------------ ---------- --<br>- ------- ------ --------- -- ------------ -- --- ---- -----<br>------ ---- ---- ------ ------ ------- --- ----- ---------<br>---- --- -------- -------- --- --- -- ------- --- --- -----<br>-- --- ------ ------- and --- -------- ---- --------- --<br>---------- -- -------- ----------------,217318.1849999819,217317.42500001565,216903.808,216910.4449999868,216920.473,217337.197,,44,and
screen,html.Screen,0_4_1_0_1_45,2021-10-22T11:47:53.488Z,,,,,,,,,,,,,,,,11,,,,,,,,,,,,,,340.21300000388874,,response,,,4,A,,,,,Space,keypress(Space),,,,silence,----- -- ---- --- -- --- -------- ------------ ---------- --<br>- ------- ------ --------- -- ------------ -- --- ---- -----<br>------ ---- ---- ------ ------ ------- --- ----- ---------<br>---- --- -------- -------- --- --- -- ------- --- --- -----<br>-- --- ------ ------- --- the -------- ---- --------- --<br>---------- -- -------- ----------------,217678.190000006,217677.41000000387,217303.865,217318.39500000933,217337.197,217687.148,,45,the
screen,html.Screen,0_4_1_0_1_46,2021-10-22T11:47:53.920Z,,,,,,,,,,,,,,,,11,,,,,,,,,,,,,,422.2319999798783,,response,,,4,A,,,,,Space,keypress(Space),,,,silence,----- -- ---- --- -- --- -------- ------------ ---------- --<br>- ------- ------ --------- -- ------------ -- --- ---- -----<br>------ ---- ---- ------ ------ ------- --- ----- ---------<br>---- --- -------- -------- --- --- -- ------- --- --- -----<br>-- --- ------ ------- --- --- script's ---- --------- --<br>---------- -- -------- ----------------,218110.12000002665,218109.37999997986,217670.483,217678.39499999536,217687.148,218120.461,,46,script's
screen,html.Screen,0_4_1_0_1_47,2021-10-22T11:47:54.416Z,,,,,,,,,,,,,,,,11,,,,,,,,,,,,,,484.96400001610164,,response,,,4,A,,,,,Space,keypress(Space),,,,silence,----- -- ---- --- -- --- -------- ------------ ---------- --<br>- ------- ------ --------- -- ------------ -- --- ---- -----<br>------ ---- ---- ------ ------ ------- --- ----- ---------<br>---- --- -------- -------- --- --- -- ------- --- --- -----<br>-- --- ------ ------- --- --- -------- mere --------- --<br>---------- -- -------- ----------------,218606.21499997796,218605.4250000161,218103.796,218110.32999999588,218120.461,218620.365,,47,mere
screen,html.Screen,0_4_1_0_1_48,2021-10-22T11:47:54.936Z,,,,,,,,,,,,,,,,11,,,,,,,,,,,,,,504.9750000278,,response,,,4,A,,,,,Space,keypress(Space),,,,silence,----- -- ---- --- -- --- -------- ------------ ---------- --<br>- ------- ------ --------- -- ------------ -- --- ---- -----<br>------ ---- ---- ------ ------ ------- --- ----- ---------<br>---- --- -------- -------- --- --- -- ------- --- --- -----<br>-- --- ------ ------- --- --- -------- ---- existence --<br>---------- -- -------- ----------------,219126.08499999624,219125.3400000278,218603.701,218606.46500001894,218620.365,219137.059,,48,existence
screen,html.Screen,0_4_1_0_1_49,2021-10-22T11:47:55.296Z,,,,,,,,,,,,,,,,11,,,,,,,,,,,,,,348.2559999980731,,response,,,4,A,,,,,Space,keypress(Space),,,,silence,----- -- ---- --- -- --- -------- ------------ ---------- --<br>- ------- ------ --------- -- ------------ -- --- ---- -----<br>------ ---- ---- ------ ------ ------- --- ----- ---------<br>---- --- -------- -------- --- --- -- ------- --- --- -----<br>-- --- ------ ------- --- --- -------- ---- --------- is<br>---------- -- -------- ----------------,219486.0650000046,219485.31499999808,219120.394,219126.29500002367,219137.059,219503.72,,49,is
