sender,sender_type,sender_id,timestamp,meta,,Blues,Classical,Country,Dance,Electronic,Folk,Gospel,Hip-Hop,Jazz,Latin,Musical/Film,New-age,Pop,Provo_ID,R&B,Rap,Reggae,Religious,Rock,Soul,Swing,Traditional,age,artist_name,correct,correctResponse,distraction,duration,education,ended_on,familiarity,gender,item,list,music_frequency,offensiveness,pleasantness,preference,response,response_action,snippet_file,song_name,song_rating,sound,text,time_commit,time_end,time_render,time_run,time_show,time_switch,url,word,word_ID
Instructions,html.Page,0_0,2021-11-19T11:57:57.440Z,"{""labjs_version"":""20.2.3"",""labjs_build"":{""flavor"":""production"",""commit"":""7ea907d66ca8aeef8054924ca5d82ffbe11e34e5""},""location"":""https://run.pavlovia.org/mvasilev/lab_music_f/"",""userAgent"":""Mozilla/5.0 (Windows NT 6.1; Win64; x64) AppleWebKit/537.36 (KHTML, like Gecko) Chrome/96.0.4664.45 Safari/537.36"",""platform"":""Win32"",""language"":""en-US"",""locale"":""en-US"",""timeZone"":""Europe/London"",""timezoneOffset"":0,""screen_width"":1920,""screen_height"":1080,""scroll_width"":1920,""scroll_height"":959,""window_innerWidth"":1920,""window_innerHeight"":1007,""devicePixelRatio"":1}",,,,,,,,,,,,,,,,,,,,,,,,,,,,,22181.102000071525,,form submission,,,,,,,,,,,,,,,,35440,35438.800000071526,13224.358,13241.300000071526,13257.698,35445.125,{},,
Headphones,html.Page,0_1,2021-11-19T11:58:00.442Z,,,,,,,,,,,,,,,,,,,,,,,,,,,,,,2996.774999976158,,form submission,,,,,,,,,,,,,,,,38442.300000071526,38441.89999997616,35428.456,35440.700000047684,35445.125,38448.052,,,
Holding screen,html.Screen,0_2_0_0,2021-11-19T11:58:10.441Z,,,,,,,,,,,,,,,,,,,,,,,,,,,,,,10019.051,,timeout,,,,,,,,,,,,,,,,48441.39999997616,48433.763,38431.379,38442.89999997616,38448.052,48467.103,,,
screen,html.Screen,0_2_0_1_0,2021-11-19T11:58:11.643Z,,,,,,,,,,,,,,,,53,,,,,,,,,,,,,,1173.997000023839,,response,,,99,,,,,,Space,keypress(Space),,,,,When -- ----- -- ------ - ------- --- ----------<br>------------- ------ ------ ---- ---- ------- ----- -- ----<br>-------- ------- -- ---------- --- - --- ----- ----- ----<br>---- --- --- ----- --- ---- ---- ------- ----- ---- -------<br>--- --- -- ----- -- --- ---- -- --- ---- -- ------ ------<br>--- ----- -- ----,49642.5,49641.10000002384,48433.763,48441.800000071526,48467.103,49651.064,,0,When
screen,html.Screen,0_2_0_1_1,2021-11-19T11:58:12.146Z,,,,,,,,,,,,,,,,53,,,,,,,,,,,,,,494.2360000715271,,response,,,99,,,,,,Space,keypress(Space),,,,,---- it ----- -- ------ - ------- --- ----------<br>------------- ------ ------ ---- ---- ------- ----- -- ----<br>-------- ------- -- ---------- --- - --- ----- ----- ----<br>---- --- --- ----- --- ---- ---- ------- ----- ---- -------<br>--- --- -- ----- -- --- ---- -- --- ---- -- ------ ------<br>--- ----- -- ----,50146.300000071526,50145.300000071526,49634.392,49642.89999997616,49651.064,50150.988,,1,it
screen,html.Screen,0_2_0_1_2,2021-11-19T11:58:12.594Z,,,,,,,,,,,,,,,,53,,,,,,,,,,,,,,442.01200000000244,,response,,,99,,,,,,Space,keypress(Space),,,,,---- -- comes -- ------ - ------- --- ----------<br>------------- ------ ------ ---- ---- ------- ----- -- ----<br>-------- ------- -- ---------- --- - --- ----- ----- ----<br>---- --- --- ----- --- ---- ---- ------- ----- ---- -------<br>--- --- -- ----- -- --- ---- -- --- ---- -- ------ ------<br>--- ----- -- ----,50593.89999997616,50593,50134.318,50146.5,50150.988,50601.141,,2,comes
screen,html.Screen,0_2_0_1_3,2021-11-19T11:58:12.954Z,,,,,,,,,,,,,,,,53,,,,,,,,,,,,,,351.85899999999674,,response,,,99,,,,,,Space,keypress(Space),,,,,---- -- ----- to ------ - ------- --- ----------<br>------------- ------ ------ ---- ---- ------- ----- -- ----<br>-------- ------- -- ---------- --- - --- ----- ----- ----<br>---- --- --- ----- --- ---- ---- ------- ----- ---- -------<br>--- --- -- ----- -- --- ---- -- --- ---- -- ------ ------<br>--- ----- -- ----,50954,50953,50584.471,50594.200000047684,50601.141,50967.894,,3,to
screen,html.Screen,0_2_0_1_4,2021-11-19T11:58:13.362Z,,,,,,,,,,,,,,,,53,,,,,,,,,,,,,,393.0059999761579,,response,,,99,,,,,,Space,keypress(Space),,,,,---- -- ----- -- having - ------- --- ----------<br>------------- ------ ------ ---- ---- ------- ----- -- ----<br>-------- ------- -- ---------- --- - --- ----- ----- ----<br>---- --- --- ----- --- ---- ---- ------- ----- ---- -------<br>--- --- -- ----- -- --- ---- -- --- ---- -- ------ ------<br>--- ----- -- ----,51362.10000002384,51360.89999997616,50951.224,50954.5,50967.894,51367.972,,4,having
screen,html.Screen,0_2_0_1_5,2021-11-19T11:58:13.730Z,,,,,,,,,,,,,,,,53,,,,,,,,,,,,,,361.0279999999984,,response,,,99,,,,,,Space,keypress(Space),,,,,---- -- ----- -- ------ a ------- --- ----------<br>------------- ------ ------ ---- ---- ------- ----- -- ----<br>-------- ------- -- ---------- --- - --- ----- ----- ----<br>---- --- --- ----- --- ---- ---- ------- ----- ---- -------<br>--- --- -- ----- -- --- ---- -- --- ---- -- ------ ------<br>--- ----- -- ----,51729.800000071526,51729,51351.302,51362.5,51367.972,51734.75,,5,a
screen,html.Screen,0_2_0_1_6,2021-11-19T11:58:14.226Z,,,,,,,,,,,,,,,,53,,,,,,,,,,,,,,490.14999997615814,,response,,,99,,,,,,Space,keypress(Space),,,,,---- -- ----- -- ------ - lasting --- ----------<br>------------- ------ ------ ---- ---- ------- ----- -- ----<br>-------- ------- -- ---------- --- - --- ----- ----- ----<br>---- --- --- ----- --- ---- ---- ------- ----- ---- -------<br>--- --- -- ----- -- --- ---- -- --- ---- -- ------ ------<br>--- ----- -- ----,52225.800000071526,52224.89999997616,51718.08,51730.39999997616,51734.75,52234.945,,6,lasting
screen,html.Screen,0_2_0_1_7,2021-11-19T11:58:14.618Z,,,,,,,,,,,,,,,,53,,,,,,,,,,,,,,381.95499997615843,,response,,,99,,,,,,Space,keypress(Space),,,,,---- -- ----- -- ------ - ------- and ----------<br>------------- ------ ------ ---- ---- ------- ----- -- ----<br>-------- ------- -- ---------- --- - --- ----- ----- ----<br>---- --- --- ----- --- ---- ---- ------- ----- ---- -------<br>--- --- -- ----- -- --- ---- -- --- ---- -- ------ ------<br>--- ----- -- ----,52617.800000071526,52616.89999997616,52218.274,52226.200000047684,52234.945,52634.971,,7,and
screen,html.Screen,0_2_0_1_8,2021-11-19T11:58:15.162Z,,,,,,,,,,,,,,,,53,,,,,,,,,,,,,,525.8290000715278,,response,,,99,,,,,,Space,keypress(Space),,,,,---- -- ----- -- ------ - ------- --- fulfilling<br>------------- ------ ------ ---- ---- ------- ----- -- ----<br>-------- ------- -- ---------- --- - --- ----- ----- ----<br>---- --- --- ----- --- ---- ---- ------- ----- ---- -------<br>--- --- -- ----- -- --- ---- -- --- ---- -- ------ ------<br>--- ----- -- ----,53162,53160.800000071526,52618.301,52618.10000002384,52634.971,53168.457,,8,fulfilling
screen,html.Screen,0_2_0_1_9,2021-11-19T11:58:15.626Z,,,,,,,,,,,,,,,,53,,,,,,,,,,,,,,456.3430000715234,,response,,,99,,,,,,Space,keypress(Space),,,,,"---- -- ----- -- ------ - ------- --- ----------<br>relationship, ------ ------ ---- ---- ------- ----- -- ----<br>-------- ------- -- ---------- --- - --- ----- ----- ----<br>---- --- --- ----- --- ---- ---- ------- ----- ---- -------<br>--- --- -- ----- -- --- ---- -- --- ---- -- ------ ------<br>--- ----- -- ----",53625.700000047684,53624.800000071526,53151.787,53162.300000071526,53168.457,53635.233,,9,"relationship,"
screen,html.Screen,0_2_0_1_10,2021-11-19T11:58:16.082Z,,,,,,,,,,,,,,,,53,,,,,,,,,,,,,,446.0670000715254,,response,,,99,,,,,,Space,keypress(Space),,,,,---- -- ----- -- ------ - ------- --- ----------<br>------------- common ------ ---- ---- ------- ----- -- ----<br>-------- ------- -- ---------- --- - --- ----- ----- ----<br>---- --- --- ----- --- ---- ---- ------- ----- ---- -------<br>--- --- -- ----- -- --- ---- -- --- ---- -- ------ ------<br>--- ----- -- ----,54082.200000047684,54081.300000071526,53618.563,53626,53635.233,54085.397,,10,common
screen,html.Screen,0_2_0_1_11,2021-11-19T11:58:16.490Z,,,,,,,,,,,,,,,,53,,,,,,,,,,,,,,403.40300007152837,,response,,,99,,,,,,Space,keypress(Space),,,,,---- -- ----- -- ------ - ------- --- ----------<br>------------- ------ wisdom ---- ---- ------- ----- -- ----<br>-------- ------- -- ---------- --- - --- ----- ----- ----<br>---- --- --- ----- --- ---- ---- ------- ----- ---- -------<br>--- --- -- ----- -- --- ---- -- --- ---- -- ------ ------<br>--- ----- -- ----,54489.700000047684,54488.800000071526,54068.726,54082.39999997616,54085.397,54502.038,,11,wisdom
screen,html.Screen,0_2_0_1_12,2021-11-19T11:58:16.866Z,,,,,,,,,,,,,,,,53,,,,,,,,,,,,,,362.7620000715251,,response,,,99,,,,,,Space,keypress(Space),,,,,---- -- ----- -- ------ - ------- --- ----------<br>------------- ------ ------ says ---- ------- ----- -- ----<br>-------- ------- -- ---------- --- - --- ----- ----- ----<br>---- --- --- ----- --- ---- ---- ------- ----- ---- -------<br>--- --- -- ----- -- --- ---- -- --- ---- -- ------ ------<br>--- ----- -- ----,54865.700000047684,54864.800000071526,54485.369,54489.89999997616,54502.038,54868.933,,12,says
screen,html.Screen,0_2_0_1_13,2021-11-19T11:58:17.234Z,,,,,,,,,,,,,,,,53,,,,,,,,,,,,,,363.8670000715283,,response,,,99,,,,,,Space,keypress(Space),,,,,---- -- ----- -- ------ - ------- --- ----------<br>------------- ------ ------ ---- that ------- ----- -- ----<br>-------- ------- -- ---------- --- - --- ----- ----- ----<br>---- --- --- ----- --- ---- ---- ------- ----- ---- -------<br>--- --- -- ----- -- --- ---- -- --- ---- -- ------ ------<br>--- ----- -- ----,55233.60000002384,55232.800000071526,54852.262,54865.89999997616,54868.933,55235.69,,13,that
screen,html.Screen,0_2_0_1_14,2021-11-19T11:58:17.570Z,,,,,,,,,,,,,,,,53,,,,,,,,,,,,,,333.11000007152325,,response,,,99,,,,,,Space,keypress(Space),,,,,---- -- ----- -- ------ - ------- --- ----------<br>------------- ------ ------ ---- ---- feeling ----- -- ----<br>-------- ------- -- ---------- --- - --- ----- ----- ----<br>---- --- --- ----- --- ---- ---- ------- ----- ---- -------<br>--- --- -- ----- -- --- ---- -- --- ---- -- ------ ------<br>--- ----- -- ----,55569.5,55568.800000071526,55219.019,55233.89999997616,55235.69,55585.757,,14,feeling
screen,html.Screen,0_2_0_1_15,2021-11-19T11:58:17.890Z,,,,,,,,,,,,,,,,53,,,,,,,,,,,,,,302.9430000476859,,response,,,99,,,,,,Space,keypress(Space),,,,,---- -- ----- -- ------ - ------- --- ----------<br>------------- ------ ------ ---- ---- ------- close -- ----<br>-------- ------- -- ---------- --- - --- ----- ----- ----<br>---- --- --- ----- --- ---- ---- ------- ----- ---- -------<br>--- --- -- ----- -- --- ---- -- --- ---- -- ------ ------<br>--- ----- -- ----,55889.5,55888.700000047684,55569.087,55569.800000071526,55585.757,55902.507,,15,close
screen,html.Screen,0_2_0_1_16,2021-11-19T11:58:18.234Z,,,,,,,,,,,,,,,,53,,,,,,,,,,,,,,330.1930000476859,,response,,,99,,,,,,Space,keypress(Space),,,,,---- -- ----- -- ------ - ------- --- ----------<br>------------- ------ ------ ---- ---- ------- ----- to ----<br>-------- ------- -- ---------- --- - --- ----- ----- ----<br>---- --- --- ----- --- ---- ---- ------- ----- ---- -------<br>--- --- -- ----- -- --- ---- -- --- ---- -- ------ ------<br>--- ----- -- ----,56233.60000002384,56232.700000047684,55885.837,55889.800000071526,55902.507,56235.958,,16,to
screen,html.Screen,0_2_0_1_17,2021-11-19T11:58:18.601Z,,,,,,,,,,,,,,,,53,,,,,,,,,,,,,,364.742000047685,,response,,,99,,,,,,Space,keypress(Space),,,,,---- -- ----- -- ------ - ------- --- ----------<br>------------- ------ ------ ---- ---- ------- ----- -- your<br>-------- ------- -- ---------- --- - --- ----- ----- ----<br>---- --- --- ----- --- ---- ---- ------- ----- ---- -------<br>--- --- -- ----- -- --- ---- -- --- ---- -- ------ ------<br>--- ----- -- ----,56601.5,56600.700000047684,56219.287,56233.700000047684,56235.958,56602.681,,17,your
screen,html.Screen,0_2_0_1_18,2021-11-19T11:58:18.969Z,,,,,,,,,,,,,,,,53,,,,,,,,,,,,,,366.01900004768686,,response,,,99,,,,,,Space,keypress(Space),,,,,---- -- ----- -- ------ - ------- --- ----------<br>------------- ------ ------ ---- ---- ------- ----- -- ----<br>romantic ------- -- ---------- --- - --- ----- ----- ----<br>---- --- --- ----- --- ---- ---- ------- ----- ---- -------<br>--- --- -- ----- -- --- ---- -- --- ---- -- ------ ------<br>--- ----- -- ----,56969.5,56968.700000047684,56586.011,56601.800000071526,56602.681,56986.116,,18,romantic
screen,html.Screen,0_2_0_1_19,2021-11-19T11:58:19.313Z,,,,,,,,,,,,,,,,53,,,,,,,,,,,,,,326.48400002384005,,response,,,99,,,,,,Space,keypress(Space),,,,,---- -- ----- -- ------ - ------- --- ----------<br>------------- ------ ------ ---- ---- ------- ----- -- ----<br>-------- partner -- ---------- --- - --- ----- ----- ----<br>---- --- --- ----- --- ---- ---- ------- ----- ---- -------<br>--- --- -- ----- -- --- ---- -- --- ---- -- ------ ------<br>--- ----- -- ----,57313.5,57312.60000002384,56969.446,56969.700000047684,56986.116,57319.541,,19,partner
screen,html.Screen,0_2_0_1_20,2021-11-19T11:58:19.657Z,,,,,,,,,,,,,,,,53,,,,,,,,,,,,,,337.0590000238444,,response,,,99,,,,,,Space,keypress(Space),,,,,---- -- ----- -- ------ - ------- --- ----------<br>------------- ------ ------ ---- ---- ------- ----- -- ----<br>-------- ------- is ---------- --- - --- ----- ----- ----<br>---- --- --- ----- --- ---- ---- ------- ----- ---- -------<br>--- --- -- ----- -- --- ---- -- --- ---- -- ------ ------<br>--- ----- -- ----,57657.39999997616,57656.60000002384,57302.871,57313.700000047684,57319.541,57669.631,,20,is
screen,html.Screen,0_2_0_1_21,2021-11-19T11:58:20.001Z,,,,,,,,,,,,,,,,53,,,,,,,,,,,,,,330.8689999999988,,response,,,99,,,,,,Space,keypress(Space),,,,,---- -- ----- -- ------ - ------- --- ----------<br>------------- ------ ------ ---- ---- ------- ----- -- ----<br>-------- ------- -- paramount. --- - --- ----- ----- ----<br>---- --- --- ----- --- ---- ---- ------- ----- ---- -------<br>--- --- -- ----- -- --- ---- -- --- ---- -- ------ ------<br>--- ----- -- ----,58001.300000071526,58000.5,57652.961,57657.60000002384,57669.631,58003.039,,21,paramount.
screen,html.Screen,0_2_0_1_22,2021-11-19T11:58:20.546Z,,,,,,,,,,,,,,,,53,,,,,,,,,,,,,,541.5610000238448,,response,,,99,,,,,,Space,keypress(Space),,,,,---- -- ----- -- ------ - ------- --- ----------<br>------------- ------ ------ ---- ---- ------- ----- -- ----<br>-------- ------- -- ---------- But - --- ----- ----- ----<br>---- --- --- ----- --- ---- ---- ------- ----- ---- -------<br>--- --- -- ----- -- --- ---- -- --- ---- -- ------ ------<br>--- ----- -- ----,58546,58544.60000002384,57986.369,58001.800000071526,58003.039,58553.164,,22,But
screen,html.Screen,0_2_0_1_23,2021-11-19T11:58:20.937Z,,,,,,,,,,,,,,,,53,,,,,,,,,,,,,,383.33600000000297,,response,,,99,,,,,,Space,keypress(Space),,,,,---- -- ----- -- ------ - ------- --- ----------<br>------------- ------ ------ ---- ---- ------- ----- -- ----<br>-------- ------- -- ---------- --- a --- ----- ----- ----<br>---- --- --- ----- --- ---- ---- ------- ----- ---- -------<br>--- --- -- ----- -- --- ---- -- --- ---- -- ------ ------<br>--- ----- -- ----,58937.39999997616,58936.5,58536.494,58546.300000071526,58553.164,58953.35,,23,a
screen,html.Screen,0_2_0_1_24,2021-11-19T11:58:21.274Z,,,,,,,,,,,,,,,,53,,,,,,,,,,,,,,319.35000004768517,,response,,,99,,,,,,Space,keypress(Space),,,,,---- -- ----- -- ------ - ------- --- ----------<br>------------- ------ ------ ---- ---- ------- ----- -- ----<br>-------- ------- -- ---------- --- - new ----- ----- ----<br>---- --- --- ----- --- ---- ---- ------- ----- ---- -------<br>--- --- -- ----- -- --- ---- -- --- ---- -- ------ ------<br>--- ----- -- ----,59273.5,59272.700000047684,58936.679,58937.60000002384,58953.35,59286.624,,24,new
screen,html.Screen,0_2_0_1_25,2021-11-19T11:58:21.601Z,,,,,,,,,,,,,,,,53,,,,,,,,,,,,,,313.87599999999657,,response,,,99,,,,,,Space,keypress(Space),,,,,---- -- ----- -- ------ - ------- --- ----------<br>------------- ------ ------ ---- ---- ------- ----- -- ----<br>-------- ------- -- ---------- --- - --- study ----- ----<br>---- --- --- ----- --- ---- ---- ------- ----- ---- -------<br>--- --- -- ----- -- --- ---- -- --- ---- -- ------ ------<br>--- ----- -- ----,59601.300000071526,59600.5,59269.955,59273.800000071526,59286.624,59603.528,,25,study
screen,html.Screen,0_2_0_1_26,2021-11-19T11:58:21.929Z,,,,,,,,,,,,,,,,53,,,,,,,,,,,,,,324.9720000000016,,response,,,99,,,,,,Space,keypress(Space),,,,,---- -- ----- -- ------ - ------- --- ----------<br>------------- ------ ------ ---- ---- ------- ----- -- ----<br>-------- ------- -- ---------- --- - --- ----- finds ----<br>---- --- --- ----- --- ---- ---- ------- ----- ---- -------<br>--- --- -- ----- -- --- ---- -- --- ---- -- ------ ------<br>--- ----- -- ----,59929.200000047684,59928.5,59586.856,59601.60000002384,59603.528,59936.883,,26,finds
screen,html.Screen,0_2_0_1_27,2021-11-19T11:58:22.357Z,,,,,,,,,,,,,,,,53,,,,,,,,,,,,,,415.5169999761565,,response,,,99,,,,,,Space,keypress(Space),,,,,---- -- ----- -- ------ - ------- --- ----------<br>------------- ------ ------ ---- ---- ------- ----- -- ----<br>-------- ------- -- ---------- --- - --- ----- ----- that<br>---- --- --- ----- --- ---- ---- ------- ----- ---- -------<br>--- --- -- ----- -- --- ---- -- --- ---- -- ------ ------<br>--- ----- -- ----,60353.300000071526,60352.39999997616,59920.213,59929.5,59936.883,60370.324,,27,that
screen,html.Screen,0_2_0_1_28,2021-11-19T11:58:22.757Z,,,,,,,,,,,,,,,,53,,,,,,,,,,,,,,382.0759999761576,,response,,,99,,,,,,Space,keypress(Space),,,,,---- -- ----- -- ------ - ------- --- ----------<br>------------- ------ ------ ---- ---- ------- ----- -- ----<br>-------- ------- -- ---------- --- - --- ----- ----- ----<br>it's --- --- ----- --- ---- ---- ------- ----- ---- -------<br>--- --- -- ----- -- --- ---- -- --- ---- -- ------ ------<br>--- ----- -- ----,60753.200000047684,60752.39999997616,60353.654,60353.5,60370.324,60770.426,,28,it's
screen,html.Screen,0_2_0_1_29,2021-11-19T11:58:23.037Z,,,,,,,,,,,,,,,,53,,,,,,,,,,,,,,261.97399997615867,,response,,,99,,,,,,Space,keypress(Space),,,,,---- -- ----- -- ------ - ------- --- ----------<br>------------- ------ ------ ---- ---- ------- ----- -- ----<br>-------- ------- -- ---------- --- - --- ----- ----- ----<br>---- not --- ----- --- ---- ---- ------- ----- ---- -------<br>--- --- -- ----- -- --- ---- -- --- ---- -- ------ ------<br>--- ----- -- ----,61033.200000047684,61032.39999997616,60753.756,60753.5,60770.426,61037.156,,29,not
screen,html.Screen,0_2_0_1_30,2021-11-19T11:58:23.325Z,,,,,,,,,,,,,,,,53,,,,,,,,,,,,,,283.24399997615546,,response,,,99,,,,,,Space,keypress(Space),,,,,---- -- ----- -- ------ - ------- --- ----------<br>------------- ------ ------ ---- ---- ------- ----- -- ----<br>-------- ------- -- ---------- --- - --- ----- ----- ----<br>---- --- how ----- --- ---- ---- ------- ----- ---- -------<br>--- --- -- ----- -- --- ---- -- --- ---- -- ------ ------<br>--- ----- -- ----,61321.200000047684,61320.39999997616,61020.486,61033.5,61037.156,61337.239,,30,how
screen,html.Screen,0_2_0_1_31,2021-11-19T11:58:23.733Z,,,,,,,,,,,,,,,,53,,,,,,,,,,,,,,391.16099997615675,,response,,,99,,,,,,Space,keypress(Space),,,,,---- -- ----- -- ------ - ------- --- ----------<br>------------- ------ ------ ---- ---- ------- ----- -- ----<br>-------- ------- -- ---------- --- - --- ----- ----- ----<br>---- --- --- close --- ---- ---- ------- ----- ---- -------<br>--- --- -- ----- -- --- ---- -- --- ---- -- ------ ------<br>--- ----- -- ----,61729.200000047684,61728.39999997616,61320.569,61321.5,61337.239,61737.263,,31,close
screen,html.Screen,0_2_0_1_32,2021-11-19T11:58:24.117Z,,,,,,,,,,,,,,,,53,,,,,,,,,,,,,,375.13699997615913,,response,,,99,,,,,,Space,keypress(Space),,,,,---- -- ----- -- ------ - ------- --- ----------<br>------------- ------ ------ ---- ---- ------- ----- -- ----<br>-------- ------- -- ---------- --- - --- ----- ----- ----<br>---- --- --- ----- you ---- ---- ------- ----- ---- -------<br>--- --- -- ----- -- --- ---- -- --- ---- -- ------ ------<br>--- ----- -- ----,62113.300000071526,62112.39999997616,61720.594,61729.39999997616,61737.263,62120.851,,32,you
screen,html.Screen,0_2_0_1_33,2021-11-19T11:58:24.420Z,,,,,,,,,,,,,,,,53,,,,,,,,,,,,,,295.34900004768133,,response,,,99,,,,,,Space,keypress(Space),,,,,---- -- ----- -- ------ - ------- --- ----------<br>------------- ------ ------ ---- ---- ------- ----- -- ----<br>-------- ------- -- ---------- --- - --- ----- ----- ----<br>---- --- --- ----- --- feel ---- ------- ----- ---- -------<br>--- --- -- ----- -- --- ---- -- --- ---- -- ------ ------<br>--- ----- -- ----,62417.10000002384,62416.200000047684,62104.179,62113.5,62120.851,62420.83,,33,feel
screen,html.Screen,0_2_0_1_34,2021-11-19T11:58:24.757Z,,,,,,,,,,,,,,,,53,,,,,,,,,,,,,,331.66999999999825,,response,,,99,,,,,,Space,keypress(Space),,,,,---- -- ----- -- ------ - ------- --- ----------<br>------------- ------ ------ ---- ---- ------- ----- -- ----<br>-------- ------- -- ---------- --- - --- ----- ----- ----<br>---- --- --- ----- --- ---- that ------- ----- ---- -------<br>--- --- -- ----- -- --- ---- -- --- ---- -- ------ ------<br>--- ----- -- ----,62753.300000071526,62752.5,62404.16,62417.39999997616,62420.83,62754.3,,34,that
screen,html.Screen,0_2_0_1_35,2021-11-19T11:58:25.077Z,,,,,,,,,,,,,,,,53,,,,,,,,,,,,,,318.00000007152266,,response,,,99,,,,,,Space,keypress(Space),,,,,---- -- ----- -- ------ - ------- --- ----------<br>------------- ------ ------ ---- ---- ------- ----- -- ----<br>-------- ------- -- ---------- --- - --- ----- ----- ----<br>---- --- --- ----- --- ---- ---- matters ----- ---- -------<br>--- --- -- ----- -- --- ---- -- --- ---- -- ------ ------<br>--- ----- -- ----,63073.200000047684,63072.300000071526,62737.629,62753.5,62754.3,63087.725,,35,matters
screen,html.Screen,0_2_0_1_36,2021-11-19T11:58:25.421Z,,,,,,,,,,,,,,,,53,,,,,,,,,,,,,,328.47500004768517,,response,,,99,,,,,,Space,keypress(Space),,,,,"---- -- ----- -- ------ - ------- --- ----------<br>------------- ------ ------ ---- ---- ------- ----- -- ----<br>-------- ------- -- ---------- --- - --- ----- ----- ----<br>---- --- --- ----- --- ---- ---- ------- most, ---- -------<br>--- --- -- ----- -- --- ---- -- --- ---- -- ------ ------<br>--- ----- -- ----",63417.200000047684,63416.200000047684,63071.054,63073.39999997616,63087.725,63421.043,,36,"most,"
screen,html.Screen,0_2_0_1_37,2021-11-19T11:58:25.821Z,,,,,,,,,,,,,,,,53,,,,,,,,,,,,,,395.15700004768587,,response,,,99,,,,,,Space,keypress(Space),,,,,---- -- ----- -- ------ - ------- --- ----------<br>------------- ------ ------ ---- ---- ------- ----- -- ----<br>-------- ------- -- ---------- --- - --- ----- ----- ----<br>---- --- --- ----- --- ---- ---- ------- ----- it's -------<br>--- --- -- ----- -- --- ---- -- --- ---- -- ------ ------<br>--- ----- -- ----,63817.300000071526,63816.200000047684,63404.374,63417.5,63421.043,63821.25,,37,it's
screen,html.Screen,0_2_0_1_38,2021-11-19T11:58:26.125Z,,,,,,,,,,,,,,,,53,,,,,,,,,,,,,,299.35000002384186,,response,,,99,,,,,,Space,keypress(Space),,,,,---- -- ----- -- ------ - ------- --- ----------<br>------------- ------ ------ ---- ---- ------- ----- -- ----<br>-------- ------- -- ---------- --- - --- ----- ----- ----<br>---- --- --- ----- --- ---- ---- ------- ----- ---- whether<br>--- --- -- ----- -- --- ---- -- --- ---- -- ------ ------<br>--- ----- -- ----,64121.39999997616,64120.60000002384,63804.579,63817.5,63821.25,64137.996,,38,whether
screen,html.Screen,0_2_0_1_39,2021-11-19T11:58:26.468Z,,,,,,,,,,,,,,,,53,,,,,,,,,,,,,,326.20400004768453,,response,,,99,,,,,,Space,keypress(Space),,,,,---- -- ----- -- ------ - ------- --- ----------<br>------------- ------ ------ ---- ---- ------- ----- -- ----<br>-------- ------- -- ---------- --- - --- ----- ----- ----<br>---- --- --- ----- --- ---- ---- ------- ----- ---- -------<br>you --- -- ----- -- --- ---- -- --- ---- -- ------ ------<br>--- ----- -- ----,64464.89999997616,64464.200000047684,64121.325,64121.700000047684,64137.996,64471.321,,39,you
screen,html.Screen,0_2_0_1_40,2021-11-19T11:58:26.820Z,,,,,,,,,,,,,,,,53,,,,,,,,,,,,,,344.87900004768017,,response,,,99,,,,,,Space,keypress(Space),,,,,---- -- ----- -- ------ - ------- --- ----------<br>------------- ------ ------ ---- ---- ------- ----- -- ----<br>-------- ------- -- ---------- --- - --- ----- ----- ----<br>---- --- --- ----- --- ---- ---- ------- ----- ---- -------<br>--- are -- ----- -- --- ---- -- --- ---- -- ------ ------<br>--- ----- -- ----,64817,64816.200000047684,64454.652,64465.200000047684,64471.321,64821.502,,40,are
screen,html.Screen,0_2_0_1_41,2021-11-19T11:58:27.124Z,,,,,,,,,,,,,,,,53,,,,,,,,,,,,,,298.6980000476833,,response,,,99,,,,,,Space,keypress(Space),,,,,---- -- ----- -- ------ - ------- --- ----------<br>------------- ------ ------ ---- ---- ------- ----- -- ----<br>-------- ------- -- ---------- --- - --- ----- ----- ----<br>---- --- --- ----- --- ---- ---- ------- ----- ---- -------<br>--- --- as ----- -- --- ---- -- --- ---- -- ------ ------<br>--- ----- -- ----,65121,65120.200000047684,64804.831,64817.200000047684,64821.502,65138.257,,41,as
screen,html.Screen,0_2_0_1_42,2021-11-19T11:58:27.644Z,,,,,,,,,,,,,,,,53,,,,,,,,,,,,,,501.84300002384407,,response,,,99,,,,,,Space,keypress(Space),,,,,---- -- ----- -- ------ - ------- --- ----------<br>------------- ------ ------ ---- ---- ------- ----- -- ----<br>-------- ------- -- ---------- --- - --- ----- ----- ----<br>---- --- --- ----- --- ---- ---- ------- ----- ---- -------<br>--- --- -- close -- --- ---- -- --- ---- -- ------ ------<br>--- ----- -- ----,65640.89999997616,65640.10000002384,65121.586,65121.200000047684,65138.257,65654.862,,42,close
screen,html.Screen,0_2_0_1_43,2021-11-19T11:58:27.972Z,,,,,,,,,,,,,,,,53,,,,,,,,,,,,,,313.23800002384814,,response,,,99,,,,,,Space,keypress(Space),,,,,---- -- ----- -- ------ - ------- --- ----------<br>------------- ------ ------ ---- ---- ------- ----- -- ----<br>-------- ------- -- ---------- --- - --- ----- ----- ----<br>---- --- --- ----- --- ---- ---- ------- ----- ---- -------<br>--- --- -- ----- as --- ---- -- --- ---- -- ------ ------<br>--- ----- -- ----,65968.89999997616,65968.10000002384,65638.194,65641.20000004768,65654.862,65971.861,,43,as
screen,html.Screen,0_2_0_1_44,2021-11-19T11:58:28.308Z,,,,,,,,,,,,,,,,53,,,,,,,,,,,,,,332.3390000476793,,response,,,99,,,,,,Space,keypress(Space),,,,,---- -- ----- -- ------ - ------- --- ----------<br>------------- ------ ------ ---- ---- ------- ----- -- ----<br>-------- ------- -- ---------- --- - --- ----- ----- ----<br>---- --- --- ----- --- ---- ---- ------- ----- ---- -------<br>--- --- -- ----- -- you ---- -- --- ---- -- ------ ------<br>--- ----- -- ----,66304.89999997616,66304.20000004768,65955.189,65969.20000004768,65971.861,66321.886,,44,you
screen,html.Screen,0_2_0_1_45,2021-11-19T11:58:28.676Z,,,,,,,,,,,,,,,,53,,,,,,,,,,,,,,350.21400002384325,,response,,,99,,,,,,Space,keypress(Space),,,,,---- -- ----- -- ------ - ------- --- ----------<br>------------- ------ ------ ---- ---- ------- ----- -- ----<br>-------- ------- -- ---------- --- - --- ----- ----- ----<br>---- --- --- ----- --- ---- ---- ------- ----- ---- -------<br>--- --- -- ----- -- --- want -- --- ---- -- ------ ------<br>--- ----- -- ----,66673,66672.10000002384,66305.215,66305.20000004768,66321.886,66688.611,,45,want
screen,html.Screen,0_2_0_1_46,2021-11-19T11:58:29.012Z,,,,,,,,,,,,,,,,53,,,,,,,,,,,,,,319.48900002383743,,response,,,99,,,,,,Space,keypress(Space),,,,,---- -- ----- -- ------ - ------- --- ----------<br>------------- ------ ------ ---- ---- ------- ----- -- ----<br>-------- ------- -- ---------- --- - --- ----- ----- ----<br>---- --- --- ----- --- ---- ---- ------- ----- ---- -------<br>--- --- -- ----- -- --- ---- to --- ---- -- ------ ------<br>--- ----- -- ----,67008.89999997616,67008.10000002384,66671.941,66673.20000004768,66688.611,67021.903,,46,to
screen,html.Screen,0_2_0_1_47,2021-11-19T11:58:29.356Z,,,,,,,,,,,,,,,,53,,,,,,,,,,,,,,330.19700002383615,,response,,,99,,,,,,Space,keypress(Space),,,,,"---- -- ----- -- ------ - ------- --- ----------<br>------------- ------ ------ ---- ---- ------- ----- -- ----<br>-------- ------- -- ---------- --- - --- ----- ----- ----<br>---- --- --- ----- --- ---- ---- ------- ----- ---- -------<br>--- --- -- ----- -- --- ---- -- be, ---- -- ------ ------<br>--- ----- -- ----",67352.80000007153,67352.10000002384,67005.235,67009.20000004768,67021.903,67355.567,,47,"be,"
screen,html.Screen,0_2_0_1_48,2021-11-19T11:58:29.692Z,,,,,,,,,,,,,,,,53,,,,,,,,,,,,,,332.43300000000454,,response,,,99,,,,,,Space,keypress(Space),,,,,---- -- ----- -- ------ - ------- --- ----------<br>------------- ------ ------ ---- ---- ------- ----- -- ----<br>-------- ------- -- ---------- --- - --- ----- ----- ----<br>---- --- --- ----- --- ---- ---- ------- ----- ---- -------<br>--- --- -- ----- -- --- ---- -- --- even -- ------ ------<br>--- ----- -- ----,67688.89999997616,67688,67338.894,67353.10000002384,67355.567,67705.421,,48,even
screen,html.Screen,0_2_0_1_49,2021-11-19T11:58:30.068Z,,,,,,,,,,,,,,,,53,,,,,,,,,,,,,,358.67900002383976,,response,,,99,,,,,,Space,keypress(Space),,,,,---- -- ----- -- ------ - ------- --- ----------<br>------------- ------ ------ ---- ---- ------- ----- -- ----<br>-------- ------- -- ---------- --- - --- ----- ----- ----<br>---- --- --- ----- --- ---- ---- ------- ----- ---- -------<br>--- --- -- ----- -- --- ---- -- --- ---- if ------ ------<br>--- ----- -- ----,68064.89999997616,68064.10000002384,67688.753,67689.20000004768,67705.421,68072.371,,49,if
screen,html.Screen,0_2_0_1_50,2021-11-19T11:58:30.452Z,,,,,,,,,,,,,,,,53,,,,,,,,,,,,,,375.6290000000008,,response,,,99,,,,,,Space,keypress(Space),,,,,---- -- ----- -- ------ - ------- --- ----------<br>------------- ------ ------ ---- ---- ------- ----- -- ----<br>-------- ------- -- ---------- --- - --- ----- ----- ----<br>---- --- --- ----- --- ---- ---- ------- ----- ---- -------<br>--- --- -- ----- -- --- ---- -- --- ---- -- that's ------<br>--- ----- -- ----,68448.80000007153,68448,68055.699,68065,68072.371,68455.767,,50,that's
screen,html.Screen,0_2_0_1_51,2021-11-19T11:58:30.884Z,,,,,,,,,,,,,,,,53,,,,,,,,,,,,,,424.2329999999929,,response,,,99,,,,,,Space,keypress(Space),,,,,---- -- ----- -- ------ - ------- --- ----------<br>------------- ------ ------ ---- ---- ------- ----- -- ----<br>-------- ------- -- ---------- --- - --- ----- ----- ----<br>---- --- --- ----- --- ---- ---- ------- ----- ---- -------<br>--- --- -- ----- -- --- ---- -- --- ---- -- ------ really<br>--- ----- -- ----,68880.80000007153,68880,68439.096,68449,68455.767,68889.1,,51,really
screen,html.Screen,0_2_0_1_52,2021-11-19T11:58:31.324Z,,,,,,,,,,,,,,,,53,,,,,,,,,,,,,,430.8999999999942,,response,,,99,,,,,,Space,keypress(Space),,,,,---- -- ----- -- ------ - ------- --- ----------<br>------------- ------ ------ ---- ---- ------- ----- -- ----<br>-------- ------- -- ---------- --- - --- ----- ----- ----<br>---- --- --- ----- --- ---- ---- ------- ----- ---- -------<br>--- --- -- ----- -- --- ---- -- --- ---- -- ------ ------<br>not ----- -- ----,69320.80000007153,69320,68872.431,68881,68889.1,69322.654,,52,not
screen,html.Screen,0_2_0_1_53,2021-11-19T11:58:31.684Z,,,,,,,,,,,,,,,,53,,,,,,,,,,,,,,357.24599997616315,,response,,,99,,,,,,Space,keypress(Space),,,,,---- -- ----- -- ------ - ------- --- ----------<br>------------- ------ ------ ---- ---- ------- ----- -- ----<br>-------- ------- -- ---------- --- - --- ----- ----- ----<br>---- --- --- ----- --- ---- ---- ------- ----- ---- -------<br>--- --- -- ----- -- --- ---- -- --- ---- -- ------ ------<br>--- close -- ----,69680.80000007153,69679.89999997616,69305.983,69321.10000002384,69322.654,69689.278,,53,close
screen,html.Screen,0_2_0_1_54,2021-11-19T11:58:31.980Z,,,,,,,,,,,,,,,,53,,,,,,,,,,,,,,286.62199997615244,,response,,,99,,,,,,Space,keypress(Space),,,,,---- -- ----- -- ------ - ------- --- ----------<br>------------- ------ ------ ---- ---- ------- ----- -- ----<br>-------- ------- -- ---------- --- - --- ----- ----- ----<br>---- --- --- ----- --- ---- ---- ------- ----- ---- -------<br>--- --- -- ----- -- --- ---- -- --- ---- -- ------ ------<br>--- ----- at ----,69976.70000004768,69975.89999997616,69672.609,69681,69689.278,69989.524,,54,at
screen,html.Screen,0_2_0_1_55,2021-11-19T11:58:32.276Z,,,,,,,,,,,,,,,,53,,,,,,,,,,,,,,282.37599997615325,,response,,,99,,,,,,Space,keypress(Space),,,,,---- -- ----- -- ------ - ------- --- ----------<br>------------- ------ ------ ---- ---- ------- ----- -- ----<br>-------- ------- -- ---------- --- - --- ----- ----- ----<br>---- --- --- ----- --- ---- ---- ------- ----- ---- -------<br>--- --- -- ----- -- --- ---- -- --- ---- -- ------ ------<br>--- ----- -- all.,70272.70000004768,70271.89999997616,69972.852,69977,69989.524,70289.545,,55,all.
Item 99,flow.Loop,0_2_0_1,2021-11-19T11:58:32.281Z,,,,,,,,,,,,,,,,,,,,,,,,,,,,,,21804.796999976155,,completion,,,,F,,,,,,,,,,silence,,70277.30000007153,70271.89999997616,48433.763,48441.700000047684,48467.103,70289.545,,,
Question 1,html.Screen,0_2_0_2,2021-11-19T11:58:37.278Z,,,,,,,,,,,,,,,,,,,,,,,,,,,true,FALSE,,4983.35499997616,,response,,,99,F,,,,,FALSE,click #choice-2,,,,silence,,75274.20000004768,75272.89999997616,70272.875,70277.60000002384,70289.545,75274.203,,,
Question 2,html.Screen,0_2_0_3,2021-11-19T11:58:40.930Z,,,,,,,,,,,,,,,,,,,,,,,,,,,true,TRUE,,3651.4970000476897,,response,,,99,F,,,,,TRUE,click #choice-1,,,,silence,,78927,78925.70000004768,75257.531,75274.60000002384,75274.203,78941.753,,,
Item 99,flow.Sequence,0_2_0,2021-11-19T11:58:40.931Z,,,,,,,,,,,,,,,,,,,,,,,,,,,,,,40477.64800004768,,completion,,,,,,,,,,,,,,,,78927.39999997616,78925.70000004768,38431.379,38442.89999997616,38448.052,78941.753,,,
Holding screen,html.Screen,0_2_1_0,2021-11-19T11:58:50.932Z,,,,,,,,,,,,,,,,,,,,,,,,,,,,,,10002.438999999998,,timeout,,,,,,,,,,,,,,,,88928.39999997616,88927.522,78925.083,78927.70000004768,78941.753,88944.192,,,
screen,html.Screen,0_2_1_1_0,2021-11-19T11:58:51.748Z,,,,,,,,,,,,,,,,54,,,,,,,,,,,,,,799.5080000476883,,response,,,100,,,,,,Space,keypress(Space),,,,,At --- ---- --- ------ ----- ------- ---- -- --- ------- --<br>------- ---------- ------ -- ----- -- ----- -- ---- ------<br>--- ----- --- --- ------ -------- ----- --- ------ ----- --<br>----- ----- ---------- --- --- ------ ------ ---- -- ------<br>------- --- ------ ----- --- ---- ------- -- ---- --- --<br>------- ------,89744.5,89743.70000004768,88927.522,88928.89999997616,88944.192,89761.218,,0,At
screen,html.Screen,0_2_1_1_1,2021-11-19T11:58:52.131Z,,,,,,,,,,,,,,,,54,,,,,,,,,,,,,,365.5820000715321,,response,,,100,,,,,,Space,keypress(Space),,,,,-- the ---- --- ------ ----- ------- ---- -- --- ------- --<br>------- ---------- ------ -- ----- -- ----- -- ---- ------<br>--- ----- --- --- ------ -------- ----- --- ------ ----- --<br>----- ----- ---------- --- --- ------ ------ ---- -- ------<br>------- --- ------ ----- --- ---- ------- -- ---- --- --<br>------- ------,90127.70000004768,90126.80000007153,89744.547,89744.80000007153,89761.218,90144.698,,1,the
screen,html.Screen,0_2_1_1_2,2021-11-19T11:58:52.427Z,,,,,,,,,,,,,,,,54,,,,,,,,,,,,,,278.1020000715216,,response,,,100,,,,,,Space,keypress(Space),,,,,-- --- time --- ------ ----- ------- ---- -- --- ------- --<br>------- ---------- ------ -- ----- -- ----- -- ---- ------<br>--- ----- --- --- ------ -------- ----- --- ------ ----- --<br>----- ----- ---------- --- --- ------ ------ ---- -- ------<br>------- --- ------ ----- --- ---- ------- -- ---- --- --<br>------- ------,90423.60000002384,90422.80000007153,90128.027,90127.89999997616,90144.698,90428.061,,2,time
screen,html.Screen,0_2_1_1_3,2021-11-19T11:58:52.699Z,,,,,,,,,,,,,,,,54,,,,,,,,,,,,,,266.83899997615663,,response,,,100,,,,,,Space,keypress(Space),,,,,-- --- ---- the ------ ----- ------- ---- -- --- ------- --<br>------- ---------- ------ -- ----- -- ----- -- ---- ------<br>--- ----- --- --- ------ -------- ----- --- ------ ----- --<br>----- ----- ---------- --- --- ------ ------ ---- -- ------<br>------- --- ------ ----- --- ---- ------- -- ---- --- --<br>------- ------,90695.60000002384,90694.89999997616,90411.391,90423.80000007153,90428.061,90711.471,,3,the
screen,html.Screen,0_2_1_1_4,2021-11-19T11:58:53.115Z,,,,,,,,,,,,,,,,54,,,,,,,,,,,,,,399.32900007152057,,response,,,100,,,,,,Space,keypress(Space),,,,,-- --- ---- --- French ----- ------- ---- -- --- ------- --<br>------- ---------- ------ -- ----- -- ----- -- ---- ------<br>--- ----- --- --- ------ -------- ----- --- ------ ----- --<br>----- ----- ---------- --- --- ------ ------ ---- -- ------<br>------- --- ------ ----- --- ---- ------- -- ---- --- --<br>------- ------,91111.60000002384,91110.80000007153,90694.801,90695.89999997616,90711.471,91128.227,,4,French
screen,html.Screen,0_2_1_1_5,2021-11-19T11:58:53.427Z,,,,,,,,,,,,,,,,54,,,,,,,,,,,,,,294.47300004768476,,response,,,100,,,,,,Space,keypress(Space),,,,,-- --- ---- --- ------ crown ------- ---- -- --- ------- --<br>------- ---------- ------ -- ----- -- ----- -- ---- ------<br>--- ----- --- --- ------ -------- ----- --- ------ ----- --<br>----- ----- ---------- --- --- ------ ------ ---- -- ------<br>------- --- ------ ----- --- ---- ------- -- ---- --- --<br>------- ------,91423.60000002384,91422.70000004768,91111.557,91111.80000007153,91128.227,91428.314,,5,crown
screen,html.Screen,0_2_1_1_6,2021-11-19T11:58:53.731Z,,,,,,,,,,,,,,,,54,,,,,,,,,,,,,,298.38600004768523,,response,,,100,,,,,,Space,keypress(Space),,,,,-- --- ---- --- ------ ----- secured ---- -- --- ------- --<br>------- ---------- ------ -- ----- -- ----- -- ---- ------<br>--- ----- --- --- ------ -------- ----- --- ------ ----- --<br>----- ----- ---------- --- --- ------ ------ ---- -- ------<br>------- --- ------ ----- --- ---- ------- -- ---- --- --<br>------- ------,91727.60000002384,91726.70000004768,91411.644,91423.89999997616,91428.314,91745.063,,6,secured
screen,html.Screen,0_2_1_1_7,2021-11-19T11:58:54.139Z,,,,,,,,,,,,,,,,54,,,,,,,,,,,,,,389.63700004768907,,response,,,100,,,,,,Space,keypress(Space),,,,,-- --- ---- --- ------ ----- ------- much -- --- ------- --<br>------- ---------- ------ -- ----- -- ----- -- ---- ------<br>--- ----- --- --- ------ -------- ----- --- ------ ----- --<br>----- ----- ---------- --- --- ------ ------ ---- -- ------<br>------- --- ------ ----- --- ---- ------- -- ---- --- --<br>------- ------,92135.60000002384,92134.70000004768,91728.393,91727.70000004768,91745.063,92145.159,,7,much
screen,html.Screen,0_2_1_1_8,2021-11-19T11:58:54.475Z,,,,,,,,,,,,,,,,54,,,,,,,,,,,,,,325.54100004768407,,response,,,100,,,,,,Space,keypress(Space),,,,,-- --- ---- --- ------ ----- ------- ---- of --- ------- --<br>------- ---------- ------ -- ----- -- ----- -- ---- ------<br>--- ----- --- --- ------ -------- ----- --- ------ ----- --<br>----- ----- ---------- --- --- ------ ------ ---- -- ------<br>------- --- ------ ----- --- ---- ------- -- ---- --- --<br>------- ------,92471.5,92470.70000004768,92128.489,92135.80000007153,92145.159,92478.58,,8,of
screen,html.Screen,0_2_1_1_9,2021-11-19T11:58:54.779Z,,,,,,,,,,,,,,,,54,,,,,,,,,,,,,,296.12000004768197,,response,,,100,,,,,,Space,keypress(Space),,,,,-- --- ---- --- ------ ----- ------- ---- -- its ------- --<br>------- ---------- ------ -- ----- -- ----- -- ---- ------<br>--- ----- --- --- ------ -------- ----- --- ------ ----- --<br>----- ----- ---------- --- --- ------ ------ ---- -- ------<br>------- --- ------ ----- --- ---- ------- -- ---- --- --<br>------- ------,92775.5,92774.70000004768,92461.91,92471.80000007153,92478.58,92778.692,,9,its
screen,html.Screen,0_2_1_1_10,2021-11-19T11:58:55.067Z,,,,,,,,,,,,,,,,54,,,,,,,,,,,,,,284.00800004768826,,response,,,100,,,,,,Space,keypress(Space),,,,,-- --- ---- --- ------ ----- ------- ---- -- --- revenue --<br>------- ---------- ------ -- ----- -- ----- -- ---- ------<br>--- ----- --- --- ------ -------- ----- --- ------ ----- --<br>----- ----- ---------- --- --- ------ ------ ---- -- ------<br>------- --- ------ ----- --- ---- ------- -- ---- --- --<br>------- ------,93063.39999997616,93062.70000004768,92762.021,92775.70000004768,92778.692,93078.753,,10,revenue
screen,html.Screen,0_2_1_1_11,2021-11-19T11:58:55.539Z,,,,,,,,,,,,,,,,54,,,,,,,,,,,,,,455.94700004768674,,response,,,100,,,,,,Space,keypress(Space),,,,,-- --- ---- --- ------ ----- ------- ---- -- --- ------- by<br>------- ---------- ------ -- ----- -- ----- -- ---- ------<br>--- ----- --- --- ------ -------- ----- --- ------ ----- --<br>----- ----- ---------- --- --- ------ ------ ---- -- ------<br>------- --- ------ ----- --- ---- ------- -- ---- --- --<br>------- ------,93535.5,93534.70000004768,93062.083,93063.70000004768,93078.753,93545.52,,11,by
screen,html.Screen,0_2_1_1_12,2021-11-19T11:58:55.851Z,,,,,,,,,,,,,,,,54,,,,,,,,,,,,,,301.0800000238378,,response,,,100,,,,,,Space,keypress(Space),,,,,-- --- ---- --- ------ ----- ------- ---- -- --- ------- --<br>issuing ---------- ------ -- ----- -- ----- -- ---- ------<br>--- ----- --- --- ------ -------- ----- --- ------ ----- --<br>----- ----- ---------- --- --- ------ ------ ---- -- ------<br>------- --- ------ ----- --- ---- ------- -- ---- --- --<br>------- ------,93847.39999997616,93846.60000002384,93528.85,93535.70000004768,93545.52,93862.267,,12,issuing
screen,html.Screen,0_2_1_1_13,2021-11-19T11:58:56.251Z,,,,,,,,,,,,,,,,54,,,,,,,,,,,,,,384.33300002383476,,response,,,100,,,,,,Space,keypress(Space),,,,,-- --- ---- --- ------ ----- ------- ---- -- --- ------- --<br>------- government ------ -- ----- -- ----- -- ---- ------<br>--- ----- --- --- ------ -------- ----- --- ------ ----- --<br>----- ----- ---------- --- --- ------ ------ ---- -- ------<br>------- --- ------ ----- --- ---- ------- -- ---- --- --<br>------- ------,94247.39999997616,94246.60000002384,93845.597,93847.70000004768,93862.267,94262.378,,13,government
screen,html.Screen,0_2_1_1_14,2021-11-19T11:58:56.779Z,,,,,,,,,,,,,,,,54,,,,,,,,,,,,,,512.122000000003,,response,,,100,,,,,,Space,keypress(Space),,,,,-- --- ---- --- ------ ----- ------- ---- -- --- ------- --<br>------- ---------- bonds. -- ----- -- ----- -- ---- ------<br>--- ----- --- --- ------ -------- ----- --- ------ ----- --<br>----- ----- ---------- --- --- ------ ------ ---- -- ------<br>------- --- ------ ----- --- ---- ------- -- ---- --- --<br>------- ------,94775.39999997616,94774.5,94245.708,94247.60000002384,94262.378,94779.159,,14,bonds.
screen,html.Screen,0_2_1_1_15,2021-11-19T11:58:57.347Z,,,,,,,,,,,,,,,,54,,,,,,,,,,,,,,563.3410000000003,,response,,,100,,,,,,Space,keypress(Space),,,,,-- --- ---- --- ------ ----- ------- ---- -- --- ------- --<br>------- ---------- ------ In ----- -- ----- -- ---- ------<br>--- ----- --- --- ------ -------- ----- --- ------ ----- --<br>----- ----- ---------- --- --- ------ ------ ---- -- ------<br>------- --- ------ ----- --- ---- ------- -- ---- --- --<br>------- ------,95343.30000007153,95342.5,94762.489,94775.60000002384,94779.159,95345.977,,15,In
screen,html.Screen,0_2_1_1_16,2021-11-19T11:58:57.811Z,,,,,,,,,,,,,,,,54,,,,,,,,,,,,,,460.52300000000105,,response,,,100,,,,,,Space,keypress(Space),,,,,"-- --- ---- --- ------ ----- ------- ---- -- --- ------- --<br>------- ---------- ------ -- 1727, -- ----- -- ---- ------<br>--- ----- --- --- ------ -------- ----- --- ------ ----- --<br>----- ----- ---------- --- --- ------ ------ ---- -- ------<br>------- --- ------ ----- --- ---- ------- -- ---- --- --<br>------- ------",95807.30000007153,95806.5,95329.307,95343.70000004768,95345.977,95812.772,,16,"1727,"
screen,html.Screen,0_2_1_1_17,2021-11-19T11:58:59.699Z,,,,,,,,,,,,,,,,54,,,,,,,,,,,,,,1881.7280000000028,,response,,,100,,,,,,Space,keypress(Space),,,,,-- --- ---- --- ------ ----- ------- ---- -- --- ------- --<br>------- ---------- ------ -- ----- in ----- -- ---- ------<br>--- ----- --- --- ------ -------- ----- --- ------ ----- --<br>----- ----- ---------- --- --- ------ ------ ---- -- ------<br>------- --- ------ ----- --- ---- ------- -- ---- --- --<br>------- ------,97695.20000004768,97694.5,95796.102,95807.5,95812.772,97696.509,,17,in
screen,html.Screen,0_2_1_1_18,2021-11-19T11:59:00.139Z,,,,,,,,,,,,,,,,54,,,,,,,,,,,,,,437.7910000715201,,response,,,100,,,,,,Space,keypress(Space),,,,,-- --- ---- --- ------ ----- ------- ---- -- --- ------- --<br>------- ---------- ------ -- ----- -- order -- ---- ------<br>--- ----- --- --- ------ -------- ----- --- ------ ----- --<br>----- ----- ---------- --- --- ------ ------ ---- -- ------<br>------- --- ------ ----- --- ---- ------- -- ---- --- --<br>------- ------,98135.20000004768,98134.30000007153,97679.839,97695.39999997616,97696.509,98146.665,,18,order
screen,html.Screen,0_2_1_1_19,2021-11-19T11:59:00.499Z,,,,,,,,,,,,,,,,54,,,,,,,,,,,,,,347.73499997616454,,response,,,100,,,,,,Space,keypress(Space),,,,,-- --- ---- --- ------ ----- ------- ---- -- --- ------- --<br>------- ---------- ------ -- ----- -- ----- to ---- ------<br>--- ----- --- --- ------ -------- ----- --- ------ ----- --<br>----- ----- ---------- --- --- ------ ------ ---- -- ------<br>------- --- ------ ----- --- ---- ------- -- ---- --- --<br>------- ------,98495.30000007153,98494.39999997616,98129.995,98135.5,98146.665,98496.734,,19,to
screen,html.Screen,0_2_1_1_20,2021-11-19T11:59:00.779Z,,,,,,,,,,,,,,,,54,,,,,,,,,,,,,,277.56600007152883,,response,,,100,,,,,,Space,keypress(Space),,,,,-- --- ---- --- ------ ----- ------- ---- -- --- ------- --<br>------- ---------- ------ -- ----- -- ----- -- save ------<br>--- ----- --- --- ------ -------- ----- --- ------ ----- --<br>----- ----- ---------- --- --- ------ ------ ---- -- ------<br>------- --- ------ ----- --- ---- ------- -- ---- --- --<br>------- ------,98775.10000002384,98774.30000007153,98480.064,98495.60000002384,98496.734,98780.33,,20,save
screen,html.Screen,0_2_1_1_21,2021-11-19T11:59:01.090Z,,,,,,,,,,,,,,,,54,,,,,,,,,,,,,,305.5699999761564,,response,,,100,,,,,,Space,keypress(Space),,,,,"-- --- ---- --- ------ ----- ------- ---- -- --- ------- --<br>------- ---------- ------ -- ----- -- ----- -- ---- money,<br>--- ----- --- --- ------ -------- ----- --- ------ ----- --<br>----- ----- ---------- --- --- ------ ------ ---- -- ------<br>------- --- ------ ----- --- ---- ------- -- ---- --- --<br>------- ------",99086.30000007153,99085.89999997616,98763.657,98775.5,98780.33,99096.965,,21,"money,"
screen,html.Screen,0_2_1_1_22,2021-11-19T11:59:01.586Z,,,,,,,,,,,,,,,,54,,,,,,,,,,,,,,485.0350000000035,,response,,,100,,,,,,Space,keypress(Space),,,,,-- --- ---- --- ------ ----- ------- ---- -- --- ------- --<br>------- ---------- ------ -- ----- -- ----- -- ---- ------<br>the ----- --- --- ------ -------- ----- --- ------ ----- --<br>----- ----- ---------- --- --- ------ ------ ---- -- ------<br>------- --- ------ ----- --- ---- ------- -- ---- --- --<br>------- ------,99582.30000007153,99582,99080.295,99086.5,99096.965,99596.941,,22,the
screen,html.Screen,0_2_1_1_23,2021-11-19T11:59:01.931Z,,,,,,,,,,,,,,,,54,,,,,,,,,,,,,,329.75900004767755,,response,,,100,,,,,,Space,keypress(Space),,,,,-- --- ---- --- ------ ----- ------- ---- -- --- ------- --<br>------- ---------- ------ -- ----- -- ----- -- ---- ------<br>--- state --- --- ------ -------- ----- --- ------ ----- --<br>----- ----- ---------- --- --- ------ ------ ---- -- ------<br>------- --- ------ ----- --- ---- ------- -- ---- --- --<br>------- ------,99927.5,99926.70000004768,99580.273,99582.39999997616,99596.941,99930.367,,23,state
screen,html.Screen,0_2_1_1_24,2021-11-19T11:59:02.258Z,,,,,,,,,,,,,,,,54,,,,,,,,,,,,,,323.7330000238435,,response,,,100,,,,,,Space,keypress(Space),,,,,-- --- ---- --- ------ ----- ------- ---- -- --- ------- --<br>------- ---------- ------ -- ----- -- ----- -- ---- ------<br>--- ----- cut --- ------ -------- ----- --- ------ ----- --<br>----- ----- ---------- --- --- ------ ------ ---- -- ------<br>------- --- ------ ----- --- ---- ------- -- ---- --- --<br>------- ------,100255.10000002384,100254.10000002384,99913.698,99927.70000004768,99930.367,100264.03,,24,cut
screen,html.Screen,0_2_1_1_25,2021-11-19T11:59:02.658Z,,,,,,,,,,,,,,,,54,,,,,,,,,,,,,,390.1700000476849,,response,,,100,,,,,,Space,keypress(Space),,,,,-- --- ---- --- ------ ----- ------- ---- -- --- ------- --<br>------- ---------- ------ -- ----- -- ----- -- ---- ------<br>--- ----- --- the ------ -------- ----- --- ------ ----- --<br>----- ----- ---------- --- --- ------ ------ ---- -- ------<br>------- --- ------ ----- --- ---- ------- -- ---- --- --<br>------- ------,100655,100654.20000004768,100247.357,100255.30000007153,100264.03,100664.007,,25,the
screen,html.Screen,0_2_1_1_26,2021-11-19T11:59:03.090Z,,,,,,,,,,,,,,,,54,,,,,,,,,,,,,,422.2930000715278,,response,,,100,,,,,,Space,keypress(Space),,,,,-- --- ---- --- ------ ----- ------- ---- -- --- ------- --<br>------- ---------- ------ -- ----- -- ----- -- ---- ------<br>--- ----- --- --- bonds' -------- ----- --- ------ ----- --<br>----- ----- ---------- --- --- ------ ------ ---- -- ------<br>------- --- ------ ----- --- ---- ------- -- ---- --- --<br>------- ------,101087,101086.30000007153,100647.337,100655.20000004768,100664.007,101097.447,,26,bonds'
screen,html.Screen,0_2_1_1_27,2021-11-19T11:59:03.457Z,,,,,,,,,,,,,,,,54,,,,,,,,,,,,,,356.2530000476836,,response,,,100,,,,,,Space,keypress(Space),,,,,-- --- ---- --- ------ ----- ------- ---- -- --- ------- --<br>------- ---------- ------ -- ----- -- ----- -- ---- ------<br>--- ----- --- --- ------ interest ----- --- ------ ----- --<br>----- ----- ---------- --- --- ------ ------ ---- -- ------<br>------- --- ------ ----- --- ---- ------- -- ---- --- --<br>------- ------,101454,101453.70000004768,101080.777,101087.20000004768,101097.447,101464.234,,27,interest
screen,html.Screen,0_2_1_1_28,2021-11-19T11:59:03.778Z,,,,,,,,,,,,,,,,54,,,,,,,,,,,,,,309.8660000238451,,response,,,100,,,,,,Space,keypress(Space),,,,,-- --- ---- --- ------ ----- ------- ---- -- --- ------- --<br>------- ---------- ------ -- ----- -- ----- -- ---- ------<br>--- ----- --- --- ------ -------- rate. --- ------ ----- --<br>----- ----- ---------- --- --- ------ ------ ---- -- ------<br>------- --- ------ ----- --- ---- ------- -- ---- --- --<br>------- ------,101775,101774.10000002384,101447.564,101454.10000002384,101464.234,101780.948,,28,rate.
screen,html.Screen,0_2_1_1_29,2021-11-19T11:59:04.186Z,,,,,,,,,,,,,,,,54,,,,,,,,,,,,,,401.1520000238379,,response,,,100,,,,,,Space,keypress(Space),,,,,-- --- ---- --- ------ ----- ------- ---- -- --- ------- --<br>------- ---------- ------ -- ----- -- ----- -- ---- ------<br>--- ----- --- --- ------ -------- ----- The ------ ----- --<br>----- ----- ---------- --- --- ------ ------ ---- -- ------<br>------- --- ------ ----- --- ---- ------- -- ---- --- --<br>------- ------,102183,102182.10000002384,101764.278,101775.20000004768,101780.948,102197.594,,29,The
screen,html.Screen,0_2_1_1_30,2021-11-19T11:59:04.490Z,,,,,,,,,,,,,,,,54,,,,,,,,,,,,,,288.4060000000027,,response,,,100,,,,,,Space,keypress(Space),,,,,-- --- ---- --- ------ ----- ------- ---- -- --- ------- --<br>------- ---------- ------ -- ----- -- ----- -- ---- ------<br>--- ----- --- --- ------ -------- ----- --- market ----- --<br>----- ----- ---------- --- --- ------ ------ ---- -- ------<br>------- --- ------ ----- --- ---- ------- -- ---- --- --<br>------- ------,102486.89999997616,102486,102180.926,102183.20000004768,102197.594,102497.945,,30,market
screen,html.Screen,0_2_1_1_31,2021-11-19T11:59:04.794Z,,,,,,,,,,,,,,,,54,,,,,,,,,,,,,,292.1550000238349,,response,,,100,,,,,,Space,keypress(Space),,,,,-- --- ---- --- ------ ----- ------- ---- -- --- ------- --<br>------- ---------- ------ -- ----- -- ----- -- ---- ------<br>--- ----- --- --- ------ -------- ----- --- ------ value --<br>----- ----- ---------- --- --- ------ ------ ---- -- ------<br>------- --- ------ ----- --- ---- ------- -- ---- --- --<br>------- ------,102790.89999997616,102790.10000002384,102481.272,102487.10000002384,102497.945,102797.906,,31,value
screen,html.Screen,0_2_1_1_32,2021-11-19T11:59:05.210Z,,,,,,,,,,,,,,,,54,,,,,,,,,,,,,,408.1940000238392,,response,,,100,,,,,,Space,keypress(Space),,,,,-- --- ---- --- ------ ----- ------- ---- -- --- ------- --<br>------- ---------- ------ -- ----- -- ----- -- ---- ------<br>--- ----- --- --- ------ -------- ----- --- ------ ----- of<br>----- ----- ---------- --- --- ------ ------ ---- -- ------<br>------- --- ------ ----- --- ---- ------- -- ---- --- --<br>------- ------,103206.89999997616,103206.10000002384,102781.236,102791.20000004768,102797.906,103214.527,,32,of
screen,html.Screen,0_2_1_1_33,2021-11-19T11:59:05.522Z,,,,,,,,,,,,,,,,54,,,,,,,,,,,,,,303.3729999761563,,response,,,100,,,,,,Space,keypress(Space),,,,,-- --- ---- --- ------ ----- ------- ---- -- --- ------- --<br>------- ---------- ------ -- ----- -- ----- -- ---- ------<br>--- ----- --- --- ------ -------- ----- --- ------ ----- --<br>these ----- ---------- --- --- ------ ------ ---- -- ------<br>------- --- ------ ----- --- ---- ------- -- ---- --- --<br>------- ------,103518.30000007153,103517.89999997616,103197.859,103207.20000004768,103214.527,103531.357,,33,these
screen,html.Screen,0_2_1_1_34,2021-11-19T11:59:05.866Z,,,,,,,,,,,,,,,,54,,,,,,,,,,,,,,330.74300002383825,,response,,,100,,,,,,Space,keypress(Space),,,,,-- --- ---- --- ------ ----- ------- ---- -- --- ------- --<br>------- ---------- ------ -- ----- -- ----- -- ---- ------<br>--- ----- --- --- ------ -------- ----- --- ------ ----- --<br>----- bonds ---------- --- --- ------ ------ ---- -- ------<br>------- --- ------ ----- --- ---- ------- -- ---- --- --<br>------- ------,103862.80000007153,103862.10000002384,103514.687,103518.5,103531.357,103864.956,,34,bonds
screen,html.Screen,0_2_1_1_35,2021-11-19T11:59:06.201Z,,,,,,,,,,,,,,,,54,,,,,,,,,,,,,,332.64400002383627,,response,,,100,,,,,,Space,keypress(Space),,,,,"-- --- ---- --- ------ ----- ------- ---- -- --- ------- --<br>------- ---------- ------ -- ----- -- ----- -- ---- ------<br>--- ----- --- --- ------ -------- ----- --- ------ ----- --<br>----- ----- plummeted, --- --- ------ ------ ---- -- ------<br>------- --- ------ ----- --- ---- ------- -- ---- --- --<br>------- ------",104197.89999997616,104197.60000002384,103848.283,103863.10000002384,103864.956,104198.252,,35,"plummeted,"
screen,html.Screen,0_2_1_1_36,2021-11-19T11:59:06.602Z,,,,,,,,,,,,,,,,54,,,,,,,,,,,,,,399.74800000000687,,response,,,100,,,,,,Space,keypress(Space),,,,,-- --- ---- --- ------ ----- ------- ---- -- --- ------- --<br>------- ---------- ------ -- ----- -- ----- -- ---- ------<br>--- ----- --- --- ------ -------- ----- --- ------ ----- --<br>----- ----- ---------- and --- ------ ------ ---- -- ------<br>------- --- ------ ----- --- ---- ------- -- ---- --- --<br>------- ------,104598.80000007153,104598,104181.582,104198,104198.252,104615.033,,36,and
screen,html.Screen,0_2_1_1_37,2021-11-19T11:59:06.945Z,,,,,,,,,,,,,,,,54,,,,,,,,,,,,,,326.56700002384605,,response,,,100,,,,,,Space,keypress(Space),,,,,-- --- ---- --- ------ ----- ------- ---- -- --- ------- --<br>------- ---------- ------ -- ----- -- ----- -- ---- ------<br>--- ----- --- --- ------ -------- ----- --- ------ ----- --<br>----- ----- ---------- --- the ------ ------ ---- -- ------<br>------- --- ------ ----- --- ---- ------- -- ---- --- --<br>------- ------,104942,104941.60000002384,104598.362,104599.10000002384,104615.033,104948.373,,37,the
screen,html.Screen,0_2_1_1_38,2021-11-19T11:59:07.242Z,,,,,,,,,,,,,,,,54,,,,,,,,,,,,,,289.62699999999313,,response,,,100,,,,,,Space,keypress(Space),,,,,-- --- ---- --- ------ ----- ------- ---- -- --- ------- --<br>------- ---------- ------ -- ----- -- ----- -- ---- ------<br>--- ----- --- --- ------ -------- ----- --- ------ ----- --<br>----- ----- ---------- --- --- market ------ ---- -- ------<br>------- --- ------ ----- --- ---- ------- -- ---- --- --<br>------- ------,105238.70000004768,105238,104931.704,104942,104948.373,105248.512,,38,market
screen,html.Screen,0_2_1_1_39,2021-11-19T11:59:07.602Z,,,,,,,,,,,,,,,,54,,,,,,,,,,,,,,349.48799999999756,,response,,,100,,,,,,Space,keypress(Space),,,,,-- --- ---- --- ------ ----- ------- ---- -- --- ------- --<br>------- ---------- ------ -- ----- -- ----- -- ---- ------<br>--- ----- --- --- ------ -------- ----- --- ------ ----- --<br>----- ----- ---------- --- --- ------ became ---- -- ------<br>------- --- ------ ----- --- ---- ------- -- ---- --- --<br>------- ------,105598.80000007153,105598,105231.841,105239,105248.512,105615.209,,39,became
screen,html.Screen,0_2_1_1_40,2021-11-19T11:59:07.962Z,,,,,,,,,,,,,,,,54,,,,,,,,,,,,,,342.6909999761556,,response,,,100,,,,,,Space,keypress(Space),,,,,-- --- ---- --- ------ ----- ------- ---- -- --- ------- --<br>------- ---------- ------ -- ----- -- ----- -- ---- ------<br>--- ----- --- --- ------ -------- ----- --- ------ ----- --<br>----- ----- ---------- --- --- ------ ------ wary -- ------<br>------- --- ------ ----- --- ---- ------- -- ---- --- --<br>------- ------,105958.70000004768,105957.89999997616,105598.54,105599.10000002384,105615.209,105965.522,,40,wary
screen,html.Screen,0_2_1_1_41,2021-11-19T11:59:08.347Z,,,,,,,,,,,,,,,,54,,,,,,,,,,,,,,376.4780000000028,,response,,,100,,,,,,Space,keypress(Space),,,,,-- --- ---- --- ------ ----- ------- ---- -- --- ------- --<br>------- ---------- ------ -- ----- -- ----- -- ---- ------<br>--- ----- --- --- ------ -------- ----- --- ------ ----- --<br>----- ----- ---------- --- --- ------ ------ ---- of ------<br>------- --- ------ ----- --- ---- ------- -- ---- --- --<br>------- ------,106344.10000002384,106342,105948.849,105958.89999997616,105965.522,106348.817,,41,of
screen,html.Screen,0_2_1_1_42,2021-11-19T11:59:08.746Z,,,,,,,,,,,,,,,,54,,,,,,,,,,,,,,393.0829999761627,,response,,,100,,,,,,Space,keypress(Space),,,,,-- --- ---- --- ------ ----- ------- ---- -- --- ------- --<br>------- ---------- ------ -- ----- -- ----- -- ---- ------<br>--- ----- --- --- ------ -------- ----- --- ------ ----- --<br>----- ----- ---------- --- --- ------ ------ ---- -- French<br>------- --- ------ ----- --- ---- ------- -- ---- --- --<br>------- ------,106742.70000004768,106741.89999997616,106332.147,106344.30000007153,106348.817,106748.775,,42,French
screen,html.Screen,0_2_1_1_43,2021-11-19T11:59:09.106Z,,,,,,,,,,,,,,,,54,,,,,,,,,,,,,,353.12499997616396,,response,,,100,,,,,,Space,keypress(Space),,,,,-- --- ---- --- ------ ----- ------- ---- -- --- ------- --<br>------- ---------- ------ -- ----- -- ----- -- ---- ------<br>--- ----- --- --- ------ -------- ----- --- ------ ----- --<br>----- ----- ---------- --- --- ------ ------ ---- -- ------<br>credit. --- ------ ----- --- ---- ------- -- ---- --- --<br>------- ------,107102.70000004768,107101.89999997616,106732.107,106743,106748.775,107115.77,,43,credit.
screen,html.Screen,0_2_1_1_44,2021-11-19T11:59:09.554Z,,,,,,,,,,,,,,,,54,,,,,,,,,,,,,,434.0300000715215,,response,,,100,,,,,,Space,keypress(Space),,,,,-- --- ---- --- ------ ----- ------- ---- -- --- ------- --<br>------- ---------- ------ -- ----- -- ----- -- ---- ------<br>--- ----- --- --- ------ -------- ----- --- ------ ----- --<br>----- ----- ---------- --- --- ------ ------ ---- -- ------<br>------- The ------ ----- --- ---- ------- -- ---- --- --<br>------- ------,107550.70000004768,107549.80000007153,107099.098,107103,107115.77,107565.835,,44,The
screen,html.Screen,0_2_1_1_45,2021-11-19T11:59:09.906Z,,,,,,,,,,,,,,,,54,,,,,,,,,,,,,,336.06499997615174,,response,,,100,,,,,,Space,keypress(Space),,,,,-- --- ---- --- ------ ----- ------- ---- -- --- ------- --<br>------- ---------- ------ -- ----- -- ----- -- ---- ------<br>--- ----- --- --- ------ -------- ----- --- ------ ----- --<br>----- ----- ---------- --- --- ------ ------ ---- -- ------<br>------- --- French ----- --- ---- ------- -- ---- --- --<br>------- ------,107902.60000002384,107901.89999997616,107549.164,107550.89999997616,107565.835,107915.896,,45,French
screen,html.Screen,0_2_1_1_46,2021-11-19T11:59:10.394Z,,,,,,,,,,,,,,,,54,,,,,,,,,,,,,,474.0039999761648,,response,,,100,,,,,,Space,keypress(Space),,,,,-- --- ---- --- ------ ----- ------- ---- -- --- ------- --<br>------- ---------- ------ -- ----- -- ----- -- ---- ------<br>--- ----- --- --- ------ -------- ----- --- ------ ----- --<br>----- ----- ---------- --- --- ------ ------ ---- -- ------<br>------- --- ------ state --- ---- ------- -- ---- --- --<br>------- ------,108390.60000002384,108389.89999997616,107899.226,107902.89999997616,107915.896,108399.345,,46,state
screen,html.Screen,0_2_1_1_47,2021-11-19T11:59:10.770Z,,,,,,,,,,,,,,,,54,,,,,,,,,,,,,,366.4550000715244,,response,,,100,,,,,,Space,keypress(Space),,,,,-- --- ---- --- ------ ----- ------- ---- -- --- ------- --<br>------- ---------- ------ -- ----- -- ----- -- ---- ------<br>--- ----- --- --- ------ -------- ----- --- ------ ----- --<br>----- ----- ---------- --- --- ------ ------ ---- -- ------<br>------- --- ------ ----- was ---- ------- -- ---- --- --<br>------- ------,108766.60000002384,108765.80000007153,108382.675,108390.89999997616,108399.345,108782.678,,47,was
screen,html.Screen,0_2_1_1_48,2021-11-19T11:59:11.114Z,,,,,,,,,,,,,,,,54,,,,,,,,,,,,,,327.1220000715257,,response,,,100,,,,,,Space,keypress(Space),,,,,-- --- ---- --- ------ ----- ------- ---- -- --- ------- --<br>------- ---------- ------ -- ----- -- ----- -- ---- ------<br>--- ----- --- --- ------ -------- ----- --- ------ ----- --<br>----- ----- ---------- --- --- ------ ------ ---- -- ------<br>------- --- ------ ----- --- left ------- -- ---- --- --<br>------- ------,109110.60000002384,109109.80000007153,108766.009,108766.80000007153,108782.678,109116.212,,48,left
screen,html.Screen,0_2_1_1_49,2021-11-19T11:59:11.498Z,,,,,,,,,,,,,,,,54,,,,,,,,,,,,,,377.4880000476842,,response,,,100,,,,,,Space,keypress(Space),,,,,-- --- ---- --- ------ ----- ------- ---- -- --- ------- --<br>------- ---------- ------ -- ----- -- ----- -- ---- ------<br>--- ----- --- --- ------ -------- ----- --- ------ ----- --<br>----- ----- ---------- --- --- ------ ------ ---- -- ------<br>------- --- ------ ----- --- ---- without -- ---- --- --<br>------- ------,109494.5,109493.70000004768,109099.541,109110.80000007153,109116.212,109499.523,,49,without
screen,html.Screen,0_2_1_1_50,2021-11-19T11:59:11.882Z,,,,,,,,,,,,,,,,54,,,,,,,,,,,,,,378.17700004768267,,response,,,100,,,,,,Space,keypress(Space),,,,,-- --- ---- --- ------ ----- ------- ---- -- --- ------- --<br>------- ---------- ------ -- ----- -- ----- -- ---- ------<br>--- ----- --- --- ------ -------- ----- --- ------ ----- --<br>----- ----- ---------- --- --- ------ ------ ---- -- ------<br>------- --- ------ ----- --- ---- ------- an ---- --- --<br>------- ------,109878.5,109877.70000004768,109482.854,109494.80000007153,109499.523,109883.177,,50,an
screen,html.Screen,0_2_1_1_51,2021-11-19T11:59:12.218Z,,,,,,,,,,,,,,,,54,,,,,,,,,,,,,,331.0230000476877,,response,,,100,,,,,,Space,keypress(Space),,,,,-- --- ---- --- ------ ----- ------- ---- -- --- ------- --<br>------- ---------- ------ -- ----- -- ----- -- ---- ------<br>--- ----- --- --- ------ -------- ----- --- ------ ----- --<br>----- ----- ---------- --- --- ------ ------ ---- -- ------<br>------- --- ------ ----- --- ---- ------- -- easy --- --<br>------- ------,110215.10000002384,110214.20000004768,109866.504,109878.70000004768,109883.177,110216.48,,51,easy
screen,html.Screen,0_2_1_1_52,2021-11-19T11:59:12.538Z,,,,,,,,,,,,,,,,54,,,,,,,,,,,,,,317.2200000476878,,response,,,100,,,,,,Space,keypress(Space),,,,,-- --- ---- --- ------ ----- ------- ---- -- --- ------- --<br>------- ---------- ------ -- ----- -- ----- -- ---- ------<br>--- ----- --- --- ------ -------- ----- --- ------ ----- --<br>----- ----- ---------- --- --- ------ ------ ---- -- ------<br>------- --- ------ ----- --- ---- ------- -- ---- way --<br>------- ------,110534.5,110533.70000004768,110199.81,110215.30000007153,110216.48,110549.933,,52,way
screen,html.Screen,0_2_1_1_53,2021-11-19T11:59:12.890Z,,,,,,,,,,,,,,,,54,,,,,,,,,,,,,,335.6670000238373,,response,,,100,,,,,,Space,keypress(Space),,,,,-- --- ---- --- ------ ----- ------- ---- -- --- ------- --<br>------- ---------- ------ -- ----- -- ----- -- ---- ------<br>--- ----- --- --- ------ -------- ----- --- ------ ----- --<br>----- ----- ---------- --- --- ------ ------ ---- -- ------<br>------- --- ------ ----- --- ---- ------- -- ---- --- of<br>------- ------,110886.5,110885.60000002384,110533.262,110534.70000004768,110549.933,110899.999,,53,of
screen,html.Screen,0_2_1_1_54,2021-11-19T11:59:13.242Z,,,,,,,,,,,,,,,,54,,,,,,,,,,,,,,337.50100000000384,,response,,,100,,,,,,Space,keypress(Space),,,,,-- --- ---- --- ------ ----- ------- ---- -- --- ------- --<br>------- ---------- ------ -- ----- -- ----- -- ---- ------<br>--- ----- --- --- ------ -------- ----- --- ------ ----- --<br>----- ----- ---------- --- --- ------ ------ ---- -- ------<br>------- --- ------ ----- --- ---- ------- -- ---- --- --<br>raising ------,111238.30000007153,111237.5,110883.329,110886.70000004768,110899.999,111249.965,,54,raising
screen,html.Screen,0_2_1_1_55,2021-11-19T11:59:13.818Z,,,,,,,,,,,,,,,,54,,,,,,,,,,,,,,563.7350000476872,,response,,,100,,,,,,Space,keypress(Space),,,,,-- --- ---- --- ------ ----- ------- ---- -- --- ------- --<br>------- ---------- ------ -- ----- -- ----- -- ---- ------<br>--- ----- --- --- ------ -------- ----- --- ------ ----- --<br>----- ----- ---------- --- --- ------ ------ ---- -- ------<br>------- --- ------ ----- --- ---- ------- -- ---- --- --<br>------- money.,111814.39999997616,111813.70000004768,111233.297,111238.60000002384,111249.965,111816.903,,55,money.
Item 100,flow.Loop,0_2_1_1,2021-11-19T11:59:13.818Z,,,,,,,,,,,,,,,,,,,,,,,,,,,,,,22869.50800004769,,completion,,,,F,,,,,,,,,,silence,,111814.80000007153,111813.70000004768,88927.522,88928.70000004768,88944.192,111816.903,,,
Question 1,html.Screen,0_2_1_2,2021-11-19T11:59:16.985Z,,,,,,,,,,,,,,,,,,,,,,,,,,,true,TRUE,,3163.297000047678,,response,,,100,F,,,,,TRUE,click #choice-1,,,,silence,,114981.39999997616,114980.20000004768,111800.232,111815.10000002384,111816.903,114984.331,,,
Question 2,html.Screen,0_2_1_3,2021-11-19T11:59:19.164Z,,,,,,,,,,,,,,,,,,,,,,,,,,,true,FALSE,,2175.46900007152,,response,,,100,F,,,,,FALSE,click #choice-2,,,,silence,,117160.89999997616,117159.80000007153,114967.661,114981.60000002384,114984.331,117168.251,,,
Item 100,flow.Sequence,0_2_1,2021-11-19T11:59:19.165Z,,,,,,,,,,,,,,,,,,,,,,,,,,,,,,38218.04700007153,,completion,,,,,,,,,,,,,,,,117161.20000004768,117159.80000007153,78925.083,78927.5,78941.753,117168.251,,,
End of Practice,html.Page,0_2_2,2021-11-19T11:59:21.635Z,,,,,,,,,,,,,,,,,,,,,,,,,,,,,,2462.44900004768,,form submission,,,,,,,,,,,,,,,,119631.20000004768,119630.70000004768,117151.582,117161.5,117168.251,119635.022,,,
Practice,flow.Sequence,0_2,2021-11-19T11:59:21.635Z,,,,,,,,,,,,,,,,,,,,,,,,,,,,,,81182.64800004769,,completion,,,,,,,,,,,,,,,,119631.60000002384,119630.70000004768,38431.379,38442.700000047684,38448.052,119635.022,,,
Trap_instruction,html.Page,0_3_0,2021-11-19T11:59:23.959Z,,,,,,,,,,,,,,,,,,,,,,,,,,,,,,2316.1780000476865,,form submission,,,,,,,,,,,,,,,,121951.80000007153,121951.20000004768,119618.355,119631.80000007153,119635.022,121986.238,,,
trap_trial,html.Screen,0_3_1,2021-11-19T11:59:28.132Z,,,,,,,,,,,,,,,,,,,,,,,,,,,true,1,,4136.661999976161,,response,,,,,,,,,1,click #choice-1,,,,,,126124.20000004768,126122.89999997616,121936.216,121952.10000002384,121986.238,126137.217,,,
end of trap trial,html.Page,0_3_2,2021-11-19T11:59:29.870Z,,,,,,,,,,,,,,,,,,,,,,,,,,,,,,1725.0830000715214,,form submission,,,,,,,,,,,,,,,,127862.89999997616,127862.30000007153,126120.546,126124.5,126137.217,127870.969,,,
Trap 1,flow.Sequence,0_3,2021-11-19T11:59:29.871Z,,,,,,,,,,,,,,,,,,,,,,,,,,,,,,8227.278000071528,,completion,,,,,,,,,,,,,,,,127863.30000007153,127862.30000007153,119618.355,119631.80000007153,119635.022,127870.969,,,
Standby,html.Page,0_4_0,2021-11-19T11:59:37.865Z,,,,,,,,,,,,,,,,,,,,,,,,,,,,,,8001.631999999998,,timeout,,,,,,,,,,,,,,,,135857.20000004768,135855.931,127854.299,127863.60000002384,127870.969,135872.601,,,
Holding screen,html.Screen,0_4_1_0_0,2021-11-19T11:59:44.867Z,,,,,,,,,,,,,,,,,,,,,,,,,,,,,,7002.176000000007,,timeout,,,,,,,,,,,,,,,,142859.70000004768,142858.107,135855.931,135857.60000002384,135872.601,142874.777,,,
screen,html.Screen,0_4_1_0_1_0,2021-11-19T11:59:45.477Z,,,,,,,,,,,,,,,,11,,,,,,,,,,,,,,593.7229999999981,,response,,,4,F,,,,,Space,keypress(Space),,,,instrumental,Known -- ---- --- -- --- -------- ------------ ---------- --<br>- ------- ------ --------- -- ------------ -- --- ---- -----<br>------ ---- ---- ------ ------ ------- --- ----- ---------<br>---- --- -------- -------- --- --- -- ------- --- --- -----<br>-- --- ------ ------- --- --- -------- ---- --------- --<br>---------- -- -------- ----------------,143469.89999997616,143468.5,142858.107,142860.10000002384,142874.777,143474.981,,0,Known
screen,html.Screen,0_4_1_0_1_1,2021-11-19T11:59:45.772Z,,,,,,,,,,,,,,,,11,,,,,,,,,,,,,,288.8190000715258,,response,,,4,F,,,,,Space,keypress(Space),,,,instrumental,----- as ---- --- -- --- -------- ------------ ---------- --<br>- ------- ------ --------- -- ------------ -- --- ---- -----<br>------ ---- ---- ------ ------ ------- --- ----- ---------<br>---- --- -------- -------- --- --- -- ------- --- --- -----<br>-- --- ------ ------- --- --- -------- ---- --------- --<br>---------- -- -------- ----------------,143764.70000004768,143763.80000007153,143458.311,143470.20000004768,143474.981,143775.073,,1,as
screen,html.Screen,0_4_1_0_1_2,2021-11-19T11:59:46.060Z,,,,,,,,,,,,,,,,11,,,,,,,,,,,,,,276.8269999761542,,response,,,4,F,,,,,Space,keypress(Space),,,,instrumental,----- -- Rapa --- -- --- -------- ------------ ---------- --<br>- ------- ------ --------- -- ------------ -- --- ---- -----<br>------ ---- ---- ------ ------ ------- --- ----- ---------<br>---- --- -------- -------- --- --- -- ------- --- --- -----<br>-- --- ------ ------- --- --- -------- ---- --------- --<br>---------- -- -------- ----------------,144052.70000004768,144051.89999997616,143758.403,143765,143775.073,144058.586,,2,Rapa
screen,html.Screen,0_4_1_0_1_3,2021-11-19T11:59:46.436Z,,,,,,,,,,,,,,,,11,,,,,,,,,,,,,,369.21400007151533,,response,,,4,F,,,,,Space,keypress(Space),,,,instrumental,----- -- ---- Nui -- --- -------- ------------ ---------- --<br>- ------- ------ --------- -- ------------ -- --- ---- -----<br>------ ---- ---- ------ ------ ------- --- ----- ---------<br>---- --- -------- -------- --- --- -- ------- --- --- -----<br>-- --- ------ ------- --- --- -------- ---- --------- --<br>---------- -- -------- ----------------,144428.70000004768,144427.80000007153,144041.914,144053.10000002384,144058.586,144441.942,,3,Nui
screen,html.Screen,0_4_1_0_1_4,2021-11-19T11:59:46.868Z,,,,,,,,,,,,,,,,11,,,,,,,,,,,,,,417.85800007151556,,response,,,4,F,,,,,Space,keypress(Space),,,,instrumental,----- -- ---- --- to --- -------- ------------ ---------- --<br>- ------- ------ --------- -- ------------ -- --- ---- -----<br>------ ---- ---- ------ ------ ------- --- ----- ---------<br>---- --- -------- -------- --- --- -- ------- --- --- -----<br>-- --- ------ ------- --- --- -------- ---- --------- --<br>---------- -- -------- ----------------,144860.70000004768,144859.80000007153,144425.272,144428.89999997616,144441.942,144875.379,,4,to
screen,html.Screen,0_4_1_0_1_5,2021-11-19T11:59:47.196Z,,,,,,,,,,,,,,,,11,,,,,,,,,,,,,,312.4210000715393,,response,,,4,F,,,,,Space,keypress(Space),,,,instrumental,----- -- ---- --- -- the -------- ------------ ---------- --<br>- ------- ------ --------- -- ------------ -- --- ---- -----<br>------ ---- ---- ------ ------ ------- --- ----- ---------<br>---- --- -------- -------- --- --- -- ------- --- --- -----<br>-- --- ------ ------- --- --- -------- ---- --------- --<br>---------- -- -------- ----------------,145188.60000002384,145187.80000007153,144858.709,144861,144875.379,145192.172,,5,the
screen,html.Screen,0_4_1_0_1_6,2021-11-19T11:59:47.604Z,,,,,,,,,,,,,,,,11,,,,,,,,,,,,,,403.6280000715342,,response,,,4,F,,,,,Space,keypress(Space),,,,instrumental,----- -- ---- --- -- --- island's ------------ ---------- --<br>- ------- ------ --------- -- ------------ -- --- ---- -----<br>------ ---- ---- ------ ------ ------- --- ----- ---------<br>---- --- -------- -------- --- --- -- ------- --- --- -----<br>-- --- ------ ------- --- --- -------- ---- --------- --<br>---------- -- -------- ----------------,145596.60000002384,145595.80000007153,145175.501,145189,145192.172,145608.955,,6,island's
screen,html.Screen,0_4_1_0_1_7,2021-11-19T11:59:48.180Z,,,,,,,,,,,,,,,,11,,,,,,,,,,,,,,562.6450000238547,,response,,,4,F,,,,,Space,keypress(Space),,,,instrumental,"----- -- ---- --- -- --- -------- inhabitants, ---------- --<br>- ------- ------ --------- -- ------------ -- --- ---- -----<br>------ ---- ---- ------ ------ ------- --- ----- ---------<br>---- --- -------- -------- --- --- -- ------- --- --- -----<br>-- --- ------ ------- --- --- -------- ---- --------- --<br>---------- -- -------- ----------------",146172.5,146171.60000002384,145592.284,145596.89999997616,145608.955,146175.715,,7,"inhabitants,"
screen,html.Screen,0_4_1_0_1_8,2021-11-19T11:59:48.612Z,,,,,,,,,,,,,,,,11,,,,,,,,,,,,,,428.08500007152907,,response,,,4,F,,,,,Space,keypress(Space),,,,instrumental,----- -- ---- --- -- --- -------- ------------ Rongorongo --<br>- ------- ------ --------- -- ------------ -- --- ---- -----<br>------ ---- ---- ------ ------ ------- --- ----- ---------<br>---- --- -------- -------- --- --- -- ------- --- --- -----<br>-- --- ------ ------- --- --- -------- ---- --------- --<br>---------- -- -------- ----------------,146604.60000002384,146603.80000007153,146159.045,146172.80000007153,146175.715,146609.161,,8,Rongorongo
screen,html.Screen,0_4_1_0_1_9,2021-11-19T11:59:49.516Z,,,,,,,,,,,,,,,,11,,,,,,,,,,,,,,898.5390000476909,,response,,,4,F,,,,,Space,keypress(Space),,,,instrumental,----- -- ---- --- -- --- -------- ------------ ---------- is<br>- ------- ------ --------- -- ------------ -- --- ---- -----<br>------ ---- ---- ------ ------ ------- --- ----- ---------<br>---- --- -------- -------- --- --- -- ------- --- --- -----<br>-- --- ------ ------- --- --- -------- ---- --------- --<br>---------- -- -------- ----------------,147508.39999997616,147507.70000004768,146592.491,146604.80000007153,146609.161,147526.052,,9,is
screen,html.Screen,0_4_1_0_1_10,2021-11-19T11:59:49.940Z,,,,,,,,,,,,,,,,11,,,,,,,,,,,,,,405.6480000476877,,response,,,4,F,,,,,Space,keypress(Space),,,,instrumental,----- -- ---- --- -- --- -------- ------------ ---------- --<br>a ------- ------ --------- -- ------------ -- --- ---- -----<br>------ ---- ---- ------ ------ ------- --- ----- ---------<br>---- --- -------- -------- --- --- -- ------- --- --- -----<br>-- --- ------ ------- --- --- -------- ---- --------- --<br>---------- -- -------- ----------------,147932.39999997616,147931.70000004768,147509.382,147510.5,147526.052,147942.851,,10,a
screen,html.Screen,0_4_1_0_1_11,2021-11-19T11:59:50.340Z,,,,,,,,,,,,,,,,11,,,,,,,,,,,,,,388.74900002384675,,response,,,4,F,,,,,Space,keypress(Space),,,,instrumental,----- -- ---- --- -- --- -------- ------------ ---------- --<br>- writing ------ --------- -- ------------ -- --- ---- -----<br>------ ---- ---- ------ ------ ------- --- ----- ---------<br>---- --- -------- -------- --- --- -- ------- --- --- -----<br>-- --- ------ ------- --- --- -------- ---- --------- --<br>---------- -- -------- ----------------,148332.39999997616,148331.60000002384,147926.181,147932.60000002384,147942.851,148342.94,,11,writing
screen,html.Screen,0_4_1_0_1_12,2021-11-19T11:59:50.780Z,,,,,,,,,,,,,,,,11,,,,,,,,,,,,,,428.66000002383953,,response,,,4,F,,,,,Space,keypress(Space),,,,instrumental,----- -- ---- --- -- --- -------- ------------ ---------- --<br>- ------- system --------- -- ------------ -- --- ---- -----<br>------ ---- ---- ------ ------ ------- --- ----- ---------<br>---- --- -------- -------- --- --- -- ------- --- --- -----<br>-- --- ------ ------- --- --- -------- ---- --------- --<br>---------- -- -------- ----------------,148772.5,148771.60000002384,148326.27,148332.70000004768,148342.94,148776.295,,12,system
screen,html.Screen,0_4_1_0_1_13,2021-11-19T11:59:51.204Z,,,,,,,,,,,,,,,,11,,,,,,,,,,,,,,419.50500007151277,,response,,,4,F,,,,,Space,keypress(Space),,,,instrumental,----- -- ---- --- -- --- -------- ------------ ---------- --<br>- ------- ------ comprised -- ------------ -- --- ---- -----<br>------ ---- ---- ------ ------ ------- --- ----- ---------<br>---- --- -------- -------- --- --- -- ------- --- --- -----<br>-- --- ------ ------- --- --- -------- ---- --------- --<br>---------- -- -------- ----------------,149196.60000002384,149195.80000007153,148759.626,148772.80000007153,148776.295,149209.801,,13,comprised
screen,html.Screen,0_4_1_0_1_14,2021-11-19T11:59:51.620Z,,,,,,,,,,,,,,,,11,,,,,,,,,,,,,,401.5989999761514,,response,,,4,F,,,,,Space,keypress(Space),,,,instrumental,----- -- ---- --- -- --- -------- ------------ ---------- --<br>- ------- ------ --------- of ------------ -- --- ---- -----<br>------ ---- ---- ------ ------ ------- --- ----- ---------<br>---- --- -------- -------- --- --- -- ------- --- --- -----<br>-- --- ------ ------- --- --- -------- ---- --------- --<br>---------- -- -------- ----------------,149612.30000007153,149611.39999997616,149193.131,149196.80000007153,149209.801,149626.574,,14,of
screen,html.Screen,0_4_1_0_1_15,2021-11-19T11:59:52.260Z,,,,,,,,,,,,,,,,11,,,,,,,,,,,,,,624.9260000000068,,response,,,4,F,,,,,Space,keypress(Space),,,,instrumental,----- -- ---- --- -- --- -------- ------------ ---------- --<br>- ------- ------ --------- -- pictographs. -- --- ---- -----<br>------ ---- ---- ------ ------ ------- --- ----- ---------<br>---- --- -------- -------- --- --- -- ------- --- --- -----<br>-- --- ------ ------- --- --- -------- ---- --------- --<br>---------- -- -------- ----------------,150252.30000007153,150251.5,149609.904,149612.60000002384,149626.574,150260.208,,15,pictographs.
screen,html.Screen,0_4_1_0_1_16,2021-11-19T11:59:53.036Z,,,,,,,,,,,,,,,,11,,,,,,,,,,,,,,767.2919999999867,,response,,,4,F,,,,,Space,keypress(Space),,,,instrumental,----- -- ---- --- -- --- -------- ------------ ---------- --<br>- ------- ------ --------- -- ------------ It --- ---- -----<br>------ ---- ---- ------ ------ ------- --- ----- ---------<br>---- --- -------- -------- --- --- -- ------- --- --- -----<br>-- --- ------ ------- --- --- -------- ---- --------- --<br>---------- -- -------- ----------------,151028.30000007153,151027.5,150243.536,150252.60000002384,150260.208,151043.685,,16,It
screen,html.Screen,0_4_1_0_1_17,2021-11-19T11:59:53.372Z,,,,,,,,,,,,,,,,11,,,,,,,,,,,,,,319.71499997616047,,response,,,4,F,,,,,Space,keypress(Space),,,,instrumental,----- -- ---- --- -- --- -------- ------------ ---------- --<br>- ------- ------ --------- -- ------------ -- has ---- -----<br>------ ---- ---- ------ ------ ------- --- ----- ---------<br>---- --- -------- -------- --- --- -- ------- --- --- -----<br>-- --- ------ ------- --- --- -------- ---- --------- --<br>---------- -- -------- ----------------,151364.20000004768,151363.39999997616,151027.014,151028.60000002384,151043.685,151377.074,,17,has
screen,html.Screen,0_4_1_0_1_18,2021-11-19T11:59:53.700Z,,,,,,,,,,,,,,,,11,,,,,,,,,,,,,,314.2260000715323,,response,,,4,F,,,,,Space,keypress(Space),,,,instrumental,----- -- ---- --- -- --- -------- ------------ ---------- --<br>- ------- ------ --------- -- ------------ -- --- been -----<br>------ ---- ---- ------ ------ ------- --- ----- ---------<br>---- --- -------- -------- --- --- -- ------- --- --- -----<br>-- --- ------ ------- --- --- -------- ---- --------- --<br>---------- -- -------- ----------------,151692.10000002384,151691.30000007153,151360.404,151364.5,151377.074,151693.824,,18,been
screen,html.Screen,0_4_1_0_1_19,2021-11-19T11:59:54.044Z,,,,,,,,,,,,,,,,11,,,,,,,,,,,,,,341.5759999761649,,response,,,4,F,,,,,Space,keypress(Space),,,,instrumental,----- -- ---- --- -- --- -------- ------------ ---------- --<br>- ------- ------ --------- -- ------------ -- --- ---- found<br>------ ---- ---- ------ ------ ------- --- ----- ---------<br>---- --- -------- -------- --- --- -- ------- --- --- -----<br>-- --- ------ ------- --- --- -------- ---- --------- --<br>---------- -- -------- ----------------,152036.10000002384,152035.39999997616,151677.154,151692.39999997616,151693.824,152043.945,,19,found
screen,html.Screen,0_4_1_0_1_20,2021-11-19T11:59:54.460Z,,,,,,,,,,,,,,,,11,,,,,,,,,,,,,,407.45499997615116,,response,,,4,F,,,,,Space,keypress(Space),,,,instrumental,----- -- ---- --- -- --- -------- ------------ ---------- --<br>- ------- ------ --------- -- ------------ -- --- ---- -----<br>carved ---- ---- ------ ------ ------- --- ----- ---------<br>---- --- -------- -------- --- --- -- ------- --- --- -----<br>-- --- ------ ------- --- --- -------- ---- --------- --<br>---------- -- -------- ----------------,152452.20000004768,152451.39999997616,152027.274,152036.39999997616,152043.945,152460.666,,20,carved
screen,html.Screen,0_4_1_0_1_21,2021-11-19T11:59:54.924Z,,,,,,,,,,,,,,,,11,,,,,,,,,,,,,,454.7339999761607,,response,,,4,F,,,,,Space,keypress(Space),,,,instrumental,----- -- ---- --- -- --- -------- ------------ ---------- --<br>- ------- ------ --------- -- ------------ -- --- ---- -----<br>------ into ---- ------ ------ ------- --- ----- ---------<br>---- --- -------- -------- --- --- -- ------- --- --- -----<br>-- --- ------ ------- --- --- -------- ---- --------- --<br>---------- -- -------- ----------------,152916.10000002384,152915.39999997616,152443.996,152452.5,152460.666,152927.504,,21,into
screen,html.Screen,0_4_1_0_1_22,2021-11-19T11:59:55.356Z,,,,,,,,,,,,,,,,11,,,,,,,,,,,,,,419.7960000715393,,response,,,4,F,,,,,Space,keypress(Space),,,,instrumental,----- -- ---- --- -- --- -------- ------------ ---------- --<br>- ------- ------ --------- -- ------------ -- --- ---- -----<br>------ ---- many ------ ------ ------- --- ----- ---------<br>---- --- -------- -------- --- --- -- ------- --- --- -----<br>-- --- ------ ------- --- --- -------- ---- --------- --<br>---------- -- -------- ----------------,153348.10000002384,153347.30000007153,152910.833,152916.30000007153,152927.504,153360.902,,22,many
screen,html.Screen,0_4_1_0_1_23,2021-11-19T11:59:55.716Z,,,,,,,,,,,,,,,,11,,,,,,,,,,,,,,346.8980000715237,,response,,,4,F,,,,,Space,keypress(Space),,,,instrumental,----- -- ---- --- -- --- -------- ------------ ---------- --<br>- ------- ------ --------- -- ------------ -- --- ---- -----<br>------ ---- ---- oblong ------ ------- --- ----- ---------<br>---- --- -------- -------- --- --- -- ------- --- --- -----<br>-- --- ------ ------- --- --- -------- ---- --------- --<br>---------- -- -------- ----------------,153708.60000002384,153707.80000007153,153344.232,153348.39999997616,153360.902,153711.042,,23,oblong
screen,html.Screen,0_4_1_0_1_24,2021-11-19T11:59:56.124Z,,,,,,,,,,,,,,,,11,,,,,,,,,,,,,,404.25800007153885,,response,,,4,F,,,,,Space,keypress(Space),,,,instrumental,----- -- ---- --- -- --- -------- ------------ ---------- --<br>- ------- ------ --------- -- ------------ -- --- ---- -----<br>------ ---- ---- ------ wooden ------- --- ----- ---------<br>---- --- -------- -------- --- --- -- ------- --- --- -----<br>-- --- ------ ------- --- --- -------- ---- --------- --<br>---------- -- -------- ----------------,154116.10000002384,154115.30000007153,153694.371,153708.80000007153,153711.042,154127.785,,24,wooden
screen,html.Screen,0_4_1_0_1_25,2021-11-19T11:59:56.548Z,,,,,,,,,,,,,,,,11,,,,,,,,,,,,,,411.4150000476802,,response,,,4,F,,,,,Space,keypress(Space),,,,instrumental,----- -- ---- --- -- --- -------- ------------ ---------- --<br>- ------- ------ --------- -- ------------ -- --- ---- -----<br>------ ---- ---- ------ ------ tablets --- ----- ---------<br>---- --- -------- -------- --- --- -- ------- --- --- -----<br>-- --- ------ ------- --- --- -------- ---- --------- --<br>---------- -- -------- ----------------,154540.10000002384,154539.20000004768,154111.115,154116.30000007153,154127.785,154544.454,,25,tablets
screen,html.Screen,0_4_1_0_1_26,2021-11-19T11:59:57.036Z,,,,,,,,,,,,,,,,11,,,,,,,,,,,,,,482.84600007152767,,response,,,4,F,,,,,Space,keypress(Space),,,,instrumental,----- -- ---- --- -- --- -------- ------------ ---------- --<br>- ------- ------ --------- -- ------------ -- --- ---- -----<br>------ ---- ---- ------ ------ ------- and ----- ---------<br>---- --- -------- -------- --- --- -- ------- --- --- -----<br>-- --- ------ ------- --- --- -------- ---- --------- --<br>---------- -- -------- ----------------,155028.10000002384,155027.30000007153,154527.785,154540.39999997616,154544.454,155044.702,,26,and
screen,html.Screen,0_4_1_0_1_27,2021-11-19T11:59:57.676Z,,,,,,,,,,,,,,,,11,,,,,,,,,,,,,,622.4980000476935,,response,,,4,F,,,,,Space,keypress(Space),,,,instrumental,----- -- ---- --- -- --- -------- ------------ ---------- --<br>- ------- ------ --------- -- ------------ -- --- ---- -----<br>------ ---- ---- ------ ------ ------- --- other ---------<br>---- --- -------- -------- --- --- -- ------- --- --- -----<br>-- --- ------ ------- --- --- -------- ---- --------- --<br>---------- -- -------- ----------------,155668,155667.20000004768,155028.031,155028.30000007153,155044.702,155678.218,,27,other
screen,html.Screen,0_4_1_0_1_28,2021-11-19T11:59:58.059Z,,,,,,,,,,,,,,,,11,,,,,,,,,,,,,,372.98200004769024,,response,,,4,F,,,,,Space,keypress(Space),,,,instrumental,----- -- ---- --- -- --- -------- ------------ ---------- --<br>- ------- ------ --------- -- ------------ -- --- ---- -----<br>------ ---- ---- ------ ------ ------- --- ----- artifacts<br>---- --- -------- -------- --- --- -- ------- --- --- -----<br>-- --- ------ ------- --- --- -------- ---- --------- --<br>---------- -- -------- ----------------,156052,156051.20000004768,155661.547,155668.30000007153,155678.218,156061.574,,28,artifacts
screen,html.Screen,0_4_1_0_1_29,2021-11-19T11:59:58.604Z,,,,,,,,,,,,,,,,11,,,,,,,,,,,,,,533.5260000238486,,response,,,4,F,,,,,Space,keypress(Space),,,,instrumental,----- -- ---- --- -- --- -------- ------------ ---------- --<br>- ------- ------ --------- -- ------------ -- --- ---- -----<br>------ ---- ---- ------ ------ ------- --- ----- ---------<br>from --- -------- -------- --- --- -- ------- --- --- -----<br>-- --- ------ ------- --- --- -------- ---- --------- --<br>---------- -- -------- ----------------,156596.10000002384,156595.10000002384,156044.904,156052.20000004768,156061.574,156611.774,,29,from
screen,html.Screen,0_4_1_0_1_30,2021-11-19T11:59:58.971Z,,,,,,,,,,,,,,,,11,,,,,,,,,,,,,,351.32600002383697,,response,,,4,F,,,,,Space,keypress(Space),,,,instrumental,----- -- ---- --- -- --- -------- ------------ ---------- --<br>- ------- ------ --------- -- ------------ -- --- ---- -----<br>------ ---- ---- ------ ------ ------- --- ----- ---------<br>---- the -------- -------- --- --- -- ------- --- --- -----<br>-- --- ------ ------- --- --- -------- ---- --------- --<br>---------- -- -------- ----------------,156963.89999997616,156963.10000002384,156595.103,156596.30000007153,156611.774,156978.55,,30,the
screen,html.Screen,0_4_1_0_1_31,2021-11-19T11:59:59.444Z,,,,,,,,,,,,,,,,11,,,,,,,,,,,,,,456.5500000238535,,response,,,4,F,,,,,Space,keypress(Space),,,,instrumental,----- -- ---- --- -- --- -------- ------------ ---------- --<br>- ------- ------ --------- -- ------------ -- --- ---- -----<br>------ ---- ---- ------ ------ ------- --- ----- ---------<br>---- --- island's -------- --- --- -- ------- --- --- -----<br>-- --- ------ ------- --- --- -------- ---- --------- --<br>---------- -- -------- ----------------,157436.10000002384,157435.10000002384,156961.879,156964.20000004768,156978.55,157445.185,,31,island's
screen,html.Screen,0_4_1_0_1_32,2021-11-19T11:59:59.891Z,,,,,,,,,,,,,,,,11,,,,,,,,,,,,,,437.9150000238442,,response,,,4,F,,,,,Space,keypress(Space),,,,instrumental,----- -- ---- --- -- --- -------- ------------ ---------- --<br>- ------- ------ --------- -- ------------ -- --- ---- -----<br>------ ---- ---- ------ ------ ------- --- ----- ---------<br>---- --- -------- history. --- --- -- ------- --- --- -----<br>-- --- ------ ------- --- --- -------- ---- --------- --<br>---------- -- -------- ----------------,157883.80000007153,157883.10000002384,157428.516,157436.30000007153,157445.185,157895.342,,32,history.
screen,html.Screen,0_4_1_0_1_33,2021-11-19T12:00:00.251Z,,,,,,,,,,,,,,,,11,,,,,,,,,,,,,,347.75800002383767,,response,,,4,F,,,,,Space,keypress(Space),,,,instrumental,----- -- ---- --- -- --- -------- ------------ ---------- --<br>- ------- ------ --------- -- ------------ -- --- ---- -----<br>------ ---- ---- ------ ------ ------- --- ----- ---------<br>---- --- -------- -------- The --- -- ------- --- --- -----<br>-- --- ------ ------- --- --- -------- ---- --------- --<br>---------- -- -------- ----------------,158243.89999997616,158243.10000002384,157878.672,157884.10000002384,157895.342,158245.463,,33,The
screen,html.Screen,0_4_1_0_1_34,2021-11-19T12:00:00.651Z,,,,,,,,,,,,,,,,11,,,,,,,,,,,,,,397.5370000000112,,response,,,4,F,,,,,Space,keypress(Space),,,,instrumental,----- -- ---- --- -- --- -------- ------------ ---------- --<br>- ------- ------ --------- -- ------------ -- --- ---- -----<br>------ ---- ---- ------ ------ ------- --- ----- ---------<br>---- --- -------- -------- --- art -- ------- --- --- -----<br>-- --- ------ ------- --- --- -------- ---- --------- --<br>---------- -- -------- ----------------,158644,158643,158228.793,158244.10000002384,158245.463,158645.692,,34,art
screen,html.Screen,0_4_1_0_1_35,2021-11-19T12:00:00.987Z,,,,,,,,,,,,,,,,11,,,,,,,,,,,,,,333.20799997614813,,response,,,4,F,,,,,Space,keypress(Space),,,,instrumental,----- -- ---- --- -- --- -------- ------------ ---------- --<br>- ------- ------ --------- -- ------------ -- --- ---- -----<br>------ ---- ---- ------ ------ ------- --- ----- ---------<br>---- --- -------- -------- --- --- of ------- --- --- -----<br>-- --- ------ ------- --- --- -------- ---- --------- --<br>---------- -- -------- ----------------,158979.70000004768,158978.89999997616,158629.02,158644.30000007153,158645.692,158995.569,,35,of
screen,html.Screen,0_4_1_0_1_36,2021-11-19T12:00:01.371Z,,,,,,,,,,,,,,,,11,,,,,,,,,,,,,,367.4310000000114,,response,,,4,F,,,,,Space,keypress(Space),,,,instrumental,----- -- ---- --- -- --- -------- ------------ ---------- --<br>- ------- ------ --------- -- ------------ -- --- ---- -----<br>------ ---- ---- ------ ------ ------- --- ----- ---------<br>---- --- -------- -------- --- --- -- writing --- --- -----<br>-- --- ------ ------- --- --- -------- ---- --------- --<br>---------- -- -------- ----------------,159363.89999997616,159363,158978.901,158980,158995.569,159379.122,,36,writing
screen,html.Screen,0_4_1_0_1_37,2021-11-19T12:00:01.683Z,,,,,,,,,,,,,,,,11,,,,,,,,,,,,,,295.877999999997,,response,,,4,F,,,,,Space,keypress(Space),,,,instrumental,----- -- ---- --- -- --- -------- ------------ ---------- --<br>- ------- ------ --------- -- ------------ -- --- ---- -----<br>------ ---- ---- ------ ------ ------- --- ----- ---------<br>---- --- -------- -------- --- --- -- ------- was --- -----<br>-- --- ------ ------- --- --- -------- ---- --------- --<br>---------- -- -------- ----------------,159675.70000004768,159675,159362.451,159364,159379.122,159679.287,,37,was
screen,html.Screen,0_4_1_0_1_38,2021-11-19T12:00:02.019Z,,,,,,,,,,,,,,,,11,,,,,,,,,,,,,,331.61299997614697,,response,,,4,F,,,,,Space,keypress(Space),,,,instrumental,----- -- ---- --- -- --- -------- ------------ ---------- --<br>- ------- ------ --------- -- ------------ -- --- ---- -----<br>------ ---- ---- ------ ------ ------- --- ----- ---------<br>---- --- -------- -------- --- --- -- ------- --- not -----<br>-- --- ------ ------- --- --- -------- ---- --------- --<br>---------- -- -------- ----------------,160011.70000004768,160010.89999997616,159662.615,159676,159679.287,160029.334,,38,not
screen,html.Screen,0_4_1_0_1_39,2021-11-19T12:00:02.315Z,,,,,,,,,,,,,,,,11,,,,,,,,,,,,,,277.66599999999744,,response,,,4,F,,,,,Space,keypress(Space),,,,instrumental,----- -- ---- --- -- --- -------- ------------ ---------- --<br>- ------- ------ --------- -- ------------ -- --- ---- -----<br>------ ---- ---- ------ ------ ------- --- ----- ---------<br>---- --- -------- -------- --- --- -- ------- --- --- known<br>-- --- ------ ------- --- --- -------- ---- --------- --<br>---------- -- -------- ----------------,160307.80000007153,160307,160012.663,160012,160029.334,160312.705,,39,known
screen,html.Screen,0_4_1_0_1_40,2021-11-19T12:00:02.707Z,,,,,,,,,,,,,,,,11,,,,,,,,,,,,,,386.19499997617095,,response,,,4,F,,,,,Space,keypress(Space),,,,instrumental,----- -- ---- --- -- --- -------- ------------ ---------- --<br>- ------- ------ --------- -- ------------ -- --- ---- -----<br>------ ---- ---- ------ ------ ------- --- ----- ---------<br>---- --- -------- -------- --- --- -- ------- --- --- -----<br>in --- ------ ------- --- --- -------- ---- --------- --<br>---------- -- -------- ----------------,160699.80000007153,160698.89999997616,160296.035,160308,160312.705,160712.853,,40,in
screen,html.Screen,0_4_1_0_1_41,2021-11-19T12:00:03.011Z,,,,,,,,,,,,,,,,11,,,,,,,,,,,,,,290.04699997615535,,response,,,4,F,,,,,Space,keypress(Space),,,,instrumental,----- -- ---- --- -- --- -------- ------------ ---------- --<br>- ------- ------ --------- -- ------------ -- --- ---- -----<br>------ ---- ---- ------ ------ ------- --- ----- ---------<br>---- --- -------- -------- --- --- -- ------- --- --- -----<br>-- any ------ ------- --- --- -------- ---- --------- --<br>---------- -- -------- ----------------,161003.70000004768,161002.89999997616,160696.182,160700,160712.853,161012.763,,41,any
screen,html.Screen,0_4_1_0_1_42,2021-11-19T12:00:03.347Z,,,,,,,,,,,,,,,,11,,,,,,,,,,,,,,326.0370000715193,,response,,,4,F,,,,,Space,keypress(Space),,,,instrumental,----- -- ---- --- -- --- -------- ------------ ---------- --<br>- ------- ------ --------- -- ------------ -- --- ---- -----<br>------ ---- ---- ------ ------ ------- --- ----- ---------<br>---- --- -------- -------- --- --- -- ------- --- --- -----<br>-- --- nearby ------- --- --- -------- ---- --------- --<br>---------- -- -------- ----------------,161339.60000002384,161338.80000007153,160996.095,161004,161012.763,161346.246,,42,nearby
screen,html.Screen,0_4_1_0_1_43,2021-11-19T12:00:03.747Z,,,,,,,,,,,,,,,,11,,,,,,,,,,,,,,392.55400007151184,,response,,,4,F,,,,,Space,keypress(Space),,,,instrumental,----- -- ---- --- -- --- -------- ------------ ---------- --<br>- ------- ------ --------- -- ------------ -- --- ---- -----<br>------ ---- ---- ------ ------ ------- --- ----- ---------<br>---- --- -------- -------- --- --- -- ------- --- --- -----<br>-- --- ------ islands --- --- -------- ---- --------- --<br>---------- -- -------- ----------------,161739.70000004768,161738.80000007153,161329.576,161339.89999997616,161346.246,161746.47,,43,islands
screen,html.Screen,0_4_1_0_1_44,2021-11-19T12:00:04.147Z,,,,,,,,,,,,,,,,11,,,,,,,,,,,,,,392.3300000715244,,response,,,4,F,,,,,Space,keypress(Space),,,,instrumental,----- -- ---- --- -- --- -------- ------------ ---------- --<br>- ------- ------ --------- -- ------------ -- --- ---- -----<br>------ ---- ---- ------ ------ ------- --- ----- ---------<br>---- --- -------- -------- --- --- -- ------- --- --- -----<br>-- --- ------ ------- and --- -------- ---- --------- --<br>---------- -- -------- ----------------,162139.70000004768,162138.80000007153,161729.798,161739.89999997616,161746.47,162146.481,,44,and
screen,html.Screen,0_4_1_0_1_45,2021-11-19T12:00:04.653Z,,,,,,,,,,,,,,,,11,,,,,,,,,,,,,,496.3190000715258,,response,,,4,F,,,,,Space,keypress(Space),,,,instrumental,----- -- ---- --- -- --- -------- ------------ ---------- --<br>- ------- ------ --------- -- ------------ -- --- ---- -----<br>------ ---- ---- ------ ------ ------- --- ----- ---------<br>---- --- -------- -------- --- --- -- ------- --- --- -----<br>-- --- ------ ------- --- the -------- ---- --------- --<br>---------- -- -------- ----------------,162645.10000002384,162642.80000007153,162129.811,162139.89999997616,162146.481,162646.525,,45,the
screen,html.Screen,0_4_1_0_1_46,2021-11-19T12:00:05.051Z,,,,,,,,,,,,,,,,11,,,,,,,,,,,,,,396.2750000715314,,response,,,4,F,,,,,Space,keypress(Space),,,,instrumental,----- -- ---- --- -- --- -------- ------------ ---------- --<br>- ------- ------ --------- -- ------------ -- --- ---- -----<br>------ ---- ---- ------ ------ ------- --- ----- ---------<br>---- --- -------- -------- --- --- -- ------- --- --- -----<br>-- --- ------ ------- --- --- script's ---- --------- --<br>---------- -- -------- ----------------,163043.60000002384,163042.80000007153,162629.856,162645.30000007153,162646.525,163046.678,,46,script's
screen,html.Screen,0_4_1_0_1_47,2021-11-19T12:00:05.435Z,,,,,,,,,,,,,,,,11,,,,,,,,,,,,,,380.12200007151114,,response,,,4,F,,,,,Space,keypress(Space),,,,instrumental,----- -- ---- --- -- --- -------- ------------ ---------- --<br>- ------- ------ --------- -- ------------ -- --- ---- -----<br>------ ---- ---- ------ ------ ------- --- ----- ---------<br>---- --- -------- -------- --- --- -- ------- --- --- -----<br>-- --- ------ ------- --- --- -------- mere --------- --<br>---------- -- -------- ----------------,163427.60000002384,163426.80000007153,163030.008,163043.89999997616,163046.678,163430.129,,47,mere
screen,html.Screen,0_4_1_0_1_48,2021-11-19T12:00:05.868Z,,,,,,,,,,,,,,,,11,,,,,,,,,,,,,,429.37100000001374,,response,,,4,F,,,,,Space,keypress(Space),,,,instrumental,----- -- ---- --- -- --- -------- ------------ ---------- --<br>- ------- ------ --------- -- ------------ -- --- ---- -----<br>------ ---- ---- ------ ------ ------- --- ----- ---------<br>---- --- -------- -------- --- --- -- ------- --- --- -----<br>-- --- ------ ------- --- --- -------- ---- existence --<br>---------- -- -------- ----------------,163860.30000007153,163859.5,163413.459,163427.89999997616,163430.129,163863.691,,48,existence
screen,html.Screen,0_4_1_0_1_49,2021-11-19T12:00:06.259Z,,,,,,,,,,,,,,,,11,,,,,,,,,,,,,,387.0090000476921,,response,,,4,F,,,,,Space,keypress(Space),,,,instrumental,----- -- ---- --- -- --- -------- ------------ ---------- --<br>- ------- ------ --------- -- ------------ -- --- ---- -----<br>------ ---- ---- ------ ------ ------- --- ----- ---------<br>---- --- -------- -------- --- --- -- ------- --- --- -----<br>-- --- ------ ------- --- --- -------- ---- --------- is<br>---------- -- -------- ----------------,164251.5,164250.70000004768,163847.019,163860.60000002384,163863.691,164263.75,,49,is
screen,html.Screen,0_4_1_0_1_50,2021-11-19T12:00:06.859Z,,,,,,,,,,,,,,,,11,,,,,,,,,,,,,,586.9500000476837,,response,,,4,F,,,,,Space,keypress(Space),,,,instrumental,----- -- ---- --- -- --- -------- ------------ ---------- --<br>- ------- ------ --------- -- ------------ -- --- ---- -----<br>------ ---- ---- ------ ------ ------- --- ----- ---------<br>---- --- -------- -------- --- --- -- ------- --- --- -----<br>-- --- ------ ------- --- --- -------- ---- --------- --<br>sufficient -- -------- ----------------,164851.39999997616,164850.70000004768,164247.079,164251.70000004768,164263.75,164863.742,,50,sufficient
