sender,sender_type,sender_id,timestamp,meta,,Blues,Classical,Country,Dance,Electronic,Folk,Gospel,Hip-Hop,Jazz,Latin,Musical/Film,New-age,Pop,Provo_ID,R&B,Rap,Reggae,Religious,Rock,Soul,Swing,Traditional,age,artist_name,correct,correctResponse,distraction,duration,education,ended_on,familiarity,gender,item,list,music_frequency,offensiveness,pleasantness,preference,response,response_action,snippet_file,song_name,song_rating,sound,text,time_commit,time_end,time_render,time_run,time_show,time_switch,url,word,word_ID
Instructions,html.Page,0_0,2021-11-19T12:38:09.350Z,"{""labjs_version"":""20.2.3"",""labjs_build"":{""flavor"":""production"",""commit"":""7ea907d66ca8aeef8054924ca5d82ffbe11e34e5""},""location"":""https://run.pavlovia.org/mvasilev/lab_music_c/"",""userAgent"":""Mozilla/5.0 (Windows NT 6.1; Win64; x64) AppleWebKit/537.36 (KHTML, like Gecko) Chrome/96.0.4664.45 Safari/537.36"",""platform"":""Win32"",""language"":""en-US"",""locale"":""en-US"",""timeZone"":""Europe/London"",""timezoneOffset"":0,""screen_width"":1920,""screen_height"":1080,""scroll_width"":1920,""scroll_height"":959,""window_innerWidth"":1920,""window_innerHeight"":1007,""devicePixelRatio"":1}",,,,,,,,,,,,,,,,,,,,,,,,,,,,,39345.412999904634,,form submission,,,,,,,,,,,,,,,,53576.299999952316,53575.09999990463,14179.674,14195.200000047684,14229.687,53585.266,{},,
Headphones,html.Page,0_1,2021-11-19T12:38:13.240Z,,,,,,,,,,,,,,,,,,,,,,,,,,,,,,3880.533999952313,,form submission,,,,,,,,,,,,,,,,57466.200000047684,57465.799999952316,53568.598,53577,53585.266,57474.088,,,
Holding screen,html.Screen,0_2_0_0,2021-11-19T12:38:23.243Z,,,,,,,,,,,,,,,,,,,,,,,,,,,,,,10003.077999999994,,timeout,,,,,,,,,,,,,,,,67466.70000004768,67460.497,57457.42,57466.89999985695,57474.088,67477.166,,,
screen,html.Screen,0_2_0_1_0,2021-11-19T12:38:24.539Z,,,,,,,,,,,,,,,,53,,,,,,,,,,,,,,1283.5340000476863,,response,,,99,,,,,,Space,keypress(Space),,,,,When -- ----- -- ------ - ------- --- ----------<br>------------- ------ ------ ---- ---- ------- ----- -- ----<br>-------- ------- -- ---------- --- - --- ----- ----- ----<br>---- --- --- ----- --- ---- ---- ------- ----- ---- -------<br>--- --- -- ----- -- --- ---- -- --- ---- -- ------ ------<br>--- ----- -- ----,68762.09999990463,68760.70000004768,67460.497,67467.20000004768,67477.166,68777.933,,0,When
screen,html.Screen,0_2_0_1_1,2021-11-19T12:38:25.042Z,,,,,,,,,,,,,,,,53,,,,,,,,,,,,,,486.2670000476792,,response,,,99,,,,,,Space,keypress(Space),,,,,---- it ----- -- ------ - ------- --- ----------<br>------------- ------ ------ ---- ---- ------- ----- -- ----<br>-------- ------- -- ---------- --- - --- ----- ----- ----<br>---- --- --- ----- --- ---- ---- ------- ----- ---- -------<br>--- --- -- ----- -- --- ---- -- --- ---- -- ------ ------<br>--- ----- -- ----,69265.09999990463,69264.20000004768,68761.261,68762.5,68777.933,69277.833,,1,it
screen,html.Screen,0_2_0_1_2,2021-11-19T12:38:25.714Z,,,,,,,,,,,,,,,,53,,,,,,,,,,,,,,658.2669999046338,,response,,,99,,,,,,Space,keypress(Space),,,,,---- -- comes -- ------ - ------- --- ----------<br>------------- ------ ------ ---- ---- ------- ----- -- ----<br>-------- ------- -- ---------- --- - --- ----- ----- ----<br>---- --- --- ----- --- ---- ---- ------- ----- ---- -------<br>--- --- -- ----- -- --- ---- -- --- ---- -- ------ ------<br>--- ----- -- ----,69937,69936.09999990463,69261.163,69265.29999995232,69277.833,69944.799,,2,comes
screen,html.Screen,0_2_0_1_3,2021-11-19T12:38:26.090Z,,,,,,,,,,,,,,,,53,,,,,,,,,,,,,,367.3009999046335,,response,,,99,,,,,,Space,keypress(Space),,,,,---- -- ----- to ------ - ------- --- ----------<br>------------- ------ ------ ---- ---- ------- ----- -- ----<br>-------- ------- -- ---------- --- - --- ----- ----- ----<br>---- --- --- ----- --- ---- ---- ------- ----- ---- -------<br>--- --- -- ----- -- --- ---- -- --- ---- -- ------ ------<br>--- ----- -- ----,70313.09999990463,70312.09999990463,69928.128,69937.20000004768,69944.799,70328.235,,3,to
screen,html.Screen,0_2_0_1_4,2021-11-19T12:38:26.762Z,,,,,,,,,,,,,,,,53,,,,,,,,,,,,,,656.0649999523157,,response,,,99,,,,,,Space,keypress(Space),,,,,---- -- ----- -- having - ------- --- ----------<br>------------- ------ ------ ---- ---- ------- ----- -- ----<br>-------- ------- -- ---------- --- - --- ----- ----- ----<br>---- --- --- ----- --- ---- ---- ------- ----- ---- -------<br>--- --- -- ----- -- --- ---- -- --- ---- -- ------ ------<br>--- ----- -- ----,70985.39999985695,70984.29999995232,70311.564,70313.59999990463,70328.235,70995.086,,4,having
screen,html.Screen,0_2_0_1_5,2021-11-19T12:38:27.160Z,,,,,,,,,,,,,,,,53,,,,,,,,,,,,,,388.5139999046369,,response,,,99,,,,,,Space,keypress(Space),,,,,---- -- ----- -- ------ a ------- --- ----------<br>------------- ------ ------ ---- ---- ------- ----- -- ----<br>-------- ------- -- ---------- --- - --- ----- ----- ----<br>---- --- --- ----- --- ---- ---- ------- ----- ---- -------<br>--- --- -- ----- -- --- ---- -- --- ---- -- ------ ------<br>--- ----- -- ----,71384,71383.59999990463,70978.415,70985.70000004768,70995.086,71395.042,,5,a
screen,html.Screen,0_2_0_1_6,2021-11-19T12:38:27.529Z,,,,,,,,,,,,,,,,53,,,,,,,,,,,,,,356.5579999046313,,response,,,99,,,,,,Space,keypress(Space),,,,,---- -- ----- -- ------ - lasting --- ----------<br>------------- ------ ------ ---- ---- ------- ----- -- ----<br>-------- ------- -- ---------- --- - --- ----- ----- ----<br>---- --- --- ----- --- ---- ---- ------- ----- ---- -------<br>--- --- -- ----- -- --- ---- -- --- ---- -- ------ ------<br>--- ----- -- ----,71752,71751.59999990463,71378.373,71384.09999990463,71395.042,71761.938,,6,lasting
screen,html.Screen,0_2_0_1_7,2021-11-19T12:38:28.001Z,,,,,,,,,,,,,,,,53,,,,,,,,,,,,,,461.9619998569542,,response,,,99,,,,,,Space,keypress(Space),,,,,---- -- ----- -- ------ - ------- and ----------<br>------------- ------ ------ ---- ---- ------- ----- -- ----<br>-------- ------- -- ---------- --- - --- ----- ----- ----<br>---- --- --- ----- --- ---- ---- ------- ----- ---- -------<br>--- --- -- ----- -- --- ---- -- --- ---- -- ------ ------<br>--- ----- -- ----,72224.79999995232,72223.89999985695,71745.267,71752.09999990463,71761.938,72228.544,,7,and
screen,html.Screen,0_2_0_1_8,2021-11-19T12:38:28.674Z,,,,,,,,,,,,,,,,53,,,,,,,,,,,,,,667.4560000000056,,response,,,99,,,,,,Space,keypress(Space),,,,,---- -- ----- -- ------ - ------- --- fulfilling<br>------------- ------ ------ ---- ---- ------- ----- -- ----<br>-------- ------- -- ---------- --- - --- ----- ----- ----<br>---- --- --- ----- --- ---- ---- ------- ----- ---- -------<br>--- --- -- ----- -- --- ---- -- --- ---- -- ------ ------<br>--- ----- -- ----,72897.09999990463,72896,72211.876,72225.09999990463,72228.544,72912.202,,8,fulfilling
screen,html.Screen,0_2_0_1_9,2021-11-19T12:38:29.457Z,,,,,,,,,,,,,,,,53,,,,,,,,,,,,,,767.6979998569441,,response,,,99,,,,,,Space,keypress(Space),,,,,"---- -- ----- -- ------ - ------- --- ----------<br>relationship, ------ ------ ---- ---- ------- ----- -- ----<br>-------- ------- -- ---------- --- - --- ----- ----- ----<br>---- --- --- ----- --- ---- ---- ------- ----- ---- -------<br>--- --- -- ----- -- --- ---- -- --- ---- -- ------ ------<br>--- ----- -- ----",73680.79999995232,73679.89999985695,72895.531,72897.29999995232,72912.202,73695.784,,9,"relationship,"
screen,html.Screen,0_2_0_1_10,2021-11-19T12:38:29.849Z,,,,,,,,,,,,,,,,53,,,,,,,,,,,,,,376.1159998569492,,response,,,99,,,,,,Space,keypress(Space),,,,,---- -- ----- -- ------ - ------- --- ----------<br>------------- common ------ ---- ---- ------- ----- -- ----<br>-------- ------- -- ---------- --- - --- ----- ----- ----<br>---- --- --- ----- --- ---- ---- ------- ----- ---- -------<br>--- --- -- ----- -- --- ---- -- --- ---- -- ------ ------<br>--- ----- -- ----,74072.89999985695,74071.89999985695,73679.113,73681.09999990463,73695.784,74079.224,,10,common
screen,html.Screen,0_2_0_1_11,2021-11-19T12:38:30.449Z,,,,,,,,,,,,,,,,53,,,,,,,,,,,,,,592.6759998569469,,response,,,99,,,,,,Space,keypress(Space),,,,,---- -- ----- -- ------ - ------- --- ----------<br>------------- ------ wisdom ---- ---- ------- ----- -- ----<br>-------- ------- -- ---------- --- - --- ----- ----- ----<br>---- --- --- ----- --- ---- ---- ------- ----- ---- -------<br>--- --- -- ----- -- --- ---- -- --- ---- -- ------ ------<br>--- ----- -- ----,74672.89999985695,74671.89999985695,74062.553,74073.09999990463,74079.224,74679.416,,11,wisdom
screen,html.Screen,0_2_0_1_12,2021-11-19T12:38:30.817Z,,,,,,,,,,,,,,,,53,,,,,,,,,,,,,,360.38399995231885,,response,,,99,,,,,,Space,keypress(Space),,,,,---- -- ----- -- ------ - ------- --- ----------<br>------------- ------ ------ says ---- ------- ----- -- ----<br>-------- ------- -- ---------- --- - --- ----- ----- ----<br>---- --- --- ----- --- ---- ---- ------- ----- ---- -------<br>--- --- -- ----- -- --- ---- -- --- ---- -- ------ ------<br>--- ----- -- ----,75040.59999990463,75039.79999995232,74662.745,74673.09999990463,74679.416,75046.188,,12,says
screen,html.Screen,0_2_0_1_13,2021-11-19T12:38:31.313Z,,,,,,,,,,,,,,,,53,,,,,,,,,,,,,,489.7119998569542,,response,,,99,,,,,,Space,keypress(Space),,,,,---- -- ----- -- ------ - ------- --- ----------<br>------------- ------ ------ ---- that ------- ----- -- ----<br>-------- ------- -- ---------- --- - --- ----- ----- ----<br>---- --- --- ----- --- ---- ---- ------- ----- ---- -------<br>--- --- -- ----- -- --- ---- -- --- ---- -- ------ ------<br>--- ----- -- ----,75536.59999990463,75535.89999985695,75029.517,75040.79999995232,75046.188,75546.269,,13,that
screen,html.Screen,0_2_0_1_14,2021-11-19T12:38:31.745Z,,,,,,,,,,,,,,,,53,,,,,,,,,,,,,,421.53099995231605,,response,,,99,,,,,,Space,keypress(Space),,,,,---- -- ----- -- ------ - ------- --- ----------<br>------------- ------ ------ ---- ---- feeling ----- -- ----<br>-------- ------- -- ---------- --- - --- ----- ----- ----<br>---- --- --- ----- --- ---- ---- ------- ----- ---- -------<br>--- --- -- ----- -- --- ---- -- --- ---- -- ------ ------<br>--- ----- -- ----,75968.59999990463,75967.79999995232,75529.599,75537,75546.269,75979.752,,14,feeling
screen,html.Screen,0_2_0_1_15,2021-11-19T12:38:32.137Z,,,,,,,,,,,,,,,,53,,,,,,,,,,,,,,379.9480000476906,,response,,,99,,,,,,Space,keypress(Space),,,,,---- -- ----- -- ------ - ------- --- ----------<br>------------- ------ ------ ---- ---- ------- close -- ----<br>-------- ------- -- ---------- --- - --- ----- ----- ----<br>---- --- --- ----- --- ---- ---- ------- ----- ---- -------<br>--- --- -- ----- -- --- ---- -- --- ---- -- ------ ------<br>--- ----- -- ----,76360.5,76359.70000004768,75963.081,75968.89999985695,75979.752,76363.135,,15,close
screen,html.Screen,0_2_0_1_16,2021-11-19T12:38:32.569Z,,,,,,,,,,,,,,,,53,,,,,,,,,,,,,,428.6649999523215,,response,,,99,,,,,,Space,keypress(Space),,,,,---- -- ----- -- ------ - ------- --- ----------<br>------------- ------ ------ ---- ---- ------- ----- to ----<br>-------- ------- -- ---------- --- - --- ----- ----- ----<br>---- --- --- ----- --- ---- ---- ------- ----- ---- -------<br>--- --- -- ----- -- --- ---- -- --- ---- -- ------ ------<br>--- ----- -- ----,76792.59999990463,76791.79999995232,76346.465,76360.70000004768,76363.135,76796.667,,16,to
screen,html.Screen,0_2_0_1_17,2021-11-19T12:38:33.217Z,,,,,,,,,,,,,,,,53,,,,,,,,,,,,,,643.0330000476824,,response,,,99,,,,,,Space,keypress(Space),,,,,---- -- ----- -- ------ - ------- --- ----------<br>------------- ------ ------ ---- ---- ------- ----- -- your<br>-------- ------- -- ---------- --- - --- ----- ----- ----<br>---- --- --- ----- --- ---- ---- ------- ----- ---- -------<br>--- --- -- ----- -- --- ---- -- --- ---- -- ------ ------<br>--- ----- -- ----,77440.39999985695,77439.70000004768,76779.996,76792.79999995232,76796.667,77446.819,,17,your
screen,html.Screen,0_2_0_1_18,2021-11-19T12:38:33.681Z,,,,,,,,,,,,,,,,53,,,,,,,,,,,,,,456.8810000476806,,response,,,99,,,,,,Space,keypress(Space),,,,,---- -- ----- -- ------ - ------- --- ----------<br>------------- ------ ------ ---- ---- ------- ----- -- ----<br>romantic ------- -- ---------- --- - --- ----- ----- ----<br>---- --- --- ----- --- ---- ---- ------- ----- ---- -------<br>--- --- -- ----- -- --- ---- -- --- ---- -- ------ ------<br>--- ----- -- ----,77904.5,77903.70000004768,77430.148,77440.70000004768,77446.819,77913.465,,18,romantic
screen,html.Screen,0_2_0_1_19,2021-11-19T12:38:34.193Z,,,,,,,,,,,,,,,,53,,,,,,,,,,,,,,502.2350000476872,,response,,,99,,,,,,Space,keypress(Space),,,,,---- -- ----- -- ------ - ------- --- ----------<br>------------- ------ ------ ---- ---- ------- ----- -- ----<br>-------- partner -- ---------- --- - --- ----- ----- ----<br>---- --- --- ----- --- ---- ---- ------- ----- ---- -------<br>--- --- -- ----- -- --- ---- -- --- ---- -- ------ ------<br>--- ----- -- ----,78416.39999985695,78415.70000004768,77896.796,77904.79999995232,77913.465,78430.423,,19,partner
screen,html.Screen,0_2_0_1_20,2021-11-19T12:38:34.521Z,,,,,,,,,,,,,,,,53,,,,,,,,,,,,,,313.17699990463734,,response,,,99,,,,,,Space,keypress(Space),,,,,---- -- ----- -- ------ - ------- --- ----------<br>------------- ------ ------ ---- ---- ------- ----- -- ----<br>-------- ------- is ---------- --- - --- ----- ----- ----<br>---- --- --- ----- --- ---- ---- ------- ----- ---- -------<br>--- --- -- ----- -- --- ---- -- --- ---- -- ------ ------<br>--- ----- -- ----,78744.39999985695,78743.59999990463,78413.752,78416.70000004768,78430.423,78747.164,,20,is
screen,html.Screen,0_2_0_1_21,2021-11-19T12:38:34.953Z,,,,,,,,,,,,,,,,53,,,,,,,,,,,,,,428.93599990462826,,response,,,99,,,,,,Space,keypress(Space),,,,,---- -- ----- -- ------ - ------- --- ----------<br>------------- ------ ------ ---- ---- ------- ----- -- ----<br>-------- ------- -- paramount. --- - --- ----- ----- ----<br>---- --- --- ----- --- ---- ---- ------- ----- ---- -------<br>--- --- -- ----- -- --- ---- -- --- ---- -- ------ ------<br>--- ----- -- ----,79176.89999985695,79176.09999990463,78730.493,78744.59999990463,78747.164,79180.509,,21,paramount.
screen,html.Screen,0_2_0_1_22,2021-11-19T12:38:35.929Z,,,,,,,,,,,,,,,,53,,,,,,,,,,,,,,971.0909999046271,,response,,,99,,,,,,Space,keypress(Space),,,,,---- -- ----- -- ------ - ------- --- ----------<br>------------- ------ ------ ---- ---- ------- ----- -- ----<br>-------- ------- -- ---------- But - --- ----- ----- ----<br>---- --- --- ----- --- ---- ---- ------- ----- ---- -------<br>--- --- -- ----- -- --- ---- -- --- ---- -- ------ ------<br>--- ----- -- ----,80152.39999985695,80151.59999990463,79163.84,79177.29999995232,79180.509,80164.312,,22,But
screen,html.Screen,0_2_0_1_23,2021-11-19T12:38:36.409Z,,,,,,,,,,,,,,,,53,,,,,,,,,,,,,,467.38800004767836,,response,,,99,,,,,,Space,keypress(Space),,,,,---- -- ----- -- ------ - ------- --- ----------<br>------------- ------ ------ ---- ---- ------- ----- -- ----<br>-------- ------- -- ---------- --- a --- ----- ----- ----<br>---- --- --- ----- --- ---- ---- ------- ----- ---- -------<br>--- --- -- ----- -- --- ---- -- --- ---- -- ------ ------<br>--- ----- -- ----,80632.5,80631.70000004768,80147.64,80152.70000004768,80164.312,80647.722,,23,a
screen,html.Screen,0_2_0_1_24,2021-11-19T12:38:36.889Z,,,,,,,,,,,,,,,,53,,,,,,,,,,,,,,463.8779999046383,,response,,,99,,,,,,Space,keypress(Space),,,,,---- -- ----- -- ------ - ------- --- ----------<br>------------- ------ ------ ---- ---- ------- ----- -- ----<br>-------- ------- -- ---------- --- - new ----- ----- ----<br>---- --- --- ----- --- ---- ---- ------- ----- ---- -------<br>--- --- -- ----- -- --- ---- -- --- ---- -- ------ ------<br>--- ----- -- ----,81112.39999985695,81111.59999990463,80631.051,80632.70000004768,80647.722,81114.44,,24,new
screen,html.Screen,0_2_0_1_25,2021-11-19T12:38:37.401Z,,,,,,,,,,,,,,,,53,,,,,,,,,,,,,,509.15999990463024,,response,,,99,,,,,,Space,keypress(Space),,,,,---- -- ----- -- ------ - ------- --- ----------<br>------------- ------ ------ ---- ---- ------- ----- -- ----<br>-------- ------- -- ---------- --- - --- study ----- ----<br>---- --- --- ----- --- ---- ---- ------- ----- ---- -------<br>--- --- -- ----- -- --- ---- -- --- ---- -- ------ ------<br>--- ----- -- ----,81624.39999985695,81623.59999990463,81097.77,81112.70000004768,81114.44,81631.239,,25,study
screen,html.Screen,0_2_0_1_26,2021-11-19T12:38:37.873Z,,,,,,,,,,,,,,,,53,,,,,,,,,,,,,,464.36099990463117,,response,,,99,,,,,,Space,keypress(Space),,,,,---- -- ----- -- ------ - ------- --- ----------<br>------------- ------ ------ ---- ---- ------- ----- -- ----<br>-------- ------- -- ---------- --- - --- ----- finds ----<br>---- --- --- ----- --- ---- ---- ------- ----- ---- -------<br>--- --- -- ----- -- --- ---- -- --- ---- -- ------ ------<br>--- ----- -- ----,82096.39999985695,82095.59999990463,81614.569,81624.70000004768,81631.239,82098.067,,26,finds
screen,html.Screen,0_2_0_1_27,2021-11-19T12:38:38.561Z,,,,,,,,,,,,,,,,53,,,,,,,,,,,,,,685.4330000000045,,response,,,99,,,,,,Space,keypress(Space),,,,,---- -- ----- -- ------ - ------- --- ----------<br>------------- ------ ------ ---- ---- ------- ----- -- ----<br>-------- ------- -- ---------- --- - --- ----- ----- that<br>---- --- --- ----- --- ---- ---- ------- ----- ---- -------<br>--- --- -- ----- -- --- ---- -- --- ---- -- ------ ------<br>--- ----- -- ----,82784.29999995232,82783.5,82081.396,82096.59999990463,82098.067,82798.201,,27,that
screen,html.Screen,0_2_0_1_28,2021-11-19T12:38:39.209Z,,,,,,,,,,,,,,,,53,,,,,,,,,,,,,,633.2989999999991,,response,,,99,,,,,,Space,keypress(Space),,,,,---- -- ----- -- ------ - ------- --- ----------<br>------------- ------ ------ ---- ---- ------- ----- -- ----<br>-------- ------- -- ---------- --- - --- ----- ----- ----<br>it's --- --- ----- --- ---- ---- ------- ----- ---- -------<br>--- --- -- ----- -- --- ---- -- --- ---- -- ------ ------<br>--- ----- -- ----,83432.29999995232,83431.5,82781.531,82784.59999990463,82798.201,83448.446,,28,it's
screen,html.Screen,0_2_0_1_29,2021-11-19T12:38:39.681Z,,,,,,,,,,,,,,,,53,,,,,,,,,,,,,,455.1539999046363,,response,,,99,,,,,,Space,keypress(Space),,,,,---- -- ----- -- ------ - ------- --- ----------<br>------------- ------ ------ ---- ---- ------- ----- -- ----<br>-------- ------- -- ---------- --- - --- ----- ----- ----<br>---- not --- ----- --- ---- ---- ------- ----- ---- -------<br>--- --- -- ----- -- --- ---- -- --- ---- -- ------ ------<br>--- ----- -- ----,83904.39999985695,83903.59999990463,83431.775,83432.5,83448.446,83915.179,,29,not
screen,html.Screen,0_2_0_1_30,2021-11-19T12:38:40.049Z,,,,,,,,,,,,,,,,53,,,,,,,,,,,,,,356.3209999999963,,response,,,99,,,,,,Space,keypress(Space),,,,,---- -- ----- -- ------ - ------- --- ----------<br>------------- ------ ------ ---- ---- ------- ----- -- ----<br>-------- ------- -- ---------- --- - --- ----- ----- ----<br>---- --- how ----- --- ---- ---- ------- ----- ---- -------<br>--- --- -- ----- -- --- ---- -- --- ---- -- ------ ------<br>--- ----- -- ----,84272.29999995232,84271.5,83898.509,83904.59999990463,83915.179,84281.908,,30,how
screen,html.Screen,0_2_0_1_31,2021-11-19T12:38:40.529Z,,,,,,,,,,,,,,,,53,,,,,,,,,,,,,,469.49199985695304,,response,,,99,,,,,,Space,keypress(Space),,,,,---- -- ----- -- ------ - ------- --- ----------<br>------------- ------ ------ ---- ---- ------- ----- -- ----<br>-------- ------- -- ---------- --- - --- ----- ----- ----<br>---- --- --- close --- ---- ---- ------- ----- ---- -------<br>--- --- -- ----- -- --- ---- -- --- ---- -- ------ ------<br>--- ----- -- ----,84752.39999985695,84751.39999985695,84265.238,84272.70000004768,84281.908,84765.486,,31,close
screen,html.Screen,0_2_0_1_32,2021-11-19T12:38:40.977Z,,,,,,,,,,,,,,,,53,,,,,,,,,,,,,,434.0139999999956,,response,,,99,,,,,,Space,keypress(Space),,,,,---- -- ----- -- ------ - ------- --- ----------<br>------------- ------ ------ ---- ---- ------- ----- -- ----<br>-------- ------- -- ---------- --- - --- ----- ----- ----<br>---- --- --- ----- you ---- ---- ------- ----- ---- -------<br>--- --- -- ----- -- --- ---- -- --- ---- -- ------ ------<br>--- ----- -- ----,85200.20000004768,85199.5,84748.814,84752.59999990463,84765.486,85215.524,,32,you
screen,html.Screen,0_2_0_1_33,2021-11-19T12:38:41.401Z,,,,,,,,,,,,,,,,53,,,,,,,,,,,,,,407.87599985694396,,response,,,99,,,,,,Space,keypress(Space),,,,,---- -- ----- -- ------ - ------- --- ----------<br>------------- ------ ------ ---- ---- ------- ----- -- ----<br>-------- ------- -- ---------- --- - --- ----- ----- ----<br>---- --- --- ----- --- feel ---- ------- ----- ---- -------<br>--- --- -- ----- -- --- ---- -- --- ---- -- ------ ------<br>--- ----- -- ----,85624.20000004768,85623.39999985695,85198.854,85200.5,85215.524,85632.29,,33,feel
screen,html.Screen,0_2_0_1_34,2021-11-19T12:38:42.089Z,,,,,,,,,,,,,,,,53,,,,,,,,,,,,,,679.1099998569553,,response,,,99,,,,,,Space,keypress(Space),,,,,---- -- ----- -- ------ - ------- --- ----------<br>------------- ------ ------ ---- ---- ------- ----- -- ----<br>-------- ------- -- ---------- --- - --- ----- ----- ----<br>---- --- --- ----- --- ---- that ------- ----- ---- -------<br>--- --- -- ----- -- --- ---- -- --- ---- -- ------ ------<br>--- ----- -- ----,86312.20000004768,86311.39999985695,85615.62,85624.5,85632.29,86315.859,,34,that
screen,html.Screen,0_2_0_1_35,2021-11-19T12:38:42.665Z,,,,,,,,,,,,,,,,53,,,,,,,,,,,,,,571.4409999523195,,response,,,99,,,,,,Space,keypress(Space),,,,,---- -- ----- -- ------ - ------- --- ----------<br>------------- ------ ------ ---- ---- ------- ----- -- ----<br>-------- ------- -- ---------- --- - --- ----- ----- ----<br>---- --- --- ----- --- ---- ---- matters ----- ---- -------<br>--- --- -- ----- -- --- ---- -- --- ---- -- ------ ------<br>--- ----- -- ----,86888.20000004768,86887.29999995232,86299.188,86312.39999985695,86315.859,86899.351,,35,matters
screen,html.Screen,0_2_0_1_36,2021-11-19T12:38:44.169Z,,,,,,,,,,,,,,,,53,,,,,,,,,,,,,,1491.9489999523212,,response,,,99,,,,,,Space,keypress(Space),,,,,"---- -- ----- -- ------ - ------- --- ----------<br>------------- ------ ------ ---- ---- ------- ----- -- ----<br>-------- ------- -- ---------- --- - --- ----- ----- ----<br>---- --- --- ----- --- ---- ---- ------- most, ---- -------<br>--- --- -- ----- -- --- ---- -- --- ---- -- ------ ------<br>--- ----- -- ----",88392.29999995232,88391.29999995232,86882.68,86888.5,86899.351,88399.487,,36,"most,"
screen,html.Screen,0_2_0_1_37,2021-11-19T12:38:44.753Z,,,,,,,,,,,,,,,,53,,,,,,,,,,,,,,575.8129999523226,,response,,,99,,,,,,Space,keypress(Space),,,,,---- -- ----- -- ------ - ------- --- ----------<br>------------- ------ ------ ---- ---- ------- ----- -- ----<br>-------- ------- -- ---------- --- - --- ----- ----- ----<br>---- --- --- ----- --- ---- ---- ------- ----- it's -------<br>--- --- -- ----- -- --- ---- -- --- ---- -- ------ ------<br>--- ----- -- ----,88976.09999990463,88975.29999995232,88382.818,88392.5,88399.487,88983.129,,37,it's
screen,html.Screen,0_2_0_1_38,2021-11-19T12:38:45.441Z,,,,,,,,,,,,,,,,53,,,,,,,,,,,,,,680.5710000476829,,response,,,99,,,,,,Space,keypress(Space),,,,,---- -- ----- -- ------ - ------- --- ----------<br>------------- ------ ------ ---- ---- ------- ----- -- ----<br>-------- ------- -- ---------- --- - --- ----- ----- ----<br>---- --- --- ----- --- ---- ---- ------- ----- ---- whether<br>--- --- -- ----- -- --- ---- -- --- ---- -- ------ ------<br>--- ----- -- ----,89664.59999990463,89663.70000004768,88966.459,88976.20000004768,88983.129,89666.76,,38,whether
screen,html.Screen,0_2_0_1_39,2021-11-19T12:38:46.232Z,,,,,,,,,,,,,,,,53,,,,,,,,,,,,,,788.440000047689,,response,,,99,,,,,,Space,keypress(Space),,,,,---- -- ----- -- ------ - ------- --- ----------<br>------------- ------ ------ ---- ---- ------- ----- -- ----<br>-------- ------- -- ---------- --- - --- ----- ----- ----<br>---- --- --- ----- --- ---- ---- ------- ----- ---- -------<br>you --- -- ----- -- --- ---- -- --- ---- -- ------ ------<br>--- ----- -- ----,90456,90455.20000004768,89650.089,89664.79999995232,89666.76,90466.996,,39,you
screen,html.Screen,0_2_0_1_40,2021-11-19T12:38:46.768Z,,,,,,,,,,,,,,,,53,,,,,,,,,,,,,,524.2040000476845,,response,,,99,,,,,,Space,keypress(Space),,,,,---- -- ----- -- ------ - ------- --- ----------<br>------------- ------ ------ ---- ---- ------- ----- -- ----<br>-------- ------- -- ---------- --- - --- ----- ----- ----<br>---- --- --- ----- --- ---- ---- ------- ----- ---- -------<br>--- are -- ----- -- --- ---- -- --- ---- -- ------ ------<br>--- ----- -- ----,90992,90991.20000004768,90450.325,90456.20000004768,90466.996,91000.459,,40,are
screen,html.Screen,0_2_0_1_41,2021-11-19T12:38:47.448Z,,,,,,,,,,,,,,,,53,,,,,,,,,,,,,,670.7410000476812,,response,,,99,,,,,,Space,keypress(Space),,,,,---- -- ----- -- ------ - ------- --- ----------<br>------------- ------ ------ ---- ---- ------- ----- -- ----<br>-------- ------- -- ---------- --- - --- ----- ----- ----<br>---- --- --- ----- --- ---- ---- ------- ----- ---- -------<br>--- --- as ----- -- --- ---- -- --- ---- -- ------ ------<br>--- ----- -- ----,91672,91671.20000004768,90983.788,90992.20000004768,91000.459,91683.976,,41,as
screen,html.Screen,0_2_0_1_42,2021-11-19T12:38:48.336Z,,,,,,,,,,,,,,,,53,,,,,,,,,,,,,,875.0240000000049,,response,,,99,,,,,,Space,keypress(Space),,,,,---- -- ----- -- ------ - ------- --- ----------<br>------------- ------ ------ ---- ---- ------- ----- -- ----<br>-------- ------- -- ---------- --- - --- ----- ----- ----<br>---- --- --- ----- --- ---- ---- ------- ----- ---- -------<br>--- --- -- close -- --- ---- -- --- ---- -- ------ ------<br>--- ----- -- ----,92559.89999985695,92559,91667.305,91672.29999995232,91683.976,92567.476,,42,close
screen,html.Screen,0_2_0_1_43,2021-11-19T12:38:48.880Z,,,,,,,,,,,,,,,,53,,,,,,,,,,,,,,535.6239999046375,,response,,,99,,,,,,Space,keypress(Space),,,,,---- -- ----- -- ------ - ------- --- ----------<br>------------- ------ ------ ---- ---- ------- ----- -- ----<br>-------- ------- -- ---------- --- - --- ----- ----- ----<br>---- --- --- ----- --- ---- ---- ------- ----- ---- -------<br>--- --- -- ----- as --- ---- -- --- ---- -- ------ ------<br>--- ----- -- ----,93103.89999985695,93103.09999990463,92550.806,92560.09999990463,92567.476,93117.69,,43,as
screen,html.Screen,0_2_0_1_44,2021-11-19T12:38:49.424Z,,,,,,,,,,,,,,,,53,,,,,,,,,,,,,,529.4099999046302,,response,,,99,,,,,,Space,keypress(Space),,,,,---- -- ----- -- ------ - ------- --- ----------<br>------------- ------ ------ ---- ---- ------- ----- -- ----<br>-------- ------- -- ---------- --- - --- ----- ----- ----<br>---- --- --- ----- --- ---- ---- ------- ----- ---- -------<br>--- --- -- ----- -- you ---- -- --- ---- -- ------ ------<br>--- ----- -- ----,93647.89999985695,93647.09999990463,93101.019,93104.09999990463,93117.69,93651.177,,44,you
screen,html.Screen,0_2_0_1_45,2021-11-19T12:38:49.896Z,,,,,,,,,,,,,,,,53,,,,,,,,,,,,,,467.9229999046365,,response,,,99,,,,,,Space,keypress(Space),,,,,---- -- ----- -- ------ - ------- --- ----------<br>------------- ------ ------ ---- ---- ------- ----- -- ----<br>-------- ------- -- ---------- --- - --- ----- ----- ----<br>---- --- --- ----- --- ---- ---- ------- ----- ---- -------<br>--- --- -- ----- -- --- want -- --- ---- -- ------ ------<br>--- ----- -- ----,94119.79999995232,94119.09999990463,93634.506,93648.09999990463,93651.177,94134.599,,45,want
screen,html.Screen,0_2_0_1_46,2021-11-19T12:38:50.424Z,,,,,,,,,,,,,,,,53,,,,,,,,,,,,,,512.400999999998,,response,,,99,,,,,,Space,keypress(Space),,,,,---- -- ----- -- ------ - ------- --- ----------<br>------------- ------ ------ ---- ---- ------- ----- -- ----<br>-------- ------- -- ---------- --- - --- ----- ----- ----<br>---- --- --- ----- --- ---- ---- ------- ----- ---- -------<br>--- --- -- ----- -- --- ---- to --- ---- -- ------ ------<br>--- ----- -- ----,94647.79999995232,94647,94117.929,94120,94134.599,94651.439,,46,to
screen,html.Screen,0_2_0_1_47,2021-11-19T12:38:51.528Z,,,,,,,,,,,,,,,,53,,,,,,,,,,,,,,1099.4609998569504,,response,,,99,,,,,,Space,keypress(Space),,,,,"---- -- ----- -- ------ - ------- --- ----------<br>------------- ------ ------ ---- ---- ------- ----- -- ----<br>-------- ------- -- ---------- --- - --- ----- ----- ----<br>---- --- --- ----- --- ---- ---- ------- ----- ---- -------<br>--- --- -- ----- -- --- ---- -- be, ---- -- ------ ------<br>--- ----- -- ----",95751.70000004768,95750.89999985695,94634.768,94648,94651.439,95768.318,,47,"be,"
screen,html.Screen,0_2_0_1_48,2021-11-19T12:38:52.032Z,,,,,,,,,,,,,,,,53,,,,,,,,,,,,,,486.6820000000007,,response,,,99,,,,,,Space,keypress(Space),,,,,---- -- ----- -- ------ - ------- --- ----------<br>------------- ------ ------ ---- ---- ------- ----- -- ----<br>-------- ------- -- ---------- --- - --- ----- ----- ----<br>---- --- --- ----- --- ---- ---- ------- ----- ---- -------<br>--- --- -- ----- -- --- ---- -- --- even -- ------ ------<br>--- ----- -- ----,96255.70000004768,96255,95751.648,95751.89999985695,95768.318,96268.559,,48,even
screen,html.Screen,0_2_0_1_49,2021-11-19T12:38:52.568Z,,,,,,,,,,,,,,,,53,,,,,,,,,,,,,,522.340999856955,,response,,,99,,,,,,Space,keypress(Space),,,,,---- -- ----- -- ------ - ------- --- ----------<br>------------- ------ ------ ---- ---- ------- ----- -- ----<br>-------- ------- -- ---------- --- - --- ----- ----- ----<br>---- --- --- ----- --- ---- ---- ------- ----- ---- -------<br>--- --- -- ----- -- --- ---- -- --- ---- if ------ ------<br>--- ----- -- ----,96791.59999990463,96790.89999985695,96251.888,96255.89999985695,96268.559,96802.027,,49,if
screen,html.Screen,0_2_0_1_50,2021-11-19T12:38:52.992Z,,,,,,,,,,,,,,,,53,,,,,,,,,,,,,,412.872999856947,,response,,,99,,,,,,Space,keypress(Space),,,,,---- -- ----- -- ------ - ------- --- ----------<br>------------- ------ ------ ---- ---- ------- ----- -- ----<br>-------- ------- -- ---------- --- - --- ----- ----- ----<br>---- --- --- ----- --- ---- ---- ------- ----- ---- -------<br>--- --- -- ----- -- --- ---- -- --- ---- -- that's ------<br>--- ----- -- ----,97215.59999990463,97214.89999985695,96785.356,96791.89999985695,96802.027,97218.73,,50,that's
screen,html.Screen,0_2_0_1_51,2021-11-19T12:38:53.696Z,,,,,,,,,,,,,,,,53,,,,,,,,,,,,,,700.1699998569529,,response,,,99,,,,,,Space,keypress(Space),,,,,---- -- ----- -- ------ - ------- --- ----------<br>------------- ------ ------ ---- ---- ------- ----- -- ----<br>-------- ------- -- ---------- --- - --- ----- ----- ----<br>---- --- --- ----- --- ---- ---- ------- ----- ---- -------<br>--- --- -- ----- -- --- ---- -- --- ---- -- ------ really<br>--- ----- -- ----,97919.59999990463,97918.89999985695,97202.06,97215.89999985695,97218.73,97935.671,,51,really
screen,html.Screen,0_2_0_1_52,2021-11-19T12:38:54.464Z,,,,,,,,,,,,,,,,53,,,,,,,,,,,,,,751.2289998569468,,response,,,99,,,,,,Space,keypress(Space),,,,,---- -- ----- -- ------ - ------- --- ----------<br>------------- ------ ------ ---- ---- ------- ----- -- ----<br>-------- ------- -- ---------- --- - --- ----- ----- ----<br>---- --- --- ----- --- ---- ---- ------- ----- ---- -------<br>--- --- -- ----- -- --- ---- -- --- ---- -- ------ ------<br>not ----- -- ----,98687.59999990463,98686.89999985695,97919,97919.89999985695,97935.671,98702.547,,52,not
screen,html.Screen,0_2_0_1_53,2021-11-19T12:38:55.168Z,,,,,,,,,,,,,,,,53,,,,,,,,,,,,,,688.2529999523103,,response,,,99,,,,,,Space,keypress(Space),,,,,---- -- ----- -- ------ - ------- --- ----------<br>------------- ------ ------ ---- ---- ------- ----- -- ----<br>-------- ------- -- ---------- --- - --- ----- ----- ----<br>---- --- --- ----- --- ---- ---- ------- ----- ---- -------<br>--- --- -- ----- -- --- ---- -- --- ---- -- ------ ------<br>--- close -- ----,99391.59999990463,99390.79999995232,98685.876,98687.89999985695,98702.547,99402.629,,53,close
screen,html.Screen,0_2_0_1_54,2021-11-19T12:38:55.705Z,,,,,,,,,,,,,,,,53,,,,,,,,,,,,,,524.5710000476829,,response,,,99,,,,,,Space,keypress(Space),,,,,---- -- ----- -- ------ - ------- --- ----------<br>------------- ------ ------ ---- ---- ------- ----- -- ----<br>-------- ------- -- ---------- --- - --- ----- ----- ----<br>---- --- --- ----- --- ---- ---- ------- ----- ---- -------<br>--- --- -- ----- -- --- ---- -- --- ---- -- ------ ------<br>--- ----- at ----,99928,99927.20000004768,99385.959,99391.79999995232,99402.629,99936.207,,54,at
screen,html.Screen,0_2_0_1_55,2021-11-19T12:38:56.448Z,,,,,,,,,,,,,,,,53,,,,,,,,,,,,,,734.5929999523214,,response,,,99,,,,,,Space,keypress(Space),,,,,---- -- ----- -- ------ - ------- --- ----------<br>------------- ------ ------ ---- ---- ------- ----- -- ----<br>-------- ------- -- ---------- --- - --- ----- ----- ----<br>---- --- --- ----- --- ---- ---- ------- ----- ---- -------<br>--- --- -- ----- -- --- ---- -- --- ---- -- ------ ------<br>--- ----- -- all.,100671.5,100670.79999995232,99919.536,99928.29999995232,99936.207,100686.299,,55,all.
Item 99,flow.Loop,0_2_0_1,2021-11-19T12:38:56.452Z,,,,,,,,,,,,,,,,,,,,,,,,,,,,,,33193.63399995232,,completion,,,,C,,,,,,,,,,silence,,100675.89999985695,100670.79999995232,67460.497,67467.09999990463,67477.166,100686.299,,,
Question 1,html.Screen,0_2_0_2,2021-11-19T12:39:04.096Z,,,,,,,,,,,,,,,,,,,,,,,,,,,false,FALSE,,7632.000999952317,,response,,,99,C,,,,,TRUE,click #choice-1,,,,silence,,108319.70000004768,108318.29999995232,100669.629,100676.20000004768,100686.299,108321.363,,,
Question 2,html.Screen,0_2_0_3,2021-11-19T12:39:11.976Z,,,,,,,,,,,,,,,,,,,,,,,,,,,true,TRUE,,7876.536999856951,,response,,,99,C,,,,,TRUE,click #choice-1,,,,silence,,116199.09999990463,116197.89999985695,108304.702,108320,108321.363,116207.118,,,
Item 99,flow.Sequence,0_2_0,2021-11-19T12:39:11.976Z,,,,,,,,,,,,,,,,,,,,,,,,,,,,,,58723.811999856945,,completion,,,,,,,,,,,,,,,,116199.70000004768,116197.89999985695,57457.42,57466.799999952316,57474.088,116207.118,,,
Holding screen,html.Screen,0_2_1_0,2021-11-19T12:39:21.973Z,,,,,,,,,,,,,,,,,,,,,,,,,,,,,,10002.733999999997,,timeout,,,,,,,,,,,,,,,,126194.39999985695,126193.181,116190.45,116200.09999990463,116207.118,126209.852,,,
screen,html.Screen,0_2_1_1_0,2021-11-19T12:39:22.738Z,,,,,,,,,,,,,,,,54,,,,,,,,,,,,,,748.148000000001,,response,,,100,,,,,,Space,keypress(Space),,,,,At --- ---- --- ------ ----- ------- ---- -- --- ------- --<br>------- ---------- ------ -- ----- -- ----- -- ---- ------<br>--- ----- --- --- ------ -------- ----- --- ------ ----- --<br>----- ----- ---------- --- --- ------ ------ ---- -- ------<br>------- --- ------ ----- --- ---- ------- -- ---- --- --<br>------- ------,126958.89999985695,126958,126193.181,126195,126209.852,126960.135,,0,At
screen,html.Screen,0_2_1_1_1,2021-11-19T12:39:23.345Z,,,,,,,,,,,,,,,,54,,,,,,,,,,,,,,605.4649999046378,,response,,,100,,,,,,Space,keypress(Space),,,,,-- the ---- --- ------ ----- ------- ---- -- --- ------- --<br>------- ---------- ------ -- ----- -- ----- -- ---- ------<br>--- ----- --- --- ------ -------- ----- --- ------ ----- --<br>----- ----- ---------- --- --- ------ ------ ---- -- ------<br>------- --- ------ ----- --- ---- ------- -- ---- --- --<br>------- ------,127566.39999985695,127565.59999990463,126943.464,126959.20000004768,126960.135,127576.962,,1,the
screen,html.Screen,0_2_1_1_2,2021-11-19T12:39:24.177Z,,,,,,,,,,,,,,,,54,,,,,,,,,,,,,,820.5380000000005,,response,,,100,,,,,,Space,keypress(Space),,,,,-- --- time --- ------ ----- ------- ---- -- --- ------- --<br>------- ---------- ------ -- ----- -- ----- -- ---- ------<br>--- ----- --- --- ------ -------- ----- --- ------ ----- --<br>----- ----- ---------- --- --- ------ ------ ---- -- ------<br>------- --- ------ ----- --- ---- ------- -- ---- --- --<br>------- ------,128398.39999985695,128397.5,127560.291,127566.79999995232,127576.962,128410.447,,2,time
screen,html.Screen,0_2_1_1_3,2021-11-19T12:39:24.865Z,,,,,,,,,,,,,,,,54,,,,,,,,,,,,,,675.1529999046325,,response,,,100,,,,,,Space,keypress(Space),,,,,-- --- ---- the ------ ----- ------- ---- -- --- ------- --<br>------- ---------- ------ -- ----- -- ----- -- ---- ------<br>--- ----- --- --- ------ -------- ----- --- ------ ----- --<br>----- ----- ---------- --- --- ------ ------ ---- -- ------<br>------- --- ------ ----- --- ---- ------- -- ---- --- --<br>------- ------,129086.29999995232,129085.59999990463,128393.777,128398.59999990463,128410.447,129093.912,,3,the
screen,html.Screen,0_2_1_1_4,2021-11-19T12:39:25.571Z,,,,,,,,,,,,,,,,54,,,,,,,,,,,,,,695.4879998569522,,response,,,100,,,,,,Space,keypress(Space),,,,,-- --- ---- --- French ----- ------- ---- -- --- ------- --<br>------- ---------- ------ -- ----- -- ----- -- ---- ------<br>--- ----- --- --- ------ -------- ----- --- ------ ----- --<br>----- ----- ---------- --- --- ------ ------ ---- -- ------<br>------- --- ------ ----- --- ---- ------- -- ---- --- --<br>------- ------,129791.79999995232,129789.39999985695,129077.242,129086.5,129093.912,129794.215,,4,French
screen,html.Screen,0_2_1_1_5,2021-11-19T12:39:26.321Z,,,,,,,,,,,,,,,,54,,,,,,,,,,,,,,747.1849998569523,,response,,,100,,,,,,Space,keypress(Space),,,,,-- --- ---- --- ------ crown ------- ---- -- --- ------- --<br>------- ---------- ------ -- ----- -- ----- -- ---- ------<br>--- ----- --- --- ------ -------- ----- --- ------ ----- --<br>----- ----- ---------- --- --- ------ ------ ---- -- ------<br>------- --- ------ ----- --- ---- ------- -- ---- --- --<br>------- ------,130542.20000004768,130541.39999985695,129777.544,129792,129794.215,130544.425,,5,crown
screen,html.Screen,0_2_1_1_6,2021-11-19T12:39:27.113Z,,,,,,,,,,,,,,,,54,,,,,,,,,,,,,,788.9749998569459,,response,,,100,,,,,,Space,keypress(Space),,,,,-- --- ---- --- ------ ----- secured ---- -- --- ------- --<br>------- ---------- ------ -- ----- -- ----- -- ---- ------<br>--- ----- --- --- ------ -------- ----- --- ------ ----- --<br>----- ----- ---------- --- --- ------ ------ ---- -- ------<br>------- --- ------ ----- --- ---- ------- -- ---- --- --<br>------- ------,131334.20000004768,131333.39999985695,130527.754,130542.5,130544.425,131344.636,,6,secured
screen,html.Screen,0_2_1_1_7,2021-11-19T12:39:28.041Z,,,,,,,,,,,,,,,,54,,,,,,,,,,,,,,916.6639999523177,,response,,,100,,,,,,Space,keypress(Space),,,,,-- --- ---- --- ------ ----- ------- much -- --- ------- --<br>------- ---------- ------ -- ----- -- ----- -- ---- ------<br>--- ----- --- --- ------ -------- ----- --- ------ ----- --<br>----- ----- ---------- --- --- ------ ------ ---- -- ------<br>------- --- ------ ----- --- ---- ------- -- ---- --- --<br>------- ------,132262.20000004768,132261.29999995232,131327.965,131334.5,131344.636,132278.132,,7,much
screen,html.Screen,0_2_1_1_8,2021-11-19T12:39:28.633Z,,,,,,,,,,,,,,,,54,,,,,,,,,,,,,,575.167999952304,,response,,,100,,,,,,Space,keypress(Space),,,,,-- --- ---- --- ------ ----- ------- ---- of --- ------- --<br>------- ---------- ------ -- ----- -- ----- -- ---- ------<br>--- ----- --- --- ------ -------- ----- --- ------ ----- --<br>----- ----- ---------- --- --- ------ ------ ---- -- ------<br>------- --- ------ ----- --- ---- ------- -- ---- --- --<br>------- ------,132854,132853.29999995232,132261.462,132262.5,132278.132,132861.728,,8,of
screen,html.Screen,0_2_1_1_9,2021-11-19T12:39:29.281Z,,,,,,,,,,,,,,,,54,,,,,,,,,,,,,,639.5719999523135,,response,,,100,,,,,,Space,keypress(Space),,,,,-- --- ---- --- ------ ----- ------- ---- -- its ------- --<br>------- ---------- ------ -- ----- -- ----- -- ---- ------<br>--- ----- --- --- ------ -------- ----- --- ------ ----- --<br>----- ----- ---------- --- --- ------ ------ ---- -- ------<br>------- --- ------ ----- --- ---- ------- -- ---- --- --<br>------- ------,133502.20000004768,133501.29999995232,132845.057,132854.29999995232,132861.728,133511.802,,9,its
screen,html.Screen,0_2_1_1_10,2021-11-19T12:39:30.169Z,,,,,,,,,,,,,,,,54,,,,,,,,,,,,,,877.4979999523202,,response,,,100,,,,,,Space,keypress(Space),,,,,-- --- ---- --- ------ ----- ------- ---- -- --- revenue --<br>------- ---------- ------ -- ----- -- ----- -- ---- ------<br>--- ----- --- --- ------ -------- ----- --- ------ ----- --<br>----- ----- ---------- --- --- ------ ------ ---- -- ------<br>------- --- ------ ----- --- ---- ------- -- ---- --- --<br>------- ------,134390.20000004768,134389.29999995232,133495.132,133502.5,133511.802,134395.468,,10,revenue
screen,html.Screen,0_2_1_1_11,2021-11-19T12:39:30.737Z,,,,,,,,,,,,,,,,54,,,,,,,,,,,,,,561.8319999523228,,response,,,100,,,,,,Space,keypress(Space),,,,,-- --- ---- --- ------ ----- ------- ---- -- --- ------- by<br>------- ---------- ------ -- ----- -- ----- -- ---- ------<br>--- ----- --- --- ------ -------- ----- --- ------ ----- --<br>----- ----- ---------- --- --- ------ ------ ---- -- ------<br>------- --- ------ ----- --- ---- ------- -- ---- --- --<br>------- ------,134958,134957.29999995232,134378.797,134390.5,134395.468,134962.219,,11,by
screen,html.Screen,0_2_1_1_12,2021-11-19T12:39:31.857Z,,,,,,,,,,,,,,,,54,,,,,,,,,,,,,,1114.9810000476718,,response,,,100,,,,,,Space,keypress(Space),,,,,-- --- ---- --- ------ ----- ------- ---- -- --- ------- --<br>issuing ---------- ------ -- ----- -- ----- -- ---- ------<br>--- ----- --- --- ------ -------- ----- --- ------ ----- --<br>----- ----- ---------- --- --- ------ ------ ---- -- ------<br>------- --- ------ ----- --- ---- ------- -- ---- --- --<br>------- ------,136078.20000004768,136077.20000004768,134945.549,134958.20000004768,134962.219,136095.765,,12,issuing
screen,html.Screen,0_2_1_1_13,2021-11-19T12:39:32.777Z,,,,,,,,,,,,,,,,54,,,,,,,,,,,,,,901.9350000476697,,response,,,100,,,,,,Space,keypress(Space),,,,,-- --- ---- --- ------ ----- ------- ---- -- --- ------- --<br>------- government ------ -- ----- -- ----- -- ---- ------<br>--- ----- --- --- ------ -------- ----- --- ------ ----- --<br>----- ----- ---------- --- --- ------ ------ ---- -- ------<br>------- --- ------ ----- --- ---- ------- -- ---- --- --<br>------- ------,136998.39999985695,136997.70000004768,136079.095,136078.5,136095.765,137012.953,,13,government
screen,html.Screen,0_2_1_1_14,2021-11-19T12:39:34.385Z,,,,,,,,,,,,,,,,54,,,,,,,,,,,,,,1592.146999904624,,response,,,100,,,,,,Space,keypress(Space),,,,,-- --- ---- --- ------ ----- ------- ---- -- --- ------- --<br>------- ---------- bonds. -- ----- -- ----- -- ---- ------<br>--- ----- --- --- ------ -------- ----- --- ------ ----- --<br>----- ----- ---------- --- --- ------ ------ ---- -- ------<br>------- --- ------ ----- --- ---- ------- -- ---- --- --<br>------- ------,138605.89999985695,138605.09999990463,136996.281,136998.70000004768,137012.953,138613.25,,14,bonds.
screen,html.Screen,0_2_1_1_15,2021-11-19T12:39:35.617Z,,,,,,,,,,,,,,,,54,,,,,,,,,,,,,,1223.8499999046326,,response,,,100,,,,,,Space,keypress(Space),,,,,-- --- ---- --- ------ ----- ------- ---- -- --- ------- --<br>------- ---------- ------ In ----- -- ----- -- ---- ------<br>--- ----- --- --- ------ -------- ----- --- ------ ----- --<br>----- ----- ---------- --- --- ------ ------ ---- -- ------<br>------- --- ------ ----- --- ---- ------- -- ---- --- --<br>------- ------,139837.89999985695,139837.09999990463,138596.579,138606.20000004768,138613.25,139846.81,,15,In
screen,html.Screen,0_2_1_1_16,2021-11-19T12:39:37.153Z,,,,,,,,,,,,,,,,54,,,,,,,,,,,,,,1526.1900000000023,,response,,,100,,,,,,Space,keypress(Space),,,,,"-- --- ---- --- ------ ----- ------- ---- -- --- ------- --<br>------- ---------- ------ -- 1727, -- ----- -- ---- ------<br>--- ----- --- --- ------ -------- ----- --- ------ ----- --<br>----- ----- ---------- --- --- ------ ------ ---- -- ------<br>------- --- ------ ----- --- ---- ------- -- ---- --- --<br>------- ------",141374,141373,139830.14,139838.20000004768,139846.81,141380.464,,16,"1727,"
screen,html.Screen,0_2_1_1_17,2021-11-19T12:39:37.945Z,,,,,,,,,,,,,,,,54,,,,,,,,,,,,,,784.5359999999928,,response,,,100,,,,,,Space,keypress(Space),,,,,-- --- ---- --- ------ ----- ------- ---- -- --- ------- --<br>------- ---------- ------ -- ----- in ----- -- ---- ------<br>--- ----- --- --- ------ -------- ----- --- ------ ----- --<br>----- ----- ---------- --- --- ------ ------ ---- -- ------<br>------- --- ------ ----- --- ---- ------- -- ---- --- --<br>------- ------,142165.79999995232,142165,141363.794,141374.29999995232,141380.464,142180.923,,17,in
screen,html.Screen,0_2_1_1_18,2021-11-19T12:39:38.841Z,,,,,,,,,,,,,,,,54,,,,,,,,,,,,,,879.9769998569391,,response,,,100,,,,,,Space,keypress(Space),,,,,-- --- ---- --- ------ ----- ------- ---- -- --- ------- --<br>------- ---------- ------ -- ----- -- order -- ---- ------<br>--- ----- --- --- ------ -------- ----- --- ------ ----- --<br>----- ----- ---------- --- --- ------ ------ ---- -- ------<br>------- --- ------ ----- --- ---- ------- -- ---- --- --<br>------- ------,143061.79999995232,143060.89999985695,142164.252,142166.09999990463,142180.923,143064.45,,18,order
screen,html.Screen,0_2_1_1_19,2021-11-19T12:39:39.400Z,,,,,,,,,,,,,,,,54,,,,,,,,,,,,,,556.4499998569372,,response,,,100,,,,,,Space,keypress(Space),,,,,-- --- ---- --- ------ ----- ------- ---- -- --- ------- --<br>------- ---------- ------ -- ----- -- ----- to ---- ------<br>--- ----- --- --- ------ -------- ----- --- ------ ----- --<br>----- ----- ---------- --- --- ------ ------ ---- -- ------<br>------- --- ------ ----- --- ---- ------- -- ---- --- --<br>------- ------,143621.59999990463,143620.89999985695,143047.779,143062,143064.45,143631.216,,19,to
screen,html.Screen,0_2_1_1_20,2021-11-19T12:39:39.857Z,,,,,,,,,,,,,,,,54,,,,,,,,,,,,,,445.68399985696306,,response,,,100,,,,,,Space,keypress(Space),,,,,-- --- ---- --- ------ ----- ------- ---- -- --- ------- --<br>------- ---------- ------ -- ----- -- ----- -- save ------<br>--- ----- --- --- ------ -------- ----- --- ------ ----- --<br>----- ----- ---------- --- --- ------ ------ ---- -- ------<br>------- --- ------ ----- --- ---- ------- -- ---- --- --<br>------- ------,144077.70000004768,144076.89999985695,143614.546,143621.79999995232,143631.216,144081.397,,20,save
screen,html.Screen,0_2_1_1_21,2021-11-19T12:39:40.873Z,,,,,,,,,,,,,,,,54,,,,,,,,,,,,,,1011.4029999523191,,response,,,100,,,,,,Space,keypress(Space),,,,,"-- --- ---- --- ------ ----- ------- ---- -- --- ------- --<br>------- ---------- ------ -- ----- -- ----- -- ---- money,<br>--- ----- --- --- ------ -------- ----- --- ------ ----- --<br>----- ----- ---------- --- --- ------ ------ ---- -- ------<br>------- --- ------ ----- --- ---- ------- -- ---- --- --<br>------- ------",145093.70000004768,145092.79999995232,144064.726,144077.89999985695,144081.397,145098.242,,21,"money,"
screen,html.Screen,0_2_1_1_22,2021-11-19T12:39:41.552Z,,,,,,,,,,,,,,,,54,,,,,,,,,,,,,,674.5579999523179,,response,,,100,,,,,,Space,keypress(Space),,,,,-- --- ---- --- ------ ----- ------- ---- -- --- ------- --<br>------- ---------- ------ -- ----- -- ----- -- ---- ------<br>the ----- --- --- ------ -------- ----- --- ------ ----- --<br>----- ----- ---------- --- --- ------ ------ ---- -- ------<br>------- --- ------ ----- --- ---- ------- -- ---- --- --<br>------- ------,145773.5,145772.79999995232,145081.572,145094,145098.242,145781.891,,22,the
screen,html.Screen,0_2_1_1_23,2021-11-19T12:39:41.968Z,,,,,,,,,,,,,,,,54,,,,,,,,,,,,,,406.908999952313,,response,,,100,,,,,,Space,keypress(Space),,,,,-- --- ---- --- ------ ----- ------- ---- -- --- ------- --<br>------- ---------- ------ -- ----- -- ----- -- ---- ------<br>--- state --- --- ------ -------- ----- --- ------ ----- --<br>----- ----- ---------- --- --- ------ ------ ---- -- ------<br>------- --- ------ ----- --- ---- ------- -- ---- --- --<br>------- ------,146189.5,146188.79999995232,145765.22,145773.79999995232,145781.891,146198.561,,23,state
screen,html.Screen,0_2_1_1_24,2021-11-19T12:39:42.825Z,,,,,,,,,,,,,,,,54,,,,,,,,,,,,,,846.5389999046456,,response,,,100,,,,,,Space,keypress(Space),,,,,-- --- ---- --- ------ ----- ------- ---- -- --- ------- --<br>------- ---------- ------ -- ----- -- ----- -- ---- ------<br>--- ----- cut --- ------ -------- ----- --- ------ ----- --<br>----- ----- ---------- --- --- ------ ------ ---- -- ------<br>------- --- ------ ----- --- ---- ------- -- ---- --- --<br>------- ------,147045.89999985695,147045.09999990463,146181.891,146189.79999995232,146198.561,147048.854,,24,cut
screen,html.Screen,0_2_1_1_25,2021-11-19T12:39:43.528Z,,,,,,,,,,,,,,,,54,,,,,,,,,,,,,,699.7459999046405,,response,,,100,,,,,,Space,keypress(Space),,,,,-- --- ---- --- ------ ----- ------- ---- -- --- ------- --<br>------- ---------- ------ -- ----- -- ----- -- ---- ------<br>--- ----- --- the ------ -------- ----- --- ------ ----- --<br>----- ----- ---------- --- --- ------ ------ ---- -- ------<br>------- --- ------ ----- --- ---- ------- -- ---- --- --<br>------- ------,147749.5,147748.59999990463,147032.183,147046.09999990463,147048.854,147765.651,,25,the
screen,html.Screen,0_2_1_1_26,2021-11-19T12:39:44.000Z,,,,,,,,,,,,,,,,54,,,,,,,,,,,,,,454.8489999999874,,response,,,100,,,,,,Space,keypress(Space),,,,,-- --- ---- --- ------ ----- ------- ---- -- --- ------- --<br>------- ---------- ------ -- ----- -- ----- -- ---- ------<br>--- ----- --- --- bonds' -------- ----- --- ------ ----- --<br>----- ----- ---------- --- --- ------ ------ ---- -- ------<br>------- --- ------ ----- --- ---- ------- -- ---- --- --<br>------- ------,148221.29999995232,148220.5,147748.981,147749.59999990463,147765.651,148232.505,,26,bonds'
screen,html.Screen,0_2_1_1_27,2021-11-19T12:39:44.800Z,,,,,,,,,,,,,,,,54,,,,,,,,,,,,,,788.0949999046279,,response,,,100,,,,,,Space,keypress(Space),,,,,-- --- ---- --- ------ ----- ------- ---- -- --- ------- --<br>------- ---------- ------ -- ----- -- ----- -- ---- ------<br>--- ----- --- --- ------ interest ----- --- ------ ----- --<br>----- ----- ---------- --- --- ------ ------ ---- -- ------<br>------- --- ------ ----- --- ---- ------- -- ---- --- --<br>------- ------,149021.39999985695,149020.59999990463,148215.834,148221.59999990463,148232.505,149032.725,,27,interest
screen,html.Screen,0_2_1_1_28,2021-11-19T12:39:45.240Z,,,,,,,,,,,,,,,,54,,,,,,,,,,,,,,427.87499990462675,,response,,,100,,,,,,Space,keypress(Space),,,,,-- --- ---- --- ------ ----- ------- ---- -- --- ------- --<br>------- ---------- ------ -- ----- -- ----- -- ---- ------<br>--- ----- --- --- ------ -------- rate. --- ------ ----- --<br>----- ----- ---------- --- --- ------ ------ ---- -- ------<br>------- --- ------ ----- --- ---- ------- -- ---- --- --<br>------- ------,149461.5,149460.59999990463,149016.054,149021.70000004768,149032.725,149466.125,,28,rate.
screen,html.Screen,0_2_1_1_29,2021-11-19T12:39:46.136Z,,,,,,,,,,,,,,,,54,,,,,,,,,,,,,,890.375,,response,,,100,,,,,,Space,keypress(Space),,,,,-- --- ---- --- ------ ----- ------- ---- -- --- ------- --<br>------- ---------- ------ -- ----- -- ----- -- ---- ------<br>--- ----- --- --- ------ -------- ----- The ------ ----- --<br>----- ----- ---------- --- --- ------ ------ ---- -- ------<br>------- --- ------ ----- --- ---- ------- -- ---- --- --<br>------- ------,150357.29999995232,150356.5,149449.455,149461.79999995232,149466.125,150366.413,,29,The
screen,html.Screen,0_2_1_1_30,2021-11-19T12:39:46.680Z,,,,,,,,,,,,,,,,54,,,,,,,,,,,,,,534.0869999999995,,response,,,100,,,,,,Space,keypress(Space),,,,,-- --- ---- --- ------ ----- ------- ---- -- --- ------- --<br>------- ---------- ------ -- ----- -- ----- -- ---- ------<br>--- ----- --- --- ------ -------- ----- --- market ----- --<br>----- ----- ---------- --- --- ------ ------ ---- -- ------<br>------- --- ------ ----- --- ---- ------- -- ---- --- --<br>------- ------,150901.20000004768,150900.5,150349.742,150357.59999990463,150366.413,150916.47,,30,market
screen,html.Screen,0_2_1_1_31,2021-11-19T12:39:47.152Z,,,,,,,,,,,,,,,,54,,,,,,,,,,,,,,456.02999999999884,,response,,,100,,,,,,Space,keypress(Space),,,,,-- --- ---- --- ------ ----- ------- ---- -- --- ------- --<br>------- ---------- ------ -- ----- -- ----- -- ---- ------<br>--- ----- --- --- ------ -------- ----- --- ------ value --<br>----- ----- ---------- --- --- ------ ------ ---- -- ------<br>------- --- ------ ----- --- ---- ------- -- ---- --- --<br>------- ------,151373.39999985695,151372.5,150899.8,150901.5,150916.47,151383.355,,31,value
screen,html.Screen,0_2_1_1_32,2021-11-19T12:39:47.552Z,,,,,,,,,,,,,,,,54,,,,,,,,,,,,,,389.2449999046221,,response,,,100,,,,,,Space,keypress(Space),,,,,-- --- ---- --- ------ ----- ------- ---- -- --- ------- --<br>------- ---------- ------ -- ----- -- ----- -- ---- ------<br>--- ----- --- --- ------ -------- ----- --- ------ ----- of<br>----- ----- ---------- --- --- ------ ------ ---- -- ------<br>------- --- ------ ----- --- ---- ------- -- ---- --- --<br>------- ------,151773.29999995232,151772.59999990463,151366.684,151373.59999990463,151383.355,151783.464,,32,of
screen,html.Screen,0_2_1_1_33,2021-11-19T12:39:47.952Z,,,,,,,,,,,,,,,,54,,,,,,,,,,,,,,389.0359999999928,,response,,,100,,,,,,Space,keypress(Space),,,,,-- --- ---- --- ------ ----- ------- ---- -- --- ------- --<br>------- ---------- ------ -- ----- -- ----- -- ---- ------<br>--- ----- --- --- ------ -------- ----- --- ------ ----- --<br>these ----- ---------- --- --- ------ ------ ---- -- ------<br>------- --- ------ ----- --- ---- ------- -- ---- --- --<br>------- ------,152173.29999995232,152172.5,151766.793,151773.5,151783.464,152183.452,,33,these
screen,html.Screen,0_2_1_1_34,2021-11-19T12:39:48.272Z,,,,,,,,,,,,,,,,54,,,,,,,,,,,,,,309.0480000000098,,response,,,100,,,,,,Space,keypress(Space),,,,,-- --- ---- --- ------ ----- ------- ---- -- --- ------- --<br>------- ---------- ------ -- ----- -- ----- -- ---- ------<br>--- ----- --- --- ------ -------- ----- --- ------ ----- --<br>----- bonds ---------- --- --- ------ ------ ---- -- ------<br>------- --- ------ ----- --- ---- ------- -- ---- --- --<br>------- ------,152493.39999985695,152492.5,152166.783,152173.5,152183.452,152500.363,,34,bonds
screen,html.Screen,0_2_1_1_35,2021-11-19T12:39:48.592Z,,,,,,,,,,,,,,,,54,,,,,,,,,,,,,,312.1369999999879,,response,,,100,,,,,,Space,keypress(Space),,,,,"-- --- ---- --- ------ ----- ------- ---- -- --- ------- --<br>------- ---------- ------ -- ----- -- ----- -- ---- ------<br>--- ----- --- --- ------ -------- ----- --- ------ ----- --<br>----- ----- plummeted, --- --- ------ ------ ---- -- ------<br>------- --- ------ ----- --- ---- ------- -- ---- --- --<br>------- ------",152813.29999995232,152812.5,152483.691,152493.59999990463,152500.363,152817.073,,35,"plummeted,"
screen,html.Screen,0_2_1_1_36,2021-11-19T12:39:49.472Z,,,,,,,,,,,,,,,,54,,,,,,,,,,,,,,875.426999999996,,response,,,100,,,,,,Space,keypress(Space),,,,,-- --- ---- --- ------ ----- ------- ---- -- --- ------- --<br>------- ---------- ------ -- ----- -- ----- -- ---- ------<br>--- ----- --- --- ------ -------- ----- --- ------ ----- --<br>----- ----- ---------- and --- ------ ------ ---- -- ------<br>------- --- ------ ----- --- ---- ------- -- ---- --- --<br>------- ------,153693.29999995232,153692.5,152800.402,152813.5,152817.073,153700.65,,36,and
screen,html.Screen,0_2_1_1_37,2021-11-19T12:39:49.824Z,,,,,,,,,,,,,,,,54,,,,,,,,,,,,,,343.7499998569547,,response,,,100,,,,,,Space,keypress(Space),,,,,-- --- ---- --- ------ ----- ------- ---- -- --- ------- --<br>------- ---------- ------ -- ----- -- ----- -- ---- ------<br>--- ----- --- --- ------ -------- ----- --- ------ ----- --<br>----- ----- ---------- --- the ------ ------ ---- -- ------<br>------- --- ------ ----- --- ---- ------- -- ---- --- --<br>------- ------,154045.29999995232,154044.39999985695,153683.979,153693.5,153700.65,154050.657,,37,the
screen,html.Screen,0_2_1_1_38,2021-11-19T12:39:50.176Z,,,,,,,,,,,,,,,,54,,,,,,,,,,,,,,345.74299985694233,,response,,,100,,,,,,Space,keypress(Space),,,,,-- --- ---- --- ------ ----- ------- ---- -- --- ------- --<br>------- ---------- ------ -- ----- -- ----- -- ---- ------<br>--- ----- --- --- ------ -------- ----- --- ------ ----- --<br>----- ----- ---------- --- --- market ------ ---- -- ------<br>------- --- ------ ----- --- ---- ------- -- ---- --- --<br>------- ------,154397.20000004768,154396.39999985695,154033.987,154045.5,154050.657,154400.791,,38,market
screen,html.Screen,0_2_1_1_39,2021-11-19T12:39:50.672Z,,,,,,,,,,,,,,,,54,,,,,,,,,,,,,,491.6089998569514,,response,,,100,,,,,,Space,keypress(Space),,,,,-- --- ---- --- ------ ----- ------- ---- -- --- ------- --<br>------- ---------- ------ -- ----- -- ----- -- ---- ------<br>--- ----- --- --- ------ -------- ----- --- ------ ----- --<br>----- ----- ---------- --- --- ------ became ---- -- ------<br>------- --- ------ ----- --- ---- ------- -- ---- --- --<br>------- ------,154893.20000004768,154892.39999985695,154384.121,154397.39999985695,154400.791,154900.963,,39,became
screen,html.Screen,0_2_1_1_40,2021-11-19T12:39:51.176Z,,,,,,,,,,,,,,,,54,,,,,,,,,,,,,,495.43699985696,,response,,,100,,,,,,Space,keypress(Space),,,,,-- --- ---- --- ------ ----- ------- ---- -- --- ------- --<br>------- ---------- ------ -- ----- -- ----- -- ---- ------<br>--- ----- --- --- ------ -------- ----- --- ------ ----- --<br>----- ----- ---------- --- --- ------ ------ wary -- ------<br>------- --- ------ ----- --- ---- ------- -- ---- --- --<br>------- ------,155397.20000004768,155396.39999985695,154884.292,154893.5,154900.963,155401.094,,40,wary
screen,html.Screen,0_2_1_1_41,2021-11-19T12:39:51.592Z,,,,,,,,,,,,,,,,54,,,,,,,,,,,,,,411.305999856937,,response,,,100,,,,,,Space,keypress(Space),,,,,-- --- ---- --- ------ ----- ------- ---- -- --- ------- --<br>------- ---------- ------ -- ----- -- ----- -- ---- ------<br>--- ----- --- --- ------ -------- ----- --- ------ ----- --<br>----- ----- ---------- --- --- ------ ------ ---- of ------<br>------- --- ------ ----- --- ---- ------- -- ---- --- --<br>------- ------,155813.09999990463,155812.39999985695,155384.423,155397.5,155401.094,155817.892,,41,of
screen,html.Screen,0_2_1_1_42,2021-11-19T12:39:52.176Z,,,,,,,,,,,,,,,,54,,,,,,,,,,,,,,578.4079999523237,,response,,,100,,,,,,Space,keypress(Space),,,,,-- --- ---- --- ------ ----- ------- ---- -- --- ------- --<br>------- ---------- ------ -- ----- -- ----- -- ---- ------<br>--- ----- --- --- ------ -------- ----- --- ------ ----- --<br>----- ----- ---------- --- --- ------ ------ ---- -- French<br>------- --- ------ ----- --- ---- ------- -- ---- --- --<br>------- ------,156397.20000004768,156396.29999995232,155801.221,155813.39999985695,155817.892,156401.371,,42,French
screen,html.Screen,0_2_1_1_43,2021-11-19T12:39:53.312Z,,,,,,,,,,,,,,,,54,,,,,,,,,,,,,,1131.32900004767,,response,,,100,,,,,,Space,keypress(Space),,,,,-- --- ---- --- ------ ----- ------- ---- -- --- ------- --<br>------- ---------- ------ -- ----- -- ----- -- ---- ------<br>--- ----- --- --- ------ -------- ----- --- ------ ----- --<br>----- ----- ---------- --- --- ------ ------ ---- -- ------<br>credit. --- ------ ----- --- ---- ------- -- ---- --- --<br>------- ------,157533.5,157532.70000004768,156384.7,156397.39999985695,156401.371,157535.004,,43,credit.
screen,html.Screen,0_2_1_1_44,2021-11-19T12:39:53.736Z,,,,,,,,,,,,,,,,54,,,,,,,,,,,,,,421.19600004769745,,response,,,100,,,,,,Space,keypress(Space),,,,,-- --- ---- --- ------ ----- ------- ---- -- --- ------- --<br>------- ---------- ------ -- ----- -- ----- -- ---- ------<br>--- ----- --- --- ------ -------- ----- --- ------ ----- --<br>----- ----- ---------- --- --- ------ ------ ---- -- ------<br>------- The ------ ----- --- ---- ------- -- ---- --- --<br>------- ------,157957.09999990463,157956.20000004768,157518.333,157533.79999995232,157535.004,157968.407,,44,The
screen,html.Screen,0_2_1_1_45,2021-11-19T12:39:54.176Z,,,,,,,,,,,,,,,,54,,,,,,,,,,,,,,427.89299995230976,,response,,,100,,,,,,Space,keypress(Space),,,,,-- --- ---- --- ------ ----- ------- ---- -- --- ------- --<br>------- ---------- ------ -- ----- -- ----- -- ---- ------<br>--- ----- --- --- ------ -------- ----- --- ------ ----- --<br>----- ----- ---------- --- --- ------ ------ ---- -- ------<br>------- --- French ----- --- ---- ------- -- ---- --- --<br>------- ------,158397.20000004768,158396.29999995232,157951.737,157957.5,157968.407,158401.794,,45,French
screen,html.Screen,0_2_1_1_46,2021-11-19T12:39:54.656Z,,,,,,,,,,,,,,,,54,,,,,,,,,,,,,,474.4060000476893,,response,,,100,,,,,,Space,keypress(Space),,,,,-- --- ---- --- ------ ----- ------- ---- -- --- ------- --<br>------- ---------- ------ -- ----- -- ----- -- ---- ------<br>--- ----- --- --- ------ -------- ----- --- ------ ----- --<br>----- ----- ---------- --- --- ------ ------ ---- -- ------<br>------- --- ------ state --- ---- ------- -- ---- --- --<br>------- ------,158877,158876.20000004768,158385.124,158397.39999985695,158401.794,158885.482,,46,state
screen,html.Screen,0_2_1_1_47,2021-11-19T12:39:55.055Z,,,,,,,,,,,,,,,,54,,,,,,,,,,,,,,390.4179998569598,,response,,,100,,,,,,Space,keypress(Space),,,,,-- --- ---- --- ------ ----- ------- ---- -- --- ------- --<br>------- ---------- ------ -- ----- -- ----- -- ---- ------<br>--- ----- --- --- ------ -------- ----- --- ------ ----- --<br>----- ----- ---------- --- --- ------ ------ ---- -- ------<br>------- --- ------ ----- was ---- ------- -- ---- --- --<br>------- ------,159276.39999985695,159275.89999985695,158868.809,158877.29999995232,158885.482,159285.472,,47,was
screen,html.Screen,0_2_1_1_48,2021-11-19T12:39:55.496Z,,,,,,,,,,,,,,,,54,,,,,,,,,,,,,,430.72800004767487,,response,,,100,,,,,,Space,keypress(Space),,,,,-- --- ---- --- ------ ----- ------- ---- -- --- ------- --<br>------- ---------- ------ -- ----- -- ----- -- ---- ------<br>--- ----- --- --- ------ -------- ----- --- ------ ----- --<br>----- ----- ---------- --- --- ------ ------ ---- -- ------<br>------- --- ------ ----- --- left ------- -- ---- --- --<br>------- ------,159717.09999990463,159716.20000004768,159268.801,159276.59999990463,159285.472,159718.93,,48,left
screen,html.Screen,0_2_1_1_49,2021-11-19T12:39:55.904Z,,,,,,,,,,,,,,,,54,,,,,,,,,,,,,,405.2700000476907,,response,,,100,,,,,,Space,keypress(Space),,,,,-- --- ---- --- ------ ----- ------- ---- -- --- ------- --<br>------- ---------- ------ -- ----- -- ----- -- ---- ------<br>--- ----- --- --- ------ -------- ----- --- ------ ----- --<br>----- ----- ---------- --- --- ------ ------ ---- -- ------<br>------- --- ------ ----- --- ---- without -- ---- --- --<br>------- ------,160125,160124.20000004768,159702.259,159717.5,159718.93,160135.643,,49,without
screen,html.Screen,0_2_1_1_50,2021-11-19T12:39:56.392Z,,,,,,,,,,,,,,,,54,,,,,,,,,,,,,,476.4569999046216,,response,,,100,,,,,,Space,keypress(Space),,,,,-- --- ---- --- ------ ----- ------- ---- -- --- ------- --<br>------- ---------- ------ -- ----- -- ----- -- ---- ------<br>--- ----- --- --- ------ -------- ----- --- ------ ----- --<br>----- ----- ---------- --- --- ------ ------ ---- -- ------<br>------- --- ------ ----- --- ---- ------- an ---- --- --<br>------- ------,160612.89999985695,160612.09999990463,160118.973,160125.29999995232,160135.643,160619.193,,50,an
screen,html.Screen,0_2_1_1_51,2021-11-19T12:39:56.992Z,,,,,,,,,,,,,,,,54,,,,,,,,,,,,,,593.0070000476844,,response,,,100,,,,,,Space,keypress(Space),,,,,-- --- ---- --- ------ ----- ------- ---- -- --- ------- --<br>------- ---------- ------ -- ----- -- ----- -- ---- ------<br>--- ----- --- --- ------ -------- ----- --- ------ ----- --<br>----- ----- ---------- --- --- ------ ------ ---- -- ------<br>------- --- ------ ----- --- ---- ------- -- easy --- --<br>------- ------,161213,161212.20000004768,160602.522,160613.20000004768,160619.193,161219.334,,51,easy
screen,html.Screen,0_2_1_1_52,2021-11-19T12:39:57.480Z,,,,,,,,,,,,,,,,54,,,,,,,,,,,,,,480.76599990463,,response,,,100,,,,,,Space,keypress(Space),,,,,-- --- ---- --- ------ ----- ------- ---- -- --- ------- --<br>------- ---------- ------ -- ----- -- ----- -- ---- ------<br>--- ----- --- --- ------ -------- ----- --- ------ ----- --<br>----- ----- ---------- --- --- ------ ------ ---- -- ------<br>------- --- ------ ----- --- ---- ------- -- ---- way --<br>------- ------,161701,161700.09999990463,161202.663,161213.20000004768,161219.334,161702.629,,52,way
screen,html.Screen,0_2_1_1_53,2021-11-19T12:39:58.296Z,,,,,,,,,,,,,,,,54,,,,,,,,,,,,,,813.4709999046463,,response,,,100,,,,,,Space,keypress(Space),,,,,-- --- ---- --- ------ ----- ------- ---- -- --- ------- --<br>------- ---------- ------ -- ----- -- ----- -- ---- ------<br>--- ----- --- --- ------ -------- ----- --- ------ ----- --<br>----- ----- ---------- --- --- ------ ------ ---- -- ------<br>------- --- ------ ----- --- ---- ------- -- ---- --- of<br>------- ------,162516.89999985695,162516.09999990463,161685.96,161701.29999995232,161702.629,162519.774,,53,of
screen,html.Screen,0_2_1_1_54,2021-11-19T12:39:58.856Z,,,,,,,,,,,,,,,,54,,,,,,,,,,,,,,556.3259999046277,,response,,,100,,,,,,Space,keypress(Space),,,,,-- --- ---- --- ------ ----- ------- ---- -- --- ------- --<br>------- ---------- ------ -- ----- -- ----- -- ---- ------<br>--- ----- --- --- ------ -------- ----- --- ------ ----- --<br>----- ----- ---------- --- --- ------ ------ ---- -- ------<br>------- --- ------ ----- --- ---- ------- -- ---- --- --<br>raising ------,163076.79999995232,163076.09999990463,162503.102,162517.20000004768,162519.774,163086.308,,54,raising
screen,html.Screen,0_2_1_1_55,2021-11-19T12:39:59.496Z,,,,,,,,,,,,,,,,54,,,,,,,,,,,,,,629.69200000001,,response,,,100,,,,,,Space,keypress(Space),,,,,-- --- ---- --- ------ ----- ------- ---- -- --- ------- --<br>------- ---------- ------ -- ----- -- ----- -- ---- ------<br>--- ----- --- --- ------ -------- ----- --- ------ ----- --<br>----- ----- ---------- --- --- ------ ------ ---- -- ------<br>------- --- ------ ----- --- ---- ------- -- ---- --- --<br>------- money.,163716.79999995232,163716,163069.639,163077.20000004768,163086.308,163720.04,,55,money.
Item 100,flow.Loop,0_2_1_1,2021-11-19T12:39:59.496Z,,,,,,,,,,,,,,,,,,,,,,,,,,,,,,37506.148,,completion,,,,C,,,,,,,,,,silence,,163717.5,163716,126193.181,126194.79999995232,126209.852,163720.04,,,
Question 1,html.Screen,0_2_1_2,2021-11-19T12:40:03.568Z,,,,,,,,,,,,,,,,,,,,,,,,,,,true,TRUE,,4067.459999999992,,response,,,100,C,,,,,TRUE,click #choice-1,,,,silence,,167788.70000004768,167787.5,163703.369,163717.70000004768,163720.04,167804.327,,,
Question 2,html.Screen,0_2_1_3,2021-11-19T12:40:10.615Z,,,,,,,,,,,,,,,,,,,,,,,,,,,true,FALSE,,7030.972999952326,,response,,,100,C,,,,,FALSE,click #choice-2,,,,silence,,174836.29999995232,174835.29999995232,167787.658,167789,167804.327,174856.301,,,
Item 100,flow.Sequence,0_2_1,2021-11-19T12:40:10.616Z,,,,,,,,,,,,,,,,,,,,,,,,,,,,,,58628.181999952314,,completion,,,,,,,,,,,,,,,,174836.70000004768,174835.29999995232,116190.45,116200,116207.118,174856.301,,,
End of Practice,html.Page,0_2_2,2021-11-19T12:40:15.016Z,,,,,,,,,,,,,,,,,,,,,,,,,,,,,,4380.598999856942,,form submission,,,,,,,,,,,,,,,,179237.39999985695,179236.89999985695,174839.629,174836.89999985695,174856.301,179240.183,,,
Practice,flow.Sequence,0_2,2021-11-19T12:40:15.017Z,,,,,,,,,,,,,,,,,,,,,,,,,,,,,,121762.81199985695,,completion,,,,,,,,,,,,,,,,179237.89999985695,179236.89999985695,57457.42,57466.59999990463,57474.088,179240.183,,,
Trap_instruction,html.Page,0_3_0,2021-11-19T12:40:20.251Z,,,,,,,,,,,,,,,,,,,,,,,,,,,,,,5228.116999952326,,form submission,,,,,,,,,,,,,,,,184468.89999985695,184468.29999995232,179223.515,179238.29999995232,179240.183,184502.611,,,
trap_trial,html.Screen,0_3_1,2021-11-19T12:40:26.346Z,,,,,,,,,,,,,,,,,,,,,,,,,,,true,1,,6060.089000047679,,response,,,,,,,,,1,click #choice-1,,,,,,190563.89999985695,190562.70000004768,184452.67,184469.20000004768,184502.611,190577.112,,,
end of trap trial,html.Page,0_3_2,2021-11-19T12:40:29.010Z,,,,,,,,,,,,,,,,,,,,,,,,,,,,,,2650.6879999523226,,form submission,,,,,,,,,,,,,,,,193228.20000004768,193227.79999995232,190560.441,190564.09999990463,190577.112,193227.851,,,
Trap 1,flow.Sequence,0_3,2021-11-19T12:40:29.010Z,,,,,,,,,,,,,,,,,,,,,,,,,,,,,,13987.616999952326,,completion,,,,,,,,,,,,,,,,193228.59999990463,193227.79999995232,179223.515,179238.20000004768,179240.183,193227.851,,,
Standby,html.Page,0_4_0,2021-11-19T12:40:36.997Z,,,,,,,,,,,,,,,,,,,,,,,,,,,,,,8002.138000000006,,timeout,,,,,,,,,,,,,,,,201215.09999990463,201213.318,193211.18,193229,193227.851,201229.989,,,
Holding screen,html.Screen,0_4_1_0_0,2021-11-19T12:40:43.999Z,,,,,,,,,,,,,,,,,,,,,,,,,,,,,,7001.975999999995,,timeout,,,,,,,,,,,,,,,,208216.79999995232,208215.294,201213.318,201215.39999985695,201229.989,208231.965,,,
screen,html.Screen,0_4_1_0_1_0,2021-11-19T12:40:44.785Z,,,,,,,,,,,,,,,,11,,,,,,,,,,,,,,770.6349999046361,,response,,,4,C,,,,,Space,keypress(Space),,,,instrumental,Known -- ---- --- -- --- -------- ------------ ---------- --<br>- ------- ------ --------- -- ------------ -- --- ---- -----<br>------ ---- ---- ------ ------ ------- --- ----- ---------<br>---- --- -------- -------- --- --- -- ------- --- --- -----<br>-- --- ------ ------- --- --- -------- ---- --------- --<br>---------- -- -------- ----------------,209003.5,209002.59999990463,208215.294,208217.20000004768,208231.965,209015.283,,0,Known
screen,html.Screen,0_4_1_0_1_1,2021-11-19T12:40:45.489Z,,,,,,,,,,,,,,,,11,,,,,,,,,,,,,,690.7170000000042,,response,,,4,C,,,,,Space,keypress(Space),,,,instrumental,----- as ---- --- -- --- -------- ------------ ---------- --<br>- ------- ------ --------- -- ------------ -- --- ---- -----<br>------ ---- ---- ------ ------ ------- --- ----- ---------<br>---- --- -------- -------- --- --- -- ------- --- --- -----<br>-- --- ------ ------- --- --- -------- ---- --------- --<br>---------- -- -------- ----------------,209707,209706,208998.614,209003.89999985695,209015.283,209715.668,,1,as
screen,html.Screen,0_4_1_0_1_2,2021-11-19T12:40:46.168Z,,,,,,,,,,,,,,,,11,,,,,,,,,,,,,,670.3319999999949,,response,,,4,C,,,,,Space,keypress(Space),,,,instrumental,----- -- Rapa --- -- --- -------- ------------ ---------- --<br>- ------- ------ --------- -- ------------ -- --- ---- -----<br>------ ---- ---- ------ ------ ------- --- ----- ---------<br>---- --- -------- -------- --- --- -- ------- --- --- -----<br>-- --- ------ ------- --- --- -------- ---- --------- --<br>---------- -- -------- ----------------,210386.70000004768,210386,209698.997,209707.20000004768,209715.668,210399.213,,2,Rapa
screen,html.Screen,0_4_1_0_1_3,2021-11-19T12:40:46.768Z,,,,,,,,,,,,,,,,11,,,,,,,,,,,,,,586.68699985696,,response,,,4,C,,,,,Space,keypress(Space),,,,instrumental,----- -- ---- Nui -- --- -------- ------------ ---------- --<br>- ------- ------ --------- -- ------------ -- --- ---- -----<br>------ ---- ---- ------ ------ ------- --- ----- ---------<br>---- --- -------- -------- --- --- -- ------- --- --- -----<br>-- --- ------ ------- --- --- -------- ---- --------- --<br>---------- -- -------- ----------------,210986.70000004768,210985.89999985695,210382.542,210387.09999990463,210399.213,210999.376,,3,Nui
screen,html.Screen,0_4_1_0_1_4,2021-11-19T12:40:47.224Z,,,,,,,,,,,,,,,,11,,,,,,,,,,,,,,442.52399985695956,,response,,,4,C,,,,,Space,keypress(Space),,,,instrumental,----- -- ---- --- to --- -------- ------------ ---------- --<br>- ------- ------ --------- -- ------------ -- --- ---- -----<br>------ ---- ---- ------ ------ ------- --- ----- ---------<br>---- --- -------- -------- --- --- -- ------- --- --- -----<br>-- --- ------ ------- --- --- -------- ---- --------- --<br>---------- -- -------- ----------------,211442.59999990463,211441.89999985695,210982.705,210987,210999.376,211449.402,,4,to
screen,html.Screen,0_4_1_0_1_5,2021-11-19T12:40:47.664Z,,,,,,,,,,,,,,,,11,,,,,,,,,,,,,,432.29800004768185,,response,,,4,C,,,,,Space,keypress(Space),,,,instrumental,----- -- ---- --- -- the -------- ------------ ---------- --<br>- ------- ------ --------- -- ------------ -- --- ---- -----<br>------ ---- ---- ------ ------ ------- --- ----- ---------<br>---- --- -------- -------- --- --- -- ------- --- --- -----<br>-- --- ------ ------- --- --- -------- ---- --------- --<br>---------- -- -------- ----------------,211882.59999990463,211881.70000004768,211432.732,211442.79999995232,211449.402,211899.613,,5,the
screen,html.Screen,0_4_1_0_1_6,2021-11-19T12:40:48.224Z,,,,,,,,,,,,,,,,11,,,,,,,,,,,,,,542.0870000476716,,response,,,4,C,,,,,Space,keypress(Space),,,,instrumental,----- -- ---- --- -- --- island's ------------ ---------- --<br>- ------- ------ --------- -- ------------ -- --- ---- -----<br>------ ---- ---- ------ ------ ------- --- ----- ---------<br>---- --- -------- -------- --- --- -- ------- --- --- -----<br>-- --- ------ ------- --- --- -------- ---- --------- --<br>---------- -- -------- ----------------,212442.5,212441.70000004768,211882.942,211882.89999985695,211899.613,212449.616,,6,island's
screen,html.Screen,0_4_1_0_1_7,2021-11-19T12:40:49.184Z,,,,,,,,,,,,,,,,11,,,,,,,,,,,,,,952.1839999523072,,response,,,4,C,,,,,Space,keypress(Space),,,,instrumental,"----- -- ---- --- -- --- -------- inhabitants, ---------- --<br>- ------- ------ --------- -- ------------ -- --- ---- -----<br>------ ---- ---- ------ ------ ------- --- ----- ---------<br>---- --- -------- -------- --- --- -- ------- --- --- -----<br>-- --- ------ ------- --- --- -------- ---- --------- --<br>---------- -- -------- ----------------",213402.70000004768,213401.79999995232,212432.947,212442.70000004768,212449.616,213416.778,,7,"inhabitants,"
screen,html.Screen,0_4_1_0_1_8,2021-11-19T12:40:50.704Z,,,,,,,,,,,,,,,,11,,,,,,,,,,,,,,1504.8219999046414,,response,,,4,C,,,,,Space,keypress(Space),,,,instrumental,----- -- ---- --- -- --- -------- ------------ Rongorongo --<br>- ------- ------ --------- -- ------------ -- --- ---- -----<br>------ ---- ---- ------ ------ ------- --- ----- ---------<br>---- --- -------- -------- --- --- -- ------- --- --- -----<br>-- --- ------ ------- --- --- -------- ---- --------- --<br>---------- -- -------- ----------------,214922.39999985695,214921.59999990463,213400.106,213402.89999985695,213416.778,214933.754,,8,Rongorongo
screen,html.Screen,0_4_1_0_1_9,2021-11-19T12:40:51.368Z,,,,,,,,,,,,,,,,11,,,,,,,,,,,,,,651.9460000476975,,response,,,4,C,,,,,Space,keypress(Space),,,,instrumental,----- -- ---- --- -- --- -------- ------------ ---------- is<br>- ------- ------ --------- -- ------------ -- --- ---- -----<br>------ ---- ---- ------ ------ ------- --- ----- ---------<br>---- --- -------- -------- --- --- -- ------- --- --- -----<br>-- --- ------ ------- --- --- -------- ---- --------- --<br>---------- -- -------- ----------------,215586.59999990463,215585.70000004768,214917.083,214922.59999990463,214933.754,215600.611,,9,is
screen,html.Screen,0_4_1_0_1_10,2021-11-19T12:40:52.144Z,,,,,,,,,,,,,,,,11,,,,,,,,,,,,,,761.0890000476793,,response,,,4,C,,,,,Space,keypress(Space),,,,instrumental,----- -- ---- --- -- --- -------- ------------ ---------- --<br>a ------- ------ --------- -- ------------ -- --- ---- -----<br>------ ---- ---- ------ ------ ------- --- ----- ---------<br>---- --- -------- -------- --- --- -- ------- --- --- -----<br>-- --- ------ ------- --- --- -------- ---- --------- --<br>---------- -- -------- ----------------,216362.5,216361.70000004768,215583.94,215586.70000004768,215600.611,216367.366,,10,a
screen,html.Screen,0_4_1_0_1_11,2021-11-19T12:40:52.936Z,,,,,,,,,,,,,,,,11,,,,,,,,,,,,,,786.3340000476746,,response,,,4,C,,,,,Space,keypress(Space),,,,instrumental,----- -- ---- --- -- --- -------- ------------ ---------- --<br>- writing ------ --------- -- ------------ -- --- ---- -----<br>------ ---- ---- ------ ------ ------- --- ----- ---------<br>---- --- -------- -------- --- --- -- ------- --- --- -----<br>-- --- ------ ------- --- --- -------- ---- --------- --<br>---------- -- -------- ----------------,217154.59999990463,217153.70000004768,216350.696,216362.79999995232,216367.366,217167.799,,11,writing
screen,html.Screen,0_4_1_0_1_12,2021-11-19T12:40:53.912Z,,,,,,,,,,,,,,,,11,,,,,,,,,,,,,,961.9010000476846,,response,,,4,C,,,,,Space,keypress(Space),,,,instrumental,----- -- ---- --- -- --- -------- ------------ ---------- --<br>- ------- system --------- -- ------------ -- --- ---- -----<br>------ ---- ---- ------ ------ ------- --- ----- ---------<br>---- --- -------- -------- --- --- -- ------- --- --- -----<br>-- --- ------ ------- --- --- -------- ---- --------- --<br>---------- -- -------- ----------------,218130.39999985695,218129.70000004768,217151.127,217154.79999995232,217167.799,218134.403,,12,system
screen,html.Screen,0_4_1_0_1_13,2021-11-19T12:40:54.857Z,,,,,,,,,,,,,,,,11,,,,,,,,,,,,,,939.6969999046414,,response,,,4,C,,,,,Space,keypress(Space),,,,instrumental,----- -- ---- --- -- --- -------- ------------ ---------- --<br>- ------- ------ comprised -- ------------ -- --- ---- -----<br>------ ---- ---- ------ ------ ------- --- ----- ---------<br>---- --- -------- -------- --- --- -- ------- --- --- -----<br>-- --- ------ ------- --- --- -------- ---- --------- --<br>---------- -- -------- ----------------,219074.79999995232,219074.09999990463,218117.734,218130.70000004768,218134.403,219085.006,,13,comprised
screen,html.Screen,0_4_1_0_1_14,2021-11-19T12:40:55.352Z,,,,,,,,,,,,,,,,11,,,,,,,,,,,,,,484.5939999046386,,response,,,4,C,,,,,Space,keypress(Space),,,,instrumental,----- -- ---- --- -- --- -------- ------------ ---------- --<br>- ------- ------ --------- of ------------ -- --- ---- -----<br>------ ---- ---- ------ ------ ------- --- ----- ---------<br>---- --- -------- -------- --- --- -- ------- --- --- -----<br>-- --- ------ ------- --- --- -------- ---- --------- --<br>---------- -- -------- ----------------,219570.29999995232,219569.59999990463,219068.334,219075.09999990463,219085.006,219585.02,,14,of
screen,html.Screen,0_4_1_0_1_15,2021-11-19T12:40:56.528Z,,,,,,,,,,,,,,,,11,,,,,,,,,,,,,,1160.4800000000105,,response,,,4,C,,,,,Space,keypress(Space),,,,instrumental,----- -- ---- --- -- --- -------- ------------ ---------- --<br>- ------- ------ --------- -- pictographs. -- --- ---- -----<br>------ ---- ---- ------ ------ ------- --- ----- ---------<br>---- --- -------- -------- --- --- -- ------- --- --- -----<br>-- --- ------ ------- --- --- -------- ---- --------- --<br>---------- -- -------- ----------------,220746.29999995232,220745.5,219568.349,219570.59999990463,219585.02,220751.899,,15,pictographs.
screen,html.Screen,0_4_1_0_1_16,2021-11-19T12:40:57.088Z,,,,,,,,,,,,,,,,11,,,,,,,,,,,,,,553.6009999999951,,response,,,4,C,,,,,Space,keypress(Space),,,,instrumental,----- -- ---- --- -- --- -------- ------------ ---------- --<br>- ------- ------ --------- -- ------------ It --- ---- -----<br>------ ---- ---- ------ ------ ------- --- ----- ---------<br>---- --- -------- -------- --- --- -- ------- --- --- -----<br>-- --- ------ ------- --- --- -------- ---- --------- --<br>---------- -- -------- ----------------,221306.29999995232,221305.5,220735.229,220746.59999990463,220751.899,221318.827,,16,It
screen,html.Screen,0_4_1_0_1_17,2021-11-19T12:40:57.736Z,,,,,,,,,,,,,,,,11,,,,,,,,,,,,,,634.4729999523261,,response,,,4,C,,,,,Space,keypress(Space),,,,instrumental,----- -- ---- --- -- --- -------- ------------ ---------- --<br>- ------- ------ --------- -- ------------ -- has ---- -----<br>------ ---- ---- ------ ------ ------- --- ----- ---------<br>---- --- -------- -------- --- --- -- ------- --- --- -----<br>-- --- ------ ------- --- --- -------- ---- --------- --<br>---------- -- -------- ----------------,221954.09999990463,221953.29999995232,221302.156,221306.5,221318.827,221969.009,,17,has
screen,html.Screen,0_4_1_0_1_18,2021-11-19T12:40:58.272Z,,,,,,,,,,,,,,,,11,,,,,,,,,,,,,,520.4910000000091,,response,,,4,C,,,,,Space,keypress(Space),,,,instrumental,----- -- ---- --- -- --- -------- ------------ ---------- --<br>- ------- ------ --------- -- ------------ -- --- been -----<br>------ ---- ---- ------ ------ ------- --- ----- ---------<br>---- --- -------- -------- --- --- -- ------- --- --- -----<br>-- --- ------ ------- --- --- -------- ---- --------- --<br>---------- -- -------- ----------------,222490.29999995232,222489.5,221952.338,221954.29999995232,221969.009,222502.388,,18,been
screen,html.Screen,0_4_1_0_1_19,2021-11-19T12:40:58.824Z,,,,,,,,,,,,,,,,11,,,,,,,,,,,,,,539.1119999999937,,response,,,4,C,,,,,Space,keypress(Space),,,,instrumental,----- -- ---- --- -- --- -------- ------------ ---------- --<br>- ------- ------ --------- -- ------------ -- --- ---- found<br>------ ---- ---- ------ ------ ------- --- ----- ---------<br>---- --- -------- -------- --- --- -- ------- --- --- -----<br>-- --- ------ ------- --- --- -------- ---- --------- --<br>---------- -- -------- ----------------,223042.20000004768,223041.5,222485.718,222490.5,222502.388,223052.608,,19,found
screen,html.Screen,0_4_1_0_1_20,2021-11-19T12:40:59.336Z,,,,,,,,,,,,,,,,11,,,,,,,,,,,,,,500.89199999999255,,response,,,4,C,,,,,Space,keypress(Space),,,,instrumental,----- -- ---- --- -- --- -------- ------------ ---------- --<br>- ------- ------ --------- -- ------------ -- --- ---- -----<br>carved ---- ---- ------ ------ ------- --- ----- ---------<br>---- --- -------- -------- --- --- -- ------- --- --- -----<br>-- --- ------ ------- --- --- -------- ---- --------- --<br>---------- -- -------- ----------------,223554.20000004768,223553.5,223035.937,223042.39999985695,223052.608,223569.273,,20,carved
screen,html.Screen,0_4_1_0_1_21,2021-11-19T12:41:00.184Z,,,,,,,,,,,,,,,,11,,,,,,,,,,,,,,831.9270000476972,,response,,,4,C,,,,,Space,keypress(Space),,,,instrumental,----- -- ---- --- -- --- -------- ------------ ---------- --<br>- ------- ------ --------- -- ------------ -- --- ---- -----<br>------ into ---- ------ ------ ------- --- ----- ---------<br>---- --- -------- -------- --- --- -- ------- --- --- -----<br>-- --- ------ ------- --- --- -------- ---- --------- --<br>---------- -- -------- ----------------,224402.20000004768,224401.20000004768,223552.604,223554.5,223569.273,224403.065,,21,into
screen,html.Screen,0_4_1_0_1_22,2021-11-19T12:41:00.696Z,,,,,,,,,,,,,,,,11,,,,,,,,,,,,,,510.3349998569465,,response,,,4,C,,,,,Space,keypress(Space),,,,instrumental,----- -- ---- --- -- --- -------- ------------ ---------- --<br>- ------- ------ --------- -- ------------ -- --- ---- -----<br>------ ---- many ------ ------ ------- --- ----- ---------<br>---- --- -------- -------- --- --- -- ------- --- --- -----<br>-- --- ------ ------- --- --- -------- ---- --------- --<br>---------- -- -------- ----------------,224914.09999990463,224913.39999985695,224386.393,224402.5,224403.065,224919.716,,22,many
screen,html.Screen,0_4_1_0_1_23,2021-11-19T12:41:01.120Z,,,,,,,,,,,,,,,,11,,,,,,,,,,,,,,417.4840000476979,,response,,,4,C,,,,,Space,keypress(Space),,,,instrumental,----- -- ---- --- -- --- -------- ------------ ---------- --<br>- ------- ------ --------- -- ------------ -- --- ---- -----<br>------ ---- ---- oblong ------ ------- --- ----- ---------<br>---- --- -------- -------- --- --- -- ------- --- --- -----<br>-- --- ------ ------- --- --- -------- ---- --------- --<br>---------- -- -------- ----------------,225338.09999990463,225337.20000004768,224903.046,224914.39999985695,224919.716,225353.135,,23,oblong
screen,html.Screen,0_4_1_0_1_24,2021-11-19T12:41:02.296Z,,,,,,,,,,,,,,,,11,,,,,,,,,,,,,,1160.164999952307,,response,,,4,C,,,,,Space,keypress(Space),,,,instrumental,----- -- ---- --- -- --- -------- ------------ ---------- --<br>- ------- ------ --------- -- ------------ -- --- ---- -----<br>------ ---- ---- ------ wooden ------- --- ----- ---------<br>---- --- -------- -------- --- --- -- ------- --- --- -----<br>-- --- ------ ------- --- --- -------- ---- --------- --<br>---------- -- -------- ----------------,226514.09999990463,226513.29999995232,225336.465,225338.39999985695,225353.135,226520.312,,24,wooden
screen,html.Screen,0_4_1_0_1_25,2021-11-19T12:41:02.728Z,,,,,,,,,,,,,,,,11,,,,,,,,,,,,,,424.98799995231093,,response,,,4,C,,,,,Space,keypress(Space),,,,instrumental,----- -- ---- --- -- --- -------- ------------ ---------- --<br>- ------- ------ --------- -- ------------ -- --- ---- -----<br>------ ---- ---- ------ ------ tablets --- ----- ---------<br>---- --- -------- -------- --- --- -- ------- --- --- -----<br>-- --- ------ ------- --- --- -------- ---- --------- --<br>---------- -- -------- ----------------,226946.09999990463,226945.29999995232,226503.64,226514.29999995232,226520.312,226953.44,,25,tablets
screen,html.Screen,0_4_1_0_1_26,2021-11-19T12:41:03.288Z,,,,,,,,,,,,,,,,11,,,,,,,,,,,,,,551.7600000476814,,response,,,4,C,,,,,Space,keypress(Space),,,,instrumental,----- -- ---- --- -- --- -------- ------------ ---------- --<br>- ------- ------ --------- -- ------------ -- --- ---- -----<br>------ ---- ---- ------ ------ ------- and ----- ---------<br>---- --- -------- -------- --- --- -- ------- --- --- -----<br>-- --- ------ ------- --- --- -------- ---- --------- --<br>---------- -- -------- ----------------,227506,227505.20000004768,226936.771,226946.20000004768,226953.44,227520.477,,26,and
screen,html.Screen,0_4_1_0_1_27,2021-11-19T12:41:03.728Z,,,,,,,,,,,,,,,,11,,,,,,,,,,,,,,424.7230000476702,,response,,,4,C,,,,,Space,keypress(Space),,,,instrumental,----- -- ---- --- -- --- -------- ------------ ---------- --<br>- ------- ------ --------- -- ------------ -- --- ---- -----<br>------ ---- ---- ------ ------ ------- --- other ---------<br>---- --- -------- -------- --- --- -- ------- --- --- -----<br>-- --- ------ ------- --- --- -------- ---- --------- --<br>---------- -- -------- ----------------,227946,227945.20000004768,227503.806,227506.20000004768,227520.477,227953.944,,27,other
screen,html.Screen,0_4_1_0_1_28,2021-11-19T12:41:04.368Z,,,,,,,,,,,,,,,,11,,,,,,,,,,,,,,631.155999904644,,response,,,4,C,,,,,Space,keypress(Space),,,,instrumental,----- -- ---- --- -- --- -------- ------------ ---------- --<br>- ------- ------ --------- -- ------------ -- --- ---- -----<br>------ ---- ---- ------ ------ ------- --- ----- artifacts<br>---- --- -------- -------- --- --- -- ------- --- --- -----<br>-- --- ------ ------- --- --- -------- ---- --------- --<br>---------- -- -------- ----------------,228585.89999985695,228585.09999990463,227937.273,227946.29999995232,227953.944,228587.354,,28,artifacts
screen,html.Screen,0_4_1_0_1_29,2021-11-19T12:41:05.168Z,,,,,,,,,,,,,,,,11,,,,,,,,,,,,,,798.2459999046405,,response,,,4,C,,,,,Space,keypress(Space),,,,instrumental,----- -- ---- --- -- --- -------- ------------ ---------- --<br>- ------- ------ --------- -- ------------ -- --- ---- -----<br>------ ---- ---- ------ ------ ------- --- ----- ---------<br>from --- -------- -------- --- --- -- ------- --- --- -----<br>-- --- ------ ------- --- --- -------- ---- --------- --<br>---------- -- -------- ----------------,229386.39999985695,229385.59999990463,228570.684,228586.20000004768,228587.354,229387.65,,29,from
screen,html.Screen,0_4_1_0_1_30,2021-11-19T12:41:05.672Z,,,,,,,,,,,,,,,,11,,,,,,,,,,,,,,501.4499999046384,,response,,,4,C,,,,,Space,keypress(Space),,,,instrumental,----- -- ---- --- -- --- -------- ------------ ---------- --<br>- ------- ------ --------- -- ------------ -- --- ---- -----<br>------ ---- ---- ------ ------ ------- --- ----- ---------<br>---- the -------- -------- --- --- -- ------- --- --- -----<br>-- --- ------ ------- --- --- -------- ---- --------- --<br>---------- -- -------- ----------------,229890,229889.09999990463,229370.979,229386.59999990463,229387.65,229904.474,,30,the
screen,html.Screen,0_4_1_0_1_31,2021-11-19T12:41:06.240Z,,,,,,,,,,,,,,,,11,,,,,,,,,,,,,,552.6259999046451,,response,,,4,C,,,,,Space,keypress(Space),,,,instrumental,----- -- ---- --- -- --- -------- ------------ ---------- --<br>- ------- ------ --------- -- ------------ -- --- ---- -----<br>------ ---- ---- ------ ------ ------- --- ----- ---------<br>---- --- island's -------- --- --- -- ------- --- --- -----<br>-- --- ------ ------- --- --- -------- ---- --------- --<br>---------- -- -------- ----------------,230458,230457.09999990463,229887.803,229890.20000004768,229904.474,230471.286,,31,island's
screen,html.Screen,0_4_1_0_1_32,2021-11-19T12:41:07.376Z,,,,,,,,,,,,,,,,11,,,,,,,,,,,,,,1121.7140000000072,,response,,,4,C,,,,,Space,keypress(Space),,,,instrumental,----- -- ---- --- -- --- -------- ------------ ---------- --<br>- ------- ------ --------- -- ------------ -- --- ---- -----<br>------ ---- ---- ------ ------ ------- --- ----- ---------<br>---- --- -------- history. --- --- -- ------- --- --- -----<br>-- --- ------ ------- --- --- -------- ---- --------- --<br>---------- -- -------- ----------------,231593.79999995232,231593,230454.615,230458.20000004768,230471.286,231604.69,,32,history.
screen,html.Screen,0_4_1_0_1_33,2021-11-19T12:41:08.017Z,,,,,,,,,,,,,,,,11,,,,,,,,,,,,,,628.3099999999977,,response,,,4,C,,,,,Space,keypress(Space),,,,instrumental,----- -- ---- --- -- --- -------- ------------ ---------- --<br>- ------- ------ --------- -- ------------ -- --- ---- -----<br>------ ---- ---- ------ ------ ------- --- ----- ---------<br>---- --- -------- -------- The --- -- ------- --- --- -----<br>-- --- ------ ------- --- --- -------- ---- --------- --<br>---------- -- -------- ----------------,232235.20000004768,232233,231588.021,231594,231604.69,232238.538,,33,The
screen,html.Screen,0_4_1_0_1_34,2021-11-19T12:41:08.576Z,,,,,,,,,,,,,,,,11,,,,,,,,,,,,,,554.4619999999995,,response,,,4,C,,,,,Space,keypress(Space),,,,instrumental,----- -- ---- --- -- --- -------- ------------ ---------- --<br>- ------- ------ --------- -- ------------ -- --- ---- -----<br>------ ---- ---- ------ ------ ------- --- ----- ---------<br>---- --- -------- -------- --- art -- ------- --- --- -----<br>-- --- ------ ------- --- --- -------- ---- --------- --<br>---------- -- -------- ----------------,232793.79999995232,232793,232221.866,232235.39999985695,232238.538,232805.188,,34,art
screen,html.Screen,0_4_1_0_1_35,2021-11-19T12:41:09.088Z,,,,,,,,,,,,,,,,11,,,,,,,,,,,,,,499.81200000000536,,response,,,4,C,,,,,Space,keypress(Space),,,,instrumental,----- -- ---- --- -- --- -------- ------------ ---------- --<br>- ------- ------ --------- -- ------------ -- --- ---- -----<br>------ ---- ---- ------ ------ ------- --- ----- ---------<br>---- --- -------- -------- --- --- of ------- --- --- -----<br>-- --- ------ ------- --- --- -------- ---- --------- --<br>---------- -- -------- ----------------,233305.79999995232,233305,232788.518,232794.09999990463,232805.188,233321.876,,35,of
screen,html.Screen,0_4_1_0_1_36,2021-11-19T12:41:09.503Z,,,,,,,,,,,,,,,,11,,,,,,,,,,,,,,398.923999952327,,response,,,4,C,,,,,Space,keypress(Space),,,,instrumental,----- -- ---- --- -- --- -------- ------------ ---------- --<br>- ------- ------ --------- -- ------------ -- --- ---- -----<br>------ ---- ---- ------ ------ ------- --- ----- ---------<br>---- --- -------- -------- --- --- -- writing --- --- -----<br>-- --- ------ ------- --- --- -------- ---- --------- --<br>---------- -- -------- ----------------,233721.59999990463,233720.79999995232,233305.207,233306.09999990463,233321.876,233738.865,,36,writing
screen,html.Screen,0_4_1_0_1_37,2021-11-19T12:41:10.167Z,,,,,,,,,,,,,,,,11,,,,,,,,,,,,,,646.1350000000093,,response,,,4,C,,,,,Space,keypress(Space),,,,instrumental,----- -- ---- --- -- --- -------- ------------ ---------- --<br>- ------- ------ --------- -- ------------ -- --- ---- -----<br>------ ---- ---- ------ ------ ------- --- ----- ---------<br>---- --- -------- -------- --- --- -- ------- was --- -----<br>-- --- ------ ------- --- --- -------- ---- --------- --<br>---------- -- -------- ----------------,234385.70000004768,234385,233722.193,233721.89999985695,233738.865,234388.827,,37,was
screen,html.Screen,0_4_1_0_1_38,2021-11-19T12:41:10.655Z,,,,,,,,,,,,,,,,11,,,,,,,,,,,,,,484.1730000000098,,response,,,4,C,,,,,Space,keypress(Space),,,,instrumental,----- -- ---- --- -- --- -------- ------------ ---------- --<br>- ------- ------ --------- -- ------------ -- --- ---- -----<br>------ ---- ---- ------ ------ ------- --- ----- ---------<br>---- --- -------- -------- --- --- -- ------- --- not -----<br>-- --- ------ ------- --- --- -------- ---- --------- --<br>---------- -- -------- ----------------,234873.70000004768,234873,234372.158,234385.89999985695,234388.827,234889.269,,38,not
screen,html.Screen,0_4_1_0_1_39,2021-11-19T12:41:11.239Z,,,,,,,,,,,,,,,,11,,,,,,,,,,,,,,567.6309998569486,,response,,,4,C,,,,,Space,keypress(Space),,,,instrumental,----- -- ---- --- -- --- -------- ------------ ---------- --<br>- ------- ------ --------- -- ------------ -- --- ---- -----<br>------ ---- ---- ------ ------ ------- --- ----- ---------<br>---- --- -------- -------- --- --- -- ------- --- --- known<br>-- --- ------ ------- --- --- -------- ---- --------- --<br>---------- -- -------- ----------------,235457.70000004768,235456.89999985695,234872.596,234873.89999985695,234889.269,235472.55,,39,known
screen,html.Screen,0_4_1_0_1_40,2021-11-19T12:41:11.910Z,,,,,,,,,,,,,,,,11,,,,,,,,,,,,,,655.8499998569605,,response,,,4,C,,,,,Space,keypress(Space),,,,instrumental,----- -- ---- --- -- --- -------- ------------ ---------- --<br>- ------- ------ --------- -- ------------ -- --- ---- -----<br>------ ---- ---- ------ ------ ------- --- ----- ---------<br>---- --- -------- -------- --- --- -- ------- --- --- -----<br>in --- ------ ------- --- --- -------- ---- --------- --<br>---------- -- -------- ----------------,236128.70000004768,236128.39999985695,235455.88,235457.89999985695,235472.55,236139.501,,40,in
screen,html.Screen,0_4_1_0_1_41,2021-11-19T12:41:12.895Z,,,,,,,,,,,,,,,,11,,,,,,,,,,,,,,973.298999952327,,response,,,4,C,,,,,Space,keypress(Space),,,,instrumental,----- -- ---- --- -- --- -------- ------------ ---------- --<br>- ------- ------ --------- -- ------------ -- --- ---- -----<br>------ ---- ---- ------ ------ ------- --- ----- ---------<br>---- --- -------- -------- --- --- -- ------- --- --- -----<br>-- any ------ ------- --- --- -------- ---- --------- --<br>---------- -- -------- ----------------,237113.70000004768,237112.79999995232,236122.83,236128.70000004768,236139.501,237122.835,,41,any
screen,html.Screen,0_4_1_0_1_42,2021-11-19T12:41:13.727Z,,,,,,,,,,,,,,,,11,,,,,,,,,,,,,,821.9649999523244,,response,,,4,C,,,,,Space,keypress(Space),,,,instrumental,----- -- ---- --- -- --- -------- ------------ ---------- --<br>- ------- ------ --------- -- ------------ -- --- ---- -----<br>------ ---- ---- ------ ------ ------- --- ----- ---------<br>---- --- -------- -------- --- --- -- ------- --- --- -----<br>-- --- nearby ------- --- --- -------- ---- --------- --<br>---------- -- -------- ----------------,237945.59999990463,237944.79999995232,237106.166,237113.79999995232,237122.835,237956.565,,42,nearby
screen,html.Screen,0_4_1_0_1_43,2021-11-19T12:41:14.279Z,,,,,,,,,,,,,,,,11,,,,,,,,,,,,,,540.234999952314,,response,,,4,C,,,,,Space,keypress(Space),,,,instrumental,----- -- ---- --- -- --- -------- ------------ ---------- --<br>- ------- ------ --------- -- ------------ -- --- ---- -----<br>------ ---- ---- ------ ------ ------- --- ----- ---------<br>---- --- -------- -------- --- --- -- ------- --- --- -----<br>-- --- ------ islands --- --- -------- ---- --------- --<br>---------- -- -------- ----------------,238497.59999990463,238496.79999995232,237939.894,237945.79999995232,237956.565,238506.817,,43,islands
screen,html.Screen,0_4_1_0_1_44,2021-11-19T12:41:15.167Z,,,,,,,,,,,,,,,,11,,,,,,,,,,,,,,877.8830000476737,,response,,,4,C,,,,,Space,keypress(Space),,,,instrumental,----- -- ---- --- -- --- -------- ------------ ---------- --<br>- ------- ------ --------- -- ------------ -- --- ---- -----<br>------ ---- ---- ------ ------ ------- --- ----- ---------<br>---- --- -------- -------- --- --- -- ------- --- --- -----<br>-- --- ------ ------- and --- -------- ---- --------- --<br>---------- -- -------- ----------------,239385.59999990463,239384.70000004768,238490.146,238497.89999985695,238506.817,239390.342,,44,and
screen,html.Screen,0_4_1_0_1_45,2021-11-19T12:41:15.704Z,,,,,,,,,,,,,,,,11,,,,,,,,,,,,,,530.8580000476795,,response,,,4,C,,,,,Space,keypress(Space),,,,instrumental,----- -- ---- --- -- --- -------- ------------ ---------- --<br>- ------- ------ --------- -- ------------ -- --- ---- -----<br>------ ---- ---- ------ ------ ------- --- ----- ---------<br>---- --- -------- -------- --- --- -- ------- --- --- -----<br>-- --- ------ ------- --- the -------- ---- --------- --<br>---------- -- -------- ----------------,239921.89999985695,239921.20000004768,239373.671,239385.79999995232,239390.342,239923.818,,45,the
screen,html.Screen,0_4_1_0_1_46,2021-11-19T12:41:16.375Z,,,,,,,,,,,,,,,,11,,,,,,,,,,,,,,668.8820000476844,,response,,,4,C,,,,,Space,keypress(Space),,,,instrumental,----- -- ---- --- -- --- -------- ------------ ---------- --<br>- ------- ------ --------- -- ------------ -- --- ---- -----<br>------ ---- ---- ------ ------ ------- --- ----- ---------<br>---- --- -------- -------- --- --- -- ------- --- --- -----<br>-- --- ------ ------- --- --- script's ---- --------- --<br>---------- -- -------- ----------------,240593.39999985695,240592.70000004768,239907.147,239922.20000004768,239923.818,240607.268,,46,script's
screen,html.Screen,0_4_1_0_1_47,2021-11-19T12:41:17.007Z,,,,,,,,,,,,,,,,11,,,,,,,,,,,,,,617.2319999999891,,response,,,4,C,,,,,Space,keypress(Space),,,,instrumental,----- -- ---- --- -- --- -------- ------------ ---------- --<br>- ------- ------ --------- -- ------------ -- --- ---- -----<br>------ ---- ---- ------ ------ ------- --- ----- ---------<br>---- --- -------- -------- --- --- -- ------- --- --- -----<br>-- --- ------ ------- --- --- -------- mere --------- --<br>---------- -- -------- ----------------,241225.29999995232,241224.5,240590.598,240593.70000004768,240607.268,241240.86,,47,mere
screen,html.Screen,0_4_1_0_1_48,2021-11-19T12:41:17.583Z,,,,,,,,,,,,,,,,11,,,,,,,,,,,,,,559.640000000014,,response,,,4,C,,,,,Space,keypress(Space),,,,instrumental,----- -- ---- --- -- --- -------- ------------ ---------- --<br>- ------- ------ --------- -- ------------ -- --- ---- -----<br>------ ---- ---- ------ ------ ------- --- ----- ---------<br>---- --- -------- -------- --- --- -- ------- --- --- -----<br>-- --- ------ ------- --- --- -------- ---- existence --<br>---------- -- -------- ----------------,241801.20000004768,241800.5,241224.189,241225.59999990463,241240.86,241807.656,,48,existence
screen,html.Screen,0_4_1_0_1_49,2021-11-19T12:41:18.071Z,,,,,,,,,,,,,,,,11,,,,,,,,,,,,,,480.94399990464444,,response,,,4,C,,,,,Space,keypress(Space),,,,instrumental,----- -- ---- --- -- --- -------- ------------ ---------- --<br>- ------- ------ --------- -- ------------ -- --- ---- -----<br>------ ---- ---- ------ ------ ------- --- ----- ---------<br>---- --- -------- -------- --- --- -- ------- --- --- -----<br>-- --- ------ ------- --- --- -------- ---- --------- is<br>---------- -- -------- ----------------,242289.39999985695,242288.59999990463,241790.985,241801.39999985695,241807.656,242291.128,,49,is
screen,html.Screen,0_4_1_0_1_50,2021-11-19T12:41:18.935Z,,,,,,,,,,,,,,,,11,,,,,,,,,,,,,,861.372000000003,,response,,,4,C,,,,,Space,keypress(Space),,,,instrumental,----- -- ---- --- -- --- -------- ------------ ---------- --<br>- ------- ------ --------- -- ------------ -- --- ---- -----<br>------ ---- ---- ------ ------ ------- --- ----- ---------<br>---- --- -------- -------- --- --- -- ------- --- --- -----<br>-- --- ------ ------- --- --- -------- ---- --------- --<br>sufficient -- -------- ----------------,243153.39999985695,243152.5,242274.457,242289.70000004768,242291.128,243157.943,,50,sufficient
