sender,sender_type,sender_id,timestamp,meta,,Blues,Classical,Country,Dance,Electronic,Folk,Gospel,Hip-Hop,Jazz,Latin,Musical/Film,New-age,Pop,Provo_ID,R&B,Rap,Reggae,Religious,Rock,Soul,Swing,Traditional,age,artist_name,correct,correctResponse,distraction,duration,education,ended_on,familiarity,gender,item,list,music_frequency,offensiveness,pleasantness,preference,response,response_action,snippet_file,song_name,song_rating,sound,text,time_commit,time_end,time_render,time_run,time_show,time_switch,url,word,word_ID
Instructions,html.Page,0_0,2021-12-02T12:50:04.880Z,"{""labjs_version"":""20.2.3"",""labjs_build"":{""flavor"":""production"",""commit"":""7ea907d66ca8aeef8054924ca5d82ffbe11e34e5""},""location"":""https://run.pavlovia.org/mvasilev/lab_music_a/"",""userAgent"":""Mozilla/5.0 (Windows NT 6.1; Win64; x64) AppleWebKit/537.36 (KHTML, like Gecko) Chrome/96.0.4664.45 Safari/537.36"",""platform"":""Win32"",""language"":""en-US"",""locale"":""en-US"",""timeZone"":""Europe/London"",""timezoneOffset"":0,""screen_width"":1920,""screen_height"":1080,""scroll_width"":1920,""scroll_height"":959,""window_innerWidth"":1920,""window_innerHeight"":1007,""devicePixelRatio"":1}",,,,,,,,,,,,,,,,,,,,,,,,,,,,,27769.099999999256,,form submission,,,,,,,,,,,,,,,,43516.39999999851,43515.199999999255,15712.778,15725.199999999255,15746.1,43522.407,{},,
Headphones,html.Page,0_1,2021-12-02T12:50:07.332Z,,,,,,,,,,,,,,,,,,,,,,,,,,,,,,2445.892999998883,,form submission,,,,,,,,,,,,,,,,45968.79999999888,45968.29999999888,43505.743,43517.09999999963,43522.407,45972.922,,,
Holding screen,html.Screen,0_2_0_0,2021-12-02T12:50:17.328Z,,,,,,,,,,,,,,,,,,,,,,,,,,,,,,10002.550000000003,,timeout,,,,,,,,,,,,,,,,55964.39999999851,55958.803,45956.253,45969.29999999888,45972.922,55975.472,,,
screen,html.Screen,0_2_0_1_0,2021-12-02T12:50:20.002Z,,,,,,,,,,,,,,,,53,,,,,,,,,,,,,,2661.7279999992534,,response,,,99,,,,,,Space,keypress(Space),,,,,When -- ----- -- ------ - ------- --- ----------<br>------------- ------ ------ ---- ---- ------- ----- -- ----<br>-------- ------- -- ---------- --- - --- ----- ----- ----<br>---- --- --- ----- --- ---- ---- ------- ----- ---- -------<br>--- --- -- ----- -- --- ---- -- --- ---- -- ------ ------<br>--- ----- -- ----,58638.699999999255,58637.199999999255,55958.803,55964.699999999255,55975.472,58643.089,,0,When
screen,html.Screen,0_2_0_1_1,2021-12-02T12:50:23.228Z,,,,,,,,,,,,,,,,53,,,,,,,,,,,,,,3218.0109999996275,,response,,,99,,,,,,Space,keypress(Space),,,,,---- it ----- -- ------ - ------- --- ----------<br>------------- ------ ------ ---- ---- ------- ----- -- ----<br>-------- ------- -- ---------- --- - --- ----- ----- ----<br>---- --- --- ----- --- ---- ---- ------- ----- ---- -------<br>--- --- -- ----- -- --- ---- -- --- ---- -- ------ ------<br>--- ----- -- ----,61862,61861.09999999963,58626.418,58639.09999999963,58643.089,61877.011,,1,it
screen,html.Screen,0_2_0_1_2,2021-12-02T12:50:24.636Z,,,,,,,,,,,,,,,,53,,,,,,,,,,,,,,1391.9890000000014,,response,,,99,,,,,,Space,keypress(Space),,,,,---- -- comes -- ------ - ------- --- ----------<br>------------- ------ ------ ---- ---- ------- ----- -- ----<br>-------- ------- -- ---------- --- - --- ----- ----- ----<br>---- --- --- ----- --- ---- ---- ------- ----- ---- -------<br>--- --- -- ----- -- --- ---- -- --- ---- -- ------ ------<br>--- ----- -- ----,63269.89999999851,63269,61860.341,61862.39999999851,61877.011,63277.378,,2,comes
screen,html.Screen,0_2_0_1_3,2021-12-02T12:50:25.357Z,,,,,,,,,,,,,,,,53,,,,,,,,,,,,,,712.0219999985129,,response,,,99,,,,,,Space,keypress(Space),,,,,---- -- ----- to ------ - ------- --- ----------<br>------------- ------ ------ ---- ---- ------- ----- -- ----<br>-------- ------- -- ---------- --- - --- ----- ----- ----<br>---- --- --- ----- --- ---- ---- ------- ----- ---- -------<br>--- --- -- ----- -- --- ---- -- --- ---- -- ------ ------<br>--- ----- -- ----,63990.29999999888,63989.39999999851,63260.708,63270,63277.378,63994.323,,3,to
screen,html.Screen,0_2_0_1_4,2021-12-02T12:50:25.964Z,,,,,,,,,,,,,,,,53,,,,,,,,,,,,,,602.5769999985132,,response,,,99,,,,,,Space,keypress(Space),,,,,---- -- ----- -- having - ------- --- ----------<br>------------- ------ ------ ---- ---- ------- ----- -- ----<br>-------- ------- -- ---------- --- - --- ----- ----- ----<br>---- --- --- ----- --- ---- ---- ------- ----- ---- -------<br>--- --- -- ----- -- --- ---- -- --- ---- -- ------ ------<br>--- ----- -- ----,64598,64596.89999999851,63977.653,63990.79999999888,63994.323,64611.297,,4,having
screen,html.Screen,0_2_0_1_5,2021-12-02T12:50:26.524Z,,,,,,,,,,,,,,,,53,,,,,,,,,,,,,,545.5029999988838,,response,,,99,,,,,,Space,keypress(Space),,,,,---- -- ----- -- ------ a ------- --- ----------<br>------------- ------ ------ ---- ---- ------- ----- -- ----<br>-------- ------- -- ---------- --- - --- ----- ----- ----<br>---- --- --- ----- --- ---- ---- ------- ----- ---- -------<br>--- --- -- ----- -- --- ---- -- --- ---- -- ------ ------<br>--- ----- -- ----,65157.699999999255,65156.79999999888,64594.626,64598.29999999888,64611.297,65161.367,,5,a
screen,html.Screen,0_2_0_1_6,2021-12-02T12:50:27.124Z,,,,,,,,,,,,,,,,53,,,,,,,,,,,,,,595.5329999985115,,response,,,99,,,,,,Space,keypress(Space),,,,,---- -- ----- -- ------ - lasting --- ----------<br>------------- ------ ------ ---- ---- ------- ----- -- ----<br>-------- ------- -- ---------- --- - --- ----- ----- ----<br>---- --- --- ----- --- ---- ---- ------- ----- ---- -------<br>--- --- -- ----- -- --- ---- -- --- ---- -- ------ ------<br>--- ----- -- ----,65757.79999999888,65756.89999999851,65144.697,65158.29999999888,65161.367,65761.521,,6,lasting
screen,html.Screen,0_2_0_1_7,2021-12-02T12:50:27.700Z,,,,,,,,,,,,,,,,53,,,,,,,,,,,,,,571.278999998889,,response,,,99,,,,,,Space,keypress(Space),,,,,---- -- ----- -- ------ - ------- and ----------<br>------------- ------ ------ ---- ---- ------- ----- -- ----<br>-------- ------- -- ---------- --- - --- ----- ----- ----<br>---- --- --- ----- --- ---- ---- ------- ----- ---- -------<br>--- --- -- ----- -- --- ---- -- --- ---- -- ------ ------<br>--- ----- -- ----,66333.79999999888,66332.79999999888,65744.851,65758.09999999963,65761.521,66345.01,,7,and
screen,html.Screen,0_2_0_1_8,2021-12-02T12:50:28.372Z,,,,,,,,,,,,,,,,53,,,,,,,,,,,,,,659.7899999988877,,response,,,99,,,,,,Space,keypress(Space),,,,,---- -- ----- -- ------ - ------- --- fulfilling<br>------------- ------ ------ ---- ---- ------- ----- -- ----<br>-------- ------- -- ---------- --- - --- ----- ----- ----<br>---- --- --- ----- --- ---- ---- ------- ----- ---- -------<br>--- --- -- ----- -- --- ---- -- --- ---- -- ------ ------<br>--- ----- -- ----,67005.89999999851,67004.79999999888,66328.34,66334.09999999963,66345.01,67011.842,,8,fulfilling
screen,html.Screen,0_2_0_1_9,2021-12-02T12:50:29.132Z,,,,,,,,,,,,,,,,53,,,,,,,,,,,,,,752.9579999988782,,response,,,99,,,,,,Space,keypress(Space),,,,,"---- -- ----- -- ------ - ------- --- ----------<br>relationship, ------ ------ ---- ---- ------- ----- -- ----<br>-------- ------- -- ---------- --- - --- ----- ----- ----<br>---- --- --- ----- --- ---- ---- ------- ----- ---- -------<br>--- --- -- ----- -- --- ---- -- --- ---- -- ------ ------<br>--- ----- -- ----",67765.59999999963,67764.79999999888,66995.172,67006.19999999925,67011.842,67778.681,,9,"relationship,"
screen,html.Screen,0_2_0_1_10,2021-12-02T12:50:29.924Z,,,,,,,,,,,,,,,,53,,,,,,,,,,,,,,778.0189999992581,,response,,,99,,,,,,Space,keypress(Space),,,,,---- -- ----- -- ------ - ------- --- ----------<br>------------- common ------ ---- ---- ------- ----- -- ----<br>-------- ------- -- ---------- --- - --- ----- ----- ----<br>---- --- --- ----- --- ---- ---- ------- ----- ---- -------<br>--- --- -- ----- -- --- ---- -- --- ---- -- ------ ------<br>--- ----- -- ----,68557.59999999963,68556.69999999925,67762.011,67765.89999999851,67778.681,68562.104,,10,common
screen,html.Screen,0_2_0_1_11,2021-12-02T12:50:32.116Z,,,,,,,,,,,,,,,,53,,,,,,,,,,,,,,2186.495999999621,,response,,,99,,,,,,Space,keypress(Space),,,,,---- -- ----- -- ------ - ------- --- ----------<br>------------- ------ wisdom ---- ---- ------- ----- -- ----<br>-------- ------- -- ---------- --- - --- ----- ----- ----<br>---- --- --- ----- --- ---- ---- ------- ----- ---- -------<br>--- --- -- ----- -- --- ---- -- --- ---- -- ------ ------<br>--- ----- -- ----,70749.5,70748.59999999963,68545.435,68557.79999999888,68562.104,70762.885,,11,wisdom
screen,html.Screen,0_2_0_1_12,2021-12-02T12:50:32.812Z,,,,,,,,,,,,,,,,53,,,,,,,,,,,,,,681.6150000000052,,response,,,99,,,,,,Space,keypress(Space),,,,,---- -- ----- -- ------ - ------- --- ----------<br>------------- ------ ------ says ---- ------- ----- -- ----<br>-------- ------- -- ---------- --- - --- ----- ----- ----<br>---- --- --- ----- --- ---- ---- ------- ----- ---- -------<br>--- --- -- ----- -- --- ---- -- --- ---- -- ------ ------<br>--- ----- -- ----,71445.29999999888,71444.5,70746.214,70749.79999999888,70762.885,71446.3,,12,says
screen,html.Screen,0_2_0_1_13,2021-12-02T12:50:33.260Z,,,,,,,,,,,,,,,,53,,,,,,,,,,,,,,446.1999999999971,,response,,,99,,,,,,Space,keypress(Space),,,,,---- -- ----- -- ------ - ------- --- ----------<br>------------- ------ ------ ---- that ------- ----- -- ----<br>-------- ------- -- ---------- --- - --- ----- ----- ----<br>---- --- --- ----- --- ---- ---- ------- ----- ---- -------<br>--- --- -- ----- -- --- ---- -- --- ---- -- ------ ------<br>--- ----- -- ----,71893.29999999888,71892.5,71429.63,71445.59999999963,71446.3,71896.445,,13,that
screen,html.Screen,0_2_0_1_14,2021-12-02T12:50:33.732Z,,,,,,,,,,,,,,,,53,,,,,,,,,,,,,,468.054999999993,,response,,,99,,,,,,Space,keypress(Space),,,,,---- -- ----- -- ------ - ------- --- ----------<br>------------- ------ ------ ---- ---- feeling ----- -- ----<br>-------- ------- -- ---------- --- - --- ----- ----- ----<br>---- --- --- ----- --- ---- ---- ------- ----- ---- -------<br>--- --- -- ----- -- --- ---- -- --- ---- -- ------ ------<br>--- ----- -- ----,72365.29999999888,72364.5,71879.775,71893.59999999963,71896.445,72379.887,,14,feeling
screen,html.Screen,0_2_0_1_15,2021-12-02T12:50:34.260Z,,,,,,,,,,,,,,,,53,,,,,,,,,,,,,,512.5129999985074,,response,,,99,,,,,,Space,keypress(Space),,,,,---- -- ----- -- ------ - ------- --- ----------<br>------------- ------ ------ ---- ---- ------- close -- ----<br>-------- ------- -- ---------- --- - --- ----- ----- ----<br>---- --- --- ----- --- ---- ---- ------- ----- ---- -------<br>--- --- -- ----- -- --- ---- -- --- ---- -- ------ ------<br>--- ----- -- ----,72893.19999999925,72892.39999999851,72363.217,72365.5,72379.887,72896.689,,15,close
screen,html.Screen,0_2_0_1_16,2021-12-02T12:50:34.620Z,,,,,,,,,,,,,,,,53,,,,,,,,,,,,,,355.8110000000015,,response,,,99,,,,,,Space,keypress(Space),,,,,---- -- ----- -- ------ - ------- --- ----------<br>------------- ------ ------ ---- ---- ------- ----- to ----<br>-------- ------- -- ---------- --- - --- ----- ----- ----<br>---- --- --- ----- --- ---- ---- ------- ----- ---- -------<br>--- --- -- ----- -- --- ---- -- --- ---- -- ------ ------<br>--- ----- -- ----,73253.19999999925,73252.5,72880.019,72893.5,72896.689,73263.46,,16,to
screen,html.Screen,0_2_0_1_17,2021-12-02T12:50:34.956Z,,,,,,,,,,,,,,,,53,,,,,,,,,,,,,,324.9399999985035,,response,,,99,,,,,,Space,keypress(Space),,,,,---- -- ----- -- ------ - ------- --- ----------<br>------------- ------ ------ ---- ---- ------- ----- -- your<br>-------- ------- -- ---------- --- - --- ----- ----- ----<br>---- --- --- ----- --- ---- ---- ------- ----- ---- -------<br>--- --- -- ----- -- --- ---- -- --- ---- -- ------ ------<br>--- ----- -- ----,73589.19999999925,73588.39999999851,73246.79,73253.39999999851,73263.46,73596.921,,17,your
screen,html.Screen,0_2_0_1_18,2021-12-02T12:50:35.788Z,,,,,,,,,,,,,,,,53,,,,,,,,,,,,,,823.8789999988803,,response,,,99,,,,,,Space,keypress(Space),,,,,---- -- ----- -- ------ - ------- --- ----------<br>------------- ------ ------ ---- ---- ------- ----- -- ----<br>romantic ------- -- ---------- --- - --- ----- ----- ----<br>---- --- --- ----- --- ---- ---- ------- ----- ---- -------<br>--- --- -- ----- -- --- ---- -- --- ---- -- ------ ------<br>--- ----- -- ----,74421.69999999925,74420.79999999888,73580.25,73589.39999999851,73596.921,74430.412,,18,romantic
screen,html.Screen,0_2_0_1_19,2021-12-02T12:50:36.451Z,,,,,,,,,,,,,,,,53,,,,,,,,,,,,,,653.9879999985133,,response,,,99,,,,,,Space,keypress(Space),,,,,---- -- ----- -- ------ - ------- --- ----------<br>------------- ------ ------ ---- ---- ------- ----- -- ----<br>-------- partner -- ---------- --- - --- ----- ----- ----<br>---- --- --- ----- --- ---- ---- ------- ----- ---- -------<br>--- --- -- ----- -- --- ---- -- --- ---- -- ------ ------<br>--- ----- -- ----,75085.09999999963,75084.39999999851,74413.742,74421.89999999851,74430.412,75097.115,,19,partner
screen,html.Screen,0_2_0_1_20,2021-12-02T12:50:36.931Z,,,,,,,,,,,,,,,,53,,,,,,,,,,,,,,467.28499999850465,,response,,,99,,,,,,Space,keypress(Space),,,,,---- -- ----- -- ------ - ------- --- ----------<br>------------- ------ ------ ---- ---- ------- ----- -- ----<br>-------- ------- is ---------- --- - --- ----- ----- ----<br>---- --- --- ----- --- ---- ---- ------- ----- ---- -------<br>--- --- -- ----- -- --- ---- -- --- ---- -- ------ ------<br>--- ----- -- ----,75565.19999999925,75564.39999999851,75080.446,75085.39999999851,75097.115,75580.777,,20,is
screen,html.Screen,0_2_0_1_21,2021-12-02T12:50:37.859Z,,,,,,,,,,,,,,,,53,,,,,,,,,,,,,,911.4229999992531,,response,,,99,,,,,,Space,keypress(Space),,,,,---- -- ----- -- ------ - ------- --- ----------<br>------------- ------ ------ ---- ---- ------- ----- -- ----<br>-------- ------- -- paramount. --- - --- ----- ----- ----<br>---- --- --- ----- --- ---- ---- ------- ----- ---- -------<br>--- --- -- ----- -- --- ---- -- --- ---- -- ------ ------<br>--- ----- -- ----,76493.09999999963,76492.19999999925,75564.106,75565.39999999851,75580.777,76497.604,,21,paramount.
screen,html.Screen,0_2_0_1_22,2021-12-02T12:50:38.795Z,,,,,,,,,,,,,,,,53,,,,,,,,,,,,,,930.5959999992483,,response,,,99,,,,,,Space,keypress(Space),,,,,---- -- ----- -- ------ - ------- --- ----------<br>------------- ------ ------ ---- ---- ------- ----- -- ----<br>-------- ------- -- ---------- But - --- ----- ----- ----<br>---- --- --- ----- --- ---- ---- ------- ----- ---- -------<br>--- --- -- ----- -- --- ---- -- --- ---- -- ------ ------<br>--- ----- -- ----,77428.89999999851,77428.19999999925,76480.934,76493.5,76497.604,77431.153,,22,But
screen,html.Screen,0_2_0_1_23,2021-12-02T12:50:39.211Z,,,,,,,,,,,,,,,,53,,,,,,,,,,,,,,413.04699999924924,,response,,,99,,,,,,Space,keypress(Space),,,,,---- -- ----- -- ------ - ------- --- ----------<br>------------- ------ ------ ---- ---- ------- ----- -- ----<br>-------- ------- -- ---------- --- a --- ----- ----- ----<br>---- --- --- ----- --- ---- ---- ------- ----- ---- -------<br>--- --- -- ----- -- --- ---- -- --- ---- -- ------ ------<br>--- ----- -- ----,77844.89999999851,77844.19999999925,77414.483,77429.19999999925,77431.153,77847.969,,23,a
screen,html.Screen,0_2_0_1_24,2021-12-02T12:50:39.579Z,,,,,,,,,,,,,,,,53,,,,,,,,,,,,,,364.2309999992576,,response,,,99,,,,,,Space,keypress(Space),,,,,---- -- ----- -- ------ - ------- --- ----------<br>------------- ------ ------ ---- ---- ------- ----- -- ----<br>-------- ------- -- ---------- --- - new ----- ----- ----<br>---- --- --- ----- --- ---- ---- ------- ----- ---- -------<br>--- --- -- ----- -- --- ---- -- --- ---- -- ------ ------<br>--- ----- -- ----,78212.89999999851,78212.19999999925,77831.299,77845.19999999925,77847.969,78214.736,,24,new
screen,html.Screen,0_2_0_1_25,2021-12-02T12:50:39.963Z,,,,,,,,,,,,,,,,53,,,,,,,,,,,,,,381.36399999962305,,response,,,99,,,,,,Space,keypress(Space),,,,,---- -- ----- -- ------ - ------- --- ----------<br>------------- ------ ------ ---- ---- ------- ----- -- ----<br>-------- ------- -- ---------- --- - --- study ----- ----<br>---- --- --- ----- --- ---- ---- ------- ----- ---- -------<br>--- --- -- ----- -- --- ---- -- --- ---- -- ------ ------<br>--- ----- -- ----,78597,78596.09999999963,78198.066,78213.19999999925,78214.736,78598.153,,25,study
screen,html.Screen,0_2_0_1_26,2021-12-02T12:50:40.323Z,,,,,,,,,,,,,,,,53,,,,,,,,,,,,,,357.94699999962177,,response,,,99,,,,,,Space,keypress(Space),,,,,---- -- ----- -- ------ - ------- --- ----------<br>------------- ------ ------ ---- ---- ------- ----- -- ----<br>-------- ------- -- ---------- --- - --- ----- finds ----<br>---- --- --- ----- --- ---- ---- ------- ----- ---- -------<br>--- --- -- ----- -- --- ---- -- --- ---- -- ------ ------<br>--- ----- -- ----,78956.89999999851,78956.09999999963,78581.483,78597.19999999925,78598.153,78964.972,,26,finds
screen,html.Screen,0_2_0_1_27,2021-12-02T12:50:40.659Z,,,,,,,,,,,,,,,,53,,,,,,,,,,,,,,327.12799999777053,,response,,,99,,,,,,Space,keypress(Space),,,,,---- -- ----- -- ------ - ------- --- ----------<br>------------- ------ ------ ---- ---- ------- ----- -- ----<br>-------- ------- -- ---------- --- - --- ----- ----- that<br>---- --- --- ----- --- ---- ---- ------- ----- ---- -------<br>--- --- -- ----- -- --- ---- -- --- ---- -- ------ ------<br>--- ----- -- ----,79292.80000000075,79292.09999999776,78948.301,78957.09999999963,78964.972,79298.335,,27,that
screen,html.Screen,0_2_0_1_28,2021-12-02T12:50:41.331Z,,,,,,,,,,,,,,,,53,,,,,,,,,,,,,,665.7649999977584,,response,,,99,,,,,,Space,keypress(Space),,,,,---- -- ----- -- ------ - ------- --- ----------<br>------------- ------ ------ ---- ---- ------- ----- -- ----<br>-------- ------- -- ---------- --- - --- ----- ----- ----<br>it's --- --- ----- --- ---- ---- ------- ----- ---- -------<br>--- --- -- ----- -- --- ---- -- --- ---- -- ------ ------<br>--- ----- -- ----,79964.89999999851,79964.09999999776,79281.665,79293.09999999776,79298.335,79981.752,,28,it's
screen,html.Screen,0_2_0_1_29,2021-12-02T12:50:41.699Z,,,,,,,,,,,,,,,,53,,,,,,,,,,,,,,350.3479999977717,,response,,,99,,,,,,Space,keypress(Space),,,,,---- -- ----- -- ------ - ------- --- ----------<br>------------- ------ ------ ---- ---- ------- ----- -- ----<br>-------- ------- -- ---------- --- - --- ----- ----- ----<br>---- not --- ----- --- ---- ---- ------- ----- ---- -------<br>--- --- -- ----- -- --- ---- -- --- ---- -- ------ ------<br>--- ----- -- ----,80333.09999999776,80332.09999999776,79965.083,79965.09999999776,79981.752,80348.722,,29,not
screen,html.Screen,0_2_0_1_30,2021-12-02T12:50:42.035Z,,,,,,,,,,,,,,,,53,,,,,,,,,,,,,,319.1779999985156,,response,,,99,,,,,,Space,keypress(Space),,,,,---- -- ----- -- ------ - ------- --- ----------<br>------------- ------ ------ ---- ---- ------- ----- -- ----<br>-------- ------- -- ---------- --- - --- ----- ----- ----<br>---- --- how ----- --- ---- ---- ------- ----- ---- -------<br>--- --- -- ----- -- --- ---- -- --- ---- -- ------ ------<br>--- ----- -- ----,80668.80000000075,80667.89999999851,80332.05,80333.39999999851,80348.722,80681.937,,30,how
screen,html.Screen,0_2_0_1_31,2021-12-02T12:50:42.379Z,,,,,,,,,,,,,,,,53,,,,,,,,,,,,,,330.06299999999464,,response,,,99,,,,,,Space,keypress(Space),,,,,---- -- ----- -- ------ - ------- --- ----------<br>------------- ------ ------ ---- ---- ------- ----- -- ----<br>-------- ------- -- ---------- --- - --- ----- ----- ----<br>---- --- --- close --- ---- ---- ------- ----- ---- -------<br>--- --- -- ----- -- --- ---- -- --- ---- -- ------ ------<br>--- ----- -- ----,81012.69999999925,81012,80665.268,80669,80681.937,81015.511,,31,close
screen,html.Screen,0_2_0_1_32,2021-12-02T12:50:42.787Z,,,,,,,,,,,,,,,,53,,,,,,,,,,,,,,404.3889999985113,,response,,,99,,,,,,Space,keypress(Space),,,,,---- -- ----- -- ------ - ------- --- ----------<br>------------- ------ ------ ---- ---- ------- ----- -- ----<br>-------- ------- -- ---------- --- - --- ----- ----- ----<br>---- --- --- ----- you ---- ---- ------- ----- ---- -------<br>--- --- -- ----- -- --- ---- -- --- ---- -- ------ ------<br>--- ----- -- ----,81420.59999999776,81419.89999999851,80998.839,81012.89999999851,81015.511,81432.276,,32,you
screen,html.Screen,0_2_0_1_33,2021-12-02T12:50:43.179Z,,,,,,,,,,,,,,,,53,,,,,,,,,,,,,,379.62399999851186,,response,,,99,,,,,,Space,keypress(Space),,,,,---- -- ----- -- ------ - ------- --- ----------<br>------------- ------ ------ ---- ---- ------- ----- -- ----<br>-------- ------- -- ---------- --- - --- ----- ----- ----<br>---- --- --- ----- --- feel ---- ------- ----- ---- -------<br>--- --- -- ----- -- --- ---- -- --- ---- -- ------ ------<br>--- ----- -- ----,81812.59999999776,81811.89999999851,81415.605,81420.89999999851,81432.276,81815.667,,33,feel
screen,html.Screen,0_2_0_1_34,2021-12-02T12:50:43.595Z,,,,,,,,,,,,,,,,53,,,,,,,,,,,,,,412.2329999985086,,response,,,99,,,,,,Space,keypress(Space),,,,,---- -- ----- -- ------ - ------- --- ----------<br>------------- ------ ------ ---- ---- ------- ----- -- ----<br>-------- ------- -- ---------- --- - --- ----- ----- ----<br>---- --- --- ----- --- ---- that ------- ----- ---- -------<br>--- --- -- ----- -- --- ---- -- --- ---- -- ------ ------<br>--- ----- -- ----,82228.69999999925,82227.89999999851,81798.997,81812.89999999851,81815.667,82232.429,,34,that
screen,html.Screen,0_2_0_1_35,2021-12-02T12:50:44.019Z,,,,,,,,,,,,,,,,53,,,,,,,,,,,,,,419.47099999850616,,response,,,99,,,,,,Space,keypress(Space),,,,,---- -- ----- -- ------ - ------- --- ----------<br>------------- ------ ------ ---- ---- ------- ----- -- ----<br>-------- ------- -- ---------- --- - --- ----- ----- ----<br>---- --- --- ----- --- ---- ---- matters ----- ---- -------<br>--- --- -- ----- -- --- ---- -- --- ---- -- ------ ------<br>--- ----- -- ----,82652.59999999776,82651.89999999851,82215.759,82228.89999999851,82232.429,82665.869,,35,matters
screen,html.Screen,0_2_0_1_36,2021-12-02T12:50:44.443Z,,,,,,,,,,,,,,,,53,,,,,,,,,,,,,,410.03099999850383,,response,,,99,,,,,,Space,keypress(Space),,,,,"---- -- ----- -- ------ - ------- --- ----------<br>------------- ------ ------ ---- ---- ------- ----- -- ----<br>-------- ------- -- ---------- --- - --- ----- ----- ----<br>---- --- --- ----- --- ---- ---- ------- most, ---- -------<br>--- --- -- ----- -- --- ---- -- --- ---- -- ------ ------<br>--- ----- -- ----",83076.89999999851,83075.89999999851,82649.199,82652.80000000075,82665.869,83082.689,,36,"most,"
screen,html.Screen,0_2_0_1_37,2021-12-02T12:50:44.955Z,,,,,,,,,,,,,,,,53,,,,,,,,,,,,,,505.2109999985114,,response,,,99,,,,,,Space,keypress(Space),,,,,---- -- ----- -- ------ - ------- --- ----------<br>------------- ------ ------ ---- ---- ------- ----- -- ----<br>-------- ------- -- ---------- --- - --- ----- ----- ----<br>---- --- --- ----- --- ---- ---- ------- ----- it's -------<br>--- --- -- ----- -- --- ---- -- --- ---- -- ------ ------<br>--- ----- -- ----,83588.69999999925,83587.89999999851,83066.018,83077.19999999925,83082.689,83599.278,,37,it's
screen,html.Screen,0_2_0_1_38,2021-12-02T12:50:45.395Z,,,,,,,,,,,,,,,,53,,,,,,,,,,,,,,428.52200000073935,,response,,,99,,,,,,Space,keypress(Space),,,,,---- -- ----- -- ------ - ------- --- ----------<br>------------- ------ ------ ---- ---- ------- ----- -- ----<br>-------- ------- -- ---------- --- - --- ----- ----- ----<br>---- --- --- ----- --- ---- ---- ------- ----- ---- whether<br>--- --- -- ----- -- --- ---- -- --- ---- -- ------ ------<br>--- ----- -- ----,84028.59999999776,84027.80000000075,83582.61,83588.89999999851,83599.278,84032.996,,38,whether
screen,html.Screen,0_2_0_1_39,2021-12-02T12:50:45.803Z,,,,,,,,,,,,,,,,53,,,,,,,,,,,,,,403.3040000007459,,response,,,99,,,,,,Space,keypress(Space),,,,,---- -- ----- -- ------ - ------- --- ----------<br>------------- ------ ------ ---- ---- ------- ----- -- ----<br>-------- ------- -- ---------- --- - --- ----- ----- ----<br>---- --- --- ----- --- ---- ---- ------- ----- ---- -------<br>you --- -- ----- -- --- ---- -- --- ---- -- ------ ------<br>--- ----- -- ----,84437,84436.30000000075,84016.324,84028.80000000075,84032.996,84449.728,,39,you
screen,html.Screen,0_2_0_1_40,2021-12-02T12:50:46.171Z,,,,,,,,,,,,,,,,53,,,,,,,,,,,,,,354.07200000074226,,response,,,99,,,,,,Space,keypress(Space),,,,,---- -- ----- -- ------ - ------- --- ----------<br>------------- ------ ------ ---- ---- ------- ----- -- ----<br>-------- ------- -- ---------- --- - --- ----- ----- ----<br>---- --- --- ----- --- ---- ---- ------- ----- ---- -------<br>--- are -- ----- -- --- ---- -- --- ---- -- ------ ------<br>--- ----- -- ----,84804.5,84803.80000000075,84433.057,84437.30000000075,84449.728,84816.293,,40,are
screen,html.Screen,0_2_0_1_41,2021-12-02T12:50:46.555Z,,,,,,,,,,,,,,,,53,,,,,,,,,,,,,,371.50700000073994,,response,,,99,,,,,,Space,keypress(Space),,,,,---- -- ----- -- ------ - ------- --- ----------<br>------------- ------ ------ ---- ---- ------- ----- -- ----<br>-------- ------- -- ---------- --- - --- ----- ----- ----<br>---- --- --- ----- --- ---- ---- ------- ----- ---- -------<br>--- --- as ----- -- --- ---- -- --- ---- -- ------ ------<br>--- ----- -- ----,85188.69999999925,85187.80000000075,84799.625,84804.80000000075,84816.293,85199.921,,41,as
screen,html.Screen,0_2_0_1_42,2021-12-02T12:50:46.955Z,,,,,,,,,,,,,,,,53,,,,,,,,,,,,,,387.87900000074296,,response,,,99,,,,,,Space,keypress(Space),,,,,---- -- ----- -- ------ - ------- --- ----------<br>------------- ------ ------ ---- ---- ------- ----- -- ----<br>-------- ------- -- ---------- --- - --- ----- ----- ----<br>---- --- --- ----- --- ---- ---- ------- ----- ---- -------<br>--- --- -- close -- --- ---- -- --- ---- -- ------ ------<br>--- ----- -- ----,85588.5,85587.80000000075,85183.249,85188.80000000075,85199.921,85600.016,,42,close
screen,html.Screen,0_2_0_1_43,2021-12-02T12:50:47.299Z,,,,,,,,,,,,,,,,53,,,,,,,,,,,,,,331.6839999992517,,response,,,99,,,,,,Space,keypress(Space),,,,,---- -- ----- -- ------ - ------- --- ----------<br>------------- ------ ------ ---- ---- ------- ----- -- ----<br>-------- ------- -- ---------- --- - --- ----- ----- ----<br>---- --- --- ----- --- ---- ---- ------- ----- ---- -------<br>--- --- -- ----- as --- ---- -- --- ---- -- ------ ------<br>--- ----- -- ----,85932.5,85931.69999999925,85583.345,85588.69999999925,85600.016,85933.383,,43,as
screen,html.Screen,0_2_0_1_44,2021-12-02T12:50:47.643Z,,,,,,,,,,,,,,,,53,,,,,,,,,,,,,,342.3169999992533,,response,,,99,,,,,,Space,keypress(Space),,,,,---- -- ----- -- ------ - ------- --- ----------<br>------------- ------ ------ ---- ---- ------- ----- -- ----<br>-------- ------- -- ---------- --- - --- ----- ----- ----<br>---- --- --- ----- --- ---- ---- ------- ----- ---- -------<br>--- --- -- ----- -- you ---- -- --- ---- -- ------ ------<br>--- ----- -- ----,86276.5,86275.69999999925,85916.713,85932.80000000075,85933.383,86283.483,,44,you
screen,html.Screen,0_2_0_1_45,2021-12-02T12:50:47.995Z,,,,,,,,,,,,,,,,53,,,,,,,,,,,,,,344.21699999926204,,response,,,99,,,,,,Space,keypress(Space),,,,,---- -- ----- -- ------ - ------- --- ----------<br>------------- ------ ------ ---- ---- ------- ----- -- ----<br>-------- ------- -- ---------- --- - --- ----- ----- ----<br>---- --- --- ----- --- ---- ---- ------- ----- ---- -------<br>--- --- -- ----- -- --- want -- --- ---- -- ------ ------<br>--- ----- -- ----,86628.5,86627.69999999925,86266.813,86276.69999999925,86283.483,86633.572,,45,want
screen,html.Screen,0_2_0_1_46,2021-12-02T12:50:48.387Z,,,,,,,,,,,,,,,,53,,,,,,,,,,,,,,386.0279999977647,,response,,,99,,,,,,Space,keypress(Space),,,,,---- -- ----- -- ------ - ------- --- ----------<br>------------- ------ ------ ---- ---- ------- ----- -- ----<br>-------- ------- -- ---------- --- - --- ----- ----- ----<br>---- --- --- ----- --- ---- ---- ------- ----- ---- -------<br>--- --- -- ----- -- --- ---- to --- ---- -- ------ ------<br>--- ----- -- ----,87020.39999999851,87019.59999999776,86616.902,86628.59999999776,86633.572,87033.663,,46,to
screen,html.Screen,0_2_0_1_47,2021-12-02T12:50:48.803Z,,,,,,,,,,,,,,,,53,,,,,,,,,,,,,,402.0369999992545,,response,,,99,,,,,,Space,keypress(Space),,,,,"---- -- ----- -- ------ - ------- --- ----------<br>------------- ------ ------ ---- ---- ------- ----- -- ----<br>-------- ------- -- ---------- --- - --- ----- ----- ----<br>---- --- --- ----- --- ---- ---- ------- ----- ---- -------<br>--- --- -- ----- -- --- ---- -- be, ---- -- ------ ------<br>--- ----- -- ----",87436.5,87435.69999999925,87016.993,87020.69999999925,87033.663,87450.44,,47,"be,"
screen,html.Screen,0_2_0_1_48,2021-12-02T12:50:49.283Z,,,,,,,,,,,,,,,,53,,,,,,,,,,,,,,465.2599999992526,,response,,,99,,,,,,Space,keypress(Space),,,,,---- -- ----- -- ------ - ------- --- ----------<br>------------- ------ ------ ---- ---- ------- ----- -- ----<br>-------- ------- -- ---------- --- - --- ----- ----- ----<br>---- --- --- ----- --- ---- ---- ------- ----- ---- -------<br>--- --- -- ----- -- --- ---- -- --- even -- ------ ------<br>--- ----- -- ----,87916.39999999851,87915.69999999925,87433.77,87436.69999999925,87450.44,87917.209,,48,even
screen,html.Screen,0_2_0_1_49,2021-12-02T12:50:49.635Z,,,,,,,,,,,,,,,,53,,,,,,,,,,,,,,350.4909999992524,,response,,,99,,,,,,Space,keypress(Space),,,,,---- -- ----- -- ------ - ------- --- ----------<br>------------- ------ ------ ---- ---- ------- ----- -- ----<br>-------- ------- -- ---------- --- - --- ----- ----- ----<br>---- --- --- ----- --- ---- ---- ------- ----- ---- -------<br>--- --- -- ----- -- --- ---- -- --- ---- if ------ ------<br>--- ----- -- ----,88268.39999999851,88267.69999999925,87900.539,87916.59999999776,87917.209,88284.053,,49,if
screen,html.Screen,0_2_0_1_50,2021-12-02T12:50:50.011Z,,,,,,,,,,,,,,,,53,,,,,,,,,,,,,,359.54699999776494,,response,,,99,,,,,,Space,keypress(Space),,,,,---- -- ----- -- ------ - ------- --- ----------<br>------------- ------ ------ ---- ---- ------- ----- -- ----<br>-------- ------- -- ---------- --- - --- ----- ----- ----<br>---- --- --- ----- --- ---- ---- ------- ----- ---- -------<br>--- --- -- ----- -- --- ---- -- --- ---- -- that's ------<br>--- ----- -- ----,88644.39999999851,88643.59999999776,88267.382,88268.59999999776,88284.053,88650.754,,50,that's
screen,html.Screen,0_2_0_1_51,2021-12-02T12:50:50.451Z,,,,,,,,,,,,,,,,53,,,,,,,,,,,,,,432.7459999999992,,response,,,99,,,,,,Space,keypress(Space),,,,,---- -- ----- -- ------ - ------- --- ----------<br>------------- ------ ------ ---- ---- ------- ----- -- ----<br>-------- ------- -- ---------- --- - --- ----- ----- ----<br>---- --- --- ----- --- ---- ---- ------- ----- ---- -------<br>--- --- -- ----- -- --- ---- -- --- ---- -- ------ really<br>--- ----- -- ----,89084.30000000075,89083.5,88634.084,88644.59999999776,88650.754,89100.869,,51,really
screen,html.Screen,0_2_0_1_52,2021-12-02T12:50:50.915Z,,,,,,,,,,,,,,,,53,,,,,,,,,,,,,,446.63099999999395,,response,,,99,,,,,,Space,keypress(Space),,,,,---- -- ----- -- ------ - ------- --- ----------<br>------------- ------ ------ ---- ---- ------- ----- -- ----<br>-------- ------- -- ---------- --- - --- ----- ----- ----<br>---- --- --- ----- --- ---- ---- ------- ----- ---- -------<br>--- --- -- ----- -- --- ---- -- --- ---- -- ------ ------<br>not ----- -- ----,89548.30000000075,89547.5,89084.199,89084.59999999776,89100.869,89551.025,,52,not
screen,html.Screen,0_2_0_1_53,2021-12-02T12:50:51.315Z,,,,,,,,,,,,,,,,53,,,,,,,,,,,,,,396.4750000000058,,response,,,99,,,,,,Space,keypress(Space),,,,,---- -- ----- -- ------ - ------- --- ----------<br>------------- ------ ------ ---- ---- ------- ----- -- ----<br>-------- ------- -- ---------- --- - --- ----- ----- ----<br>---- --- --- ----- --- ---- ---- ------- ----- ---- -------<br>--- --- -- ----- -- --- ---- -- --- ---- -- ------ ------<br>--- close -- ----,89948.19999999925,89947.5,89534.354,89548.5,89551.025,89951.079,,53,close
screen,html.Screen,0_2_0_1_54,2021-12-02T12:50:51.643Z,,,,,,,,,,,,,,,,53,,,,,,,,,,,,,,324.4210000000021,,response,,,99,,,,,,Space,keypress(Space),,,,,---- -- ----- -- ------ - ------- --- ----------<br>------------- ------ ------ ---- ---- ------- ----- -- ----<br>-------- ------- -- ---------- --- - --- ----- ----- ----<br>---- --- --- ----- --- ---- ---- ------- ----- ---- -------<br>--- --- -- ----- -- --- ---- -- --- ---- -- ------ ------<br>--- ----- at ----,90276.30000000075,90275.5,89934.409,89948.5,89951.079,90284.484,,54,at
screen,html.Screen,0_2_0_1_55,2021-12-02T12:50:51.939Z,,,,,,,,,,,,,,,,53,,,,,,,,,,,,,,286.91599999851314,,response,,,99,,,,,,Space,keypress(Space),,,,,---- -- ----- -- ------ - ------- --- ----------<br>------------- ------ ------ ---- ---- ------- ----- -- ----<br>-------- ------- -- ---------- --- - --- ----- ----- ----<br>---- --- --- ----- --- ---- ---- ------- ----- ---- -------<br>--- --- -- ----- -- --- ---- -- --- ---- -- ------ ------<br>--- ----- -- all.,90572.30000000075,90571.39999999851,90267.814,90276.5,90284.484,90584.619,,55,all.
Item 99,flow.Loop,0_2_0_1,2021-12-02T12:50:51.943Z,,,,,,,,,,,,,,,,,,,,,,,,,,,,,,34595.92799999851,,completion,,,,A,,,,,,,,,,silence,,90576.80000000075,90571.39999999851,55958.803,55964.699999999255,55975.472,90584.619,,,
Question 1,html.Screen,0_2_0_2,2021-12-02T12:50:57.797Z,,,,,,,,,,,,,,,,,,,,,,,,,,,true,FALSE,,5844.780999998504,,response,,,99,A,,,,,FALSE,click #choice-2,,,,silence,,96430.80000000075,96429.39999999851,90567.948,90577,90584.619,96435.843,,,
Question 2,html.Screen,0_2_0_3,2021-12-02T12:51:01.595Z,,,,,,,,,,,,,,,,,,,,,,,,,,,true,TRUE,,3791.6570000000065,,response,,,99,A,,,,,TRUE,click #choice-1,,,,silence,,100228.59999999776,100227.5,96419.177,96431.09999999776,96435.843,100237.083,,,
Item 99,flow.Sequence,0_2_0,2021-12-02T12:51:01.595Z,,,,,,,,,,,,,,,,,,,,,,,,,,,,,,54254.578,,completion,,,,,,,,,,,,,,,,100229.09999999776,100227.5,45956.253,45969.199999999255,45972.922,100237.083,,,
Holding screen,html.Screen,0_2_1_0,2021-12-02T12:51:11.590Z,,,,,,,,,,,,,,,,,,,,,,,,,,,,,,10002.462,,timeout,,,,,,,,,,,,,,,,110224.09999999776,110222.875,100220.413,100229.5,100237.083,110239.545,,,
screen,html.Screen,0_2_1_1_0,2021-12-02T12:51:12.818Z,,,,,,,,,,,,,,,,54,,,,,,,,,,,,,,1211.2550000007468,,response,,,100,,,,,,Space,keypress(Space),,,,,At --- ---- --- ------ ----- ------- ---- -- --- ------- --<br>------- ---------- ------ -- ----- -- ----- -- ---- ------<br>--- ----- --- --- ------ -------- ----- --- ------ ----- --<br>----- ----- ---------- --- --- ------ ------ ---- -- ------<br>------- --- ------ ----- --- ---- ------- -- ---- --- --<br>------- ------,111451.69999999925,111450.80000000075,110222.875,110224.39999999851,110239.545,111456.684,,0,At
screen,html.Screen,0_2_1_1_1,2021-12-02T12:51:13.441Z,,,,,,,,,,,,,,,,54,,,,,,,,,,,,,,617.5159999992611,,response,,,100,,,,,,Space,keypress(Space),,,,,-- the ---- --- ------ ----- ------- ---- -- --- ------- --<br>------- ---------- ------ -- ----- -- ----- -- ---- ------<br>--- ----- --- --- ------ -------- ----- --- ------ ----- --<br>----- ----- ---------- --- --- ------ ------ ---- -- ------<br>------- --- ------ ----- --- ---- ------- -- ---- --- --<br>------- ------,112075,112074.19999999925,111440.013,111451.89999999851,111456.684,112090.077,,1,the
screen,html.Screen,0_2_1_1_2,2021-12-02T12:51:14.065Z,,,,,,,,,,,,,,,,54,,,,,,,,,,,,,,608.2230000007403,,response,,,100,,,,,,Space,keypress(Space),,,,,-- --- time --- ------ ----- ------- ---- -- --- ------- --<br>------- ---------- ------ -- ----- -- ----- -- ---- ------<br>--- ----- --- --- ------ -------- ----- --- ------ ----- --<br>----- ----- ---------- --- --- ------ ------ ---- -- ------<br>------- --- ------ ----- --- ---- ------- -- ---- --- --<br>------- ------,112699,112698.30000000075,112073.407,112075.19999999925,112090.077,112706.94,,2,time
screen,html.Screen,0_2_1_1_3,2021-12-02T12:51:14.593Z,,,,,,,,,,,,,,,,54,,,,,,,,,,,,,,519.2599999992526,,response,,,100,,,,,,Space,keypress(Space),,,,,-- --- ---- the ------ ----- ------- ---- -- --- ------- --<br>------- ---------- ------ -- ----- -- ----- -- ---- ------<br>--- ----- --- --- ------ -------- ----- --- ------ ----- --<br>----- ----- ---------- --- --- ------ ------ ---- -- ------<br>------- --- ------ ----- --- ---- ------- -- ---- --- --<br>------- ------,113227.09999999776,113226.19999999925,112690.27,112699.30000000075,112706.94,113240.396,,3,the
screen,html.Screen,0_2_1_1_4,2021-12-02T12:51:15.977Z,,,,,,,,,,,,,,,,54,,,,,,,,,,,,,,1369.7039999977715,,response,,,100,,,,,,Space,keypress(Space),,,,,-- --- ---- --- French ----- ------- ---- -- --- ------- --<br>------- ---------- ------ -- ----- -- ----- -- ---- ------<br>--- ----- --- --- ------ -------- ----- --- ------ ----- --<br>----- ----- ---------- --- --- ------ ------ ---- -- ------<br>------- --- ------ ----- --- ---- ------- -- ---- --- --<br>------- ------,114611,114610.09999999776,113223.726,113227.30000000075,113240.396,114623.892,,4,French
screen,html.Screen,0_2_1_1_5,2021-12-02T12:51:16.794Z,,,,,,,,,,,,,,,,54,,,,,,,,,,,,,,802.2079999977577,,response,,,100,,,,,,Space,keypress(Space),,,,,-- --- ---- --- ------ crown ------- ---- -- --- ------- --<br>------- ---------- ------ -- ----- -- ----- -- ---- ------<br>--- ----- --- --- ------ -------- ----- --- ------ ----- --<br>----- ----- ---------- --- --- ------ ------ ---- -- ------<br>------- --- ------ ----- --- ---- ------- -- ---- --- --<br>------- ------,115427.30000000075,115426.09999999776,114607.223,114611.19999999925,114623.892,115441.129,,5,crown
screen,html.Screen,0_2_1_1_6,2021-12-02T12:51:17.369Z,,,,,,,,,,,,,,,,54,,,,,,,,,,,,,,560.970999997764,,response,,,100,,,,,,Space,keypress(Space),,,,,-- --- ---- --- ------ ----- secured ---- -- --- ------- --<br>------- ---------- ------ -- ----- -- ----- -- ---- ------<br>--- ----- --- --- ------ -------- ----- --- ------ ----- --<br>----- ----- ---------- --- --- ------ ------ ---- -- ------<br>------- --- ------ ----- --- ---- ------- -- ---- --- --<br>------- ------,116002.89999999851,116002.09999999776,115424.457,115427.5,115441.129,116007.705,,6,secured
screen,html.Screen,0_2_1_1_7,2021-12-02T12:51:18.025Z,,,,,,,,,,,,,,,,54,,,,,,,,,,,,,,650.2949999999983,,response,,,100,,,,,,Space,keypress(Space),,,,,-- --- ---- --- ------ ----- ------- much -- --- ------- --<br>------- ---------- ------ -- ----- -- ----- -- ---- ------<br>--- ----- --- --- ------ -------- ----- --- ------ ----- --<br>----- ----- ---------- --- --- ------ ------ ---- -- ------<br>------- --- ------ ----- --- ---- ------- -- ---- --- --<br>------- ------,116658.80000000075,116658,115991.035,116003.09999999776,116007.705,116674.739,,7,much
screen,html.Screen,0_2_1_1_8,2021-12-02T12:51:18.761Z,,,,,,,,,,,,,,,,54,,,,,,,,,,,,,,719.1609999985085,,response,,,100,,,,,,Space,keypress(Space),,,,,-- --- ---- --- ------ ----- ------- ---- of --- ------- --<br>------- ---------- ------ -- ----- -- ----- -- ---- ------<br>--- ----- --- --- ------ -------- ----- --- ------ ----- --<br>----- ----- ---------- --- --- ------ ------ ---- -- ------<br>------- --- ------ ----- --- ---- ------- -- ---- --- --<br>------- ------,117394.59999999776,117393.89999999851,116658.067,116659.09999999776,116674.739,117408.138,,8,of
screen,html.Screen,0_2_1_1_9,2021-12-02T12:51:19.353Z,,,,,,,,,,,,,,,,54,,,,,,,,,,,,,,577.7619999985036,,response,,,100,,,,,,Space,keypress(Space),,,,,-- --- ---- --- ------ ----- ------- ---- -- its ------- --<br>------- ---------- ------ -- ----- -- ----- -- ---- ------<br>--- ----- --- --- ------ -------- ----- --- ------ ----- --<br>----- ----- ---------- --- --- ------ ------ ---- -- ------<br>------- --- ------ ----- --- ---- ------- -- ---- --- --<br>------- ------,117986.69999999925,117985.89999999851,117391.468,117394.89999999851,117408.138,117991.583,,9,its
screen,html.Screen,0_2_1_1_10,2021-12-02T12:51:19.865Z,,,,,,,,,,,,,,,,54,,,,,,,,,,,,,,506.31699999851116,,response,,,100,,,,,,Space,keypress(Space),,,,,-- --- ---- --- ------ ----- ------- ---- -- --- revenue --<br>------- ---------- ------ -- ----- -- ----- -- ---- ------<br>--- ----- --- --- ------ -------- ----- --- ------ ----- --<br>----- ----- ---------- --- --- ------ ------ ---- -- ------<br>------- --- ------ ----- --- ---- ------- -- ---- --- --<br>------- ------,118498.69999999925,118497.89999999851,117974.913,117987,117991.583,118508.468,,10,revenue
screen,html.Screen,0_2_1_1_11,2021-12-02T12:51:20.265Z,,,,,,,,,,,,,,,,54,,,,,,,,,,,,,,389.5320000000065,,response,,,100,,,,,,Space,keypress(Space),,,,,-- --- ---- --- ------ ----- ------- ---- -- --- ------- by<br>------- ---------- ------ -- ----- -- ----- -- ---- ------<br>--- ----- --- --- ------ -------- ----- --- ------ ----- --<br>----- ----- ---------- --- --- ------ ------ ---- -- ------<br>------- --- ------ ----- --- ---- ------- -- ---- --- --<br>------- ------,118898.80000000075,118898,118491.797,118499,118508.468,118908.579,,11,by
screen,html.Screen,0_2_1_1_12,2021-12-02T12:51:20.673Z,,,,,,,,,,,,,,,,54,,,,,,,,,,,,,,397.320999998512,,response,,,100,,,,,,Space,keypress(Space),,,,,-- --- ---- --- ------ ----- ------- ---- -- --- ------- --<br>issuing ---------- ------ -- ----- -- ----- -- ---- ------<br>--- ----- --- --- ------ -------- ----- --- ------ ----- --<br>----- ----- ---------- --- --- ------ ------ ---- -- ------<br>------- --- ------ ----- --- ---- ------- -- ---- --- --<br>------- ------,119306.59999999776,119305.89999999851,118891.908,118899,118908.579,119308.689,,12,issuing
screen,html.Screen,0_2_1_1_13,2021-12-02T12:51:21.065Z,,,,,,,,,,,,,,,,54,,,,,,,,,,,,,,389.2109999985114,,response,,,100,,,,,,Space,keypress(Space),,,,,-- --- ---- --- ------ ----- ------- ---- -- --- ------- --<br>------- government ------ -- ----- -- ----- -- ---- ------<br>--- ----- --- --- ------ -------- ----- --- ------ ----- --<br>----- ----- ---------- --- --- ------ ------ ---- -- ------<br>------- --- ------ ----- --- ---- ------- -- ---- --- --<br>------- ------,119698.69999999925,119697.89999999851,119292.018,119306.89999999851,119308.689,119708.685,,13,government
screen,html.Screen,0_2_1_1_14,2021-12-02T12:51:21.473Z,,,,,,,,,,,,,,,,54,,,,,,,,,,,,,,397.1150000007474,,response,,,100,,,,,,Space,keypress(Space),,,,,-- --- ---- --- ------ ----- ------- ---- -- --- ------- --<br>------- ---------- bonds. -- ----- -- ----- -- ---- ------<br>--- ----- --- --- ------ -------- ----- --- ------ ----- --<br>----- ----- ---------- --- --- ------ ------ ---- -- ------<br>------- --- ------ ----- --- ---- ------- -- ---- --- --<br>------- ------,120106.59999999776,120105.80000000075,119692.016,119698.89999999851,119708.685,120108.879,,14,bonds.
screen,html.Screen,0_2_1_1_15,2021-12-02T12:51:21.993Z,,,,,,,,,,,,,,,,54,,,,,,,,,,,,,,517.0209999985091,,response,,,100,,,,,,Space,keypress(Space),,,,,-- --- ---- --- ------ ----- ------- ---- -- --- ------- --<br>------- ---------- ------ In ----- -- ----- -- ---- ------<br>--- ----- --- --- ------ -------- ----- --- ------ ----- --<br>----- ----- ---------- --- --- ------ ------ ---- -- ------<br>------- --- ------ ----- --- ---- ------- -- ---- --- --<br>------- ------,120626.69999999925,120625.89999999851,120092.208,120106.80000000075,120108.879,120642.299,,15,In
screen,html.Screen,0_2_1_1_16,2021-12-02T12:51:22.697Z,,,,,,,,,,,,,,,,54,,,,,,,,,,,,,,687.3009999977658,,response,,,100,,,,,,Space,keypress(Space),,,,,"-- --- ---- --- ------ ----- ------- ---- -- --- ------- --<br>------- ---------- ------ -- 1727, -- ----- -- ---- ------<br>--- ----- --- --- ------ -------- ----- --- ------ ----- --<br>----- ----- ---------- --- --- ------ ------ ---- -- ------<br>------- --- ------ ----- --- ---- ------- -- ---- --- --<br>------- ------",121330.30000000075,121329.59999999776,120625.629,120626.89999999851,120642.299,121342.552,,16,"1727,"
screen,html.Screen,0_2_1_1_17,2021-12-02T12:51:23.113Z,,,,,,,,,,,,,,,,54,,,,,,,,,,,,,,403.6479999992589,,response,,,100,,,,,,Space,keypress(Space),,,,,-- --- ---- --- ------ ----- ------- ---- -- --- ------- --<br>------- ---------- ------ -- ----- in ----- -- ---- ------<br>--- ----- --- --- ------ -------- ----- --- ------ ----- --<br>----- ----- ---------- --- --- ------ ------ ---- -- ------<br>------- --- ------ ----- --- ---- ------- -- ---- --- --<br>------- ------,121747.09999999776,121746.19999999925,121325.881,121330.39999999851,121342.552,121759.286,,17,in
screen,html.Screen,0_2_1_1_18,2021-12-02T12:51:23.861Z,,,,,,,,,,,,,,,,54,,,,,,,,,,,,,,730.4139999992622,,response,,,100,,,,,,Space,keypress(Space),,,,,-- --- ---- --- ------ ----- ------- ---- -- --- ------- --<br>------- ---------- ------ -- ----- -- order -- ---- ------<br>--- ----- --- --- ------ -------- ----- --- ------ ----- --<br>----- ----- ---------- --- --- ------ ------ ---- -- ------<br>------- --- ------ ----- --- ---- ------- -- ---- --- --<br>------- ------,122490.69999999925,122489.69999999925,121742.616,121747.19999999925,121759.286,122492.771,,18,order
screen,html.Screen,0_2_1_1_19,2021-12-02T12:51:24.477Z,,,,,,,,,,,,,,,,54,,,,,,,,,,,,,,612.8289999977715,,response,,,100,,,,,,Space,keypress(Space),,,,,-- --- ---- --- ------ ----- ------- ---- -- --- ------- --<br>------- ---------- ------ -- ----- -- ----- to ---- ------<br>--- ----- --- --- ------ -------- ----- --- ------ ----- --<br>----- ----- ---------- --- --- ------ ------ ---- -- ------<br>------- --- ------ ----- --- ---- ------- -- ---- --- --<br>------- ------,123106.39999999851,123105.59999999776,122476.101,122490.89999999851,122492.771,123109.613,,19,to
screen,html.Screen,0_2_1_1_20,2021-12-02T12:51:24.965Z,,,,,,,,,,,,,,,,54,,,,,,,,,,,,,,483.98699999776727,,response,,,100,,,,,,Space,keypress(Space),,,,,-- --- ---- --- ------ ----- ------- ---- -- --- ------- --<br>------- ---------- ------ -- ----- -- ----- -- save ------<br>--- ----- --- --- ------ -------- ----- --- ------ ----- --<br>----- ----- ---------- --- --- ------ ------ ---- -- ------<br>------- --- ------ ----- --- ---- ------- -- ---- --- --<br>------- ------,123594.39999999851,123593.59999999776,123092.943,123106.59999999776,123109.613,123609.729,,20,save
screen,html.Screen,0_2_1_1_21,2021-12-02T12:51:25.373Z,,,,,,,,,,,,,,,,54,,,,,,,,,,,,,,391.9709999992483,,response,,,100,,,,,,Space,keypress(Space),,,,,"-- --- ---- --- ------ ----- ------- ---- -- --- ------- --<br>------- ---------- ------ -- ----- -- ----- -- ---- money,<br>--- ----- --- --- ------ -------- ----- --- ------ ----- --<br>----- ----- ---------- --- --- ------ ------ ---- -- ------<br>------- --- ------ ----- --- ---- ------- -- ---- --- --<br>------- ------",124002.39999999851,124001.69999999925,123593.059,123594.59999999776,123609.729,124009.89,,21,"money,"
screen,html.Screen,0_2_1_1_22,2021-12-02T12:51:26.365Z,,,,,,,,,,,,,,,,54,,,,,,,,,,,,,,983.8099999992555,,response,,,100,,,,,,Space,keypress(Space),,,,,-- --- ---- --- ------ ----- ------- ---- -- --- ------- --<br>------- ---------- ------ -- ----- -- ----- -- ---- ------<br>the ----- --- --- ------ -------- ----- --- ------ ----- --<br>----- ----- ---------- --- --- ------ ------ ---- -- ------<br>------- --- ------ ----- --- ---- ------- -- ---- --- --<br>------- ------,124994.39999999851,124993.69999999925,123993.219,124002.59999999776,124009.89,125010.054,,22,the
screen,html.Screen,0_2_1_1_23,2021-12-02T12:51:26.885Z,,,,,,,,,,,,,,,,54,,,,,,,,,,,,,,503.5459999977611,,response,,,100,,,,,,Space,keypress(Space),,,,,-- --- ---- --- ------ ----- ------- ---- -- --- ------- --<br>------- ---------- ------ -- ----- -- ----- -- ---- ------<br>--- state --- --- ------ -------- ----- --- ------ ----- --<br>----- ----- ---------- --- --- ------ ------ ---- -- ------<br>------- --- ------ ----- --- ---- ------- -- ---- --- --<br>------- ------,125514.30000000075,125513.59999999776,124993.384,124994.69999999925,125010.054,125526.947,,23,state
screen,html.Screen,0_2_1_1_24,2021-12-02T12:51:27.245Z,,,,,,,,,,,,,,,,54,,,,,,,,,,,,,,346.5529999999999,,response,,,100,,,,,,Space,keypress(Space),,,,,-- --- ---- --- ------ ----- ------- ---- -- --- ------- --<br>------- ---------- ------ -- ----- -- ----- -- ---- ------<br>--- ----- cut --- ------ -------- ----- --- ------ ----- --<br>----- ----- ---------- --- --- ------ ------ ---- -- ------<br>------- --- ------ ----- --- ---- ------- -- ---- --- --<br>------- ------,125874.30000000075,125873.5,125510.276,125514.5,125526.947,125876.997,,24,cut
screen,html.Screen,0_2_1_1_25,2021-12-02T12:51:27.669Z,,,,,,,,,,,,,,,,54,,,,,,,,,,,,,,420.40299999850686,,response,,,100,,,,,,Space,keypress(Space),,,,,-- --- ---- --- ------ ----- ------- ---- -- --- ------- --<br>------- ---------- ------ -- ----- -- ----- -- ---- ------<br>--- ----- --- the ------ -------- ----- --- ------ ----- --<br>----- ----- ---------- --- --- ------ ------ ---- -- ------<br>------- --- ------ ----- --- ---- ------- -- ---- --- --<br>------- ------,126298.30000000075,126297.39999999851,125860.327,125874.59999999776,125876.997,126310.439,,25,the
screen,html.Screen,0_2_1_1_26,2021-12-02T12:51:28.261Z,,,,,,,,,,,,,,,,54,,,,,,,,,,,,,,578.9609999985114,,response,,,100,,,,,,Space,keypress(Space),,,,,-- --- ---- --- ------ ----- ------- ---- -- --- ------- --<br>------- ---------- ------ -- ----- -- ----- -- ---- ------<br>--- ----- --- --- bonds' -------- ----- --- ------ ----- --<br>----- ----- ---------- --- --- ------ ------ ---- -- ------<br>------- --- ------ ----- --- ---- ------- -- ---- --- --<br>------- ------,126890.30000000075,126889.39999999851,126293.769,126298.5,126310.439,126893.96,,26,bonds'
screen,html.Screen,0_2_1_1_27,2021-12-02T12:51:28.885Z,,,,,,,,,,,,,,,,54,,,,,,,,,,,,,,619.5399999999936,,response,,,100,,,,,,Space,keypress(Space),,,,,-- --- ---- --- ------ ----- ------- ---- -- --- ------- --<br>------- ---------- ------ -- ----- -- ----- -- ---- ------<br>--- ----- --- --- ------ interest ----- --- ------ ----- --<br>----- ----- ---------- --- --- ------ ------ ---- -- ------<br>------- --- ------ ----- --- ---- ------- -- ---- --- --<br>------- ------,127514.19999999925,127513.5,126877.289,126890.5,126893.96,127527.386,,27,interest
screen,html.Screen,0_2_1_1_28,2021-12-02T12:51:29.277Z,,,,,,,,,,,,,,,,54,,,,,,,,,,,,,,377.91400000074646,,response,,,100,,,,,,Space,keypress(Space),,,,,-- --- ---- --- ------ ----- ------- ---- -- --- ------- --<br>------- ---------- ------ -- ----- -- ----- -- ---- ------<br>--- ----- --- --- ------ -------- rate. --- ------ ----- --<br>----- ----- ---------- --- --- ------ ------ ---- -- ------<br>------- --- ------ ----- --- ---- ------- -- ---- --- --<br>------- ------,127906.09999999776,127905.30000000075,127510.716,127514.5,127527.386,127910.851,,28,rate.
screen,html.Screen,0_2_1_1_29,2021-12-02T12:51:29.700Z,,,,,,,,,,,,,,,,54,,,,,,,,,,,,,,418.44900000074995,,response,,,100,,,,,,Space,keypress(Space),,,,,-- --- ---- --- ------ ----- ------- ---- -- --- ------- --<br>------- ---------- ------ -- ----- -- ----- -- ---- ------<br>--- ----- --- --- ------ -------- ----- The ------ ----- --<br>----- ----- ---------- --- --- ------ ------ ---- -- ------<br>------- --- ------ ----- --- ---- ------- -- ---- --- --<br>------- ------,128330,128329.30000000075,127894.181,127906.39999999851,127910.851,128344.339,,29,The
screen,html.Screen,0_2_1_1_30,2021-12-02T12:51:30.181Z,,,,,,,,,,,,,,,,54,,,,,,,,,,,,,,465.06099999850267,,response,,,100,,,,,,Space,keypress(Space),,,,,-- --- ---- --- ------ ----- ------- ---- -- --- ------- --<br>------- ---------- ------ -- ----- -- ----- -- ---- ------<br>--- ----- --- --- ------ -------- ----- --- market ----- --<br>----- ----- ---------- --- --- ------ ------ ---- -- ------<br>------- --- ------ ----- --- ---- ------- -- ---- --- --<br>------- ------,128810.19999999925,128809.39999999851,128327.668,128330.30000000075,128344.339,128811.089,,30,market
screen,html.Screen,0_2_1_1_31,2021-12-02T12:51:30.548Z,,,,,,,,,,,,,,,,54,,,,,,,,,,,,,,366.21100000073784,,response,,,100,,,,,,Space,keypress(Space),,,,,-- --- ---- --- ------ ----- ------- ---- -- --- ------- --<br>------- ---------- ------ -- ----- -- ----- -- ---- ------<br>--- ----- --- --- ------ -------- ----- --- ------ value --<br>----- ----- ---------- --- --- ------ ------ ---- -- ------<br>------- --- ------ ----- --- ---- ------- -- ---- --- --<br>------- ------,129178.09999999776,129177.30000000075,128794.419,128810.39999999851,128811.089,129194.525,,31,value
screen,html.Screen,0_2_1_1_32,2021-12-02T12:51:30.892Z,,,,,,,,,,,,,,,,54,,,,,,,,,,,,,,326.7750000007509,,response,,,100,,,,,,Space,keypress(Space),,,,,-- --- ---- --- ------ ----- ------- ---- -- --- ------- --<br>------- ---------- ------ -- ----- -- ----- -- ---- ------<br>--- ----- --- --- ------ -------- ----- --- ------ ----- of<br>----- ----- ---------- --- --- ------ ------ ---- -- ------<br>------- --- ------ ----- --- ---- ------- -- ---- --- --<br>------- ------,129522,129521.30000000075,129177.855,129178.30000000075,129194.525,129527.888,,32,of
screen,html.Screen,0_2_1_1_33,2021-12-02T12:51:31.308Z,,,,,,,,,,,,,,,,54,,,,,,,,,,,,,,409.31199999924866,,response,,,100,,,,,,Space,keypress(Space),,,,,-- --- ---- --- ------ ----- ------- ---- -- --- ------- --<br>------- ---------- ------ -- ----- -- ----- -- ---- ------<br>--- ----- --- --- ------ -------- ----- --- ------ ----- --<br>these ----- ---------- --- --- ------ ------ ---- -- ------<br>------- --- ------ ----- --- ---- ------- -- ---- --- --<br>------- ------,129938.09999999776,129937.19999999925,129511.219,129522.19999999925,129527.888,129944.759,,33,these
screen,html.Screen,0_2_1_1_34,2021-12-02T12:51:31.676Z,,,,,,,,,,,,,,,,54,,,,,,,,,,,,,,360.5410000007396,,response,,,100,,,,,,Space,keypress(Space),,,,,-- --- ---- --- ------ ----- ------- ---- -- --- ------- --<br>------- ---------- ------ -- ----- -- ----- -- ---- ------<br>--- ----- --- --- ------ -------- ----- --- ------ ----- --<br>----- bonds ---------- --- --- ------ ------ ---- -- ------<br>------- --- ------ ----- --- ---- ------- -- ---- --- --<br>------- ------,130306,130305.30000000075,129928.088,129938.39999999851,129944.759,130311.484,,34,bonds
screen,html.Screen,0_2_1_1_35,2021-12-02T12:51:32.004Z,,,,,,,,,,,,,,,,54,,,,,,,,,,,,,,321.7159999992582,,response,,,100,,,,,,Space,keypress(Space),,,,,"-- --- ---- --- ------ ----- ------- ---- -- --- ------- --<br>------- ---------- ------ -- ----- -- ----- -- ---- ------<br>--- ----- --- --- ------ -------- ----- --- ------ ----- --<br>----- ----- plummeted, --- --- ------ ------ ---- -- ------<br>------- --- ------ ----- --- ---- ------- -- ---- --- --<br>------- ------",130634,130633.19999999925,130294.814,130306.30000000075,130311.484,130644.881,,35,"plummeted,"
screen,html.Screen,0_2_1_1_36,2021-12-02T12:51:32.388Z,,,,,,,,,,,,,,,,54,,,,,,,,,,,,,,372.318999999261,,response,,,100,,,,,,Space,keypress(Space),,,,,-- --- ---- --- ------ ----- ------- ---- -- --- ------- --<br>------- ---------- ------ -- ----- -- ----- -- ---- ------<br>--- ----- --- --- ------ -------- ----- --- ------ ----- --<br>----- ----- ---------- and --- ------ ------ ---- -- ------<br>------- --- ------ ----- --- ---- ------- -- ---- --- --<br>------- ------,131017.89999999851,131017.19999999925,130628.211,130634.30000000075,130644.881,131028.36,,36,and
screen,html.Screen,0_2_1_1_37,2021-12-02T12:51:32.740Z,,,,,,,,,,,,,,,,54,,,,,,,,,,,,,,340.83999999925436,,response,,,100,,,,,,Space,keypress(Space),,,,,-- --- ---- --- ------ ----- ------- ---- -- --- ------- --<br>------- ---------- ------ -- ----- -- ----- -- ---- ------<br>--- ----- --- --- ------ -------- ----- --- ------ ----- --<br>----- ----- ---------- --- the ------ ------ ---- -- ------<br>------- --- ------ ----- --- ---- ------- -- ---- --- --<br>------- ------,131370,131369.19999999925,131011.689,131018.19999999925,131028.36,131378.398,,37,the
screen,html.Screen,0_2_1_1_38,2021-12-02T12:51:33.052Z,,,,,,,,,,,,,,,,54,,,,,,,,,,,,,,302.80199999926845,,response,,,100,,,,,,Space,keypress(Space),,,,,-- --- ---- --- ------ ----- ------- ---- -- --- ------- --<br>------- ---------- ------ -- ----- -- ----- -- ---- ------<br>--- ----- --- --- ------ -------- ----- --- ------ ----- --<br>----- ----- ---------- --- --- market ------ ---- -- ------<br>------- --- ------ ----- --- ---- ------- -- ---- --- --<br>------- ------,131682,131681.19999999925,131361.728,131370.30000000075,131378.398,131695.165,,38,market
screen,html.Screen,0_2_1_1_39,2021-12-02T12:51:33.437Z,,,,,,,,,,,,,,,,54,,,,,,,,,,,,,,370.4349999977567,,response,,,100,,,,,,Space,keypress(Space),,,,,-- --- ---- --- ------ ----- ------- ---- -- --- ------- --<br>------- ---------- ------ -- ----- -- ----- -- ---- ------<br>--- ----- --- --- ------ -------- ----- --- ------ ----- --<br>----- ----- ---------- --- --- ------ became ---- -- ------<br>------- --- ------ ----- --- ---- ------- -- ---- --- --<br>------- ------,132066.3999999985,132065.59999999776,131678.495,131682.19999999925,131695.165,132078.527,,39,became
screen,html.Screen,0_2_1_1_40,2021-12-02T12:51:33.788Z,,,,,,,,,,,,,,,,54,,,,,,,,,,,,,,338.57299999776296,,response,,,100,,,,,,Space,keypress(Space),,,,,-- --- ---- --- ------ ----- ------- ---- -- --- ------- --<br>------- ---------- ------ -- ----- -- ----- -- ---- ------<br>--- ----- --- --- ------ -------- ----- --- ------ ----- --<br>----- ----- ---------- --- --- ------ ------ wary -- ------<br>------- --- ------ ----- --- ---- ------- -- ---- --- --<br>------- ------,132418,132417.09999999776,132061.858,132066.69999999925,132078.527,132428.752,,40,wary
screen,html.Screen,0_2_1_1_41,2021-12-02T12:51:34.220Z,,,,,,,,,,,,,,,,54,,,,,,,,,,,,,,420.34799999775714,,response,,,100,,,,,,Space,keypress(Space),,,,,-- --- ---- --- ------ ----- ------- ---- -- --- ------- --<br>------- ---------- ------ -- ----- -- ----- -- ---- ------<br>--- ----- --- --- ------ -------- ----- --- ------ ----- --<br>----- ----- ---------- --- --- ------ ------ ---- of ------<br>------- --- ------ ----- --- ---- ------- -- ---- --- --<br>------- ------,132850,132849.09999999776,132412.08,132418.30000000075,132428.752,132862.128,,41,of
screen,html.Screen,0_2_1_1_42,2021-12-02T12:51:34.605Z,,,,,,,,,,,,,,,,54,,,,,,,,,,,,,,371.372000000003,,response,,,100,,,,,,Space,keypress(Space),,,,,-- --- ---- --- ------ ----- ------- ---- -- --- ------- --<br>------- ---------- ------ -- ----- -- ----- -- ---- ------<br>--- ----- --- --- ------ -------- ----- --- ------ ----- --<br>----- ----- ---------- --- --- ------ ------ ---- -- French<br>------- --- ------ ----- --- ---- ------- -- ---- --- --<br>------- ------,133234.19999999925,133233.5,132845.458,132851.59999999776,132862.128,133245.552,,42,French
screen,html.Screen,0_2_1_1_43,2021-12-02T12:51:34.964Z,,,,,,,,,,,,,,,,54,,,,,,,,,,,,,,347.5479999977688,,response,,,100,,,,,,Space,keypress(Space),,,,,-- --- ---- --- ------ ----- ------- ---- -- --- ------- --<br>------- ---------- ------ -- ----- -- ----- -- ---- ------<br>--- ----- --- --- ------ -------- ----- --- ------ ----- --<br>----- ----- ---------- --- --- ------ ------ ---- -- ------<br>credit. --- ------ ----- --- ---- ------- -- ---- --- --<br>------- ------,133593.80000000075,133593.09999999776,133228.882,133234.5,133245.552,133595.65,,43,credit.
screen,html.Screen,0_2_1_1_44,2021-12-02T12:51:35.444Z,,,,,,,,,,,,,,,,54,,,,,,,,,,,,,,477.44999999777065,,response,,,100,,,,,,Space,keypress(Space),,,,,-- --- ---- --- ------ ----- ------- ---- -- --- ------- --<br>------- ---------- ------ -- ----- -- ----- -- ---- ------<br>--- ----- --- --- ------ -------- ----- --- ------ ----- --<br>----- ----- ---------- --- --- ------ ------ ---- -- ------<br>------- The ------ ----- --- ---- ------- -- ---- --- --<br>------- ------,134073.8999999985,134073.09999999776,133578.98,133594.09999999776,133595.65,134079.142,,44,The
screen,html.Screen,0_2_1_1_45,2021-12-02T12:51:35.804Z,,,,,,,,,,,,,,,,54,,,,,,,,,,,,,,353.9579999977723,,response,,,100,,,,,,Space,keypress(Space),,,,,-- --- ---- --- ------ ----- ------- ---- -- --- ------- --<br>------- ---------- ------ -- ----- -- ----- -- ---- ------<br>--- ----- --- --- ------ -------- ----- --- ------ ----- --<br>----- ----- ---------- --- --- ------ ------ ---- -- ------<br>------- --- French ----- --- ---- ------- -- ---- --- --<br>------- ------,134433.8999999985,134433.09999999776,134062.471,134074.09999999776,134079.142,134445.729,,45,French
screen,html.Screen,0_2_1_1_46,2021-12-02T12:51:36.164Z,,,,,,,,,,,,,,,,54,,,,,,,,,,,,,,347.2710000000079,,response,,,100,,,,,,Space,keypress(Space),,,,,-- --- ---- --- ------ ----- ------- ---- -- --- ------- --<br>------- ---------- ------ -- ----- -- ----- -- ---- ------<br>--- ----- --- --- ------ -------- ----- --- ------ ----- --<br>----- ----- ---------- --- --- ------ ------ ---- -- ------<br>------- --- ------ state --- ---- ------- -- ---- --- --<br>------- ------,134793.80000000075,134793,134429.061,134434.19999999925,134445.729,134796.034,,46,state
screen,html.Screen,0_2_1_1_47,2021-12-02T12:51:36.628Z,,,,,,,,,,,,,,,,54,,,,,,,,,,,,,,460.9659999999858,,response,,,100,,,,,,Space,keypress(Space),,,,,-- --- ---- --- ------ ----- ------- ---- -- --- ------- --<br>------- ---------- ------ -- ----- -- ----- -- ---- ------<br>--- ----- --- --- ------ -------- ----- --- ------ ----- --<br>----- ----- ---------- --- --- ------ ------ ---- -- ------<br>------- --- ------ ----- was ---- ------- -- ---- --- --<br>------- ------,135257.80000000075,135257,134779.362,134794,134796.034,135262.795,,47,was
screen,html.Screen,0_2_1_1_48,2021-12-02T12:51:36.995Z,,,,,,,,,,,,,,,,54,,,,,,,,,,,,,,361.804999997752,,response,,,100,,,,,,Space,keypress(Space),,,,,-- --- ---- --- ------ ----- ------- ---- -- --- ------- --<br>------- ---------- ------ -- ----- -- ----- -- ---- ------<br>--- ----- --- --- ------ -------- ----- --- ------ ----- --<br>----- ----- ---------- --- --- ------ ------ ---- -- ------<br>------- --- ------ ----- --- left ------- -- ---- --- --<br>------- ------,135625,135624.59999999776,135246.124,135258,135262.795,135629.51,,48,left
screen,html.Screen,0_2_1_1_49,2021-12-02T12:51:37.364Z,,,,,,,,,,,,,,,,54,,,,,,,,,,,,,,363.4899999999907,,response,,,100,,,,,,Space,keypress(Space),,,,,-- --- ---- --- ------ ----- ------- ---- -- --- ------- --<br>------- ---------- ------ -- ----- -- ----- -- ---- ------<br>--- ----- --- --- ------ -------- ----- --- ------ ----- --<br>----- ----- ---------- --- --- ------ ------ ---- -- ------<br>------- --- ------ ----- --- ---- without -- ---- --- --<br>------- ------,135993.69999999925,135993,135612.84,135625.09999999776,135629.51,135996.277,,49,without
screen,html.Screen,0_2_1_1_50,2021-12-02T12:51:37.764Z,,,,,,,,,,,,,,,,54,,,,,,,,,,,,,,396.622999998508,,response,,,100,,,,,,Space,keypress(Space),,,,,-- --- ---- --- ------ ----- ------- ---- -- --- ------- --<br>------- ---------- ------ -- ----- -- ----- -- ---- ------<br>--- ----- --- --- ------ -------- ----- --- ------ ----- --<br>----- ----- ---------- --- --- ------ ------ ---- -- ------<br>------- --- ------ ----- --- ---- ------- an ---- --- --<br>------- ------,136393.80000000075,136392.8999999985,135979.607,135993.8999999985,135996.277,136396.161,,50,an
screen,html.Screen,0_2_1_1_51,2021-12-02T12:51:38.164Z,,,,,,,,,,,,,,,,54,,,,,,,,,,,,,,396.7389999985171,,response,,,100,,,,,,Space,keypress(Space),,,,,-- --- ---- --- ------ ----- ------- ---- -- --- ------- --<br>------- ---------- ------ -- ----- -- ----- -- ---- ------<br>--- ----- --- --- ------ -------- ----- --- ------ ----- --<br>----- ----- ---------- --- --- ------ ------ ---- -- ------<br>------- --- ------ ----- --- ---- ------- -- easy --- --<br>------- ------,136793.69999999925,136792.8999999985,136379.494,136394,136396.161,136796.63,,51,easy
screen,html.Screen,0_2_1_1_52,2021-12-02T12:51:38.476Z,,,,,,,,,,,,,,,,54,,,,,,,,,,,,,,308.1700000007404,,response,,,100,,,,,,Space,keypress(Space),,,,,-- --- ---- --- ------ ----- ------- ---- -- --- ------- --<br>------- ---------- ------ -- ----- -- ----- -- ---- ------<br>--- ----- --- --- ------ -------- ----- --- ------ ----- --<br>----- ----- ---------- --- --- ------ ------ ---- -- ------<br>------- --- ------ ----- --- ---- ------- -- ---- way --<br>------- ------,137105.59999999776,137104.80000000075,136779.956,136793.8999999985,136796.63,137113.16,,52,way
screen,html.Screen,0_2_1_1_53,2021-12-02T12:51:38.836Z,,,,,,,,,,,,,,,,54,,,,,,,,,,,,,,351.7399999985064,,response,,,100,,,,,,Space,keypress(Space),,,,,-- --- ---- --- ------ ----- ------- ---- -- --- ------- --<br>------- ---------- ------ -- ----- -- ----- -- ---- ------<br>--- ----- --- --- ------ -------- ----- --- ------ ----- --<br>----- ----- ---------- --- --- ------ ------ ---- -- ------<br>------- --- ------ ----- --- ---- ------- -- ---- --- of<br>------- ------,137465.8999999985,137464.8999999985,137096.491,137105.8999999985,137113.16,137480.019,,53,of
screen,html.Screen,0_2_1_1_54,2021-12-02T12:51:39.236Z,,,,,,,,,,,,,,,,54,,,,,,,,,,,,,,384.7810000007448,,response,,,100,,,,,,Space,keypress(Space),,,,,-- --- ---- --- ------ ----- ------- ---- -- --- ------- --<br>------- ---------- ------ -- ----- -- ----- -- ---- ------<br>--- ----- --- --- ------ -------- ----- --- ------ ----- --<br>----- ----- ---------- --- --- ------ ------ ---- -- ------<br>------- --- ------ ----- --- ---- ------- -- ---- --- --<br>raising ------,137865.59999999776,137864.80000000075,137463.348,137466.19999999925,137480.019,137880.14,,54,raising
screen,html.Screen,0_2_1_1_55,2021-12-02T12:51:39.628Z,,,,,,,,,,,,,,,,54,,,,,,,,,,,,,,376.6600000007311,,response,,,100,,,,,,Space,keypress(Space),,,,,-- --- ---- --- ------ ----- ------- ---- -- --- ------- --<br>------- ---------- ------ -- ----- -- ----- -- ---- ------<br>--- ----- --- --- ------ -------- ----- --- ------ ----- --<br>----- ----- ---------- --- --- ------ ------ ---- -- ------<br>------- --- ------ ----- --- ---- ------- -- ---- --- --<br>------- money.,138257.69999999925,138256.80000000075,137863.469,137865.8999999985,137880.14,138263.429,,55,money.
Item 100,flow.Loop,0_2_1_1,2021-12-02T12:51:39.628Z,,,,,,,,,,,,,,,,,,,,,,,,,,,,,,28017.255000000747,,completion,,,,A,,,,,,,,,,silence,,138258.09999999776,138256.80000000075,110222.875,110224.30000000075,110239.545,138263.429,,,
Question 1,html.Screen,0_2_1_2,2021-12-02T12:51:43.385Z,,,,,,,,,,,,,,,,,,,,,,,,,,,true,TRUE,,3749.470999998506,,response,,,100,A,,,,,TRUE,click #choice-1,,,,silence,,142014.19999999925,142012.8999999985,138246.76,138258.30000000075,138263.429,142014.474,,,
Question 2,html.Screen,0_2_1_3,2021-12-02T12:51:48.054Z,,,,,,,,,,,,,,,,,,,,,,,,,,,true,FALSE,,4667.4259999985225,,response,,,100,A,,,,,FALSE,click #choice-2,,,,silence,,146683.09999999776,146681.8999999985,141997.804,142014.5,142014.474,146698.988,,,
Item 100,flow.Sequence,0_2_1,2021-12-02T12:51:48.054Z,,,,,,,,,,,,,,,,,,,,,,,,,,,,,,46444.81699999851,,completion,,,,,,,,,,,,,,,,146683.59999999776,146681.8999999985,100220.413,100229.39999999851,100237.083,146698.988,,,
End of Practice,html.Page,0_2_2,2021-12-02T12:51:53.968Z,,,,,,,,,,,,,,,,,,,,,,,,,,,,,,5898.312000000733,,form submission,,,,,,,,,,,,,,,,152597.80000000075,152597.30000000075,146682.318,146683.80000000075,146698.988,152600.417,,,
Practice,flow.Sequence,0_2,2021-12-02T12:51:53.969Z,,,,,,,,,,,,,,,,,,,,,,,,,,,,,,106624.37800000075,,completion,,,,,,,,,,,,,,,,152598.30000000075,152597.30000000075,45956.253,45969.09999999963,45972.922,152600.417,,,
Trap_instruction,html.Page,0_3_0,2021-12-02T12:51:58.063Z,,,,,,,,,,,,,,,,,,,,,,,,,,,,,,4091.682999997778,,form submission,,,,,,,,,,,,,,,,156692.59999999776,156692.09999999776,152583.747,152598.69999999925,152600.417,156717.991,,,
trap_trial,html.Screen,0_3_1,2021-12-02T12:52:02.252Z,,,,,,,,,,,,,,,,,,,,,,,,,,,true,1,,4161.908999998501,,response,,,,,,,,,1,click #choice-1,,,,,,160881.19999999925,160879.8999999985,156684.651,156692.8999999985,156717.991,160883.065,,,
end of trap trial,html.Page,0_3_2,2021-12-02T12:52:03.823Z,,,,,,,,,,,,,,,,,,,,,,,,,,,,,,1569.3349999985076,,form submission,,,,,,,,,,,,,,,,162452.8999999985,162452.3999999985,160866.406,160881.3999999985,160883.065,162453.004,,,
Trap 1,flow.Sequence,0_3,2021-12-02T12:52:03.824Z,,,,,,,,,,,,,,,,,,,,,,,,,,,,,,9851.982999998523,,completion,,,,,,,,,,,,,,,,162453.30000000075,162452.3999999985,152583.747,152598.59999999776,152600.417,162453.004,,,
Standby,html.Page,0_4_0,2021-12-02T12:52:11.810Z,,,,,,,,,,,,,,,,,,,,,,,,,,,,,,8002.183000000019,,timeout,,,,,,,,,,,,,,,,170439.59999999776,170438.516,162436.334,162453.5,162453.004,170455.187,,,
Holding screen,html.Screen,0_4_1_0_0,2021-12-02T12:52:18.812Z,,,,,,,,,,,,,,,,,,,,,,,,,,,,,,7001.706999999995,,timeout,,,,,,,,,,,,,,,,177441.59999999776,177440.224,170438.516,170439.8999999985,170455.187,177456.894,,,
screen,html.Screen,0_4_1_0_1_0,2021-12-02T12:52:20.579Z,,,,,,,,,,,,,,,,2,,,,,,,,,,,,,,1750.4060000007448,,response,,,1,A,,,,,Space,keypress(Space),,,,silence,Two ---- ------ --- ------- ---------- ------- ----------<br>--- --------- --- ----------- ------- ----- ------- ---<br>--------- ---- -- --- ---- -- --------- -- ---- -------<br>-- --------- ------ --- ----- ------ ---- --- --------- --<br>------ - ---- -- --- ----------- ------- ---- ----- -----<br>--- -------- - ------ ---- -- ----- ---- --- --- -----------<br>-- -------,179208.19999999925,179207.30000000075,177440.224,177442,177456.894,179223.967,,0,Two
screen,html.Screen,0_4_1_0_1_1,2021-12-02T12:52:21.178Z,,,,,,,,,,,,,,,,2,,,,,,,,,,,,,,582.5329999999958,,response,,,1,A,,,,,Space,keypress(Space),,,,silence,--- days ------ --- ------- ---------- ------- ----------<br>--- --------- --- ----------- ------- ----- ------- ---<br>--------- ---- -- --- ---- -- --------- -- ---- -------<br>-- --------- ------ --- ----- ------ ---- --- --------- --<br>------ - ---- -- --- ----------- ------- ---- ----- -----<br>--- -------- - ------ ---- -- ----- ---- --- --- -----------<br>-- -------,179807.3999999985,179806.5,179207.297,179208.59999999776,179223.967,179824.14,,1,days
screen,html.Screen,0_4_1_0_1_2,2021-12-02T12:52:21.810Z,,,,,,,,,,,,,,,,2,,,,,,,,,,,,,,614.2599999984959,,response,,,1,A,,,,,Space,keypress(Space),,,,silence,"--- ---- later, --- ------- ---------- ------- ----------<br>--- --------- --- ----------- ------- ----- ------- ---<br>--------- ---- -- --- ---- -- --------- -- ---- -------<br>-- --------- ------ --- ----- ------ ---- --- --------- --<br>------ - ---- -- --- ----------- ------- ---- ----- -----<br>--- -------- - ------ ---- -- ----- ---- --- --- -----------<br>-- -------",180439.30000000075,180438.3999999985,179807.47,179807.80000000075,179824.14,180440.971,,2,"later,"
screen,html.Screen,0_4_1_0_1_3,2021-12-02T12:52:22.410Z,,,,,,,,,,,,,,,,2,,,,,,,,,,,,,,597.4289999985194,,response,,,1,A,,,,,Space,keypress(Space),,,,silence,--- ---- ------ the ------- ---------- ------- ----------<br>--- --------- --- ----------- ------- ----- ------- ---<br>--------- ---- -- --- ---- -- --------- -- ---- -------<br>-- --------- ------ --- ----- ------ ---- --- --------- --<br>------ - ---- -- --- ----------- ------- ---- ----- -----<br>--- -------- - ------ ---- -- ----- ---- --- --- -----------<br>-- -------,181039.19999999925,181038.3999999985,180424.301,180439.59999999776,180440.971,181041.288,,3,the
screen,html.Screen,0_4_1_0_1_4,2021-12-02T12:52:22.858Z,,,,,,,,,,,,,,,,2,,,,,,,,,,,,,,445.1119999985094,,response,,,1,A,,,,,Space,keypress(Space),,,,silence,--- ---- ------ --- British ---------- ------- ----------<br>--- --------- --- ----------- ------- ----- ------- ---<br>--------- ---- -- --- ---- -- --------- -- ---- -------<br>-- --------- ------ --- ----- ------ ---- --- --------- --<br>------ - ---- -- --- ----------- ------- ---- ----- -----<br>--- -------- - ------ ---- -- ----- ---- --- --- -----------<br>-- -------,181487.30000000075,181486.3999999985,181024.616,181039.3999999985,181041.288,181491.308,,4,British
screen,html.Screen,0_4_1_0_1_5,2021-12-02T12:52:23.346Z,,,,,,,,,,,,,,,,2,,,,,,,,,,,,,,483.0919999985199,,response,,,1,A,,,,,Space,keypress(Space),,,,silence,--- ---- ------ --- ------- astronomer ------- ----------<br>--- --------- --- ----------- ------- ----- ------- ---<br>--------- ---- -- --- ---- -- --------- -- ---- -------<br>-- --------- ------ --- ----- ------ ---- --- --------- --<br>------ - ---- -- --- ----------- ------- ---- ----- -----<br>--- -------- - ------ ---- -- ----- ---- --- --- -----------<br>-- -------,181975.30000000075,181974.3999999985,181474.638,181487.5,181491.308,181991.433,,5,astronomer
screen,html.Screen,0_4_1_0_1_6,2021-12-02T12:52:23.850Z,,,,,,,,,,,,,,,,2,,,,,,,,,,,,,,487.06700000001,,response,,,1,A,,,,,Space,keypress(Space),,,,silence,--- ---- ------ --- ------- ---------- Richard ----------<br>--- --------- --- ----------- ------- ----- ------- ---<br>--------- ---- -- --- ---- -- --------- -- ---- -------<br>-- --------- ------ --- ----- ------ ---- --- --------- --<br>------ - ---- -- --- ----------- ------- ---- ----- -----<br>--- -------- - ------ ---- -- ----- ---- --- --- -----------<br>-- -------,182479.30000000075,182478.5,181974.763,181975.5,181991.433,182491.548,,6,Richard
screen,html.Screen,0_4_1_0_1_7,2021-12-02T12:52:24.357Z,,,,,,,,,,,,,,,,2,,,,,,,,,,,,,,490.8519999985001,,response,,,1,A,,,,,Space,keypress(Space),,,,silence,--- ---- ------ --- ------- ---------- ------- Carrington<br>--- --------- --- ----------- ------- ----- ------- ---<br>--------- ---- -- --- ---- -- --------- -- ---- -------<br>-- --------- ------ --- ----- ------ ---- --- --------- --<br>------ - ---- -- --- ----------- ------- ---- ----- -----<br>--- -------- - ------ ---- -- ----- ---- --- --- -----------<br>-- -------,182983.09999999776,182982.3999999985,182474.878,182479.59999999776,182491.548,182991.731,,7,Carrington
screen,html.Screen,0_4_1_0_1_8,2021-12-02T12:52:25.029Z,,,,,,,,,,,,,,,,2,,,,,,,,,,,,,,662.5690000007453,,response,,,1,A,,,,,Space,keypress(Space),,,,silence,--- ---- ------ --- ------- ---------- ------- ----------<br>was --------- --- ----------- ------- ----- ------- ---<br>--------- ---- -- --- ---- -- --------- -- ---- -------<br>-- --------- ------ --- ----- ------ ---- --- --------- --<br>------ - ---- -- --- ----------- ------- ---- ----- -----<br>--- -------- - ------ ---- -- ----- ---- --- --- -----------<br>-- -------,183655.09999999776,183654.30000000075,182975.06,182983.3999999985,182991.731,183658.579,,8,was
screen,html.Screen,0_4_1_0_1_9,2021-12-02T12:52:25.549Z,,,,,,,,,,,,,,,,2,,,,,,,,,,,,,,515.7210000007472,,response,,,1,A,,,,,Space,keypress(Space),,,,silence,--- ---- ------ --- ------- ---------- ------- ----------<br>--- observing --- ----------- ------- ----- ------- ---<br>--------- ---- -- --- ---- -- --------- -- ---- -------<br>-- --------- ------ --- ----- ------ ---- --- --------- --<br>------ - ---- -- --- ----------- ------- ---- ----- -----<br>--- -------- - ------ ---- -- ----- ---- --- --- -----------<br>-- -------,184175.09999999776,184174.30000000075,183641.908,183655.3999999985,183658.579,184191.881,,9,observing
screen,html.Screen,0_4_1_0_1_10,2021-12-02T12:52:25.917Z,,,,,,,,,,,,,,,,2,,,,,,,,,,,,,,350.51899999851594,,response,,,1,A,,,,,Space,keypress(Space),,,,silence,--- ---- ------ --- ------- ---------- ------- ----------<br>--- --------- the ----------- ------- ----- ------- ---<br>--------- ---- -- --- ---- -- --------- -- ---- -------<br>-- --------- ------ --- ----- ------ ---- --- --------- --<br>------ - ---- -- --- ----------- ------- ---- ----- -----<br>--- -------- - ------ ---- -- ----- ---- --- --- -----------<br>-- -------,184543.19999999925,184542.3999999985,184175.212,184175.30000000075,184191.881,184558.803,,10,the
screen,html.Screen,0_4_1_0_1_11,2021-12-02T12:52:27.197Z,,,,,,,,,,,,,,,,2,,,,,,,,,,,,,,1263.3969999992405,,response,,,1,A,,,,,Space,keypress(Space),,,,silence,--- ---- ------ --- ------- ---------- ------- ----------<br>--- --------- --- interesting ------- ----- ------- ---<br>--------- ---- -- --- ---- -- --------- -- ---- -------<br>-- --------- ------ --- ----- ------ ---- --- --------- --<br>------ - ---- -- --- ----------- ------- ---- ----- -----<br>--- -------- - ------ ---- -- ----- ---- --- --- -----------<br>-- -------,185823,185822.19999999925,184542.132,184543.3999999985,184558.803,185825.709,,11,interesting
screen,html.Screen,0_4_1_0_1_12,2021-12-02T12:52:28.101Z,,,,,,,,,,,,,,,,2,,,,,,,,,,,,,,900.4909999992524,,response,,,1,A,,,,,Space,keypress(Space),,,,silence,--- ---- ------ --- ------- ---------- ------- ----------<br>--- --------- --- ----------- sunspot ----- ------- ---<br>--------- ---- -- --- ---- -- --------- -- ---- -------<br>-- --------- ------ --- ----- ------ ---- --- --------- --<br>------ - ---- -- --- ----------- ------- ---- ----- -----<br>--- -------- - ------ ---- -- ----- ---- --- --- -----------<br>-- -------,186727,186726.19999999925,185809.039,185823.19999999925,185825.709,186742.599,,12,sunspot
screen,html.Screen,0_4_1_0_1_13,2021-12-02T12:52:29.196Z,,,,,,,,,,,,,,,,2,,,,,,,,,,,,,,1079.5009999977774,,response,,,1,A,,,,,Space,keypress(Space),,,,silence,--- ---- ------ --- ------- ---------- ------- ----------<br>--- --------- --- ----------- ------- group ------- ---<br>--------- ---- -- --- ---- -- --------- -- ---- -------<br>-- --------- ------ --- ----- ------ ---- --- --------- --<br>------ - ---- -- --- ----------- ------- ---- ----- -----<br>--- -------- - ------ ---- -- ----- ---- --- --- -----------<br>-- -------,187822.8999999985,187822.09999999776,186725.929,186727.19999999925,186742.599,187826.226,,13,group
screen,html.Screen,0_4_1_0_1_14,2021-12-02T12:52:29.676Z,,,,,,,,,,,,,,,,2,,,,,,,,,,,,,,475.8739999977697,,response,,,1,A,,,,,Space,keypress(Space),,,,silence,--- ---- ------ --- ------- ---------- ------- ----------<br>--- --------- --- ----------- ------- ----- through ---<br>--------- ---- -- --- ---- -- --------- -- ---- -------<br>-- --------- ------ --- ----- ------ ---- --- --------- --<br>------ - ---- -- --- ----------- ------- ---- ----- -----<br>--- -------- - ------ ---- -- ----- ---- --- --- -----------<br>-- -------,188302.80000000075,188302.09999999776,187809.556,187823.09999999776,187826.226,188309.648,,14,through
screen,html.Screen,0_4_1_0_1_15,2021-12-02T12:52:30.052Z,,,,,,,,,,,,,,,,2,,,,,,,,,,,,,,368.3520000000135,,response,,,1,A,,,,,Space,keypress(Space),,,,silence,--- ---- ------ --- ------- ---------- ------- ----------<br>--- --------- --- ----------- ------- ----- ------- his<br>--------- ---- -- --- ---- -- --------- -- ---- -------<br>-- --------- ------ --- ----- ------ ---- --- --------- --<br>------ - ---- -- --- ----------- ------- ---- ----- -----<br>--- -------- - ------ ---- -- ----- ---- --- --- -----------<br>-- -------,188678.80000000075,188678,188292.978,188303.09999999776,188309.648,188693.208,,15,his
screen,html.Screen,0_4_1_0_1_16,2021-12-02T12:52:37.052Z,,,,,,,,,,,,,,,,2,,,,,,,,,,,,,,7001.366999999998,,timeout,,,1,A,,,,,,,,,,silence,--- ---- ------ --- ------- ---------- ------- ----------<br>--- --------- --- ----------- ------- ----- ------- ---<br>telescope ---- -- --- ---- -- --------- -- ---- -------<br>-- --------- ------ --- ----- ------ ---- --- --------- --<br>------ - ---- -- --- ----------- ------- ---- ----- -----<br>--- -------- - ------ ---- -- ----- ---- --- --- -----------<br>-- -------,195678.8999999985,195677.905,188676.537,188679,188693.208,195694.575,,16,telescope
screen,html.Screen,0_4_1_0_1_17,2021-12-02T12:52:39.349Z,,,,,,,,,,,,,,,,2,,,,,,,,,,,,,,2279.524999997753,,response,,,1,A,,,,,Space,keypress(Space),,,,silence,--- ---- ------ --- ------- ---------- ------- ----------<br>--- --------- --- ----------- ------- ----- ------- ---<br>--------- when -- --- ---- -- --------- -- ---- -------<br>-- --------- ------ --- ----- ------ ---- --- --------- --<br>------ - ---- -- --- ----------- ------- ---- ----- -----<br>--- -------- - ------ ---- -- ----- ---- --- --- -----------<br>-- -------,197975.09999999776,197974.09999999776,195677.905,195679.19999999925,195694.575,197978.945,,17,when
screen,html.Screen,0_4_1_0_1_18,2021-12-02T12:52:40.172Z,,,,,,,,,,,,,,,,2,,,,,,,,,,,,,,818.4549999985029,,response,,,1,A,,,,,Space,keypress(Space),,,,silence,--- ---- ------ --- ------- ---------- ------- ----------<br>--- --------- --- ----------- ------- ----- ------- ---<br>--------- ---- he --- ---- -- --------- -- ---- -------<br>-- --------- ------ --- ----- ------ ---- --- --------- --<br>------ - ---- -- --- ----------- ------- ---- ----- -----<br>--- -------- - ------ ---- -- ----- ---- --- --- -----------<br>-- -------,198798.19999999925,198797.3999999985,197962.274,197975.19999999925,197978.945,198812.304,,18,he
screen,html.Screen,0_4_1_0_1_19,2021-12-02T12:52:40.708Z,,,,,,,,,,,,,,,,2,,,,,,,,,,,,,,521.1959999999963,,response,,,1,A,,,,,Space,keypress(Space),,,,silence,--- ---- ------ --- ------- ---------- ------- ----------<br>--- --------- --- ----------- ------- ----- ------- ---<br>--------- ---- -- saw ---- -- --------- -- ---- -------<br>-- --------- ------ --- ----- ------ ---- --- --------- --<br>------ - ---- -- --- ----------- ------- ---- ----- -----<br>--- -------- - ------ ---- -- ----- ---- --- --- -----------<br>-- -------,199334.30000000075,199333.5,198795.634,198798.3999999985,198812.304,199345.963,,19,saw
screen,html.Screen,0_4_1_0_1_20,2021-12-02T12:52:41.332Z,,,,,,,,,,,,,,,,2,,,,,,,,,,,,,,611.4369999985211,,response,,,1,A,,,,,Space,keypress(Space),,,,silence,--- ---- ------ --- ------- ---------- ------- ----------<br>--- --------- --- ----------- ------- ----- ------- ---<br>--------- ---- -- --- what -- --------- -- ---- -------<br>-- --------- ------ --- ----- ------ ---- --- --------- --<br>------ - ---- -- --- ----------- ------- ---- ----- -----<br>--- -------- - ------ ---- -- ----- ---- --- --- -----------<br>-- -------,199958.19999999925,199957.3999999985,199329.292,199334.59999999776,199345.963,199962.702,,20,what
screen,html.Screen,0_4_1_0_1_21,2021-12-02T12:52:41.812Z,,,,,,,,,,,,,,,,2,,,,,,,,,,,,,,474.59800000075484,,response,,,1,A,,,,,Space,keypress(Space),,,,silence,--- ---- ------ --- ------- ---------- ------- ----------<br>--- --------- --- ----------- ------- ----- ------- ---<br>--------- ---- -- --- ---- he --------- -- ---- -------<br>-- --------- ------ --- ----- ------ ---- --- --------- --<br>------ - ---- -- --- ----------- ------- ---- ----- -----<br>--- -------- - ------ ---- -- ----- ---- --- --- -----------<br>-- -------,200438.19999999925,200437.30000000075,199946.032,199958.5,199962.702,200446.053,,21,he
screen,html.Screen,0_4_1_0_1_22,2021-12-02T12:52:42.420Z,,,,,,,,,,,,,,,,2,,,,,,,,,,,,,,599.2470000007306,,response,,,1,A,,,,,Space,keypress(Space),,,,silence,--- ---- ------ --- ------- ---------- ------- ----------<br>--- --------- --- ----------- ------- ----- ------- ---<br>--------- ---- -- --- ---- -- described -- ---- -------<br>-- --------- ------ --- ----- ------ ---- --- --------- --<br>------ - ---- -- --- ----------- ------- ---- ----- -----<br>--- -------- - ------ ---- -- ----- ---- --- --- -----------<br>-- -------,201046.09999999776,201045.30000000075,200429.384,200438.3999999985,200446.053,201063.108,,22,described
screen,html.Screen,0_4_1_0_1_23,2021-12-02T12:52:42.804Z,,,,,,,,,,,,,,,,2,,,,,,,,,,,,,,366.29199999850243,,response,,,1,A,,,,,Space,keypress(Space),,,,silence,--- ---- ------ --- ------- ---------- ------- ----------<br>--- --------- --- ----------- ------- ----- ------- ---<br>--------- ---- -- --- ---- -- --------- as ---- -------<br>-- --------- ------ --- ----- ------ ---- --- --------- --<br>------ - ---- -- --- ----------- ------- ---- ----- -----<br>--- -------- - ------ ---- -- ----- ---- --- --- -----------<br>-- -------,201430.19999999925,201429.3999999985,201046.436,201046.3999999985,201063.108,201446.367,,23,as
screen,html.Screen,0_4_1_0_1_24,2021-12-02T12:52:43.468Z,,,,,,,,,,,,,,,,2,,,,,,,,,,,,,,646.8329999992566,,response,,,1,A,,,,,Space,keypress(Space),,,,silence,"--- ---- ------ --- ------- ---------- ------- ----------<br>--- --------- --- ----------- ------- ----- ------- ---<br>--------- ---- -- --- ---- -- --------- -- ""two -------<br>-- --------- ------ --- ----- ------ ---- --- --------- --<br>------ - ---- -- --- ----------- ------- ---- ----- -----<br>--- -------- - ------ ---- -- ----- ---- --- --- -----------<br>-- -------",202094,202093.19999999925,201429.698,201430.3999999985,201446.367,202096.643,,24,"""two"
screen,html.Screen,0_4_1_0_1_25,2021-12-02T12:52:44.123Z,,,,,,,,,,,,,,,,2,,,,,,,,,,,,,,652.3569999999891,,response,,,1,A,,,,,Space,keypress(Space),,,,silence,--- ---- ------ --- ------- ---------- ------- ----------<br>--- --------- --- ----------- ------- ----- ------- ---<br>--------- ---- -- --- ---- -- --------- -- ---- patches<br>-- --------- ------ --- ----- ------ ---- --- --------- --<br>------ - ---- -- --- ----------- ------- ---- ----- -----<br>--- -------- - ------ ---- -- ----- ---- --- --- -----------<br>-- -------,202749.5,202749,202079.972,202094.30000000075,202096.643,202763.43,,25,patches
screen,html.Screen,0_4_1_0_1_26,2021-12-02T12:52:44.644Z,,,,,,,,,,,,,,,,2,,,,,,,,,,,,,,505.7699999992619,,response,,,1,A,,,,,Space,keypress(Space),,,,silence,--- ---- ------ --- ------- ---------- ------- ----------<br>--- --------- --- ----------- ------- ----- ------- ---<br>--------- ---- -- --- ---- -- --------- -- ---- -------<br>of --------- ------ --- ----- ------ ---- --- --------- --<br>------ - ---- -- --- ----------- ------- ---- ----- -----<br>--- -------- - ------ ---- -- ----- ---- --- --- -----------<br>-- -------,203269.8999999985,203269.19999999925,202746.76,202749.59999999776,202763.43,203280.236,,26,of
screen,html.Screen,0_4_1_0_1_27,2021-12-02T12:52:45.020Z,,,,,,,,,,,,,,,,2,,,,,,,,,,,,,,364.9639999992505,,response,,,1,A,,,,,Space,keypress(Space),,,,silence,--- ---- ------ --- ------- ---------- ------- ----------<br>--- --------- --- ----------- ------- ----- ------- ---<br>--------- ---- -- --- ---- -- --------- -- ---- -------<br>-- intensely ------ --- ----- ------ ---- --- --------- --<br>------ - ---- -- --- ----------- ------- ---- ----- -----<br>--- -------- - ------ ---- -- ----- ---- --- --- -----------<br>-- -------,203645.8999999985,203645.19999999925,203263.566,203270.19999999925,203280.236,203647.006,,27,intensely
screen,html.Screen,0_4_1_0_1_28,2021-12-02T12:52:45.372Z,,,,,,,,,,,,,,,,2,,,,,,,,,,,,,,350.2940000007511,,response,,,1,A,,,,,Space,keypress(Space),,,,silence,--- ---- ------ --- ------- ---------- ------- ----------<br>--- --------- --- ----------- ------- ----- ------- ---<br>--------- ---- -- --- ---- -- --------- -- ---- -------<br>-- --------- bright --- ----- ------ ---- --- --------- --<br>------ - ---- -- --- ----------- ------- ---- ----- -----<br>--- -------- - ------ ---- -- ----- ---- --- --- -----------<br>-- -------,203998,203997.30000000075,203630.336,203646.19999999925,203647.006,204013.77,,28,bright
screen,html.Screen,0_4_1_0_1_29,2021-12-02T12:52:46.284Z,,,,,,,,,,,,,,,,2,,,,,,,,,,,,,,895.4299999992654,,response,,,1,A,,,,,Space,keypress(Space),,,,silence,--- ---- ------ --- ------- ---------- ------- ----------<br>--- --------- --- ----------- ------- ----- ------- ---<br>--------- ---- -- --- ---- -- --------- -- ---- -------<br>-- --------- ------ and ----- ------ ---- --- --------- --<br>------ - ---- -- --- ----------- ------- ---- ----- -----<br>--- -------- - ------ ---- -- ----- ---- --- --- -----------<br>-- -------,204909.8999999985,204909.19999999925,203997.1,203998.30000000075,204013.77,204913.973,,29,and
screen,html.Screen,0_4_1_0_1_30,2021-12-02T12:52:46.900Z,,,,,,,,,,,,,,,,2,,,,,,,,,,,,,,611.1269999977667,,response,,,1,A,,,,,Space,keypress(Space),,,,silence,--- ---- ------ --- ------- ---------- ------- ----------<br>--- --------- --- ----------- ------- ----- ------- ---<br>--------- ---- -- --- ---- -- --------- -- ---- -------<br>-- --------- ------ --- white ------ ---- --- --------- --<br>------ - ---- -- --- ----------- ------- ---- ----- -----<br>--- -------- - ------ ---- -- ----- ---- --- --- -----------<br>-- -------,205525.8999999985,205525.09999999776,204897.303,204910.19999999925,204913.973,205530.895,,30,white
screen,html.Screen,0_4_1_0_1_31,2021-12-02T12:52:48.835Z,,,,,,,,,,,,,,,,2,,,,,,,,,,,,,,1930.1050000000105,,response,,,1,A,,,,,Space,keypress(Space),,,,silence,"--- ---- ------ --- ------- ---------- ------- ----------<br>--- --------- --- ----------- ------- ----- ------- ---<br>--------- ---- -- --- ---- -- --------- -- ---- -------<br>-- --------- ------ --- ----- light"" ---- --- --------- --<br>------ - ---- -- --- ----------- ------- ---- ----- -----<br>--- -------- - ------ ---- -- ----- ---- --- --- -----------<br>-- -------",207461.59999999776,207461,205514.224,205526.09999999776,205530.895,207464.579,,31,"light"""
screen,html.Screen,0_4_1_0_1_32,2021-12-02T12:52:49.251Z,,,,,,,,,,,,,,,,2,,,,,,,,,,,,,,412.12099999925704,,response,,,1,A,,,,,Space,keypress(Space),,,,silence,--- ---- ------ --- ------- ---------- ------- ----------<br>--- --------- --- ----------- ------- ----- ------- ---<br>--------- ---- -- --- ---- -- --------- -- ---- -------<br>-- --------- ------ --- ----- ------ over --- --------- --<br>------ - ---- -- --- ----------- ------- ---- ----- -----<br>--- -------- - ------ ---- -- ----- ---- --- --- -----------<br>-- -------,207877,207876.69999999925,207447.909,207461.80000000075,207464.579,207881.388,,32,over
screen,html.Screen,0_4_1_0_1_33,2021-12-02T12:52:49.715Z,,,,,,,,,,,,,,,,2,,,,,,,,,,,,,,459.4120000007388,,response,,,1,A,,,,,Space,keypress(Space),,,,silence,--- ---- ------ --- ------- ---------- ------- ----------<br>--- --------- --- ----------- ------- ----- ------- ---<br>--------- ---- -- --- ---- -- --------- -- ---- -------<br>-- --------- ------ --- ----- ------ ---- the --------- --<br>------ - ---- -- --- ----------- ------- ---- ----- -----<br>--- -------- - ------ ---- -- ----- ---- --- --- -----------<br>-- -------,208341.19999999925,208340.80000000075,207864.718,207877,207881.388,208348.143,,33,the
screen,html.Screen,0_4_1_0_1_34,2021-12-02T12:52:50.251Z,,,,,,,,,,,,,,,,2,,,,,,,,,,,,,,528.7569999984989,,response,,,1,A,,,,,Space,keypress(Space),,,,silence,--- ---- ------ --- ------- ---------- ------- ----------<br>--- --------- --- ----------- ------- ----- ------- ---<br>--------- ---- -- --- ---- -- --------- -- ---- -------<br>-- --------- ------ --- ----- ------ ---- --- sunspots. --<br>------ - ---- -- --- ----------- ------- ---- ----- -----<br>--- -------- - ------ ---- -- ----- ---- --- --- -----------<br>-- -------,208877.80000000075,208876.8999999985,208331.473,208341.30000000075,208348.143,208881.61,,34,sunspots.
screen,html.Screen,0_4_1_0_1_35,2021-12-02T12:52:50.787Z,,,,,,,,,,,,,,,,2,,,,,,,,,,,,,,531.2899999985239,,response,,,1,A,,,,,Space,keypress(Space),,,,silence,--- ---- ------ --- ------- ---------- ------- ----------<br>--- --------- --- ----------- ------- ----- ------- ---<br>--------- ---- -- --- ---- -- --------- -- ---- -------<br>-- --------- ------ --- ----- ------ ---- --- --------- He<br>------ - ---- -- --- ----------- ------- ---- ----- -----<br>--- -------- - ------ ---- -- ----- ---- --- --- -----------<br>-- -------,209413.59999999776,209412.8999999985,208864.94,208878,208881.61,209415.089,,35,He
screen,html.Screen,0_4_1_0_1_36,2021-12-02T12:52:51.723Z,,,,,,,,,,,,,,,,2,,,,,,,,,,,,,,933.8109999985027,,response,,,1,A,,,,,Space,keypress(Space),,,,silence,--- ---- ------ --- ------- ---------- ------- ----------<br>--- --------- --- ----------- ------- ----- ------- ---<br>--------- ---- -- --- ---- -- --------- -- ---- -------<br>-- --------- ------ --- ----- ------ ---- --- --------- --<br>jotted - ---- -- --- ----------- ------- ---- ----- -----<br>--- -------- - ------ ---- -- ----- ---- --- --- -----------<br>-- -------,210349.69999999925,210348.8999999985,209398.419,209413.8999999985,209415.089,210365.545,,36,jotted
screen,html.Screen,0_4_1_0_1_37,2021-12-02T12:52:52.211Z,,,,,,,,,,,,,,,,2,,,,,,,,,,,,,,471.25500000073225,,response,,,1,A,,,,,Space,keypress(Space),,,,silence,--- ---- ------ --- ------- ---------- ------- ----------<br>--- --------- --- ----------- ------- ----- ------- ---<br>--------- ---- -- --- ---- -- --------- -- ---- -------<br>-- --------- ------ --- ----- ------ ---- --- --------- --<br>------ a ---- -- --- ----------- ------- ---- ----- -----<br>--- -------- - ------ ---- -- ----- ---- --- --- -----------<br>-- -------,210837.69999999925,210836.80000000075,210348.873,210350,210365.545,210848.857,,37,a
screen,html.Screen,0_4_1_0_1_38,2021-12-02T12:52:52.907Z,,,,,,,,,,,,,,,,2,,,,,,,,,,,,,,683.943000000756,,response,,,1,A,,,,,Space,keypress(Space),,,,silence,--- ---- ------ --- ------- ---------- ------- ----------<br>--- --------- --- ----------- ------- ----- ------- ---<br>--------- ---- -- --- ---- -- --------- -- ---- -------<br>-- --------- ------ --- ----- ------ ---- --- --------- --<br>------ - note -- --- ----------- ------- ---- ----- -----<br>--- -------- - ------ ---- -- ----- ---- --- --- -----------<br>-- -------,211533.69999999925,211532.80000000075,210832.187,210837.8999999985,210848.857,211549.023,,38,note
screen,html.Screen,0_4_1_0_1_39,2021-12-02T12:52:53.555Z,,,,,,,,,,,,,,,,2,,,,,,,,,,,,,,631.7770000007586,,response,,,1,A,,,,,Space,keypress(Space),,,,silence,--- ---- ------ --- ------- ---------- ------- ----------<br>--- --------- --- ----------- ------- ----- ------- ---<br>--------- ---- -- --- ---- -- --------- -- ---- -------<br>-- --------- ------ --- ----- ------ ---- --- --------- --<br>------ - ---- in --- ----------- ------- ---- ----- -----<br>--- -------- - ------ ---- -- ----- ---- --- --- -----------<br>-- -------,212181.5,212180.80000000075,211532.353,211533.8999999985,211549.023,212199.094,,39,in
screen,html.Screen,0_4_1_0_1_40,2021-12-02T12:52:53.971Z,,,,,,,,,,,,,,,,2,,,,,,,,,,,,,,397.7060000007332,,response,,,1,A,,,,,Space,keypress(Space),,,,silence,--- ---- ------ --- ------- ---------- ------- ----------<br>--- --------- --- ----------- ------- ----- ------- ---<br>--------- ---- -- --- ---- -- --------- -- ---- -------<br>-- --------- ------ --- ----- ------ ---- --- --------- --<br>------ - ---- -- his ----------- ------- ---- ----- -----<br>--- -------- - ------ ---- -- ----- ---- --- --- -----------<br>-- -------,212597.69999999925,212596.80000000075,212182.425,212181.80000000075,212199.094,212599.355,,40,his
screen,html.Screen,0_4_1_0_1_41,2021-12-02T12:53:00.959Z,,,,,,,,,,,,,,,,2,,,,,,,,,,,,,,7001.38499999998,,timeout,,,1,A,,,,,,,,,,silence,--- ---- ------ --- ------- ---------- ------- ----------<br>--- --------- --- ----------- ------- ----- ------- ---<br>--------- ---- -- --- ---- -- --------- -- ---- -------<br>-- --------- ------ --- ----- ------ ---- --- --------- --<br>------ - ---- -- --- painstaking ------- ---- ----- -----<br>--- -------- - ------ ---- -- ----- ---- --- --- -----------<br>-- -------,219585.5,219584.07,212582.684,212597.8999999985,212599.355,219600.74,,41,painstaking
screen,html.Screen,0_4_1_0_1_42,2021-12-02T12:53:02.075Z,,,,,,,,,,,,,,,,2,,,,,,,,,,,,,,1100.0600000007544,,response,,,1,A,,,,,Space,keypress(Space),,,,silence,--- ---- ------ --- ------- ---------- ------- ----------<br>--- --------- --- ----------- ------- ----- ------- ---<br>--------- ---- -- --- ---- -- --------- -- ---- -------<br>-- --------- ------ --- ----- ------ ---- --- --------- --<br>------ - ---- -- --- ----------- record. ---- ----- -----<br>--- -------- - ------ ---- -- ----- ---- --- --- -----------<br>-- -------,220701.59999999776,220700.80000000075,219584.07,219585.69999999925,219600.74,220717.28,,42,record.
screen,html.Screen,0_4_1_0_1_43,2021-12-02T12:53:02.779Z,,,,,,,,,,,,,,,,2,,,,,,,,,,,,,,686.9199999992561,,response,,,1,A,,,,,Space,keypress(Space),,,,silence,--- ---- ------ --- ------- ---------- ------- ----------<br>--- --------- --- ----------- ------- ----- ------- ---<br>--------- ---- -- --- ---- -- --------- -- ---- -------<br>-- --------- ------ --- ----- ------ ---- --- --------- --<br>------ - ---- -- --- ----------- ------- That ----- -----<br>--- -------- - ------ ---- -- ----- ---- --- --- -----------<br>-- -------,221405.09999999776,221404.19999999925,220700.611,220701.80000000075,220717.28,221418.158,,43,That
screen,html.Screen,0_4_1_0_1_44,2021-12-02T12:53:03.283Z,,,,,,,,,,,,,,,,2,,,,,,,,,,,,,,490.04199999925913,,response,,,1,A,,,,,Space,keypress(Space),,,,silence,--- ---- ------ --- ------- ---------- ------- ----------<br>--- --------- --- ----------- ------- ----- ------- ---<br>--------- ---- -- --- ---- -- --------- -- ---- -------<br>-- --------- ------ --- ----- ------ ---- --- --------- --<br>------ - ---- -- --- ----------- ------- ---- night -----<br>--- -------- - ------ ---- -- ----- ---- --- --- -----------<br>-- -------,221909,221908.19999999925,221401.488,221405.3999999985,221418.158,221918.356,,44,night
screen,html.Screen,0_4_1_0_1_45,2021-12-02T12:53:03.867Z,,,,,,,,,,,,,,,,2,,,,,,,,,,,,,,573.8439999992552,,response,,,1,A,,,,,Space,keypress(Space),,,,silence,--- ---- ------ --- ------- ---------- ------- ----------<br>--- --------- --- ----------- ------- ----- ------- ---<br>--------- ---- -- --- ---- -- --------- -- ---- -------<br>-- --------- ------ --- ----- ------ ---- --- --------- --<br>------ - ---- -- --- ----------- ------- ---- ----- there<br>--- -------- - ------ ---- -- ----- ---- --- --- -----------<br>-- -------,222492.8999999985,222492.19999999925,221901.685,221909.19999999925,221918.356,222501.85,,45,there
screen,html.Screen,0_4_1_0_1_46,2021-12-02T12:53:04.427Z,,,,,,,,,,,,,,,,2,,,,,,,,,,,,,,550.4500000007392,,response,,,1,A,,,,,Space,keypress(Space),,,,silence,--- ---- ------ --- ------- ---------- ------- ----------<br>--- --------- --- ----------- ------- ----- ------- ---<br>--------- ---- -- --- ---- -- --------- -- ---- -------<br>-- --------- ------ --- ----- ------ ---- --- --------- --<br>------ - ---- -- --- ----------- ------- ---- ----- -----<br>was -------- - ------ ---- -- ----- ---- --- --- -----------<br>-- -------,223053.09999999776,223052.30000000075,222485.179,222493.19999999925,222501.85,223068.76,,46,was
screen,html.Screen,0_4_1_0_1_47,2021-12-02T12:53:04.914Z,,,,,,,,,,,,,,,,2,,,,,,,,,,,,,,471.3399999977555,,response,,,1,A,,,,,Space,keypress(Space),,,,silence,--- ---- ------ --- ------- ---------- ------- ----------<br>--- --------- --- ----------- ------- ----- ------- ---<br>--------- ---- -- --- ---- -- --------- -- ---- -------<br>-- --------- ------ --- ----- ------ ---- --- --------- --<br>------ - ---- -- --- ----------- ------- ---- ----- -----<br>--- scarcely - ------ ---- -- ----- ---- --- --- -----------<br>-- -------,223540.8999999985,223540.09999999776,223052.088,223053.19999999925,223068.76,223552.169,,47,scarcely
screen,html.Screen,0_4_1_0_1_48,2021-12-02T12:53:05.306Z,,,,,,,,,,,,,,,,2,,,,,,,,,,,,,,379.9309999977704,,response,,,1,A,,,,,Space,keypress(Space),,,,silence,--- ---- ------ --- ------- ---------- ------- ----------<br>--- --------- --- ----------- ------- ----- ------- ---<br>--------- ---- -- --- ---- -- --------- -- ---- -------<br>-- --------- ------ --- ----- ------ ---- --- --------- --<br>------ - ---- -- --- ----------- ------- ---- ----- -----<br>--- -------- a ------ ---- -- ----- ---- --- --- -----------<br>-- -------,223932.8999999985,223932.09999999776,223535.498,223541.09999999776,223552.169,223935.565,,48,a
