sender,sender_type,sender_id,timestamp,meta,,Blues,Classical,Country,Dance,Electronic,Folk,Gospel,Hip-Hop,Jazz,Latin,Musical/Film,New-age,Pop,Provo_ID,R&B,Rap,Reggae,Religious,Rock,Soul,Swing,Traditional,age,artist_name,correct,correctResponse,distraction,duration,education,ended_on,familiarity,gender,item,list,music_frequency,offensiveness,pleasantness,preference,response,response_action,snippet_file,song_name,song_rating,sound,text,time_commit,time_end,time_render,time_run,time_show,time_switch,url,word,word_ID
Instructions,html.Page,0_0,2021-12-02T15:12:56.826Z,"{""labjs_version"":""20.2.3"",""labjs_build"":{""flavor"":""production"",""commit"":""7ea907d66ca8aeef8054924ca5d82ffbe11e34e5""},""location"":""https://run.pavlovia.org/mvasilev/lab_music_f/"",""userAgent"":""Mozilla/5.0 (Windows NT 6.1; Win64; x64) AppleWebKit/537.36 (KHTML, like Gecko) Chrome/96.0.4664.45 Safari/537.36"",""platform"":""Win32"",""language"":""en-US"",""locale"":""en-US"",""timeZone"":""Europe/London"",""timezoneOffset"":0,""screen_width"":1920,""screen_height"":1080,""scroll_width"":1920,""scroll_height"":959,""window_innerWidth"":1920,""window_innerHeight"":1007,""devicePixelRatio"":1}",,,,,,,,,,,,,,,,,,,,,,,,,,,,,24489.457000035763,,form submission,,,,,,,,,,,,,,,,39093.60000002384,39092.90000003576,14586.778,14596.400000035763,14603.443,39096.316,{},,
Headphones,html.Page,0_1,2021-12-02T15:12:59.430Z,,,,,,,,,,,,,,,,,,,,,,,,,,,,,,2601.584000035764,,form submission,,,,,,,,,,,,,,,,41698.200000047684,41697.90000003576,39079.628,39094.200000047684,39096.316,41702.882,,,
Holding screen,html.Screen,0_2_0_0,2021-12-02T15:13:09.421Z,,,,,,,,,,,,,,,,,,,,,,,,,,,,,,9999.671000000002,,timeout,,,,,,,,,,,,,,,,51689.30000001192,51685.888,41686.217,41698.5,41702.882,51702.553,,,
screen,html.Screen,0_2_0_1_0,2021-12-02T15:13:10.685Z,,,,,,,,,,,,,,,,53,,,,,,,,,,,,,,1249.347000035763,,response,,,99,,,,,,Space,keypress(Space),,,,,When -- ----- -- ------ - ------- --- ----------<br>------------- ------ ------ ---- ---- ------- ----- -- ----<br>-------- ------- -- ---------- --- - --- ----- ----- ----<br>---- --- --- ----- --- ---- ---- ------- ----- ---- -------<br>--- --- -- ----- -- --- ---- -- --- ---- -- ------ ------<br>--- ----- -- ----,52953,52951.90000003576,51685.888,51689.5,51702.553,52969.279,,0,When
screen,html.Screen,0_2_0_1_1,2021-12-02T15:13:11.108Z,,,,,,,,,,,,,,,,53,,,,,,,,,,,,,,406.3210000238396,,response,,,99,,,,,,Space,keypress(Space),,,,,---- it ----- -- ------ - ------- --- ----------<br>------------- ------ ------ ---- ---- ------- ----- -- ----<br>-------- ------- -- ---------- --- - --- ----- ----- ----<br>---- --- --- ----- --- ---- ---- ------- ----- ---- -------<br>--- --- -- ----- -- --- ---- -- --- ---- -- ------ ------<br>--- ----- -- ----,53376.200000047684,53375.60000002384,52952.613,52953.200000047684,52969.279,53385.952,,1,it
screen,html.Screen,0_2_0_1_2,2021-12-02T15:13:11.532Z,,,,,,,,,,,,,,,,53,,,,,,,,,,,,,,413.64800002384436,,response,,,99,,,,,,Space,keypress(Space),,,,,---- -- comes -- ------ - ------- --- ----------<br>------------- ------ ------ ---- ---- ------- ----- -- ----<br>-------- ------- -- ---------- --- - --- ----- ----- ----<br>---- --- --- ----- --- ---- ---- ------- ----- ---- -------<br>--- --- -- ----- -- --- ---- -- --- ---- -- ------ ------<br>--- ----- -- ----,53800.200000047684,53799.60000002384,53369.286,53376.5,53385.952,53802.571,,2,comes
screen,html.Screen,0_2_0_1_3,2021-12-02T15:13:11.884Z,,,,,,,,,,,,,,,,53,,,,,,,,,,,,,,349.0290000238383,,response,,,99,,,,,,Space,keypress(Space),,,,,---- -- ----- to ------ - ------- --- ----------<br>------------- ------ ------ ---- ---- ------- ----- -- ----<br>-------- ------- -- ---------- --- - --- ----- ----- ----<br>---- --- --- ----- --- ---- ---- ------- ----- ---- -------<br>--- --- -- ----- -- --- ---- -- --- ---- -- ------ ------<br>--- ----- -- ----,54152.30000001192,54151.60000002384,53785.906,53800.40000003576,53802.571,54169.197,,3,to
screen,html.Screen,0_2_0_1_4,2021-12-02T15:13:12.228Z,,,,,,,,,,,,,,,,53,,,,,,,,,,,,,,326.20300003576267,,response,,,99,,,,,,Space,keypress(Space),,,,,---- -- ----- -- having - ------- --- ----------<br>------------- ------ ------ ---- ---- ------- ----- -- ----<br>-------- ------- -- ---------- --- - --- ----- ----- ----<br>---- --- --- ----- --- ---- ---- ------- ----- ---- -------<br>--- --- -- ----- -- --- ---- -- --- ---- -- ------ ------<br>--- ----- -- ----,54496.30000001192,54495.40000003576,54152.532,54152.700000047684,54169.197,54502.616,,4,having
screen,html.Screen,0_2_0_1_5,2021-12-02T15:13:12.636Z,,,,,,,,,,,,,,,,53,,,,,,,,,,,,,,400.8839999999982,,response,,,99,,,,,,Space,keypress(Space),,,,,---- -- ----- -- ------ a ------- --- ----------<br>------------- ------ ------ ---- ---- ------- ----- -- ----<br>-------- ------- -- ---------- --- - --- ----- ----- ----<br>---- --- --- ----- --- ---- ---- ------- ----- ---- -------<br>--- --- -- ----- -- --- ---- -- --- ---- -- ------ ------<br>--- ----- -- ----,54904.200000047684,54903.5,54485.949,54496.5,54502.616,54919.148,,5,a
screen,html.Screen,0_2_0_1_6,2021-12-02T15:13:13.036Z,,,,,,,,,,,,,,,,53,,,,,,,,,,,,,,384.35199999999895,,response,,,99,,,,,,Space,keypress(Space),,,,,---- -- ----- -- ------ - lasting --- ----------<br>------------- ------ ------ ---- ---- ------- ----- -- ----<br>-------- ------- -- ---------- --- - --- ----- ----- ----<br>---- --- --- ----- --- ---- ---- ------- ----- ---- -------<br>--- --- -- ----- -- --- ---- -- --- ---- -- ------ ------<br>--- ----- -- ----,55304.200000047684,55303.5,54902.484,54904.5,54919.148,55319.281,,6,lasting
screen,html.Screen,0_2_0_1_7,2021-12-02T15:13:13.420Z,,,,,,,,,,,,,,,,53,,,,,,,,,,,,,,368.2189999999973,,response,,,99,,,,,,Space,keypress(Space),,,,,---- -- ----- -- ------ - ------- and ----------<br>------------- ------ ------ ---- ---- ------- ----- -- ----<br>-------- ------- -- ---------- --- - --- ----- ----- ----<br>---- --- --- ----- --- ---- ---- ------- ----- ---- -------<br>--- --- -- ----- -- --- ---- -- --- ---- -- ------ ------<br>--- ----- -- ----,55688.200000047684,55687.5,55302.614,55304.5,55319.281,55702.457,,7,and
screen,html.Screen,0_2_0_1_8,2021-12-02T15:13:13.828Z,,,,,,,,,,,,,,,,53,,,,,,,,,,,,,,392.94300003576063,,response,,,99,,,,,,Space,keypress(Space),,,,,---- -- ----- -- ------ - ------- --- fulfilling<br>------------- ------ ------ ---- ---- ------- ----- -- ----<br>-------- ------- -- ---------- --- - --- ----- ----- ----<br>---- --- --- ----- --- ---- ---- ------- ----- ---- -------<br>--- --- -- ----- -- --- ---- -- --- ---- -- ------ ------<br>--- ----- -- ----,56096.30000001192,56095.40000003576,55685.793,55688.40000003576,55702.457,56102.484,,8,fulfilling
screen,html.Screen,0_2_0_1_9,2021-12-02T15:13:14.156Z,,,,,,,,,,,,,,,,53,,,,,,,,,,,,,,321.01600000000326,,response,,,99,,,,,,Space,keypress(Space),,,,,"---- -- ----- -- ------ - ------- --- ----------<br>relationship, ------ ------ ---- ---- ------- ----- -- ----<br>-------- ------- -- ---------- --- - --- ----- ----- ----<br>---- --- --- ----- --- ---- ---- ------- ----- ---- -------<br>--- --- -- ----- -- --- ---- -- --- ---- -- ------ ------<br>--- ----- -- ----",56424.10000002384,56423.5,56085.819,56096.40000003576,56102.484,56435.863,,9,"relationship,"
screen,html.Screen,0_2_0_1_10,2021-12-02T15:13:14.580Z,,,,,,,,,,,,,,,,53,,,,,,,,,,,,,,411.63700000000244,,response,,,99,,,,,,Space,keypress(Space),,,,,---- -- ----- -- ------ - ------- --- ----------<br>------------- common ------ ---- ---- ------- ----- -- ----<br>-------- ------- -- ---------- --- - --- ----- ----- ----<br>---- --- --- ----- --- ---- ---- ------- ----- ---- -------<br>--- --- -- ----- -- --- ---- -- --- ---- -- ------ ------<br>--- ----- -- ----,56848.10000002384,56847.5,56419.196,56424.30000001192,56435.863,56852.483,,10,common
screen,html.Screen,0_2_0_1_11,2021-12-02T15:13:14.964Z,,,,,,,,,,,,,,,,53,,,,,,,,,,,,,,378.9170000357626,,response,,,99,,,,,,Space,keypress(Space),,,,,---- -- ----- -- ------ - ------- --- ----------<br>------------- ------ wisdom ---- ---- ------- ----- -- ----<br>-------- ------- -- ---------- --- - --- ----- ----- ----<br>---- --- --- ----- --- ---- ---- ------- ----- ---- -------<br>--- --- -- ----- -- --- ---- -- --- ---- -- ------ ------<br>--- ----- -- ----,57232.10000002384,57231.40000003576,56835.818,56848.40000003576,56852.483,57235.726,,11,wisdom
screen,html.Screen,0_2_0_1_12,2021-12-02T15:13:15.396Z,,,,,,,,,,,,,,,,53,,,,,,,,,,,,,,427.6740000357604,,response,,,99,,,,,,Space,keypress(Space),,,,,---- -- ----- -- ------ - ------- --- ----------<br>------------- ------ ------ says ---- ------- ----- -- ----<br>-------- ------- -- ---------- --- - --- ----- ----- ----<br>---- --- --- ----- --- ---- ---- ------- ----- ---- -------<br>--- --- -- ----- -- --- ---- -- --- ---- -- ------ ------<br>--- ----- -- ----,57664,57663.40000003576,57219.062,57232.40000003576,57235.726,57669.157,,12,says
screen,html.Screen,0_2_0_1_13,2021-12-02T15:13:15.788Z,,,,,,,,,,,,,,,,53,,,,,,,,,,,,,,386.24300003576354,,response,,,99,,,,,,Space,keypress(Space),,,,,---- -- ----- -- ------ - ------- --- ----------<br>------------- ------ ------ ---- that ------- ----- -- ----<br>-------- ------- -- ---------- --- - --- ----- ----- ----<br>---- --- --- ----- --- ---- ---- ------- ----- ---- -------<br>--- --- -- ----- -- --- ---- -- --- ---- -- ------ ------<br>--- ----- -- ----,58056,58055.40000003576,57652.491,57664.200000047684,57669.157,58068.967,,13,that
screen,html.Screen,0_2_0_1_14,2021-12-02T15:13:16.188Z,,,,,,,,,,,,,,,,53,,,,,,,,,,,,,,386.4330000357659,,response,,,99,,,,,,Space,keypress(Space),,,,,---- -- ----- -- ------ - ------- --- ----------<br>------------- ------ ------ ---- ---- feeling ----- -- ----<br>-------- ------- -- ---------- --- - --- ----- ----- ----<br>---- --- --- ----- --- ---- ---- ------- ----- ---- -------<br>--- --- -- ----- -- --- ---- -- --- ---- -- ------ ------<br>--- ----- -- ----,58456,58455.40000003576,58052.304,58056.10000002384,58068.967,58469.108,,14,feeling
screen,html.Screen,0_2_0_1_15,2021-12-02T15:13:16.532Z,,,,,,,,,,,,,,,,53,,,,,,,,,,,,,,330.2920000357626,,response,,,99,,,,,,Space,keypress(Space),,,,,---- -- ----- -- ------ - ------- --- ----------<br>------------- ------ ------ ---- ---- ------- close -- ----<br>-------- ------- -- ---------- --- - --- ----- ----- ----<br>---- --- --- ----- --- ---- ---- ------- ----- ---- -------<br>--- --- -- ----- -- --- ---- -- --- ---- -- ------ ------<br>--- ----- -- ----,58800,58799.40000003576,58452.442,58456.200000047684,58469.108,58802.39,,15,close
screen,html.Screen,0_2_0_1_16,2021-12-02T15:13:16.932Z,,,,,,,,,,,,,,,,53,,,,,,,,,,,,,,396.9100000119215,,response,,,99,,,,,,Space,keypress(Space),,,,,---- -- ----- -- ------ - ------- --- ----------<br>------------- ------ ------ ---- ---- ------- ----- to ----<br>-------- ------- -- ---------- --- - --- ----- ----- ----<br>---- --- --- ----- --- ---- ---- ------- ----- ---- -------<br>--- --- -- ----- -- --- ---- -- --- ---- -- ------ ------<br>--- ----- -- ----,59200.10000002384,59199.30000001192,58785.725,58800.30000001192,58802.39,59202.371,,16,to
screen,html.Screen,0_2_0_1_17,2021-12-02T15:13:17.388Z,,,,,,,,,,,,,,,,53,,,,,,,,,,,,,,452.92900001192174,,response,,,99,,,,,,Space,keypress(Space),,,,,---- -- ----- -- ------ - ------- --- ----------<br>------------- ------ ------ ---- ---- ------- ----- -- your<br>-------- ------- -- ---------- --- - --- ----- ----- ----<br>---- --- --- ----- --- ---- ---- ------- ----- ---- -------<br>--- --- -- ----- -- --- ---- -- --- ---- -- ------ ------<br>--- ----- -- ----,59656,59655.30000001192,59185.706,59200.30000001192,59202.371,59669.113,,17,your
screen,html.Screen,0_2_0_1_18,2021-12-02T15:13:17.806Z,,,,,,,,,,,,,,,,53,,,,,,,,,,,,,,402.28700003576523,,response,,,99,,,,,,Space,keypress(Space),,,,,---- -- ----- -- ------ - ------- --- ----------<br>------------- ------ ------ ---- ---- ------- ----- -- ----<br>romantic ------- -- ---------- --- - --- ----- ----- ----<br>---- --- --- ----- --- ---- ---- ------- ----- ---- -------<br>--- --- -- ----- -- --- ---- -- --- ---- -- ------ ------<br>--- ----- -- ----,60072.10000002384,60071.40000003576,59652.446,59656.30000001192,59669.113,60085.729,,18,romantic
screen,html.Screen,0_2_0_1_19,2021-12-02T15:13:18.213Z,,,,,,,,,,,,,,,,53,,,,,,,,,,,,,,393.57100001192157,,response,,,99,,,,,,Space,keypress(Space),,,,,---- -- ----- -- ------ - ------- --- ----------<br>------------- ------ ------ ---- ---- ------- ----- -- ----<br>-------- partner -- ---------- --- - --- ----- ----- ----<br>---- --- --- ----- --- ---- ---- ------- ----- ---- -------<br>--- --- -- ----- -- --- ---- -- --- ---- -- ------ ------<br>--- ----- -- ----,60480,60479.30000001192,60069.063,60072.40000003576,60085.729,60485.61,,19,partner
screen,html.Screen,0_2_0_1_20,2021-12-02T15:13:18.637Z,,,,,,,,,,,,,,,,53,,,,,,,,,,,,,,417.69000001192035,,response,,,99,,,,,,Space,keypress(Space),,,,,---- -- ----- -- ------ - ------- --- ----------<br>------------- ------ ------ ---- ---- ------- ----- -- ----<br>-------- ------- is ---------- --- - --- ----- ----- ----<br>---- --- --- ----- --- ---- ---- ------- ----- ---- -------<br>--- --- -- ----- -- --- ---- -- --- ---- -- ------ ------<br>--- ----- -- ----,60903.90000003576,60903.30000001192,60468.946,60480.200000047684,60485.61,60919.019,,20,is
screen,html.Screen,0_2_0_1_21,2021-12-02T15:13:18.989Z,,,,,,,,,,,,,,,,53,,,,,,,,,,,,,,336.2810000119207,,response,,,99,,,,,,Space,keypress(Space),,,,,---- -- ----- -- ------ - ------- --- ----------<br>------------- ------ ------ ---- ---- ------- ----- -- ----<br>-------- ------- -- paramount. --- - --- ----- ----- ----<br>---- --- --- ----- --- ---- ---- ------- ----- ---- -------<br>--- --- -- ----- -- --- ---- -- --- ---- -- ------ ------<br>--- ----- -- ----,61256,61255.30000001192,60902.353,60904.200000047684,60919.019,61268.983,,21,paramount.
screen,html.Screen,0_2_0_1_22,2021-12-02T15:13:19.469Z,,,,,,,,,,,,,,,,53,,,,,,,,,,,,,,466.31700001192075,,response,,,99,,,,,,Space,keypress(Space),,,,,---- -- ----- -- ------ - ------- --- ----------<br>------------- ------ ------ ---- ---- ------- ----- -- ----<br>-------- ------- -- ---------- But - --- ----- ----- ----<br>---- --- --- ----- --- ---- ---- ------- ----- ---- -------<br>--- --- -- ----- -- --- ---- -- --- ---- -- ------ ------<br>--- ----- -- ----,61735.90000003576,61735.30000001192,61252.318,61256.30000001192,61268.983,61752.218,,22,But
screen,html.Screen,0_2_0_1_23,2021-12-02T15:13:19.845Z,,,,,,,,,,,,,,,,53,,,,,,,,,,,,,,359.0820000119202,,response,,,99,,,,,,Space,keypress(Space),,,,,---- -- ----- -- ------ - ------- --- ----------<br>------------- ------ ------ ---- ---- ------- ----- -- ----<br>-------- ------- -- ---------- --- a --- ----- ----- ----<br>---- --- --- ----- --- ---- ---- ------- ----- ---- -------<br>--- --- -- ----- -- --- ---- -- --- ---- -- ------ ------<br>--- ----- -- ----,62111.90000003576,62111.30000001192,61735.554,61736.200000047684,61752.218,62118.969,,23,a
screen,html.Screen,0_2_0_1_24,2021-12-02T15:13:20.277Z,,,,,,,,,,,,,,,,53,,,,,,,,,,,,,,424.2310000476864,,response,,,99,,,,,,Space,keypress(Space),,,,,---- -- ----- -- ------ - ------- --- ----------<br>------------- ------ ------ ---- ---- ------- ----- -- ----<br>-------- ------- -- ---------- --- - new ----- ----- ----<br>---- --- --- ----- --- ---- ---- ------- ----- ---- -------<br>--- --- -- ----- -- --- ---- -- --- ---- -- ------ ------<br>--- ----- -- ----,62543.80000001192,62543.200000047684,62102.303,62112,62118.969,62552.227,,24,new
screen,html.Screen,0_2_0_1_25,2021-12-02T15:13:20.653Z,,,,,,,,,,,,,,,,53,,,,,,,,,,,,,,366.97300004768476,,response,,,99,,,,,,Space,keypress(Space),,,,,---- -- ----- -- ------ - ------- --- ----------<br>------------- ------ ------ ---- ---- ------- ----- -- ----<br>-------- ------- -- ---------- --- - --- study ----- ----<br>---- --- --- ----- --- ---- ---- ------- ----- ---- -------<br>--- --- -- ----- -- --- ---- -- --- ---- -- ------ ------<br>--- ----- -- ----,62919.700000047684,62919.200000047684,62535.562,62543.90000003576,62552.227,62935.521,,25,study
screen,html.Screen,0_2_0_1_26,2021-12-02T15:13:20.990Z,,,,,,,,,,,,,,,,53,,,,,,,,,,,,,,319.87900003576215,,response,,,99,,,,,,Space,keypress(Space),,,,,---- -- ----- -- ------ - ------- --- ----------<br>------------- ------ ------ ---- ---- ------- ----- -- ----<br>-------- ------- -- ---------- --- - --- ----- finds ----<br>---- --- --- ----- --- ---- ---- ------- ----- ---- -------<br>--- --- -- ----- -- --- ---- -- --- ---- -- ------ ------<br>--- ----- -- ----,63256,63255.40000003576,62918.856,62919.90000003576,62935.521,63268.957,,26,finds
screen,html.Screen,0_2_0_1_27,2021-12-02T15:13:21.309Z,,,,,,,,,,,,,,,,53,,,,,,,,,,,,,,306.1430000238397,,response,,,99,,,,,,Space,keypress(Space),,,,,---- -- ----- -- ------ - ------- --- ----------<br>------------- ------ ------ ---- ---- ------- ----- -- ----<br>-------- ------- -- ---------- --- - --- ----- ----- that<br>---- --- --- ----- --- ---- ---- ------- ----- ---- -------<br>--- --- -- ----- -- --- ---- -- --- ---- -- ------ ------<br>--- ----- -- ----,63575.700000047684,63575.10000002384,63252.29,63256.200000047684,63268.957,63585.548,,27,that
screen,html.Screen,0_2_0_1_28,2021-12-02T15:13:21.749Z,,,,,,,,,,,,,,,,53,,,,,,,,,,,,,,429.7520000119184,,response,,,99,,,,,,Space,keypress(Space),,,,,---- -- ----- -- ------ - ------- --- ----------<br>------------- ------ ------ ---- ---- ------- ----- -- ----<br>-------- ------- -- ---------- --- - --- ----- ----- ----<br>it's --- --- ----- --- ---- ---- ------- ----- ---- -------<br>--- --- -- ----- -- --- ---- -- --- ---- -- ------ ------<br>--- ----- -- ----,64015.90000003576,64015.30000001192,63568.883,63575.90000003576,63585.548,64018.891,,28,it's
screen,html.Screen,0_2_0_1_29,2021-12-02T15:13:22.133Z,,,,,,,,,,,,,,,,53,,,,,,,,,,,,,,380.30900004768046,,response,,,99,,,,,,Space,keypress(Space),,,,,---- -- ----- -- ------ - ------- --- ----------<br>------------- ------ ------ ---- ---- ------- ----- -- ----<br>-------- ------- -- ---------- --- - --- ----- ----- ----<br>---- not --- ----- --- ---- ---- ------- ----- ---- -------<br>--- --- -- ----- -- --- ---- -- --- ---- -- ------ ------<br>--- ----- -- ----,64399.80000001192,64399.200000047684,64002.225,64016,64018.891,64402.178,,29,not
screen,html.Screen,0_2_0_1_30,2021-12-02T15:13:22.549Z,,,,,,,,,,,,,,,,53,,,,,,,,,,,,,,413.02200004768383,,response,,,99,,,,,,Space,keypress(Space),,,,,---- -- ----- -- ------ - ------- --- ----------<br>------------- ------ ------ ---- ---- ------- ----- -- ----<br>-------- ------- -- ---------- --- - --- ----- ----- ----<br>---- --- how ----- --- ---- ---- ------- ----- ---- -------<br>--- --- -- ----- -- --- ---- -- --- ---- -- ------ ------<br>--- ----- -- ----,64815.700000047684,64815.200000047684,64385.513,64400,64402.178,64818.827,,30,how
screen,html.Screen,0_2_0_1_31,2021-12-02T15:13:22.901Z,,,,,,,,,,,,,,,,53,,,,,,,,,,,,,,348.3730000476862,,response,,,99,,,,,,Space,keypress(Space),,,,,---- -- ----- -- ------ - ------- --- ----------<br>------------- ------ ------ ---- ---- ------- ----- -- ----<br>-------- ------- -- ---------- --- - --- ----- ----- ----<br>---- --- --- close --- ---- ---- ------- ----- ---- -------<br>--- --- -- ----- -- --- ---- -- --- ---- -- ------ ------<br>--- ----- -- ----,65167.700000047684,65167.200000047684,64802.162,64815.90000003576,64818.827,65168.853,,31,close
screen,html.Screen,0_2_0_1_32,2021-12-02T15:13:23.269Z,,,,,,,,,,,,,,,,53,,,,,,,,,,,,,,366.24700002383906,,response,,,99,,,,,,Space,keypress(Space),,,,,---- -- ----- -- ------ - ------- --- ----------<br>------------- ------ ------ ---- ---- ------- ----- -- ----<br>-------- ------- -- ---------- --- - --- ----- ----- ----<br>---- --- --- ----- you ---- ---- ------- ----- ---- -------<br>--- --- -- ----- -- --- ---- -- --- ---- -- ------ ------<br>--- ----- -- ----,65535.60000002384,65535.10000002384,65152.187,65167.90000003576,65168.853,65552.13,,32,you
screen,html.Screen,0_2_0_1_33,2021-12-02T15:13:23.661Z,,,,,,,,,,,,,,,,53,,,,,,,,,,,,,,374.9700000238372,,response,,,99,,,,,,Space,keypress(Space),,,,,---- -- ----- -- ------ - ------- --- ----------<br>------------- ------ ------ ---- ---- ------- ----- -- ----<br>-------- ------- -- ---------- --- - --- ----- ----- ----<br>---- --- --- ----- --- feel ---- ------- ----- ---- -------<br>--- --- -- ----- -- --- ---- -- --- ---- -- ------ ------<br>--- ----- -- ----,65927.70000004768,65927.10000002384,65535.465,65535.80000001192,65552.13,65935.484,,33,feel
screen,html.Screen,0_2_0_1_34,2021-12-02T15:13:24.109Z,,,,,,,,,,,,,,,,53,,,,,,,,,,,,,,439.6160000238451,,response,,,99,,,,,,Space,keypress(Space),,,,,---- -- ----- -- ------ - ------- --- ----------<br>------------- ------ ------ ---- ---- ------- ----- -- ----<br>-------- ------- -- ---------- --- - --- ----- ----- ----<br>---- --- --- ----- --- ---- that ------- ----- ---- -------<br>--- --- -- ----- -- --- ---- -- --- ---- -- ------ ------<br>--- ----- -- ----,66375.70000004768,66375.10000002384,65918.818,65927.90000003576,65935.484,66385.434,,34,that
screen,html.Screen,0_2_0_1_35,2021-12-02T15:13:24.461Z,,,,,,,,,,,,,,,,53,,,,,,,,,,,,,,341.56600000000617,,response,,,99,,,,,,Space,keypress(Space),,,,,---- -- ----- -- ------ - ------- --- ----------<br>------------- ------ ------ ---- ---- ------- ----- -- ----<br>-------- ------- -- ---------- --- - --- ----- ----- ----<br>---- --- --- ----- --- ---- ---- matters ----- ---- -------<br>--- --- -- ----- -- --- ---- -- --- ---- -- ------ ------<br>--- ----- -- ----,66727.60000002384,66727,66368.769,66375.90000003576,66385.434,66735.427,,35,matters
screen,html.Screen,0_2_0_1_36,2021-12-02T15:13:24.845Z,,,,,,,,,,,,,,,,53,,,,,,,,,,,,,,375.57300000000396,,response,,,99,,,,,,Space,keypress(Space),,,,,"---- -- ----- -- ------ - ------- --- ----------<br>------------- ------ ------ ---- ---- ------- ----- -- ----<br>-------- ------- -- ---------- --- - --- ----- ----- ----<br>---- --- --- ----- --- ---- ---- ------- most, ---- -------<br>--- --- -- ----- -- --- ---- -- --- ---- -- ------ ------<br>--- ----- -- ----",67111.80000001192,67111,66718.762,66727.80000001192,66735.427,67118.745,,36,"most,"
screen,html.Screen,0_2_0_1_37,2021-12-02T15:13:25.317Z,,,,,,,,,,,,,,,,53,,,,,,,,,,,,,,464.25500000000466,,response,,,99,,,,,,Space,keypress(Space),,,,,---- -- ----- -- ------ - ------- --- ----------<br>------------- ------ ------ ---- ---- ------- ----- -- ----<br>-------- ------- -- ---------- --- - --- ----- ----- ----<br>---- --- --- ----- --- ---- ---- ------- ----- it's -------<br>--- --- -- ----- -- --- ---- -- --- ---- -- ------ ------<br>--- ----- -- ----,67583.70000004768,67583,67102.08,67111.90000003576,67118.745,67585.425,,37,it's
screen,html.Screen,0_2_0_1_38,2021-12-02T15:13:25.797Z,,,,,,,,,,,,,,,,53,,,,,,,,,,,,,,477.67500002383895,,response,,,99,,,,,,Space,keypress(Space),,,,,---- -- ----- -- ------ - ------- --- ----------<br>------------- ------ ------ ---- ---- ------- ----- -- ----<br>-------- ------- -- ---------- --- - --- ----- ----- ----<br>---- --- --- ----- --- ---- ---- ------- ----- ---- whether<br>--- --- -- ----- -- --- ---- -- --- ---- -- ------ ------<br>--- ----- -- ----,68063.70000004768,68063.10000002384,67568.759,67583.90000003576,67585.425,68068.702,,38,whether
screen,html.Screen,0_2_0_1_39,2021-12-02T15:13:26.205Z,,,,,,,,,,,,,,,,53,,,,,,,,,,,,,,402.2979999999952,,response,,,99,,,,,,Space,keypress(Space),,,,,---- -- ----- -- ------ - ------- --- ----------<br>------------- ------ ------ ---- ---- ------- ----- -- ----<br>-------- ------- -- ---------- --- - --- ----- ----- ----<br>---- --- --- ----- --- ---- ---- ------- ----- ---- -------<br>you --- -- ----- -- --- ---- -- --- ---- -- ------ ------<br>--- ----- -- ----,68471.60000002384,68471,68052.037,68063.90000003576,68068.702,68485.357,,39,you
screen,html.Screen,0_2_0_1_40,2021-12-02T15:13:26.629Z,,,,,,,,,,,,,,,,53,,,,,,,,,,,,,,409.74300002383825,,response,,,99,,,,,,Space,keypress(Space),,,,,---- -- ----- -- ------ - ------- --- ----------<br>------------- ------ ------ ---- ---- ------- ----- -- ----<br>-------- ------- -- ---------- --- - --- ----- ----- ----<br>---- --- --- ----- --- ---- ---- ------- ----- ---- -------<br>--- are -- ----- -- --- ---- -- --- ---- -- ------ ------<br>--- ----- -- ----,68895.60000002384,68895.10000002384,68468.692,68471.80000001192,68485.357,68902.008,,40,are
screen,html.Screen,0_2_0_1_41,2021-12-02T15:13:27.053Z,,,,,,,,,,,,,,,,53,,,,,,,,,,,,,,416.99199999999837,,response,,,99,,,,,,Space,keypress(Space),,,,,---- -- ----- -- ------ - ------- --- ----------<br>------------- ------ ------ ---- ---- ------- ----- -- ----<br>-------- ------- -- ---------- --- - --- ----- ----- ----<br>---- --- --- ----- --- ---- ---- ------- ----- ---- -------<br>--- --- as ----- -- --- ---- -- --- ---- -- ------ ------<br>--- ----- -- ----,69319.60000002384,69319,68885.343,68895.80000001192,68902.008,69335.326,,41,as
screen,html.Screen,0_2_0_1_42,2021-12-02T15:13:27.405Z,,,,,,,,,,,,,,,,53,,,,,,,,,,,,,,335.57400003576186,,response,,,99,,,,,,Space,keypress(Space),,,,,---- -- ----- -- ------ - ------- --- ----------<br>------------- ------ ------ ---- ---- ------- ----- -- ----<br>-------- ------- -- ---------- --- - --- ----- ----- ----<br>---- --- --- ----- --- ---- ---- ------- ----- ---- -------<br>--- --- -- close -- --- ---- -- --- ---- -- ------ ------<br>--- ----- -- ----,69671.5,69670.90000003576,69318.661,69319.80000001192,69335.326,69685.388,,42,close
screen,html.Screen,0_2_0_1_43,2021-12-02T15:13:27.893Z,,,,,,,,,,,,,,,,53,,,,,,,,,,,,,,473.6119999999937,,response,,,99,,,,,,Space,keypress(Space),,,,,---- -- ----- -- ------ - ------- --- ----------<br>------------- ------ ------ ---- ---- ------- ----- -- ----<br>-------- ------- -- ---------- --- - --- ----- ----- ----<br>---- --- --- ----- --- ---- ---- ------- ----- ---- -------<br>--- --- -- ----- as --- ---- -- --- ---- -- ------ ------<br>--- ----- -- ----,70159.60000002384,70159,69668.721,69671.70000004768,69685.388,70168.579,,43,as
screen,html.Screen,0_2_0_1_44,2021-12-02T15:13:28.253Z,,,,,,,,,,,,,,,,53,,,,,,,,,,,,,,350.221000011923,,response,,,99,,,,,,Space,keypress(Space),,,,,---- -- ----- -- ------ - ------- --- ----------<br>------------- ------ ------ ---- ---- ------- ----- -- ----<br>-------- ------- -- ---------- --- - --- ----- ----- ----<br>---- --- --- ----- --- ---- ---- ------- ----- ---- -------<br>--- --- -- ----- -- you ---- -- --- ---- -- ------ ------<br>--- ----- -- ----,70519.40000003576,70518.80000001192,70151.915,70159.80000001192,70168.579,70535.315,,44,you
screen,html.Screen,0_2_0_1_45,2021-12-02T15:13:28.645Z,,,,,,,,,,,,,,,,53,,,,,,,,,,,,,,375.58500003576046,,response,,,99,,,,,,Space,keypress(Space),,,,,---- -- ----- -- ------ - ------- --- ----------<br>------------- ------ ------ ---- ---- ------- ----- -- ----<br>-------- ------- -- ---------- --- - --- ----- ----- ----<br>---- --- --- ----- --- ---- ---- ------- ----- ---- -------<br>--- --- -- ----- -- --- want -- --- ---- -- ------ ------<br>--- ----- -- ----,70911.5,70910.90000003576,70518.649,70519.70000004768,70535.315,70918.602,,45,want
screen,html.Screen,0_2_0_1_46,2021-12-02T15:13:29.005Z,,,,,,,,,,,,,,,,53,,,,,,,,,,,,,,352.29800003576383,,response,,,99,,,,,,Space,keypress(Space),,,,,---- -- ----- -- ------ - ------- --- ----------<br>------------- ------ ------ ---- ---- ------- ----- -- ----<br>-------- ------- -- ---------- --- - --- ----- ----- ----<br>---- --- --- ----- --- ---- ---- ------- ----- ---- -------<br>--- --- -- ----- -- --- ---- to --- ---- -- ------ ------<br>--- ----- -- ----,71271.5,71270.90000003576,70901.937,70911.60000002384,70918.602,71285.313,,46,to
screen,html.Screen,0_2_0_1_47,2021-12-02T15:13:29.381Z,,,,,,,,,,,,,,,,53,,,,,,,,,,,,,,361.58700003576814,,response,,,99,,,,,,Space,keypress(Space),,,,,"---- -- ----- -- ------ - ------- --- ----------<br>------------- ------ ------ ---- ---- ------- ----- -- ----<br>-------- ------- -- ---------- --- - --- ----- ----- ----<br>---- --- --- ----- --- ---- ---- ------- ----- ---- -------<br>--- --- -- ----- -- --- ---- -- be, ---- -- ------ ------<br>--- ----- -- ----",71647.5,71646.90000003576,71268.647,71271.60000002384,71285.313,71651.898,,47,"be,"
screen,html.Screen,0_2_0_1_48,2021-12-02T15:13:29.749Z,,,,,,,,,,,,,,,,53,,,,,,,,,,,,,,362.9020000119199,,response,,,99,,,,,,Space,keypress(Space),,,,,---- -- ----- -- ------ - ------- --- ----------<br>------------- ------ ------ ---- ---- ------- ----- -- ----<br>-------- ------- -- ---------- --- - --- ----- ----- ----<br>---- --- --- ----- --- ---- ---- ------- ----- ---- -------<br>--- --- -- ----- -- --- ---- -- --- even -- ------ ------<br>--- ----- -- ----,72015.5,72014.80000001192,71635.233,71647.70000004768,71651.898,72018.545,,48,even
screen,html.Screen,0_2_0_1_49,2021-12-02T15:13:30.141Z,,,,,,,,,,,,,,,,53,,,,,,,,,,,,,,388.2550000119227,,response,,,99,,,,,,Space,keypress(Space),,,,,---- -- ----- -- ------ - ------- --- ----------<br>------------- ------ ------ ---- ---- ------- ----- -- ----<br>-------- ------- -- ---------- --- - --- ----- ----- ----<br>---- --- --- ----- --- ---- ---- ------- ----- ---- -------<br>--- --- -- ----- -- --- ---- -- --- ---- if ------ ------<br>--- ----- -- ----,72407.40000003576,72406.80000001192,72001.88,72015.60000002384,72018.545,72418.584,,49,if
screen,html.Screen,0_2_0_1_50,2021-12-02T15:13:30.485Z,,,,,,,,,,,,,,,,53,,,,,,,,,,,,,,332.3160000357602,,response,,,99,,,,,,Space,keypress(Space),,,,,---- -- ----- -- ------ - ------- --- ----------<br>------------- ------ ------ ---- ---- ------- ----- -- ----<br>-------- ------- -- ---------- --- - --- ----- ----- ----<br>---- --- --- ----- --- ---- ---- ------- ----- ---- -------<br>--- --- -- ----- -- --- ---- -- --- ---- -- that's ------<br>--- ----- -- ----,72751.5,72750.90000003576,72401.918,72407.60000002384,72418.584,72768.538,,50,that's
screen,html.Screen,0_2_0_1_51,2021-12-02T15:13:30.845Z,,,,,,,,,,,,,,,,53,,,,,,,,,,,,,,342.3620000357623,,response,,,99,,,,,,Space,keypress(Space),,,,,---- -- ----- -- ------ - ------- --- ----------<br>------------- ------ ------ ---- ---- ------- ----- -- ----<br>-------- ------- -- ---------- --- - --- ----- ----- ----<br>---- --- --- ----- --- ---- ---- ------- ----- ---- -------<br>--- --- -- ----- -- --- ---- -- --- ---- -- ------ really<br>--- ----- -- ----,73111.40000003576,73110.90000003576,72751.873,72751.60000002384,72768.538,73118.524,,51,really
screen,html.Screen,0_2_0_1_52,2021-12-02T15:13:31.333Z,,,,,,,,,,,,,,,,53,,,,,,,,,,,,,,480.4759999999951,,response,,,99,,,,,,Space,keypress(Space),,,,,---- -- ----- -- ------ - ------- --- ----------<br>------------- ------ ------ ---- ---- ------- ----- -- ----<br>-------- ------- -- ---------- --- - --- ----- ----- ----<br>---- --- --- ----- --- ---- ---- ------- ----- ---- -------<br>--- --- -- ----- -- --- ---- -- --- ---- -- ------ ------<br>not ----- -- ----,73599.60000002384,73599,73101.859,73111.70000004768,73118.524,73601.938,,52,not
screen,html.Screen,0_2_0_1_53,2021-12-02T15:13:31.693Z,,,,,,,,,,,,,,,,53,,,,,,,,,,,,,,356.8620000119263,,response,,,99,,,,,,Space,keypress(Space),,,,,---- -- ----- -- ------ - ------- --- ----------<br>------------- ------ ------ ---- ---- ------- ----- -- ----<br>-------- ------- -- ---------- --- - --- ----- ----- ----<br>---- --- --- ----- --- ---- ---- ------- ----- ---- -------<br>--- --- -- ----- -- --- ---- -- --- ---- -- ------ ------<br>--- close -- ----,73959.5,73958.80000001192,73585.271,73599.80000001192,73601.938,73968.444,,53,close
screen,html.Screen,0_2_0_1_54,2021-12-02T15:13:32.045Z,,,,,,,,,,,,,,,,53,,,,,,,,,,,,,,342.3560000119178,,response,,,99,,,,,,Space,keypress(Space),,,,,---- -- ----- -- ------ - ------- --- ----------<br>------------- ------ ------ ---- ---- ------- ----- -- ----<br>-------- ------- -- ---------- --- - --- ----- ----- ----<br>---- --- --- ----- --- ---- ---- ------- ----- ---- -------<br>--- --- -- ----- -- --- ---- -- --- ---- -- ------ ------<br>--- ----- at ----,74311.40000003576,74310.80000001192,73951.78,73959.60000002384,73968.444,74318.545,,54,at
screen,html.Screen,0_2_0_1_55,2021-12-02T15:13:32.461Z,,,,,,,,,,,,,,,,53,,,,,,,,,,,,,,408.2550000119227,,response,,,99,,,,,,Space,keypress(Space),,,,,---- -- ----- -- ------ - ------- --- ----------<br>------------- ------ ------ ---- ---- ------- ----- -- ----<br>-------- ------- -- ---------- --- - --- ----- ----- ----<br>---- --- --- ----- --- ---- ---- ------- ----- ---- -------<br>--- --- -- ----- -- --- ---- -- --- ---- -- ------ ------<br>--- ----- -- all.,74727.30000001192,74726.80000001192,74301.879,74311.5,74318.545,74735.077,,55,all.
Item 99,flow.Loop,0_2_0_1,2021-12-02T15:13:32.464Z,,,,,,,,,,,,,,,,,,,,,,,,,,,,,,23024.24700001192,,completion,,,,F,,,,,,,,,,silence,,74730.20000004768,74726.80000001192,51685.888,51689.40000003576,51702.553,74735.077,,,
Question 1,html.Screen,0_2_0_2,2021-12-02T15:13:44.931Z,,,,,,,,,,,,,,,,,,,,,,,,,,,true,FALSE,,12461.422999999995,,response,,,99,F,,,,,FALSE,click #choice-2,,,,silence,,87197.40000003576,87196.5,74718.413,74730.40000003576,74735.077,87201.367,,,
Question 2,html.Screen,0_2_0_3,2021-12-02T15:13:56.983Z,,,,,,,,,,,,,,,,,,,,,,,,,,,true,TRUE,,12047.633000000002,,response,,,99,F,,,,,TRUE,click #choice-1,,,,silence,,99249.90000003576,99249,87184.701,87197.5,87201.367,99267.513,,,
Item 99,flow.Sequence,0_2_0,2021-12-02T15:13:56.984Z,,,,,,,,,,,,,,,,,,,,,,,,,,,,,,57546.118,,completion,,,,,,,,,,,,,,,,99250.20000004768,99249,41686.217,41698.5,41702.882,99267.513,,,
Holding screen,html.Screen,0_2_1_0,2021-12-02T15:14:06.985Z,,,,,,,,,,,,,,,,,,,,,,,,,,,,,,9999.641999999993,,timeout,,,,,,,,,,,,,,,,109251.10000002384,109250.49,99250.848,99250.40000003576,99267.513,109267.155,,,
screen,html.Screen,0_2_1_1_0,2021-12-02T15:14:07.756Z,,,,,,,,,,,,,,,,54,,,,,,,,,,,,,,754.5450000476849,,response,,,100,,,,,,Space,keypress(Space),,,,,At --- ---- --- ------ ----- ------- ---- -- --- ------- --<br>------- ---------- ------ -- ----- -- ----- -- ---- ------<br>--- ----- --- --- ------ -------- ----- --- ------ ----- --<br>----- ----- ---------- --- --- ------ ------ ---- -- ------<br>------- --- ------ ----- --- ---- ------- -- ---- --- --<br>------- ------,110022.30000001192,110021.70000004768,109250.49,109251.40000003576,109267.155,110033.77,,0,At
screen,html.Screen,0_2_1_1_1,2021-12-02T15:14:08.092Z,,,,,,,,,,,,,,,,54,,,,,,,,,,,,,,323.7299999999959,,response,,,100,,,,,,Space,keypress(Space),,,,,-- the ---- --- ------ ----- ------- ---- -- --- ------- --<br>------- ---------- ------ -- ----- -- ----- -- ---- ------<br>--- ----- --- --- ------ -------- ----- --- ------ ----- --<br>----- ----- ---------- --- --- ------ ------ ---- -- ------<br>------- --- ------ ----- --- ---- ------- -- ---- --- --<br>------- ------,110358,110357.5,110017.105,110022.5,110033.77,110367.128,,1,the
screen,html.Screen,0_2_1_1_2,2021-12-02T15:14:08.452Z,,,,,,,,,,,,,,,,54,,,,,,,,,,,,,,350.2720000357658,,response,,,100,,,,,,Space,keypress(Space),,,,,-- --- time --- ------ ----- ------- ---- -- --- ------- --<br>------- ---------- ------ -- ----- -- ----- -- ---- ------<br>--- ----- --- --- ------ -------- ----- --- ------ ----- --<br>----- ----- ---------- --- --- ------ ------ ---- -- ------<br>------- --- ------ ----- --- ---- ------- -- ---- --- --<br>------- ------,110718,110717.40000003576,110350.463,110358.20000004768,110367.128,110733.824,,2,time
screen,html.Screen,0_2_1_1_3,2021-12-02T15:14:08.747Z,,,,,,,,,,,,,,,,54,,,,,,,,,,,,,,279.57600003576954,,response,,,100,,,,,,Space,keypress(Space),,,,,-- --- ---- the ------ ----- ------- ---- -- --- ------- --<br>------- ---------- ------ -- ----- -- ----- -- ---- ------<br>--- ----- --- --- ------ -------- ----- --- ------ ----- --<br>----- ----- ---------- --- --- ------ ------ ---- -- ------<br>------- --- ------ ----- --- ---- ------- -- ---- --- --<br>------- ------,111014,111013.40000003576,110717.158,110718.20000004768,110733.824,111017.121,,3,the
screen,html.Screen,0_2_1_1_4,2021-12-02T15:14:09.084Z,,,,,,,,,,,,,,,,54,,,,,,,,,,,,,,332.2790000357636,,response,,,100,,,,,,Space,keypress(Space),,,,,-- --- ---- --- French ----- ------- ---- -- --- ------- --<br>------- ---------- ------ -- ----- -- ----- -- ---- ------<br>--- ----- --- --- ------ -------- ----- --- ------ ----- --<br>----- ----- ---------- --- --- ------ ------ ---- -- ------<br>------- --- ------ ----- --- ---- ------- -- ---- --- --<br>------- ------,111350,111349.40000003576,111000.456,111015.10000002384,111017.121,111367.101,,4,French
screen,html.Screen,0_2_1_1_5,2021-12-02T15:14:09.396Z,,,,,,,,,,,,,,,,54,,,,,,,,,,,,,,294.2990000357677,,response,,,100,,,,,,Space,keypress(Space),,,,,-- --- ---- --- ------ crown ------- ---- -- --- ------- --<br>------- ---------- ------ -- ----- -- ----- -- ---- ------<br>--- ----- --- --- ------ -------- ----- --- ------ ----- --<br>----- ----- ---------- --- --- ------ ------ ---- -- ------<br>------- --- ------ ----- --- ---- ------- -- ---- --- --<br>------- ------,111662,111661.40000003576,111350.436,111350.20000004768,111367.101,111667.078,,5,crown
screen,html.Screen,0_2_1_1_6,2021-12-02T15:14:09.756Z,,,,,,,,,,,,,,,,54,,,,,,,,,,,,,,354.42200000000594,,response,,,100,,,,,,Space,keypress(Space),,,,,-- --- ---- --- ------ ----- secured ---- -- --- ------- --<br>------- ---------- ------ -- ----- -- ----- -- ---- ------<br>--- ----- --- --- ------ -------- ----- --- ------ ----- --<br>----- ----- ---------- --- --- ------ ------ ---- -- ------<br>------- --- ------ ----- --- ---- ------- -- ---- --- --<br>------- ------,112022.10000002384,112021.5,111650.413,111662.10000002384,111667.078,112033.777,,6,secured
screen,html.Screen,0_2_1_1_7,2021-12-02T15:14:10.140Z,,,,,,,,,,,,,,,,54,,,,,,,,,,,,,,371.6230000357609,,response,,,100,,,,,,Space,keypress(Space),,,,,-- --- ---- --- ------ ----- ------- much -- --- ------- --<br>------- ---------- ------ -- ----- -- ----- -- ---- ------<br>--- ----- --- --- ------ -------- ----- --- ------ ----- --<br>----- ----- ---------- --- --- ------ ------ ---- -- ------<br>------- --- ------ ----- --- ---- ------- -- ---- --- --<br>------- ------,112406.10000002384,112405.40000003576,112017.111,112022.30000001192,112033.777,112417.063,,7,much
screen,html.Screen,0_2_1_1_8,2021-12-02T15:14:10.579Z,,,,,,,,,,,,,,,,54,,,,,,,,,,,,,,428.2370000119263,,response,,,100,,,,,,Space,keypress(Space),,,,,-- --- ---- --- ------ ----- ------- ---- of --- ------- --<br>------- ---------- ------ -- ----- -- ----- -- ---- ------<br>--- ----- --- --- ------ -------- ----- --- ------ ----- --<br>----- ----- ---------- --- --- ------ ------ ---- -- ------<br>------- --- ------ ----- --- ---- ------- -- ---- --- --<br>------- ------,112845.90000003576,112845.30000001192,112400.398,112406.40000003576,112417.063,112850.411,,8,of
screen,html.Screen,0_2_1_1_9,2021-12-02T15:14:10.875Z,,,,,,,,,,,,,,,,54,,,,,,,,,,,,,,290.98900003577,,response,,,100,,,,,,Space,keypress(Space),,,,,-- --- ---- --- ------ ----- ------- ---- -- its ------- --<br>------- ---------- ------ -- ----- -- ----- -- ---- ------<br>--- ----- --- --- ------ -------- ----- --- ------ ----- --<br>----- ----- ---------- --- --- ------ ------ ---- -- ------<br>------- --- ------ ----- --- ---- ------- -- ---- --- --<br>------- ------,113141.90000003576,113141.40000003576,112833.745,112846.10000002384,112850.411,113150.373,,9,its
screen,html.Screen,0_2_1_1_10,2021-12-02T15:14:11.163Z,,,,,,,,,,,,,,,,54,,,,,,,,,,,,,,278.92700001191406,,response,,,100,,,,,,Space,keypress(Space),,,,,-- --- ---- --- ------ ----- ------- ---- -- --- revenue --<br>------- ---------- ------ -- ----- -- ----- -- ---- ------<br>--- ----- --- --- ------ -------- ----- --- ------ ----- --<br>----- ----- ---------- --- --- ------ ------ ---- -- ------<br>------- --- ------ ----- --- ---- ------- -- ---- --- --<br>------- ------,113429.80000001192,113429.30000001192,113133.708,113142.10000002384,113150.373,113433.696,,10,revenue
screen,html.Screen,0_2_1_1_11,2021-12-02T15:14:11.603Z,,,,,,,,,,,,,,,,54,,,,,,,,,,,,,,435.7040000357665,,response,,,100,,,,,,Space,keypress(Space),,,,,-- --- ---- --- ------ ----- ------- ---- -- --- ------- by<br>------- ---------- ------ -- ----- -- ----- -- ---- ------<br>--- ----- --- --- ------ -------- ----- --- ------ ----- --<br>----- ----- ---------- --- --- ------ ------ ---- -- ------<br>------- --- ------ ----- --- ---- ------- -- ---- --- --<br>------- ------,113870,113869.40000003576,113417.031,113430.10000002384,113433.696,113883.668,,11,by
screen,html.Screen,0_2_1_1_12,2021-12-02T15:14:12.019Z,,,,,,,,,,,,,,,,54,,,,,,,,,,,,,,401.73200003575766,,response,,,100,,,,,,Space,keypress(Space),,,,,-- --- ---- --- ------ ----- ------- ---- -- --- ------- --<br>issuing ---------- ------ -- ----- -- ----- -- ---- ------<br>--- ----- --- --- ------ -------- ----- --- ------ ----- --<br>----- ----- ---------- --- --- ------ ------ ---- -- ------<br>------- --- ------ ----- --- ---- ------- -- ---- --- --<br>------- ------,114286,114285.40000003576,113867.003,113870.10000002384,113883.668,114300.365,,12,issuing
screen,html.Screen,0_2_1_1_13,2021-12-02T15:14:12.387Z,,,,,,,,,,,,,,,,54,,,,,,,,,,,,,,352.9350000119157,,response,,,100,,,,,,Space,keypress(Space),,,,,-- --- ---- --- ------ ----- ------- ---- -- --- ------- --<br>------- government ------ -- ----- -- ----- -- ---- ------<br>--- ----- --- --- ------ -------- ----- --- ------ ----- --<br>----- ----- ---------- --- --- ------ ------ ---- -- ------<br>------- --- ------ ----- --- ---- ------- -- ---- --- --<br>------- ------,114653.90000003576,114653.30000001192,114283.699,114286.10000002384,114300.365,114666.981,,13,government
screen,html.Screen,0_2_1_1_14,2021-12-02T15:14:12.755Z,,,,,,,,,,,,,,,,54,,,,,,,,,,,,,,354.31900001192116,,response,,,100,,,,,,Space,keypress(Space),,,,,-- --- ---- --- ------ ----- ------- ---- -- --- ------- --<br>------- ---------- bonds. -- ----- -- ----- -- ---- ------<br>--- ----- --- --- ------ -------- ----- --- ------ ----- --<br>----- ----- ---------- --- --- ------ ------ ---- -- ------<br>------- --- ------ ----- --- ---- ------- -- ---- --- --<br>------- ------,115021.90000003576,115021.30000001192,114650.316,114654,114666.981,115033.666,,14,bonds.
screen,html.Screen,0_2_1_1_15,2021-12-02T15:14:13.971Z,,,,,,,,,,,,,,,,54,,,,,,,,,,,,,,1203.6340000119235,,response,,,100,,,,,,Space,keypress(Space),,,,,-- --- ---- --- ------ ----- ------- ---- -- --- ------- --<br>------- ---------- ------ In ----- -- ----- -- ---- ------<br>--- ----- --- --- ------ -------- ----- --- ------ ----- --<br>----- ----- ---------- --- --- ------ ------ ---- -- ------<br>------- --- ------ ----- --- ---- ------- -- ---- --- --<br>------- ------,116237.80000001192,116237.30000001192,115017,115022,115033.666,116250.201,,15,In
screen,html.Screen,0_2_1_1_16,2021-12-02T15:14:14.355Z,,,,,,,,,,,,,,,,54,,,,,,,,,,,,,,370.8990000238409,,response,,,100,,,,,,Space,keypress(Space),,,,,"-- --- ---- --- ------ ----- ------- ---- -- --- ------- --<br>------- ---------- ------ -- 1727, -- ----- -- ---- ------<br>--- ----- --- --- ------ -------- ----- --- ------ ----- --<br>----- ----- ---------- --- --- ------ ------ ---- -- ------<br>------- --- ------ ----- --- ---- ------- -- ---- --- --<br>------- ------",116621.80000001192,116621.10000002384,116233.536,116238.10000002384,116250.201,116633.609,,16,"1727,"
screen,html.Screen,0_2_1_1_17,2021-12-02T15:14:15.123Z,,,,,,,,,,,,,,,,54,,,,,,,,,,,,,,755.591000047687,,response,,,100,,,,,,Space,keypress(Space),,,,,-- --- ---- --- ------ ----- ------- ---- -- --- ------- --<br>------- ---------- ------ -- ----- in ----- -- ---- ------<br>--- ----- --- --- ------ -------- ----- --- ------ ----- --<br>----- ----- ---------- --- --- ------ ------ ---- -- ------<br>------- --- ------ ----- --- ---- ------- -- ---- --- --<br>------- ------,117389.80000001192,117389.20000004768,116616.943,116622,116633.609,117400.264,,17,in
screen,html.Screen,0_2_1_1_18,2021-12-02T15:14:15.851Z,,,,,,,,,,,,,,,,54,,,,,,,,,,,,,,716.9360000476881,,response,,,100,,,,,,Space,keypress(Space),,,,,-- --- ---- --- ------ ----- ------- ---- -- --- ------- --<br>------- ---------- ------ -- ----- -- order -- ---- ------<br>--- ----- --- --- ------ -------- ----- --- ------ ----- --<br>----- ----- ---------- --- --- ------ ------ ---- -- ------<br>------- --- ------ ----- --- ---- ------- -- ---- --- --<br>------- ------,118117.80000001192,118117.20000004768,117383.598,117390,117400.264,118133.362,,18,order
screen,html.Screen,0_2_1_1_19,2021-12-02T15:14:16.275Z,,,,,,,,,,,,,,,,54,,,,,,,,,,,,,,407.83800004769,,response,,,100,,,,,,Space,keypress(Space),,,,,-- --- ---- --- ------ ----- ------- ---- -- --- ------- --<br>------- ---------- ------ -- ----- -- ----- to ---- ------<br>--- ----- --- --- ------ -------- ----- --- ------ ----- --<br>----- ----- ---------- --- --- ------ ------ ---- -- ------<br>------- --- ------ ----- --- ---- ------- -- ---- --- --<br>------- ------,118541.70000004768,118541.20000004768,118116.698,118118,118133.362,118550.22,,19,to
screen,html.Screen,0_2_1_1_20,2021-12-02T15:14:16.699Z,,,,,,,,,,,,,,,,54,,,,,,,,,,,,,,414.98000004768255,,response,,,100,,,,,,Space,keypress(Space),,,,,-- --- ---- --- ------ ----- ------- ---- -- --- ------- --<br>------- ---------- ------ -- ----- -- ----- -- save ------<br>--- ----- --- --- ------ -------- ----- --- ------ ----- --<br>----- ----- ---------- --- --- ------ ------ ---- -- ------<br>------- --- ------ ----- --- ---- ------- -- ---- --- --<br>------- ------,118965.90000003576,118965.20000004768,118533.554,118541.90000003576,118550.22,118966.747,,20,save
screen,html.Screen,0_2_1_1_21,2021-12-02T15:14:17.099Z,,,,,,,,,,,,,,,,54,,,,,,,,,,,,,,398.4530000476807,,response,,,100,,,,,,Space,keypress(Space),,,,,"-- --- ---- --- ------ ----- ------- ---- -- --- ------- --<br>------- ---------- ------ -- ----- -- ----- -- ---- money,<br>--- ----- --- --- ------ -------- ----- --- ------ ----- --<br>----- ----- ---------- --- --- ------ ------ ---- -- ------<br>------- --- ------ ----- --- ---- ------- -- ---- --- --<br>------- ------",119365.70000004768,119365.20000004768,118950.083,118966,118966.747,119366.915,,21,"money,"
screen,html.Screen,0_2_1_1_22,2021-12-02T15:14:17.579Z,,,,,,,,,,,,,,,,54,,,,,,,,,,,,,,478.18500002384826,,response,,,100,,,,,,Space,keypress(Space),,,,,-- --- ---- --- ------ ----- ------- ---- -- --- ------- --<br>------- ---------- ------ -- ----- -- ----- -- ---- ------<br>the ----- --- --- ------ -------- ----- --- ------ ----- --<br>----- ----- ---------- --- --- ------ ------ ---- -- ------<br>------- --- ------ ----- --- ---- ------- -- ---- --- --<br>------- ------,119845.70000004768,119845.10000002384,119350.248,119365.90000003576,119366.915,119850.066,,22,the
screen,html.Screen,0_2_1_1_23,2021-12-02T15:14:18.006Z,,,,,,,,,,,,,,,,54,,,,,,,,,,,,,,419.23400001191476,,response,,,100,,,,,,Space,keypress(Space),,,,,-- --- ---- --- ------ ----- ------- ---- -- --- ------- --<br>------- ---------- ------ -- ----- -- ----- -- ---- ------<br>--- state --- --- ------ -------- ----- --- ------ ----- --<br>----- ----- ---------- --- --- ------ ------ ---- -- ------<br>------- --- ------ ----- --- ---- ------- -- ---- --- --<br>------- ------,120269.90000003576,120269.30000001192,119833.402,119845.90000003576,119850.066,120283.433,,23,state
screen,html.Screen,0_2_1_1_24,2021-12-02T15:14:18.422Z,,,,,,,,,,,,,,,,54,,,,,,,,,,,,,,401.6670000238373,,response,,,100,,,,,,Space,keypress(Space),,,,,-- --- ---- --- ------ ----- ------- ---- -- --- ------- --<br>------- ---------- ------ -- ----- -- ----- -- ---- ------<br>--- ----- cut --- ------ -------- ----- --- ------ ----- --<br>----- ----- ---------- --- --- ------ ------ ---- -- ------<br>------- --- ------ ----- --- ---- ------- -- ---- --- --<br>------- ------,120685.70000004768,120685.10000002384,120266.768,120270,120283.433,120700.148,,24,cut
screen,html.Screen,0_2_1_1_25,2021-12-02T15:14:18.734Z,,,,,,,,,,,,,,,,54,,,,,,,,,,,,,,296.9520000238408,,response,,,100,,,,,,Space,keypress(Space),,,,,-- --- ---- --- ------ ----- ------- ---- -- --- ------- --<br>------- ---------- ------ -- ----- -- ----- -- ---- ------<br>--- ----- --- the ------ -------- ----- --- ------ ----- --<br>----- ----- ---------- --- --- ------ ------ ---- -- ------<br>------- --- ------ ----- --- ---- ------- -- ---- --- --<br>------- ------,120997.60000002384,120997.10000002384,120683.482,120685.80000001192,120700.148,121000.105,,25,the
screen,html.Screen,0_2_1_1_26,2021-12-02T15:14:19.086Z,,,,,,,,,,,,,,,,54,,,,,,,,,,,,,,348.99500002384593,,response,,,100,,,,,,Space,keypress(Space),,,,,-- --- ---- --- ------ ----- ------- ---- -- --- ------- --<br>------- ---------- ------ -- ----- -- ----- -- ---- ------<br>--- ----- --- --- bonds' -------- ----- --- ------ ----- --<br>----- ----- ---------- --- --- ------ ------ ---- -- ------<br>------- --- ------ ----- --- ---- ------- -- ---- --- --<br>------- ------,121349.70000004768,121349.10000002384,120983.44,120997.80000001192,121000.105,121366.785,,26,bonds'
screen,html.Screen,0_2_1_1_27,2021-12-02T15:14:19.662Z,,,,,,,,,,,,,,,,54,,,,,,,,,,,,,,558.2149999999965,,response,,,100,,,,,,Space,keypress(Space),,,,,-- --- ---- --- ------ ----- ------- ---- -- --- ------- --<br>------- ---------- ------ -- ----- -- ----- -- ---- ------<br>--- ----- --- --- ------ interest ----- --- ------ ----- --<br>----- ----- ---------- --- --- ------ ------ ---- -- ------<br>------- --- ------ ----- --- ---- ------- -- ---- --- --<br>------- ------,121925.60000002384,121925,121350.119,121349.80000001192,121366.785,121933.391,,27,interest
screen,html.Screen,0_2_1_1_28,2021-12-02T15:14:20.094Z,,,,,,,,,,,,,,,,54,,,,,,,,,,,,,,423.7090000238386,,response,,,100,,,,,,Space,keypress(Space),,,,,-- --- ---- --- ------ ----- ------- ---- -- --- ------- --<br>------- ---------- ------ -- ----- -- ----- -- ---- ------<br>--- ----- --- --- ------ -------- rate. --- ------ ----- --<br>----- ----- ---------- --- --- ------ ------ ---- -- ------<br>------- --- ------ ----- --- ---- ------- -- ---- --- --<br>------- ------,122357.60000002384,122357.10000002384,121916.726,121925.80000001192,121933.391,122366.713,,28,rate.
screen,html.Screen,0_2_1_1_29,2021-12-02T15:14:20.702Z,,,,,,,,,,,,,,,,54,,,,,,,,,,,,,,598.2869999999966,,response,,,100,,,,,,Space,keypress(Space),,,,,-- --- ---- --- ------ ----- ------- ---- -- --- ------- --<br>------- ---------- ------ -- ----- -- ----- -- ---- ------<br>--- ----- --- --- ------ -------- ----- The ------ ----- --<br>----- ----- ---------- --- --- ------ ------ ---- -- ------<br>------- --- ------ ----- --- ---- ------- -- ---- --- --<br>------- ------,122965.60000002384,122965,122350.048,122357.80000001192,122366.713,122966.73,,29,The
screen,html.Screen,0_2_1_1_30,2021-12-02T15:14:21.158Z,,,,,,,,,,,,,,,,54,,,,,,,,,,,,,,454.2700000000041,,response,,,100,,,,,,Space,keypress(Space),,,,,-- --- ---- --- ------ ----- ------- ---- -- --- ------- --<br>------- ---------- ------ -- ----- -- ----- -- ---- ------<br>--- ----- --- --- ------ -------- ----- --- market ----- --<br>----- ----- ---------- --- --- ------ ------ ---- -- ------<br>------- --- ------ ----- --- ---- ------- -- ---- --- --<br>------- ------,123421.60000002384,123421,122950.064,122965.70000004768,122966.73,123433.257,,30,market
screen,html.Screen,0_2_1_1_31,2021-12-02T15:14:21.518Z,,,,,,,,,,,,,,,,54,,,,,,,,,,,,,,347.7430000000022,,response,,,100,,,,,,Space,keypress(Space),,,,,-- --- ---- --- ------ ----- ------- ---- -- --- ------- --<br>------- ---------- ------ -- ----- -- ----- -- ---- ------<br>--- ----- --- --- ------ -------- ----- --- ------ value --<br>----- ----- ---------- --- --- ------ ------ ---- -- ------<br>------- --- ------ ----- --- ---- ------- -- ---- --- --<br>------- ------,123781.5,123781,123416.593,123421.70000004768,123433.257,123783.304,,31,value
screen,html.Screen,0_2_1_1_32,2021-12-02T15:14:21.910Z,,,,,,,,,,,,,,,,54,,,,,,,,,,,,,,389.59600003575906,,response,,,100,,,,,,Space,keypress(Space),,,,,-- --- ---- --- ------ ----- ------- ---- -- --- ------- --<br>------- ---------- ------ -- ----- -- ----- -- ---- ------<br>--- ----- --- --- ------ -------- ----- --- ------ ----- of<br>----- ----- ---------- --- --- ------ ------ ---- -- ------<br>------- --- ------ ----- --- ---- ------- -- ---- --- --<br>------- ------,124173.5,124172.90000003576,123766.639,123781.60000002384,123783.304,124183.322,,32,of
screen,html.Screen,0_2_1_1_33,2021-12-02T15:14:22.350Z,,,,,,,,,,,,,,,,54,,,,,,,,,,,,,,429.6779999999999,,response,,,100,,,,,,Space,keypress(Space),,,,,-- --- ---- --- ------ ----- ------- ---- -- --- ------- --<br>------- ---------- ------ -- ----- -- ----- -- ---- ------<br>--- ----- --- --- ------ -------- ----- --- ------ ----- --<br>these ----- ---------- --- --- ------ ------ ---- -- ------<br>------- --- ------ ----- --- ---- ------- -- ---- --- --<br>------- ------,124613.5,124613,124166.656,124173.70000004768,124183.322,124616.607,,33,these
screen,html.Screen,0_2_1_1_34,2021-12-02T15:14:22.806Z,,,,,,,,,,,,,,,,54,,,,,,,,,,,,,,452.3929999999964,,response,,,100,,,,,,Space,keypress(Space),,,,,-- --- ---- --- ------ ----- ------- ---- -- --- ------- --<br>------- ---------- ------ -- ----- -- ----- -- ---- ------<br>--- ----- --- --- ------ -------- ----- --- ------ ----- --<br>----- bonds ---------- --- --- ------ ------ ---- -- ------<br>------- --- ------ ----- --- ---- ------- -- ---- --- --<br>------- ------,125069.5,125069,124599.942,124613.70000004768,124616.607,125083.254,,34,bonds
screen,html.Screen,0_2_1_1_35,2021-12-02T15:14:23.574Z,,,,,,,,,,,,,,,,54,,,,,,,,,,,,,,753.646000035762,,response,,,100,,,,,,Space,keypress(Space),,,,,"-- --- ---- --- ------ ----- ------- ---- -- --- ------- --<br>------- ---------- ------ -- ----- -- ----- -- ---- ------<br>--- ----- --- --- ------ -------- ----- --- ------ ----- --<br>----- ----- plummeted, --- --- ------ ------ ---- -- ------<br>------- --- ------ ----- --- ---- ------- -- ---- --- --<br>------- ------",125837.5,125836.90000003576,125066.589,125069.70000004768,125083.254,125849.833,,35,"plummeted,"
screen,html.Screen,0_2_1_1_36,2021-12-02T15:14:23.998Z,,,,,,,,,,,,,,,,54,,,,,,,,,,,,,,411.1670000000013,,response,,,100,,,,,,Space,keypress(Space),,,,,-- --- ---- --- ------ ----- ------- ---- -- --- ------- --<br>------- ---------- ------ -- ----- -- ----- -- ---- ------<br>--- ----- --- --- ------ -------- ----- --- ------ ----- --<br>----- ----- ---------- and --- ------ ------ ---- -- ------<br>------- --- ------ ----- --- ---- ------- -- ---- --- --<br>------- ------,126261.5,126261,125833.168,125837.60000002384,125849.833,126266.608,,36,and
screen,html.Screen,0_2_1_1_37,2021-12-02T15:14:24.366Z,,,,,,,,,,,,,,,,54,,,,,,,,,,,,,,362.19200001192803,,response,,,100,,,,,,Space,keypress(Space),,,,,-- --- ---- --- ------ ----- ------- ---- -- --- ------- --<br>------- ---------- ------ -- ----- -- ----- -- ---- ------<br>--- ----- --- --- ------ -------- ----- --- ------ ----- --<br>----- ----- ---------- --- the ------ ------ ---- -- ------<br>------- --- ------ ----- --- ---- ------- -- ---- --- --<br>------- ------,126629.40000003576,126628.80000001192,126249.942,126261.70000004768,126266.608,126633.205,,37,the
screen,html.Screen,0_2_1_1_38,2021-12-02T15:14:24.734Z,,,,,,,,,,,,,,,,54,,,,,,,,,,,,,,363.5950000119192,,response,,,100,,,,,,Space,keypress(Space),,,,,-- --- ---- --- ------ ----- ------- ---- -- --- ------- --<br>------- ---------- ------ -- ----- -- ----- -- ---- ------<br>--- ----- --- --- ------ -------- ----- --- ------ ----- --<br>----- ----- ---------- --- --- market ------ ---- -- ------<br>------- --- ------ ----- --- ---- ------- -- ---- --- --<br>------- ------,126997.40000003576,126996.80000001192,126616.54,126629.5,126633.205,126999.857,,38,market
screen,html.Screen,0_2_1_1_39,2021-12-02T15:14:25.094Z,,,,,,,,,,,,,,,,54,,,,,,,,,,,,,,357.0430000357592,,response,,,100,,,,,,Space,keypress(Space),,,,,-- --- ---- --- ------ ----- ------- ---- -- --- ------- --<br>------- ---------- ------ -- ----- -- ----- -- ---- ------<br>--- ----- --- --- ------ -------- ----- --- ------ ----- --<br>----- ----- ---------- --- --- ------ became ---- -- ------<br>------- --- ------ ----- --- ---- ------- -- ---- --- --<br>------- ------,127357.5,127356.90000003576,126983.192,126997.60000002384,126999.857,127366.54,,39,became
screen,html.Screen,0_2_1_1_40,2021-12-02T15:14:25.470Z,,,,,,,,,,,,,,,,54,,,,,,,,,,,,,,366.26000001192733,,response,,,100,,,,,,Space,keypress(Space),,,,,-- --- ---- --- ------ ----- ------- ---- -- --- ------- --<br>------- ---------- ------ -- ----- -- ----- -- ---- ------<br>--- ----- --- --- ------ -------- ----- --- ------ ----- --<br>----- ----- ---------- --- --- ------ ------ wary -- ------<br>------- --- ------ ----- --- ---- ------- -- ---- --- --<br>------- ------,127733.30000001192,127732.80000001192,127349.874,127357.60000002384,127366.54,127749.926,,40,wary
screen,html.Screen,0_2_1_1_41,2021-12-02T15:14:25.878Z,,,,,,,,,,,,,,,,54,,,,,,,,,,,,,,390.8740000119142,,response,,,100,,,,,,Space,keypress(Space),,,,,-- --- ---- --- ------ ----- ------- ---- -- --- ------- --<br>------- ---------- ------ -- ----- -- ----- -- ---- ------<br>--- ----- --- --- ------ -------- ----- --- ------ ----- --<br>----- ----- ---------- --- --- ------ ------ ---- of ------<br>------- --- ------ ----- --- ---- ------- -- ---- --- --<br>------- ------,128142.20000004768,128140.80000001192,127733.259,127733.5,127749.926,128149.76,,41,of
screen,html.Screen,0_2_1_1_42,2021-12-02T15:14:26.318Z,,,,,,,,,,,,,,,,54,,,,,,,,,,,,,,431.04000001192617,,response,,,100,,,,,,Space,keypress(Space),,,,,-- --- ---- --- ------ ----- ------- ---- -- --- ------- --<br>------- ---------- ------ -- ----- -- ----- -- ---- ------<br>--- ----- --- --- ------ -------- ----- --- ------ ----- --<br>----- ----- ---------- --- --- ------ ------ ---- -- French<br>------- --- ------ ----- --- ---- ------- -- ---- --- --<br>------- ------,128581.30000001192,128580.80000001192,128133.096,128142.30000001192,128149.76,128583.163,,42,French
screen,html.Screen,0_2_1_1_43,2021-12-02T15:14:26.878Z,,,,,,,,,,,,,,,,54,,,,,,,,,,,,,,557.7370000357623,,response,,,100,,,,,,Space,keypress(Space),,,,,-- --- ---- --- ------ ----- ------- ---- -- --- ------- --<br>------- ---------- ------ -- ----- -- ----- -- ---- ------<br>--- ----- --- --- ------ -------- ----- --- ------ ----- --<br>----- ----- ---------- --- --- ------ ------ ---- -- ------<br>credit. --- ------ ----- --- ---- ------- -- ---- --- --<br>------- ------,129141.40000003576,129140.90000003576,128566.497,128581.5,128583.163,129149.761,,43,credit.
screen,html.Screen,0_2_1_1_44,2021-12-02T15:14:27.461Z,,,,,,,,,,,,,,,,54,,,,,,,,,,,,,,575.0390000119223,,response,,,100,,,,,,Space,keypress(Space),,,,,-- --- ---- --- ------ ----- ------- ---- -- --- ------- --<br>------- ---------- ------ -- ----- -- ----- -- ---- ------<br>--- ----- --- --- ------ -------- ----- --- ------ ----- --<br>----- ----- ---------- --- --- ------ ------ ---- -- ------<br>------- The ------ ----- --- ---- ------- -- ---- --- --<br>------- ------,129725.30000001192,129724.80000001192,129133.096,129141.60000002384,129149.761,129733.116,,44,The
screen,html.Screen,0_2_1_1_45,2021-12-02T15:14:27.973Z,,,,,,,,,,,,,,,,54,,,,,,,,,,,,,,503.5840000476892,,response,,,100,,,,,,Space,keypress(Space),,,,,-- --- ---- --- ------ ----- ------- ---- -- --- ------- --<br>------- ---------- ------ -- ----- -- ----- -- ---- ------<br>--- ----- --- --- ------ -------- ----- --- ------ ----- --<br>----- ----- ---------- --- --- ------ ------ ---- -- ------<br>------- --- French ----- --- ---- ------- -- ---- --- --<br>------- ------,130237.40000003576,130236.70000004768,129716.45,129725.5,129733.116,130249.673,,45,French
screen,html.Screen,0_2_1_1_46,2021-12-02T15:14:28.334Z,,,,,,,,,,,,,,,,54,,,,,,,,,,,,,,347.22700003576756,,response,,,100,,,,,,Space,keypress(Space),,,,,-- --- ---- --- ------ ----- ------- ---- -- --- ------- --<br>------- ---------- ------ -- ----- -- ----- -- ---- ------<br>--- ----- --- --- ------ -------- ----- --- ------ ----- --<br>----- ----- ---------- --- --- ------ ------ ---- -- ------<br>------- --- ------ state --- ---- ------- -- ---- --- --<br>------- ------,130597.40000003576,130596.90000003576,130233.008,130237.40000003576,130249.673,130599.761,,46,state
screen,html.Screen,0_2_1_1_47,2021-12-02T15:14:28.637Z,,,,,,,,,,,,,,,,54,,,,,,,,,,,,,,300.9390000476851,,response,,,100,,,,,,Space,keypress(Space),,,,,-- --- ---- --- ------ ----- ------- ---- -- --- ------- --<br>------- ---------- ------ -- ----- -- ----- -- ---- ------<br>--- ----- --- --- ------ -------- ----- --- ------ ----- --<br>----- ----- ---------- --- --- ------ ------ ---- -- ------<br>------- --- ------ ----- was ---- ------- -- ---- --- --<br>------- ------,130901.30000001192,130900.70000004768,130583.095,130597.60000002384,130599.761,130916.439,,47,was
screen,html.Screen,0_2_1_1_48,2021-12-02T15:14:28.966Z,,,,,,,,,,,,,,,,54,,,,,,,,,,,,,,312.26100004768523,,response,,,100,,,,,,Space,keypress(Space),,,,,-- --- ---- --- ------ ----- ------- ---- -- --- ------- --<br>------- ---------- ------ -- ----- -- ----- -- ---- ------<br>--- ----- --- --- ------ -------- ----- --- ------ ----- --<br>----- ----- ---------- --- --- ------ ------ ---- -- ------<br>------- --- ------ ----- --- left ------- -- ---- --- --<br>------- ------,131229.30000001192,131228.70000004768,130899.773,130901.40000003576,130916.439,131233.081,,48,left
screen,html.Screen,0_2_1_1_49,2021-12-02T15:14:29.269Z,,,,,,,,,,,,,,,,54,,,,,,,,,,,,,,299.6190000476781,,response,,,100,,,,,,Space,keypress(Space),,,,,-- --- ---- --- ------ ----- ------- ---- -- --- ------- --<br>------- ---------- ------ -- ----- -- ----- -- ---- ------<br>--- ----- --- --- ------ -------- ----- --- ------ ----- --<br>----- ----- ---------- --- --- ------ ------ ---- -- ------<br>------- --- ------ ----- --- ---- without -- ---- --- --<br>------- ------,131533.20000004768,131532.70000004768,131216.415,131229.5,131233.081,131549.651,,49,without
screen,html.Screen,0_2_1_1_50,2021-12-02T15:14:29.773Z,,,,,,,,,,,,,,,,54,,,,,,,,,,,,,,486.9490000238293,,response,,,100,,,,,,Space,keypress(Space),,,,,-- --- ---- --- ------ ----- ------- ---- -- --- ------- --<br>------- ---------- ------ -- ----- -- ----- -- ---- ------<br>--- ----- --- --- ------ -------- ----- --- ------ ----- --<br>----- ----- ---------- --- --- ------ ------ ---- -- ------<br>------- --- ------ ----- --- ---- ------- an ---- --- --<br>------- ------,132037.20000004768,132036.60000002384,131532.987,131533.40000003576,131549.651,132049.635,,50,an
screen,html.Screen,0_2_1_1_51,2021-12-02T15:14:30.149Z,,,,,,,,,,,,,,,,54,,,,,,,,,,,,,,363.0650000476744,,response,,,100,,,,,,Space,keypress(Space),,,,,-- --- ---- --- ------ ----- ------- ---- -- --- ------- --<br>------- ---------- ------ -- ----- -- ----- -- ---- ------<br>--- ----- --- --- ------ -------- ----- --- ------ ----- --<br>----- ----- ---------- --- --- ------ ------ ---- -- ------<br>------- --- ------ ----- --- ---- ------- -- easy --- --<br>------- ------,132413.30000001192,132412.70000004768,132032.97,132037.40000003576,132049.635,132416.361,,51,easy
screen,html.Screen,0_2_1_1_52,2021-12-02T15:14:30.509Z,,,,,,,,,,,,,,,,54,,,,,,,,,,,,,,356.23900002383743,,response,,,100,,,,,,Space,keypress(Space),,,,,-- --- ---- --- ------ ----- ------- ---- -- --- ------- --<br>------- ---------- ------ -- ----- -- ----- -- ---- ------<br>--- ----- --- --- ------ -------- ----- --- ------ ----- --<br>----- ----- ---------- --- --- ------ ------ ---- -- ------<br>------- --- ------ ----- --- ---- ------- -- ---- way --<br>------- ------,132773.10000002384,132772.60000002384,132399.695,132413.5,132416.361,132783.017,,52,way
screen,html.Screen,0_2_1_1_53,2021-12-02T15:14:30.933Z,,,,,,,,,,,,,,,,54,,,,,,,,,,,,,,413.68300004769117,,response,,,100,,,,,,Space,keypress(Space),,,,,-- --- ---- --- ------ ----- ------- ---- -- --- ------- --<br>------- ---------- ------ -- ----- -- ----- -- ---- ------<br>--- ----- --- --- ------ -------- ----- --- ------ ----- --<br>----- ----- ---------- --- --- ------ ------ ---- -- ------<br>------- --- ------ ----- --- ---- ------- -- ---- --- of<br>------- ------,133197.30000001192,133196.70000004768,132766.351,132773.30000001192,132783.017,133199.618,,53,of
screen,html.Screen,0_2_1_1_54,2021-12-02T15:14:31.509Z,,,,,,,,,,,,,,,,54,,,,,,,,,,,,,,572.9820000238542,,response,,,100,,,,,,Space,keypress(Space),,,,,-- --- ---- --- ------ ----- ------- ---- -- --- ------- --<br>------- ---------- ------ -- ----- -- ----- -- ---- ------<br>--- ----- --- --- ------ -------- ----- --- ------ ----- --<br>----- ----- ---------- --- --- ------ ------ ---- -- ------<br>------- --- ------ ----- --- ---- ------- -- ---- --- --<br>raising ------,133773.10000002384,133772.60000002384,133182.953,133197.40000003576,133199.618,133782.92,,54,raising
screen,html.Screen,0_2_1_1_55,2021-12-02T15:14:31.973Z,,,,,,,,,,,,,,,,54,,,,,,,,,,,,,,453.68000002382905,,response,,,100,,,,,,Space,keypress(Space),,,,,-- --- ---- --- ------ ----- ------- ---- -- --- ------- --<br>------- ---------- ------ -- ----- -- ----- -- ---- ------<br>--- ----- --- --- ------ -------- ----- --- ------ ----- --<br>----- ----- ---------- --- --- ------ ------ ---- -- ------<br>------- --- ------ ----- --- ---- ------- -- ---- --- --<br>------- money.,134237.30000001192,134236.60000002384,133766.255,133773.30000001192,133782.92,134249.669,,55,money.
Item 100,flow.Loop,0_2_1_1,2021-12-02T15:14:31.974Z,,,,,,,,,,,,,,,,,,,,,,,,,,,,,,24969.445000023843,,completion,,,,F,,,,,,,,,,silence,,134237.60000002384,134236.60000002384,109250.49,109251.30000001192,109267.155,134249.669,,,
Question 1,html.Screen,0_2_1_2,2021-12-02T15:14:37.573Z,,,,,,,,,,,,,,,,,,,,,,,,,,,true,TRUE,,5586.531000047689,,response,,,100,F,,,,,TRUE,click #choice-1,,,,silence,,139837.10000002384,139836.20000004768,134233.002,134237.70000004768,134249.669,139849.332,,,
Question 2,html.Screen,0_2_1_3,2021-12-02T15:14:40.722Z,,,,,,,,,,,,,,,,,,,,,,,,,,,true,FALSE,,3135.868000047689,,response,,,100,F,,,,,FALSE,click #choice-2,,,,silence,,142985.90000003576,142985.20000004768,139832.667,139837.30000001192,139849.332,142999.266,,,
Item 100,flow.Sequence,0_2_1,2021-12-02T15:14:40.722Z,,,,,,,,,,,,,,,,,,,,,,,,,,,,,,43717.68700004768,,completion,,,,,,,,,,,,,,,,142986.10000002384,142985.20000004768,99250.848,99250.40000003576,99267.513,142999.266,,,
End of Practice,html.Page,0_2_2,2021-12-02T15:14:49.078Z,,,,,,,,,,,,,,,,,,,,,,,,,,,,,,8342.534000011918,,form submission,,,,,,,,,,,,,,,,151342.20000004768,151341.80000001192,142982.601,142986.40000003576,142999.266,151349.017,,,
Practice,flow.Sequence,0_2,2021-12-02T15:14:49.079Z,,,,,,,,,,,,,,,,,,,,,,,,,,,,,,109638.91800001192,,completion,,,,,,,,,,,,,,,,151342.40000003576,151341.80000001192,41686.217,41698.40000003576,41702.882,151349.017,,,
Trap_instruction,html.Page,0_3_0,2021-12-02T15:14:49.966Z,,,,,,,,,,,,,,,,,,,,,,,,,,,,,,880.4830000000075,,form submission,,,,,,,,,,,,,,,,152229.80000001192,152229.5,151332.351,151342.60000002384,151349.017,152248.893,,,
trap_trial,html.Screen,0_3_1,2021-12-02T15:14:56.048Z,,,,,,,,,,,,,,,,,,,,,,,,,,,true,1,,6061.807000047673,,response,,,,,,,,,1,click #choice-1,,,,,,158311.60000002384,158310.70000004768,152215.563,152230,152248.893,158326.244,,,
end of trap trial,html.Page,0_3_2,2021-12-02T15:14:59.122Z,,,,,,,,,,,,,,,,,,,,,,,,,,,,,,3058.755999999994,,form submission,,,,,,,,,,,,,,,,161385.40000003576,161385,158309.594,158311.70000004768,158326.244,161415.153,,,
Trap 1,flow.Sequence,0_3,2021-12-02T15:14:59.122Z,,,,,,,,,,,,,,,,,,,,,,,,,,,,,,10035.983000000007,,completion,,,,,,,,,,,,,,,,161385.70000004768,161385,151332.351,151342.60000002384,151349.017,161415.153,,,
Standby,html.Page,0_4_0,2021-12-02T15:15:07.135Z,,,,,,,,,,,,,,,,,,,,,,,,,,,,,,7999.2850000000035,,timeout,,,,,,,,,,,,,,,,169398.80000001192,169397.773,161398.488,161385.80000001192,161415.153,169414.438,,,
Holding screen,html.Screen,0_4_1_0_0,2021-12-02T15:15:14.135Z,,,,,,,,,,,,,,,,,,,,,,,,,,,,,,7000.203999999998,,timeout,,,,,,,,,,,,,,,,176398.90000003576,176397.977,169397.773,169399.10000002384,169414.438,176414.642,,,
screen,html.Screen,0_4_1_0_1_0,2021-12-02T15:15:15.004Z,,,,,,,,,,,,,,,,48,,,,,,,,,,,,,,852.6580000119284,,response,,,10,F,,,,,Space,keypress(Space),,,,instrumental,As -- --- ------ ------- --------- ----------- --------<br>--------- -------- --- ------- -- ------- ---- -- ------<br>-- --- -------- -------- ---------- ---- ---- ---- ------<br>-- --------- -- ---- -- --- -- --- ------- -- - -----<br>---------- -- -- -- ---- ----- -- ------ -- --- ------<br>-------,177268.10000002384,177267.30000001192,176397.977,176399.20000004768,176414.642,177281.277,,0,As
screen,html.Screen,0_4_1_0_1_1,2021-12-02T15:15:15.404Z,,,,,,,,,,,,,,,,48,,,,,,,,,,,,,,385.6230000357609,,response,,,10,F,,,,,Space,keypress(Space),,,,instrumental,-- in --- ------ ------- --------- ----------- --------<br>--------- -------- --- ------- -- ------- ---- -- ------<br>-- --- -------- -------- ---------- ---- ---- ---- ------<br>-- --------- -- ---- -- --- -- --- ------- -- - -----<br>---------- -- -- -- ---- ----- -- ------ -- --- ------<br>-------,177667.60000002384,177666.90000003576,177264.612,177268.20000004768,177281.277,177681.338,,1,in
screen,html.Screen,0_4_1_0_1_2,2021-12-02T15:15:15.708Z,,,,,,,,,,,,,,,,48,,,,,,,,,,,,,,289.56200003577396,,response,,,10,F,,,,,Space,keypress(Space),,,,instrumental,-- -- the ------ ------- --------- ----------- --------<br>--------- -------- --- ------- -- ------- ---- -- ------<br>-- --- -------- -------- ---------- ---- ---- ---- ------<br>-- --------- -- ---- -- --- -- --- ------- -- - -----<br>---------- -- -- -- ---- ----- -- ------ -- --- ------<br>-------,177971.40000003576,177970.90000003576,177664.672,177667.70000004768,177681.338,177981.279,,2,the
screen,html.Screen,0_4_1_0_1_3,2021-12-02T15:15:16.004Z,,,,,,,,,,,,,,,,48,,,,,,,,,,,,,,285.62100003575324,,response,,,10,F,,,,,Space,keypress(Space),,,,instrumental,-- -- --- United ------- --------- ----------- --------<br>--------- -------- --- ------- -- ------- ---- -- ------<br>-- --- -------- -------- ---------- ---- ---- ---- ------<br>-- --------- -- ---- -- --- -- --- ------- -- - -----<br>---------- -- -- -- ---- ----- -- ------ -- --- ------<br>-------,178267.5,178266.90000003576,177964.614,177971.70000004768,177981.279,178281.319,,3,United
screen,html.Screen,0_4_1_0_1_4,2021-12-02T15:15:16.316Z,,,,,,,,,,,,,,,,48,,,,,,,,,,,,,,297.5810000357742,,response,,,10,F,,,,,Space,keypress(Space),,,,instrumental,"-- -- --- ------ States, --------- ----------- --------<br>--------- -------- --- ------- -- ------- ---- -- ------<br>-- --- -------- -------- ---------- ---- ---- ---- ------<br>-- --------- -- ---- -- --- -- --- ------- -- - -----<br>---------- -- -- -- ---- ----- -- ------ -- --- ------<br>-------",178579.40000003576,178578.90000003576,178264.653,178267.70000004768,178281.319,178581.307,,4,"States,"
screen,html.Screen,0_4_1_0_1_5,2021-12-02T15:15:17.476Z,,,,,,,,,,,,,,,,48,,,,,,,,,,,,,,1157.6929999999993,,response,,,10,F,,,,,Space,keypress(Space),,,,instrumental,-- -- --- ------ ------- Colombian ----------- --------<br>--------- -------- --- ------- -- ------- ---- -- ------<br>-- --- -------- -------- ---------- ---- ---- ---- ------<br>-- --------- -- ---- -- --- -- --- ------- -- - -----<br>---------- -- -- -- ---- ----- -- ------ -- --- ------<br>-------,179739.60000002384,179739,178564.641,178579.60000002384,178581.307,179747.85,,5,Colombian
screen,html.Screen,0_4_1_0_1_6,2021-12-02T15:15:17.860Z,,,,,,,,,,,,,,,,48,,,,,,,,,,,,,,375.05000003575697,,response,,,10,F,,,,,Space,keypress(Space),,,,instrumental,-- -- --- ------ ------- --------- legislation --------<br>--------- -------- --- ------- -- ------- ---- -- ------<br>-- --- -------- -------- ---------- ---- ---- ---- ------<br>-- --------- -- ---- -- --- -- --- ------- -- - -----<br>---------- -- -- -- ---- ----- -- ------ -- --- ------<br>-------,180123.5,180122.90000003576,179731.185,179739.70000004768,179747.85,180131.149,,6,legislation
screen,html.Screen,0_4_1_0_1_7,2021-12-02T15:15:18.334Z,,,,,,,,,,,,,,,,48,,,,,,,,,,,,,,463.7510000357579,,response,,,10,F,,,,,Space,keypress(Space),,,,instrumental,-- -- --- ------ ------- --------- ----------- requires<br>--------- -------- --- ------- -- ------- ---- -- ------<br>-- --- -------- -------- ---------- ---- ---- ---- ------<br>-- --------- -- ---- -- --- -- --- ------- -- - -----<br>---------- -- -- -- ---- ----- -- ------ -- --- ------<br>-------,180595.5,180594.90000003576,180114.484,180123.70000004768,180131.149,180597.901,,7,requires
screen,html.Screen,0_4_1_0_1_8,2021-12-02T15:15:18.709Z,,,,,,,,,,,,,,,,48,,,,,,,,,,,,,,372.89900001190836,,response,,,10,F,,,,,Space,keypress(Space),,,,instrumental,-- -- --- ------ ------- --------- ----------- --------<br>travelers -------- --- ------- -- ------- ---- -- ------<br>-- --- -------- -------- ---------- ---- ---- ---- ------<br>-- --------- -- ---- -- --- -- --- ------- -- - -----<br>---------- -- -- -- ---- ----- -- ------ -- --- ------<br>-------,180971.40000003576,180970.80000001192,180581.235,180595.60000002384,180597.901,180981.116,,8,travelers
screen,html.Screen,0_4_1_0_1_9,2021-12-02T15:15:19.150Z,,,,,,,,,,,,,,,,48,,,,,,,,,,,,,,429.68400001191185,,response,,,10,F,,,,,Space,keypress(Space),,,,instrumental,-- -- --- ------ ------- --------- ----------- --------<br>--------- entering --- ------- -- ------- ---- -- ------<br>-- --- -------- -------- ---------- ---- ---- ---- ------<br>-- --------- -- ---- -- --- -- --- ------- -- - -----<br>---------- -- -- -- ---- ----- -- ------ -- --- ------<br>-------,181412.20000004768,181410.80000001192,180964.452,180971.5,180981.116,181414.541,,9,entering
screen,html.Screen,0_4_1_0_1_10,2021-12-02T15:15:19.701Z,,,,,,,,,,,,,,,,48,,,,,,,,,,,,,,548.2590000119235,,response,,,10,F,,,,,Space,keypress(Space),,,,instrumental,-- -- --- ------ ------- --------- ----------- --------<br>--------- -------- the ------- -- ------- ---- -- ------<br>-- --- -------- -------- ---------- ---- ---- ---- ------<br>-- --------- -- ---- -- --- -- --- ------- -- - -----<br>---------- -- -- -- ---- ----- -- ------ -- --- ------<br>-------,181963.40000003576,181962.80000001192,181397.875,181412.40000003576,181414.541,181964.4,,10,the
screen,html.Screen,0_4_1_0_1_11,2021-12-02T15:15:20.085Z,,,,,,,,,,,,,,,,48,,,,,,,,,,,,,,382.5000000357686,,response,,,10,F,,,,,Space,keypress(Space),,,,instrumental,-- -- --- ------ ------- --------- ----------- --------<br>--------- -------- --- country -- ------- ---- -- ------<br>-- --- -------- -------- ---------- ---- ---- ---- ------<br>-- --------- -- ---- -- --- -- --- ------- -- - -----<br>---------- -- -- -- ---- ----- -- ------ -- --- ------<br>-------,182347.40000003576,182346.90000003576,181947.736,181963.5,181964.4,182364.482,,11,country
screen,html.Screen,0_4_1_0_1_12,2021-12-02T15:15:20.566Z,,,,,,,,,,,,,,,,48,,,,,,,,,,,,,,462.3180000119319,,response,,,10,F,,,,,Space,keypress(Space),,,,instrumental,-- -- --- ------ ------- --------- ----------- --------<br>--------- -------- --- ------- to ------- ---- -- ------<br>-- --- -------- -------- ---------- ---- ---- ---- ------<br>-- --------- -- ---- -- --- -- --- ------- -- - -----<br>---------- -- -- -- ---- ----- -- ------ -- --- ------<br>-------,182827.5,182826.80000001192,182347.816,182347.60000002384,182364.482,182831.095,,12,to
screen,html.Screen,0_4_1_0_1_13,2021-12-02T15:15:21.021Z,,,,,,,,,,,,,,,,48,,,,,,,,,,,,,,451.70500001191976,,response,,,10,F,,,,,Space,keypress(Space),,,,instrumental,-- -- --- ------ ------- --------- ----------- --------<br>--------- -------- --- ------- -- declare ---- -- ------<br>-- --- -------- -------- ---------- ---- ---- ---- ------<br>-- --------- -- ---- -- --- -- --- ------- -- - -----<br>---------- -- -- -- ---- ----- -- ------ -- --- ------<br>-------,183283.40000003576,183282.80000001192,182814.43,182827.60000002384,182831.095,183297.818,,13,declare
screen,html.Screen,0_4_1_0_1_14,2021-12-02T15:15:21.461Z,,,,,,,,,,,,,,,,48,,,,,,,,,,,,,,424.8820000476844,,response,,,10,F,,,,,Space,keypress(Space),,,,instrumental,-- -- --- ------ ------- --------- ----------- --------<br>--------- -------- --- ------- -- ------- cash -- ------<br>-- --- -------- -------- ---------- ---- ---- ---- ------<br>-- --------- -- ---- -- --- -- --- ------- -- - -----<br>---------- -- -- -- ---- ----- -- ------ -- --- ------<br>-------,183723.30000001192,183722.70000004768,183281.152,183283.5,183297.818,183731.122,,14,cash
screen,html.Screen,0_4_1_0_1_15,2021-12-02T15:15:22.045Z,,,,,,,,,,,,,,,,48,,,,,,,,,,,,,,575.6780000119179,,response,,,10,F,,,,,Space,keypress(Space),,,,instrumental,-- -- --- ------ ------- --------- ----------- --------<br>--------- -------- --- ------- -- ------- ---- in ------<br>-- --- -------- -------- ---------- ---- ---- ---- ------<br>-- --------- -- ---- -- --- -- --- ------- -- - -----<br>---------- -- -- -- ---- ----- -- ------ -- --- ------<br>-------,184307.40000003576,184306.80000001192,183714.456,183723.40000003576,183731.122,184314.452,,15,in
screen,html.Screen,0_4_1_0_1_16,2021-12-02T15:15:22.525Z,,,,,,,,,,,,,,,,48,,,,,,,,,,,,,,472.2480000476935,,response,,,10,F,,,,,Space,keypress(Space),,,,instrumental,-- -- --- ------ ------- --------- ----------- --------<br>--------- -------- --- ------- -- ------- ---- -- excess<br>-- --- -------- -------- ---------- ---- ---- ---- ------<br>-- --------- -- ---- -- --- -- --- ------- -- - -----<br>---------- -- -- -- ---- ----- -- ------ -- --- ------<br>-------,184787.30000001192,184786.70000004768,184297.786,184307.5,184314.452,184797.723,,16,excess
screen,html.Screen,0_4_1_0_1_17,2021-12-02T15:15:23.005Z,,,,,,,,,,,,,,,,48,,,,,,,,,,,,,,469.0770000119228,,response,,,10,F,,,,,Space,keypress(Space),,,,instrumental,-- -- --- ------ ------- --------- ----------- --------<br>--------- -------- --- ------- -- ------- ---- -- ------<br>of --- -------- -------- ---------- ---- ---- ---- ------<br>-- --------- -- ---- -- --- -- --- ------- -- - -----<br>---------- -- -- -- ---- ----- -- ------ -- --- ------<br>-------,185267.40000003576,185266.80000001192,184781.058,184787.5,184797.723,185280.949,,17,of
screen,html.Screen,0_4_1_0_1_18,2021-12-02T15:15:23.325Z,,,,,,,,,,,,,,,,48,,,,,,,,,,,,,,305.75100004769047,,response,,,10,F,,,,,Space,keypress(Space),,,,instrumental,-- -- --- ------ ------- --------- ----------- --------<br>--------- -------- --- ------- -- ------- ---- -- ------<br>-- ten -------- -------- ---------- ---- ---- ---- ------<br>-- --------- -- ---- -- --- -- --- ------- -- - -----<br>---------- -- -- -- ---- ----- -- ------ -- --- ------<br>-------,185587.30000001192,185586.70000004768,185264.285,185267.5,185280.949,185597.757,,18,ten
screen,html.Screen,0_4_1_0_1_19,2021-12-02T15:15:23.685Z,,,,,,,,,,,,,,,,48,,,,,,,,,,,,,,348.9430000476714,,response,,,10,F,,,,,Space,keypress(Space),,,,instrumental,-- -- --- ------ ------- --------- ----------- --------<br>--------- -------- --- ------- -- ------- ---- -- ------<br>-- --- thousand -------- ---------- ---- ---- ---- ------<br>-- --------- -- ---- -- --- -- --- ------- -- - -----<br>---------- -- -- -- ---- ----- -- ------ -- --- ------<br>-------,185947.20000004768,185946.70000004768,185581.09,185587.40000003576,185597.757,185964.324,,19,thousand
screen,html.Screen,0_4_1_0_1_20,2021-12-02T15:15:23.965Z,,,,,,,,,,,,,,,,48,,,,,,,,,,,,,,262.2760000238486,,response,,,10,F,,,,,Space,keypress(Space),,,,instrumental,-- -- --- ------ ------- --------- ----------- --------<br>--------- -------- --- ------- -- ------- ---- -- ------<br>-- --- -------- dollars. ---------- ---- ---- ---- ------<br>-- --------- -- ---- -- --- -- --- ------- -- - -----<br>---------- -- -- -- ---- ----- -- ------ -- --- ------<br>-------,186227.20000004768,186226.60000002384,185947.659,185947.30000001192,185964.324,186231.033,,20,dollars.
screen,html.Screen,0_4_1_0_1_21,2021-12-02T15:15:24.549Z,,,,,,,,,,,,,,,,48,,,,,,,,,,,,,,579.6670000476879,,response,,,10,F,,,,,Space,keypress(Space),,,,instrumental,-- -- --- ------ ------- --------- ----------- --------<br>--------- -------- --- ------- -- ------- ---- -- ------<br>-- --- -------- -------- Concealing ---- ---- ---- ------<br>-- --------- -- ---- -- --- -- --- ------- -- - -----<br>---------- -- -- -- ---- ----- -- ------ -- --- ------<br>-------,186811.20000004768,186810.70000004768,186214.367,186227.40000003576,186231.033,186814.287,,21,Concealing
screen,html.Screen,0_4_1_0_1_22,2021-12-02T15:15:24.933Z,,,,,,,,,,,,,,,,48,,,,,,,,,,,,,,380.3130000238307,,response,,,10,F,,,,,Space,keypress(Space),,,,instrumental,-- -- --- ------ ------- --------- ----------- --------<br>--------- -------- --- ------- -- ------- ---- -- ------<br>-- --- -------- -------- ---------- more ---- ---- ------<br>-- --------- -- ---- -- --- -- --- ------- -- - -----<br>---------- -- -- -- ---- ----- -- ------ -- --- ------<br>-------,187195.20000004768,187194.60000002384,186797.622,186811.40000003576,186814.287,187197.478,,22,more
screen,html.Screen,0_4_1_0_1_23,2021-12-02T15:15:25.181Z,,,,,,,,,,,,,,,,48,,,,,,,,,,,,,,245.32200001191813,,response,,,10,F,,,,,Space,keypress(Space),,,,instrumental,-- -- --- ------ ------- --------- ----------- --------<br>--------- -------- --- ------- -- ------- ---- -- ------<br>-- --- -------- -------- ---------- ---- than ---- ------<br>-- --------- -- ---- -- --- -- --- ------- -- - -----<br>---------- -- -- -- ---- ----- -- ------ -- --- ------<br>-------,187443.40000003576,187442.80000001192,187180.815,187195.30000001192,187197.478,187447.617,,23,than
screen,html.Screen,0_4_1_0_1_24,2021-12-02T15:15:25.581Z,,,,,,,,,,,,,,,,48,,,,,,,,,,,,,,394.9830000238435,,response,,,10,F,,,,,Space,keypress(Space),,,,instrumental,-- -- --- ------ ------- --------- ----------- --------<br>--------- -------- --- ------- -- ------- ---- -- ------<br>-- --- -------- -------- ---------- ---- ---- that ------<br>-- --------- -- ---- -- --- -- --- ------- -- - -----<br>---------- -- -- -- ---- ----- -- ------ -- --- ------<br>-------,187843.20000004768,187842.60000002384,187430.951,187443.60000002384,187447.617,187847.67,,24,that
screen,html.Screen,0_4_1_0_1_25,2021-12-02T15:15:26.069Z,,,,,,,,,,,,,,,,48,,,,,,,,,,,,,,482.93000002382905,,response,,,10,F,,,,,Space,keypress(Space),,,,instrumental,-- -- --- ------ ------- --------- ----------- --------<br>--------- -------- --- ------- -- ------- ---- -- ------<br>-- --- -------- -------- ---------- ---- ---- ---- amount<br>-- --------- -- ---- -- --- -- --- ------- -- - -----<br>---------- -- -- -- ---- ----- -- ------ -- --- ------<br>-------,188331.20000004768,188330.60000002384,187831.003,187843.30000001192,187847.67,188347.565,,25,amount
screen,html.Screen,0_4_1_0_1_26,2021-12-02T15:15:26.517Z,,,,,,,,,,,,,,,,48,,,,,,,,,,,,,,430.9349999999977,,response,,,10,F,,,,,Space,keypress(Space),,,,instrumental,-- -- --- ------ ------- --------- ----------- --------<br>--------- -------- --- ------- -- ------- ---- -- ------<br>-- --- -------- -------- ---------- ---- ---- ---- ------<br>to --------- -- ---- -- --- -- --- ------- -- - -----<br>---------- -- -- -- ---- ----- -- ------ -- --- ------<br>-------,188779.10000002384,188778.5,188330.9,188331.30000001192,188347.565,188780.869,,26,to
screen,html.Screen,0_4_1_0_1_27,2021-12-02T15:15:26.877Z,,,,,,,,,,,,,,,,48,,,,,,,,,,,,,,357.63099999999395,,response,,,10,F,,,,,Space,keypress(Space),,,,instrumental,-- -- --- ------ ------- --------- ----------- --------<br>--------- -------- --- ------- -- ------- ---- -- ------<br>-- --- -------- -------- ---------- ---- ---- ---- ------<br>-- transport -- ---- -- --- -- --- ------- -- - -----<br>---------- -- -- -- ---- ----- -- ------ -- --- ------<br>-------,189139.10000002384,189138.5,188764.204,188779.30000001192,188780.869,189147.588,,27,transport
screen,html.Screen,0_4_1_0_1_28,2021-12-02T15:15:27.205Z,,,,,,,,,,,,,,,,48,,,,,,,,,,,,,,319.01200002385303,,response,,,10,F,,,,,Space,keypress(Space),,,,instrumental,-- -- --- ------ ------- --------- ----------- --------<br>--------- -------- --- ------- -- ------- ---- -- ------<br>-- --- -------- -------- ---------- ---- ---- ---- ------<br>-- --------- it ---- -- --- -- --- ------- -- - -----<br>---------- -- -- -- ---- ----- -- ------ -- --- ------<br>-------,189467.10000002384,189466.60000002384,189130.922,189139.30000001192,189147.588,189480.855,,28,it
screen,html.Screen,0_4_1_0_1_29,2021-12-02T15:15:27.445Z,,,,,,,,,,,,,,,,48,,,,,,,,,,,,,,225.64499999998952,,response,,,10,F,,,,,Space,keypress(Space),,,,instrumental,-- -- --- ------ ------- --------- ----------- --------<br>--------- -------- --- ------- -- ------- ---- -- ------<br>-- --- -------- -------- ---------- ---- ---- ---- ------<br>-- --------- -- into -- --- -- --- ------- -- - -----<br>---------- -- -- -- ---- ----- -- ------ -- --- ------<br>-------,189707.10000002384,189706.5,189464.19,189467.30000001192,189480.855,189714.191,,29,into
screen,html.Screen,0_4_1_0_1_30,2021-12-02T15:15:27.749Z,,,,,,,,,,,,,,,,48,,,,,,,,,,,,,,296.3090000000084,,response,,,10,F,,,,,Space,keypress(Space),,,,instrumental,-- -- --- ------ ------- --------- ----------- --------<br>--------- -------- --- ------- -- ------- ---- -- ------<br>-- --- -------- -------- ---------- ---- ---- ---- ------<br>-- --------- -- ---- or --- -- --- ------- -- - -----<br>---------- -- -- -- ---- ----- -- ------ -- --- ------<br>-------,190011,190010.5,189697.526,189707.30000001192,189714.191,190014.216,,30,or
screen,html.Screen,0_4_1_0_1_31,2021-12-02T15:15:28.157Z,,,,,,,,,,,,,,,,48,,,,,,,,,,,,,,404.2840000000142,,response,,,10,F,,,,,Space,keypress(Space),,,,instrumental,-- -- --- ------ ------- --------- ----------- --------<br>--------- -------- --- ------- -- ------- ---- -- ------<br>-- --- -------- -------- ---------- ---- ---- ---- ------<br>-- --------- -- ---- -- out -- --- ------- -- - -----<br>---------- -- -- -- ---- ----- -- ------ -- --- ------<br>-------,190419.20000004768,190418.5,189997.55,190011.20000004768,190014.216,190430.863,,31,out
screen,html.Screen,0_4_1_0_1_32,2021-12-02T15:15:28.685Z,,,,,,,,,,,,,,,,48,,,,,,,,,,,,,,515.5370000357507,,response,,,10,F,,,,,Space,keypress(Space),,,,instrumental,-- -- --- ------ ------- --------- ----------- --------<br>--------- -------- --- ------- -- ------- ---- -- ------<br>-- --- -------- -------- ---------- ---- ---- ---- ------<br>-- --------- -- ---- -- --- of --- ------- -- - -----<br>---------- -- -- -- ---- ----- -- ------ -- --- ------<br>-------,190947,190946.40000003576,190414.197,190419.40000003576,190430.863,190964.138,,32,of
screen,html.Screen,0_4_1_0_1_33,2021-12-02T15:15:29.029Z,,,,,,,,,,,,,,,,48,,,,,,,,,,,,,,326.3619999999937,,response,,,10,F,,,,,Space,keypress(Space),,,,instrumental,-- -- --- ------ ------- --------- ----------- --------<br>--------- -------- --- ------- -- ------- ---- -- ------<br>-- --- -------- -------- ---------- ---- ---- ---- ------<br>-- --------- -- ---- -- --- -- the ------- -- - -----<br>---------- -- -- -- ---- ----- -- ------ -- --- ------<br>-------,191291.10000002384,191290.5,190947.473,190947.30000001192,190964.138,191297.468,,33,the
screen,html.Screen,0_4_1_0_1_34,2021-12-02T15:15:29.245Z,,,,,,,,,,,,,,,,48,,,,,,,,,,,,,,208.9320000357693,,response,,,10,F,,,,,Space,keypress(Space),,,,instrumental,-- -- --- ------ ------- --------- ----------- --------<br>--------- -------- --- ------- -- ------- ---- -- ------<br>-- --- -------- -------- ---------- ---- ---- ---- ------<br>-- --------- -- ---- -- --- -- --- country -- - -----<br>---------- -- -- -- ---- ----- -- ------ -- --- ------<br>-------,191507,191506.40000003576,191280.803,191291.30000001192,191297.468,191514.102,,34,country
screen,html.Screen,0_4_1_0_1_35,2021-12-02T15:15:29.749Z,,,,,,,,,,,,,,,,48,,,,,,,,,,,,,,496.3979999999865,,response,,,10,F,,,,,Space,keypress(Space),,,,instrumental,-- -- --- ------ ------- --------- ----------- --------<br>--------- -------- --- ------- -- ------- ---- -- ------<br>-- --- -------- -------- ---------- ---- ---- ---- ------<br>-- --------- -- ---- -- --- -- --- ------- is - -----<br>---------- -- -- -- ---- ----- -- ------ -- --- ------<br>-------,192011,192010.5,191497.437,191507.20000004768,191514.102,192014.077,,35,is
screen,html.Screen,0_4_1_0_1_36,2021-12-02T15:15:30.093Z,,,,,,,,,,,,,,,,48,,,,,,,,,,,,,,340.32300003577257,,response,,,10,F,,,,,Space,keypress(Space),,,,instrumental,-- -- --- ------ ------- --------- ----------- --------<br>--------- -------- --- ------- -- ------- ---- -- ------<br>-- --- -------- -------- ---------- ---- ---- ---- ------<br>-- --------- -- ---- -- --- -- --- ------- -- a -----<br>---------- -- -- -- ---- ----- -- ------ -- --- ------<br>-------,192355,192354.40000003576,191997.412,192011.20000004768,192014.077,192364.172,,36,a
screen,html.Screen,0_4_1_0_1_37,2021-12-02T15:15:30.517Z,,,,,,,,,,,,,,,,48,,,,,,,,,,,,,,414.2280000357714,,response,,,10,F,,,,,Space,keypress(Space),,,,instrumental,-- -- --- ------ ------- --------- ----------- --------<br>--------- -------- --- ------- -- ------- ---- -- ------<br>-- --- -------- -------- ---------- ---- ---- ---- ------<br>-- --------- -- ---- -- --- -- --- ------- -- - crime<br>---------- -- -- -- ---- ----- -- ------ -- --- ------<br>-------,192779,192778.40000003576,192347.504,192355.20000004768,192364.172,192780.745,,37,crime
screen,html.Screen,0_4_1_0_1_38,2021-12-02T15:15:31.085Z,,,,,,,,,,,,,,,,48,,,,,,,,,,,,,,565.6550000357674,,response,,,10,F,,,,,Space,keypress(Space),,,,instrumental,-- -- --- ------ ------- --------- ----------- --------<br>--------- -------- --- ------- -- ------- ---- -- ------<br>-- --- -------- -------- ---------- ---- ---- ---- ------<br>-- --------- -- ---- -- --- -- --- ------- -- - -----<br>punishable -- -- -- ---- ----- -- ------ -- --- ------<br>-------,193347,193346.40000003576,192764.08,192779.10000002384,192780.745,193364.015,,38,punishable
screen,html.Screen,0_4_1_0_1_39,2021-12-02T15:15:31.397Z,,,,,,,,,,,,,,,,48,,,,,,,,,,,,,,294.28500001190696,,response,,,10,F,,,,,Space,keypress(Space),,,,instrumental,-- -- --- ------ ------- --------- ----------- --------<br>--------- -------- --- ------- -- ------- ---- -- ------<br>-- --- -------- -------- ---------- ---- ---- ---- ------<br>-- --------- -- ---- -- --- -- --- ------- -- - -----<br>---------- by -- -- ---- ----- -- ------ -- --- ------<br>-------,193658.90000003576,193658.30000001192,193347.35,193347.20000004768,193364.015,193664.065,,39,by
screen,html.Screen,0_4_1_0_1_40,2021-12-02T15:15:31.733Z,,,,,,,,,,,,,,,,48,,,,,,,,,,,,,,330.33500003576046,,response,,,10,F,,,,,Space,keypress(Space),,,,instrumental,-- -- --- ------ ------- --------- ----------- --------<br>--------- -------- --- ------- -- ------- ---- -- ------<br>-- --- -------- -------- ---------- ---- ---- ---- ------<br>-- --------- -- ---- -- --- -- --- ------- -- - -----<br>---------- -- up -- ---- ----- -- ------ -- --- ------<br>-------,193995.20000004768,193994.40000003576,193647.399,193659,193664.065,193997.409,,40,up
screen,html.Screen,0_4_1_0_1_41,2021-12-02T15:15:32.061Z,,,,,,,,,,,,,,,,48,,,,,,,,,,,,,,324.8910000119067,,response,,,10,F,,,,,Space,keypress(Space),,,,instrumental,-- -- --- ------ ------- --------- ----------- --------<br>--------- -------- --- ------- -- ------- ---- -- ------<br>-- --- -------- -------- ---------- ---- ---- ---- ------<br>-- --------- -- ---- -- --- -- --- ------- -- - -----<br>---------- -- -- to ---- ----- -- ------ -- --- ------<br>-------,194322.90000003576,194322.30000001192,193980.743,193995.30000001192,193997.409,194330.687,,41,to
screen,html.Screen,0_4_1_0_1_42,2021-12-02T15:15:32.349Z,,,,,,,,,,,,,,,,48,,,,,,,,,,,,,,279.6130000119156,,response,,,10,F,,,,,Space,keypress(Space),,,,instrumental,-- -- --- ------ ------- --------- ----------- --------<br>--------- -------- --- ------- -- ------- ---- -- ------<br>-- --- -------- -------- ---------- ---- ---- ---- ------<br>-- --------- -- ---- -- --- -- --- ------- -- - -----<br>---------- -- -- -- five ----- -- ------ -- --- ------<br>-------,194610.90000003576,194610.30000001192,194314.022,194323.10000002384,194330.687,194614.047,,42,five
screen,html.Screen,0_4_1_0_1_43,2021-12-02T15:15:32.637Z,,,,,,,,,,,,,,,,48,,,,,,,,,,,,,,284.3530000357714,,response,,,10,F,,,,,Space,keypress(Space),,,,instrumental,-- -- --- ------ ------- --------- ----------- --------<br>--------- -------- --- ------- -- ------- ---- -- ------<br>-- --- -------- -------- ---------- ---- ---- ---- ------<br>-- --------- -- ---- -- --- -- --- ------- -- - -----<br>---------- -- -- -- ---- years -- ------ -- --- ------<br>-------,194898.90000003576,194898.40000003576,194597.381,194611.20000004768,194614.047,194914.064,,43,years
screen,html.Screen,0_4_1_0_1_44,2021-12-02T15:15:32.917Z,,,,,,,,,,,,,,,,48,,,,,,,,,,,,,,264.2360000119079,,response,,,10,F,,,,,Space,keypress(Space),,,,instrumental,-- -- --- ------ ------- --------- ----------- --------<br>--------- -------- --- ------- -- ------- ---- -- ------<br>-- --- -------- -------- ---------- ---- ---- ---- ------<br>-- --------- -- ---- -- --- -- --- ------- -- - -----<br>---------- -- -- -- ---- ----- in ------ -- --- ------<br>-------,195178.80000001192,195178.30000001192,194897.398,194899,194914.064,195180.632,,44,in
screen,html.Screen,0_4_1_0_1_45,2021-12-02T15:15:33.213Z,,,,,,,,,,,,,,,,48,,,,,,,,,,,,,,293.5680000476714,,response,,,10,F,,,,,Space,keypress(Space),,,,instrumental,-- -- --- ------ ------- --------- ----------- --------<br>--------- -------- --- ------- -- ------- ---- -- ------<br>-- --- -------- -------- ---------- ---- ---- ---- ------<br>-- --------- -- ---- -- --- -- --- ------- -- - -----<br>---------- -- -- -- ---- ----- -- prison -- --- ------<br>-------,195474.90000003576,195474.20000004768,195163.968,195179,195180.632,195480.654,,45,prison
screen,html.Screen,0_4_1_0_1_46,2021-12-02T15:15:33.541Z,,,,,,,,,,,,,,,,48,,,,,,,,,,,,,,321.54600004767417,,response,,,10,F,,,,,Space,keypress(Space),,,,instrumental,-- -- --- ------ ------- --------- ----------- --------<br>--------- -------- --- ------- -- ------- ---- -- ------<br>-- --- -------- -------- ---------- ---- ---- ---- ------<br>-- --------- -- ---- -- --- -- --- ------- -- - -----<br>---------- -- -- -- ---- ----- -- ------ in --- ------<br>-------,195802.90000003576,195802.20000004768,195463.989,195475,195480.654,195813.948,,46,in
screen,html.Screen,0_4_1_0_1_47,2021-12-02T15:15:33.949Z,,,,,,,,,,,,,,,,48,,,,,,,,,,,,,,396.25200004767976,,response,,,10,F,,,,,Space,keypress(Space),,,,instrumental,-- -- --- ------ ------- --------- ----------- --------<br>--------- -------- --- ------- -- ------- ---- -- ------<br>-- --- -------- -------- ---------- ---- ---- ---- ------<br>-- --------- -- ---- -- --- -- --- ------- -- - -----<br>---------- -- -- -- ---- ----- -- ------ -- the ------<br>-------,196210.90000003576,196210.20000004768,195797.283,195803,195813.948,196213.94,,47,the
screen,html.Screen,0_4_1_0_1_48,2021-12-02T15:15:34.261Z,,,,,,,,,,,,,,,,48,,,,,,,,,,,,,,308.3600000119186,,response,,,10,F,,,,,Space,keypress(Space),,,,instrumental,-- -- --- ------ ------- --------- ----------- --------<br>--------- -------- --- ------- -- ------- ---- -- ------<br>-- --- -------- -------- ---------- ---- ---- ---- ------<br>-- --------- -- ---- -- --- -- --- ------- -- - -----<br>---------- -- -- -- ---- ----- -- ------ -- --- United<br>-------,196522.80000001192,196522.30000001192,196197.275,196211.10000002384,196213.94,196530.644,,48,United
screen,html.Screen,0_4_1_0_1_49,2021-12-02T15:15:34.709Z,,,,,,,,,,,,,,,,48,,,,,,,,,,,,,,439.6560000119207,,response,,,10,F,,,,,Space,keypress(Space),,,,instrumental,-- -- --- ------ ------- --------- ----------- --------<br>--------- -------- --- ------- -- ------- ---- -- ------<br>-- --- -------- -------- ---------- ---- ---- ---- ------<br>-- --------- -- ---- -- --- -- --- ------- -- - -----<br>---------- -- -- -- ---- ----- -- ------ -- --- ------<br>States.,196970.80000001192,196970.30000001192,196513.978,196523,196530.644,196980.621,,49,States.
Item 10,flow.Loop,0_4_1_0_1,2021-12-02T15:15:34.709Z,,,,,,,,,,,,,,,,,,,,,,,,,,,,,,20555.65800001193,,completion,,,,,,,,,,,,,,,,196971.10000002384,196970.30000001192,176397.977,176399.10000002384,176414.642,196980.621,,,
Question 1,html.Screen,0_4_1_0_2,2021-12-02T15:15:43.671Z,,,,,,,,,,,,,,,,,,,,,,,,,,,true,TRUE,,8951.479000023828,,response,,,10,F,,,,,TRUE,click #choice-1,,,,instrumental,,205932.80000001192,205932.10000002384,196963.955,196971.30000001192,196980.621,205947.379,,,
Question 2,html.Screen,0_4_1_0_3,2021-12-02T15:15:48.844Z,,,,,,,,,,,,,,,,,,,,,,,,,,,true,TRUE,,5157.5210000357765,,response,,,10,F,,,,,TRUE,click #choice-1,,,,instrumental,,211105.60000002384,211104.90000003576,205930.694,205932.90000003576,205947.379,211113.255,,,
Item 10,flow.Sequence,0_4_1_0,2021-12-02T15:15:48.844Z,,,,,,,,,,,,,,,,,,,,,,,,,,,,,,41690.46200003577,,completion,,,,,,,,,,,,,,,,211105.90000003576,211104.90000003576,169397.773,169399,169414.438,211113.255,,,
Holding screen,html.Screen,0_4_1_1_0,2021-12-02T15:15:55.836Z,,,,,,,,,,,,,,,,,,,,,,,,,,,,,,6999.927999999985,,timeout,,,,,,,,,,,,,,,,218098,218096.517,211096.598,211106.10000002384,211113.255,218113.183,,,
screen,html.Screen,0_4_1_1_1_0,2021-12-02T15:15:57.020Z,,,,,,,,,,,,,,,,11,,,,,,,,,,,,,,1168.5170000476937,,response,,,4,F,,,,,Space,keypress(Space),,,,instrumental,Known -- ---- --- -- --- -------- ------------ ---------- --<br>- ------- ------ --------- -- ------------ -- --- ---- -----<br>------ ---- ---- ------ ------ ------- --- ----- ---------<br>---- --- -------- -------- --- --- -- ------- --- --- -----<br>-- --- ------ ------- --- --- -------- ---- --------- --<br>---------- -- -------- ----------------,219282.40000003576,219281.70000004768,218096.517,218098.40000003576,218113.183,219296.35,,0,Known
screen,html.Screen,0_4_1_1_1_1,2021-12-02T15:15:57.364Z,,,,,,,,,,,,,,,,11,,,,,,,,,,,,,,329.1499999999942,,response,,,4,F,,,,,Space,keypress(Space),,,,instrumental,----- as ---- --- -- --- -------- ------------ ---------- --<br>- ------- ------ --------- -- ------------ -- --- ---- -----<br>------ ---- ---- ------ ------ ------- --- ----- ---------<br>---- --- -------- -------- --- --- -- ------- --- --- -----<br>-- --- ------ ------- --- --- -------- ---- --------- --<br>---------- -- -------- ----------------,219626,219625.5,219279.685,219282.60000002384,219296.35,219629.693,,1,as
screen,html.Screen,0_4_1_1_1_2,2021-12-02T15:15:57.652Z,,,,,,,,,,,,,,,,11,,,,,,,,,,,,,,283.7070000357635,,response,,,4,F,,,,,Space,keypress(Space),,,,instrumental,----- -- Rapa --- -- --- -------- ------------ ---------- --<br>- ------- ------ --------- -- ------------ -- --- ---- -----<br>------ ---- ---- ------ ------ ------- --- ----- ---------<br>---- --- -------- -------- --- --- -- ------- --- --- -----<br>-- --- ------ ------- --- --- -------- ---- --------- --<br>---------- -- -------- ----------------,219914,219913.40000003576,219613.028,219626.20000004768,219629.693,219929.781,,2,Rapa
