sender,sender_type,sender_id,timestamp,meta,,Blues,Classical,Country,Dance,Electronic,Folk,Gospel,Hip-Hop,Jazz,Latin,Musical/Film,New-age,Pop,Provo_ID,R&B,Rap,Reggae,Religious,Rock,Soul,Swing,Traditional,age,artist_name,correct,correctResponse,distraction,duration,education,ended_on,familiarity,gender,item,list,music_frequency,offensiveness,pleasantness,preference,response,response_action,snippet_file,song_name,song_rating,sound,text,time_commit,time_end,time_render,time_run,time_show,time_switch,url,word,word_ID
Instructions,html.Page,0_0,2021-11-12T11:54:33.216Z,"{""labjs_version"":""20.2.3"",""labjs_build"":{""flavor"":""production"",""commit"":""7ea907d66ca8aeef8054924ca5d82ffbe11e34e5""},""location"":""https://run.pavlovia.org/mvasilev/lab_music_b/"",""userAgent"":""Mozilla/5.0 (Windows NT 6.1; Win64; x64) AppleWebKit/537.36 (KHTML, like Gecko) Chrome/95.0.4638.69 Safari/537.36"",""platform"":""Win32"",""language"":""en-US"",""locale"":""en-US"",""timeZone"":""Europe/London"",""timezoneOffset"":0,""screen_width"":1920,""screen_height"":1080,""scroll_width"":1920,""scroll_height"":959,""window_innerWidth"":1920,""window_innerHeight"":1007,""devicePixelRatio"":1}",,,,,,,,,,,,,,,,,,,,,,,,,,,,,23953.213999976157,,form submission,,,,,,,,,,,,,,,,33317,33315.89999997616,9329.344,9348.299999952316,9362.686,33316.211,{},,
Headphones,html.Page,0_1,2021-11-12T11:54:39.138Z,,,,,,,,,,,,,,,,,,,,,,,,,,,,,,5922.188999976155,,form submission,,,,,,,,,,,,,,,,39239,39238.39999997616,33299.586,33317.699999928474,33316.211,39254.111,,,
Holding screen,html.Screen,0_2_0_0,2021-11-12T11:54:49.146Z,,,,,,,,,,,,,,,,,,,,,,,,,,,,,,10002.569000000003,,timeout,,,,,,,,,,,,,,,,49246.799999952316,49240.01,39237.44,39239.699999928474,39254.111,49256.68,,,
screen,html.Screen,0_2_0_1_0,2021-11-12T11:54:50.417Z,,,,,,,,,,,,,,,,53,,,,,,,,,,,,,,1260.0199999284741,,response,,,99,,,,,,Space,keypress(Space),,,,,When -- ----- -- ------ - ------- --- ----------<br>------------- ------ ------ ---- ---- ------- ----- -- ----<br>-------- ------- -- ---------- --- - --- ----- ----- ----<br>---- --- --- ----- --- ---- ---- ------- ----- ---- -------<br>--- --- -- ----- -- --- ---- -- --- ---- -- ------ ------<br>--- ----- -- ----,50518.10000002384,50516.699999928474,49240.01,49247.199999928474,49256.68,50523.969,,0,When
screen,html.Screen,0_2_0_1_1,2021-11-12T11:54:51.521Z,,,,,,,,,,,,,,,,53,,,,,,,,,,,,,,1096.730999928477,,response,,,99,,,,,,Space,keypress(Space),,,,,---- it ----- -- ------ - ------- --- ----------<br>------------- ------ ------ ---- ---- ------- ----- -- ----<br>-------- ------- -- ---------- --- - --- ----- ----- ----<br>---- --- --- ----- --- ---- ---- ------- ----- ---- -------<br>--- --- -- ----- -- --- ---- -- --- ---- -- ------ ------<br>--- ----- -- ----,51621.60000002384,51620.699999928474,50507.297,50518.5,50523.969,51624.04,,1,it
screen,html.Screen,0_2_0_1_2,2021-11-12T11:54:52.409Z,,,,,,,,,,,,,,,,53,,,,,,,,,,,,,,884.4599999999991,,response,,,99,,,,,,Space,keypress(Space),,,,,---- -- comes -- ------ - ------- --- ----------<br>------------- ------ ------ ---- ---- ------- ----- -- ----<br>-------- ------- -- ---------- --- - --- ----- ----- ----<br>---- --- --- ----- --- ---- ---- ------- ----- ---- -------<br>--- --- -- ----- -- --- ---- -- --- ---- -- ------ ------<br>--- ----- -- ----,52509.39999997616,52508.5,51607.37,51621.799999952316,51624.04,52524.377,,2,comes
screen,html.Screen,0_2_0_1_3,2021-11-12T11:54:53.273Z,,,,,,,,,,,,,,,,53,,,,,,,,,,,,,,848.2230000238415,,response,,,99,,,,,,Space,keypress(Space),,,,,---- -- ----- to ------ - ------- --- ----------<br>------------- ------ ------ ---- ---- ------- ----- -- ----<br>-------- ------- -- ---------- --- - --- ----- ----- ----<br>---- --- --- ----- --- ---- ---- ------- ----- ---- -------<br>--- --- -- ----- -- --- ---- -- --- ---- -- ------ ------<br>--- ----- -- ----,53373.5,53372.60000002384,52507.706,52509.799999952316,52524.377,53391.16,,3,to
screen,html.Screen,0_2_0_1_4,2021-11-12T11:54:54.050Z,,,,,,,,,,,,,,,,53,,,,,,,,,,,,,,757.7399999761546,,response,,,99,,,,,,Space,keypress(Space),,,,,---- -- ----- -- having - ------- --- ----------<br>------------- ------ ------ ---- ---- ------- ----- -- ----<br>-------- ------- -- ---------- --- - --- ----- ----- ----<br>---- --- --- ----- --- ---- ---- ------- ----- ---- -------<br>--- --- -- ----- -- --- ---- -- --- ---- -- ------ ------<br>--- ----- -- ----,54150.10000002384,54148.89999997616,53374.49,53374,53391.16,54158.184,,4,having
screen,html.Screen,0_2_0_1_5,2021-11-12T11:54:54.833Z,,,,,,,,,,,,,,,,53,,,,,,,,,,,,,,774.3159999999989,,response,,,99,,,,,,Space,keypress(Space),,,,,---- -- ----- -- ------ a ------- --- ----------<br>------------- ------ ------ ---- ---- ------- ----- -- ----<br>-------- ------- -- ---------- --- - --- ----- ----- ----<br>---- --- --- ----- --- ---- ---- ------- ----- ---- -------<br>--- --- -- ----- -- --- ---- -- --- ---- -- ------ ------<br>--- ----- -- ----,54933.39999997616,54932.5,54141.513,54150.5,54158.184,54941.705,,5,a
screen,html.Screen,0_2_0_1_6,2021-11-12T11:54:55.545Z,,,,,,,,,,,,,,,,53,,,,,,,,,,,,,,702.7949999999983,,response,,,99,,,,,,Space,keypress(Space),,,,,---- -- ----- -- ------ - lasting --- ----------<br>------------- ------ ------ ---- ---- ------- ----- -- ----<br>-------- ------- -- ---------- --- - --- ----- ----- ----<br>---- --- --- ----- --- ---- ---- ------- ----- ---- -------<br>--- --- -- ----- -- --- ---- -- --- ---- -- ------ ------<br>--- ----- -- ----,55645.39999997616,55644.5,54925.034,54933.89999997616,54941.705,55658.374,,6,lasting
screen,html.Screen,0_2_0_1_7,2021-11-12T11:54:56.377Z,,,,,,,,,,,,,,,,53,,,,,,,,,,,,,,818.0259999761547,,response,,,99,,,,,,Space,keypress(Space),,,,,---- -- ----- -- ------ - ------- and ----------<br>------------- ------ ------ ---- ---- ------- ----- -- ----<br>-------- ------- -- ---------- --- - --- ----- ----- ----<br>---- --- --- ----- --- ---- ---- ------- ----- ---- -------<br>--- --- -- ----- -- --- ---- -- --- ---- -- ------ ------<br>--- ----- -- ----,56477.39999997616,56476.39999997616,55641.705,55645.699999928474,55658.374,56492.151,,7,and
screen,html.Screen,0_2_0_1_8,2021-11-12T11:54:57.345Z,,,,,,,,,,,,,,,,53,,,,,,,,,,,,,,952.2489999761601,,response,,,99,,,,,,Space,keypress(Space),,,,,---- -- ----- -- ------ - ------- --- fulfilling<br>------------- ------ ------ ---- ---- ------- ----- -- ----<br>-------- ------- -- ---------- --- - --- ----- ----- ----<br>---- --- --- ----- --- ---- ---- ------- ----- ---- -------<br>--- --- -- ----- -- --- ---- -- --- ---- -- ------ ------<br>--- ----- -- ----,57445.5,57444.39999997616,56475.48,56477.60000002384,56492.151,57459.042,,8,fulfilling
screen,html.Screen,0_2_0_1_9,2021-11-12T11:54:58.073Z,,,,,,,,,,,,,,,,53,,,,,,,,,,,,,,713.3579999761569,,response,,,99,,,,,,Space,keypress(Space),,,,,"---- -- ----- -- ------ - ------- --- ----------<br>relationship, ------ ------ ---- ---- ------- ----- -- ----<br>-------- ------- -- ---------- --- - --- ----- ----- ----<br>---- --- --- ----- --- ---- ---- ------- ----- ---- -------<br>--- --- -- ----- -- --- ---- -- --- ---- -- ------ ------<br>--- ----- -- ----",58173.299999952316,58172.39999997616,57442.371,57445.799999952316,57459.042,58175.898,,9,"relationship,"
screen,html.Screen,0_2_0_1_10,2021-11-12T11:54:58.729Z,,,,,,,,,,,,,,,,53,,,,,,,,,,,,,,652.4019999523152,,response,,,99,,,,,,Space,keypress(Space),,,,,---- -- ----- -- ------ - ------- --- ----------<br>------------- common ------ ---- ---- ------- ----- -- ----<br>-------- ------- -- ---------- --- - --- ----- ----- ----<br>---- --- --- ----- --- ---- ---- ------- ----- ---- -------<br>--- --- -- ----- -- --- ---- -- --- ---- -- ------ ------<br>--- ----- -- ----,58829.199999928474,58828.299999952316,58159.227,58173.60000002384,58175.898,58842.754,,10,common
screen,html.Screen,0_2_0_1_11,2021-11-12T11:55:01.987Z,,,,,,,,,,,,,,,,53,,,,,,,,,,,,,,3241.4459999284736,,response,,,99,,,,,,Space,keypress(Space),,,,,---- -- ----- -- ------ - ------- --- ----------<br>------------- ------ wisdom ---- ---- ------- ----- -- ----<br>-------- ------- -- ---------- --- - --- ----- ----- ----<br>---- --- --- ----- --- ---- ---- ------- ----- ---- -------<br>--- --- -- ----- -- --- ---- -- --- ---- -- ------ ------<br>--- ----- -- ----,62085.199999928474,62084.199999928474,58826.083,58829.5,58842.754,62093.391,,11,wisdom
screen,html.Screen,0_2_0_1_12,2021-11-12T11:55:02.587Z,,,,,,,,,,,,,,,,53,,,,,,,,,,,,,,590.8089999284712,,response,,,99,,,,,,Space,keypress(Space),,,,,---- -- ----- -- ------ - ------- --- ----------<br>------------- ------ ------ says ---- ------- ----- -- ----<br>-------- ------- -- ---------- --- - --- ----- ----- ----<br>---- --- --- ----- --- ---- ---- ------- ----- ---- -------<br>--- --- -- ----- -- --- ---- -- --- ---- -- ------ ------<br>--- ----- -- ----,62685,62684.199999928474,62076.721,62085.39999997616,62093.391,62693.767,,12,says
screen,html.Screen,0_2_0_1_13,2021-11-12T11:55:03.123Z,,,,,,,,,,,,,,,,53,,,,,,,,,,,,,,526.333000023842,,response,,,99,,,,,,Space,keypress(Space),,,,,---- -- ----- -- ------ - ------- --- ----------<br>------------- ------ ------ ---- that ------- ----- -- ----<br>-------- ------- -- ---------- --- - --- ----- ----- ----<br>---- --- --- ----- --- ---- ---- ------- ----- ---- -------<br>--- --- -- ----- -- --- ---- -- --- ---- -- ------ ------<br>--- ----- -- ----,63221,63220.10000002384,62677.096,62685.39999997616,62693.767,63227.142,,13,that
screen,html.Screen,0_2_0_1_14,2021-11-12T11:55:03.643Z,,,,,,,,,,,,,,,,53,,,,,,,,,,,,,,512.958000023842,,response,,,99,,,,,,Space,keypress(Space),,,,,---- -- ----- -- ------ - ------- --- ----------<br>------------- ------ ------ ---- ---- feeling ----- -- ----<br>-------- ------- -- ---------- --- - --- ----- ----- ----<br>---- --- --- ----- --- ---- ---- ------- ----- ---- -------<br>--- --- -- ----- -- --- ---- -- --- ---- -- ------ ------<br>--- ----- -- ----,63741,63740.10000002384,63210.472,63221.39999997616,63227.142,63744.202,,14,feeling
screen,html.Screen,0_2_0_1_15,2021-11-12T11:55:04.051Z,,,,,,,,,,,,,,,,53,,,,,,,,,,,,,,403.89800002384436,,response,,,99,,,,,,Space,keypress(Space),,,,,---- -- ----- -- ------ - ------- --- ----------<br>------------- ------ ------ ---- ---- ------- close -- ----<br>-------- ------- -- ---------- --- - --- ----- ----- ----<br>---- --- --- ----- --- ---- ---- ------- ----- ---- -------<br>--- --- -- ----- -- --- ---- -- --- ---- -- ------ ------<br>--- ----- -- ----,64149,64148.10000002384,63727.529,63741.39999997616,63744.202,64160.787,,15,close
screen,html.Screen,0_2_0_1_16,2021-11-12T11:55:04.379Z,,,,,,,,,,,,,,,,53,,,,,,,,,,,,,,315.81300002384523,,response,,,99,,,,,,Space,keypress(Space),,,,,---- -- ----- -- ------ - ------- --- ----------<br>------------- ------ ------ ---- ---- ------- ----- to ----<br>-------- ------- -- ---------- --- - --- ----- ----- ----<br>---- --- --- ----- --- ---- ---- ------- ----- ---- -------<br>--- --- -- ----- -- --- ---- -- --- ---- -- ------ ------<br>--- ----- -- ----,64477.39999997616,64476.60000002384,64144.117,64149.299999952316,64160.787,64494.285,,16,to
screen,html.Screen,0_2_0_1_17,2021-11-12T11:55:04.819Z,,,,,,,,,,,,,,,,53,,,,,,,,,,,,,,421.81500002383837,,response,,,99,,,,,,Space,keypress(Space),,,,,---- -- ----- -- ------ - ------- --- ----------<br>------------- ------ ------ ---- ---- ------- ----- -- your<br>-------- ------- -- ---------- --- - --- ----- ----- ----<br>---- --- --- ----- --- ---- ---- ------- ----- ---- -------<br>--- --- -- ----- -- --- ---- -- --- ---- -- ------ ------<br>--- ----- -- ----,64917,64916.10000002384,64477.614,64477.799999952316,64494.285,64927.746,,17,your
screen,html.Screen,0_2_0_1_18,2021-11-12T11:55:05.195Z,,,,,,,,,,,,,,,,53,,,,,,,,,,,,,,364.3540000238427,,response,,,99,,,,,,Space,keypress(Space),,,,,---- -- ----- -- ------ - ------- --- ----------<br>------------- ------ ------ ---- ---- ------- ----- -- ----<br>romantic ------- -- ---------- --- - --- ----- ----- ----<br>---- --- --- ----- --- ---- ---- ------- ----- ---- -------<br>--- --- -- ----- -- --- ---- -- --- ---- -- ------ ------<br>--- ----- -- ----,65292.89999997616,65292.10000002384,64911.075,64917.299999952316,64927.746,65294.407,,18,romantic
screen,html.Screen,0_2_0_1_19,2021-11-12T11:55:05.595Z,,,,,,,,,,,,,,,,53,,,,,,,,,,,,,,397.59300000000076,,response,,,99,,,,,,Space,keypress(Space),,,,,---- -- ----- -- ------ - ------- --- ----------<br>------------- ------ ------ ---- ---- ------- ----- -- ----<br>-------- partner -- ---------- --- - --- ----- ----- ----<br>---- --- --- ----- --- ---- ---- ------- ----- ---- -------<br>--- --- -- ----- -- --- ---- -- --- ---- -- ------ ------<br>--- ----- -- ----,65692.79999995232,65692,65277.738,65293.199999928474,65294.407,65694.59,,19,partner
screen,html.Screen,0_2_0_1_20,2021-11-12T11:55:05.955Z,,,,,,,,,,,,,,,,53,,,,,,,,,,,,,,357.4100000000035,,response,,,99,,,,,,Space,keypress(Space),,,,,---- -- ----- -- ------ - ------- --- ----------<br>------------- ------ ------ ---- ---- ------- ----- -- ----<br>-------- ------- is ---------- --- - --- ----- ----- ----<br>---- --- --- ----- --- ---- ---- ------- ----- ---- -------<br>--- --- -- ----- -- --- ---- -- --- ---- -- ------ ------<br>--- ----- -- ----,66052.89999997616,66052,65677.919,65693.19999992847,65694.59,66061.38,,20,is
screen,html.Screen,0_2_0_1_21,2021-11-12T11:55:06.715Z,,,,,,,,,,,,,,,,53,,,,,,,,,,,,,,750.7200000238372,,response,,,99,,,,,,Space,keypress(Space),,,,,---- -- ----- -- ------ - ------- --- ----------<br>------------- ------ ------ ---- ---- ------- ----- -- ----<br>-------- ------- -- paramount. --- - --- ----- ----- ----<br>---- --- --- ----- --- ---- ---- ------- ----- ---- -------<br>--- --- -- ----- -- --- ---- -- --- ---- -- ------ ------<br>--- ----- -- ----,66812.79999995232,66812.10000002384,66044.709,66053.19999992847,66061.38,66828.168,,21,paramount.
screen,html.Screen,0_2_0_1_22,2021-11-12T11:55:07.171Z,,,,,,,,,,,,,,,,53,,,,,,,,,,,,,,439.731999976153,,response,,,99,,,,,,Space,keypress(Space),,,,,---- -- ----- -- ------ - ------- --- ----------<br>------------- ------ ------ ---- ---- ------- ----- -- ----<br>-------- ------- -- ---------- But - --- ----- ----- ----<br>---- --- --- ----- --- ---- ---- ------- ----- ---- -------<br>--- --- -- ----- -- --- ---- -- --- ---- -- ------ ------<br>--- ----- -- ----,67268.79999995232,67267.89999997616,66811.498,66813.39999997616,66828.168,67278.282,,22,But
screen,html.Screen,0_2_0_1_23,2021-11-12T11:55:07.482Z,,,,,,,,,,,,,,,,53,,,,,,,,,,,,,,301.7179999999935,,response,,,99,,,,,,Space,keypress(Space),,,,,---- -- ----- -- ------ - ------- --- ----------<br>------------- ------ ------ ---- ---- ------- ----- -- ----<br>-------- ------- -- ---------- --- a --- ----- ----- ----<br>---- --- --- ----- --- ---- ---- ------- ----- ---- -------<br>--- --- -- ----- -- --- ---- -- --- ---- -- ------ ------<br>--- ----- -- ----,67580.79999995232,67580,67261.612,67269.10000002384,67278.282,67595.11,,23,a
screen,html.Screen,0_2_0_1_24,2021-11-12T11:55:07.882Z,,,,,,,,,,,,,,,,53,,,,,,,,,,,,,,384.78999997615756,,response,,,99,,,,,,Space,keypress(Space),,,,,---- -- ----- -- ------ - ------- --- ----------<br>------------- ------ ------ ---- ---- ------- ----- -- ----<br>-------- ------- -- ---------- --- - new ----- ----- ----<br>---- --- --- ----- --- ---- ---- ------- ----- ---- -------<br>--- --- -- ----- -- --- ---- -- --- ---- -- ------ ------<br>--- ----- -- ----,67980.79999995232,67979.89999997616,67578.439,67581.10000002384,67595.11,67995.222,,24,new
screen,html.Screen,0_2_0_1_25,2021-11-12T11:55:08.490Z,,,,,,,,,,,,,,,,53,,,,,,,,,,,,,,592.7780000000057,,response,,,99,,,,,,Space,keypress(Space),,,,,---- -- ----- -- ------ - ------- --- ----------<br>------------- ------ ------ ---- ---- ------- ----- -- ----<br>-------- ------- -- ---------- --- - --- study ----- ----<br>---- --- --- ----- --- ---- ---- ------- ----- ---- -------<br>--- --- -- ----- -- --- ---- -- --- ---- -- ------ ------<br>--- ----- -- ----,68588.79999995232,68588,67978.551,67981,67995.222,68595.316,,25,study
screen,html.Screen,0_2_0_1_26,2021-11-12T11:55:08.882Z,,,,,,,,,,,,,,,,53,,,,,,,,,,,,,,384.583999976152,,response,,,99,,,,,,Space,keypress(Space),,,,,---- -- ----- -- ------ - ------- --- ----------<br>------------- ------ ------ ---- ---- ------- ----- -- ----<br>-------- ------- -- ---------- --- - --- ----- finds ----<br>---- --- --- ----- --- ---- ---- ------- ----- ---- -------<br>--- --- -- ----- -- --- ---- -- --- ---- -- ------ ------<br>--- ----- -- ----,68980.69999992847,68979.89999997616,68578.646,68589.10000002384,68595.316,68995.508,,26,finds
screen,html.Screen,0_2_0_1_27,2021-11-12T11:55:09.378Z,,,,,,,,,,,,,,,,53,,,,,,,,,,,,,,480.3919999761565,,response,,,99,,,,,,Space,keypress(Space),,,,,---- -- ----- -- ------ - ------- --- ----------<br>------------- ------ ------ ---- ---- ------- ----- -- ----<br>-------- ------- -- ---------- --- - --- ----- ----- that<br>---- --- --- ----- --- ---- ---- ------- ----- ---- -------<br>--- --- -- ----- -- --- ---- -- --- ---- -- ------ ------<br>--- ----- -- ----,69476.60000002384,69475.89999997616,68978.837,68981.10000002384,68995.508,69478.885,,27,that
screen,html.Screen,0_2_0_1_28,2021-11-12T11:55:09.794Z,,,,,,,,,,,,,,,,53,,,,,,,,,,,,,,412.9149999523215,,response,,,99,,,,,,Space,keypress(Space),,,,,---- -- ----- -- ------ - ------- --- ----------<br>------------- ------ ------ ---- ---- ------- ----- -- ----<br>-------- ------- -- ---------- --- - --- ----- ----- ----<br>it's --- --- ----- --- ---- ---- ------- ----- ---- -------<br>--- --- -- ----- -- --- ---- -- --- ---- -- ------ ------<br>--- ----- -- ----,69892.60000002384,69891.79999995232,69462.215,69477,69478.885,69895.751,,28,it's
screen,html.Screen,0_2_0_1_29,2021-11-12T11:55:10.106Z,,,,,,,,,,,,,,,,53,,,,,,,,,,,,,,308.1489999761543,,response,,,99,,,,,,Space,keypress(Space),,,,,---- -- ----- -- ------ - ------- --- ----------<br>------------- ------ ------ ---- ---- ------- ----- -- ----<br>-------- ------- -- ---------- --- - --- ----- ----- ----<br>---- not --- ----- --- ---- ---- ------- ----- ---- -------<br>--- --- -- ----- -- --- ---- -- --- ---- -- ------ ------<br>--- ----- -- ----,70204.60000002384,70203.89999997616,69879.08,69892.89999997616,69895.751,70212.449,,29,not
screen,html.Screen,0_2_0_1_30,2021-11-12T11:55:10.530Z,,,,,,,,,,,,,,,,53,,,,,,,,,,,,,,415.35099995232304,,response,,,99,,,,,,Space,keypress(Space),,,,,---- -- ----- -- ------ - ------- --- ----------<br>------------- ------ ------ ---- ---- ------- ----- -- ----<br>-------- ------- -- ---------- --- - --- ----- ----- ----<br>---- --- how ----- --- ---- ---- ------- ----- ---- -------<br>--- --- -- ----- -- --- ---- -- --- ---- -- ------ ------<br>--- ----- -- ----,70628.5,70627.79999995232,70195.779,70204.79999995232,70212.449,70645.89,,30,how
screen,html.Screen,0_2_0_1_31,2021-11-12T11:55:11.282Z,,,,,,,,,,,,,,,,53,,,,,,,,,,,,,,733.9099999523169,,response,,,99,,,,,,Space,keypress(Space),,,,,---- -- ----- -- ------ - ------- --- ----------<br>------------- ------ ------ ---- ---- ------- ----- -- ----<br>-------- ------- -- ---------- --- - --- ----- ----- ----<br>---- --- --- close --- ---- ---- ------- ----- ---- -------<br>--- --- -- ----- -- --- ---- -- --- ---- -- ------ ------<br>--- ----- -- ----,71380.60000002384,71379.79999995232,70629.22,70628.89999997616,70645.89,71396.064,,31,close
screen,html.Screen,0_2_0_1_32,2021-11-12T11:55:11.674Z,,,,,,,,,,,,,,,,53,,,,,,,,,,,,,,375.63599992847594,,response,,,99,,,,,,Space,keypress(Space),,,,,---- -- ----- -- ------ - ------- --- ----------<br>------------- ------ ------ ---- ---- ------- ----- -- ----<br>-------- ------- -- ---------- --- - --- ----- ----- ----<br>---- --- --- ----- you ---- ---- ------- ----- ---- -------<br>--- --- -- ----- -- --- ---- -- --- ---- -- ------ ------<br>--- ----- -- ----,71772.5,71771.69999992847,71379.394,71380.89999997616,71396.064,71779.598,,32,you
screen,html.Screen,0_2_0_1_33,2021-11-12T11:55:11.978Z,,,,,,,,,,,,,,,,53,,,,,,,,,,,,,,296.1019999284763,,response,,,99,,,,,,Space,keypress(Space),,,,,---- -- ----- -- ------ - ------- --- ----------<br>------------- ------ ------ ---- ---- ------- ----- -- ----<br>-------- ------- -- ---------- --- - --- ----- ----- ----<br>---- --- --- ----- --- feel ---- ------- ----- ---- -------<br>--- --- -- ----- -- --- ---- -- --- ---- -- ------ ------<br>--- ----- -- ----,72076.79999995232,72075.69999992847,71762.927,71772.89999997616,71779.598,72079.599,,33,feel
screen,html.Screen,0_2_0_1_34,2021-11-12T11:55:12.378Z,,,,,,,,,,,,,,,,53,,,,,,,,,,,,,,396.10099992847245,,response,,,99,,,,,,Space,keypress(Space),,,,,---- -- ----- -- ------ - ------- --- ----------<br>------------- ------ ------ ---- ---- ------- ----- -- ----<br>-------- ------- -- ---------- --- - --- ----- ----- ----<br>---- --- --- ----- --- ---- that ------- ----- ---- -------<br>--- --- -- ----- -- --- ---- -- --- ---- -- ------ ------<br>--- ----- -- ----,72476.5,72475.69999992847,72062.929,72077,72079.599,72479.761,,34,that
screen,html.Screen,0_2_0_1_35,2021-11-12T11:55:12.762Z,,,,,,,,,,,,,,,,53,,,,,,,,,,,,,,379.9389999284758,,response,,,99,,,,,,Space,keypress(Space),,,,,---- -- ----- -- ------ - ------- --- ----------<br>------------- ------ ------ ---- ---- ------- ----- -- ----<br>-------- ------- -- ---------- --- - --- ----- ----- ----<br>---- --- --- ----- --- ---- ---- matters ----- ---- -------<br>--- --- -- ----- -- --- ---- -- --- ---- -- ------ ------<br>--- ----- -- ----,72860.5,72859.69999992847,72463.09,72476.79999995232,72479.761,72863.199,,35,matters
screen,html.Screen,0_2_0_1_36,2021-11-12T11:55:13.186Z,,,,,,,,,,,,,,,,53,,,,,,,,,,,,,,420.5009999284812,,response,,,99,,,,,,Space,keypress(Space),,,,,"---- -- ----- -- ------ - ------- --- ----------<br>------------- ------ ------ ---- ---- ------- ----- -- ----<br>-------- ------- -- ---------- --- - --- ----- ----- ----<br>---- --- --- ----- --- ---- ---- ------- most, ---- -------<br>--- --- -- ----- -- --- ---- -- --- ---- -- ------ ------<br>--- ----- -- ----",73284.39999997616,73283.69999992847,72846.528,72860.69999992847,72863.199,73296.607,,36,"most,"
screen,html.Screen,0_2_0_1_37,2021-11-12T11:55:13.610Z,,,,,,,,,,,,,,,,53,,,,,,,,,,,,,,411.0929999284708,,response,,,99,,,,,,Space,keypress(Space),,,,,---- -- ----- -- ------ - ------- --- ----------<br>------------- ------ ------ ---- ---- ------- ----- -- ----<br>-------- ------- -- ---------- --- - --- ----- ----- ----<br>---- --- --- ----- --- ---- ---- ------- ----- it's -------<br>--- --- -- ----- -- --- ---- -- --- ---- -- ------ ------<br>--- ----- -- ----,73708.5,73707.69999992847,73279.937,73284.69999992847,73296.607,73713.415,,37,it's
screen,html.Screen,0_2_0_1_38,2021-11-12T11:55:14.066Z,,,,,,,,,,,,,,,,53,,,,,,,,,,,,,,450.28499992848083,,response,,,99,,,,,,Space,keypress(Space),,,,,---- -- ----- -- ------ - ------- --- ----------<br>------------- ------ ------ ---- ---- ------- ----- -- ----<br>-------- ------- -- ---------- --- - --- ----- ----- ----<br>---- --- --- ----- --- ---- ---- ------- ----- ---- whether<br>--- --- -- ----- -- --- ---- -- --- ---- -- ------ ------<br>--- ----- -- ----,74164.5,74163.69999992847,73696.744,73708.69999992847,73713.415,74180.169,,38,whether
screen,html.Screen,0_2_0_1_39,2021-11-12T11:55:14.530Z,,,,,,,,,,,,,,,,53,,,,,,,,,,,,,,447.8310000000056,,response,,,99,,,,,,Space,keypress(Space),,,,,---- -- ----- -- ------ - ------- --- ----------<br>------------- ------ ------ ---- ---- ------- ----- -- ----<br>-------- ------- -- ---------- --- - --- ----- ----- ----<br>---- --- --- ----- --- ---- ---- ------- ----- ---- -------<br>you --- -- ----- -- --- ---- -- --- ---- -- ------ ------<br>--- ----- -- ----,74628.79999995232,74628,74163.499,74164.69999992847,74180.169,74630.182,,39,you
screen,html.Screen,0_2_0_1_40,2021-11-12T11:55:14.930Z,,,,,,,,,,,,,,,,53,,,,,,,,,,,,,,397.41800002384116,,response,,,99,,,,,,Space,keypress(Space),,,,,---- -- ----- -- ------ - ------- --- ----------<br>------------- ------ ------ ---- ---- ------- ----- -- ----<br>-------- ------- -- ---------- --- - --- ----- ----- ----<br>---- --- --- ----- --- ---- ---- ------- ----- ---- -------<br>--- are -- ----- -- --- ---- -- --- ---- -- ------ ------<br>--- ----- -- ----,75028.39999997616,75027.60000002384,74613.513,74629,74630.182,75030.492,,40,are
screen,html.Screen,0_2_0_1_41,2021-11-12T11:55:15.322Z,,,,,,,,,,,,,,,,53,,,,,,,,,,,,,,389.1080000238435,,response,,,99,,,,,,Space,keypress(Space),,,,,---- -- ----- -- ------ - ------- --- ----------<br>------------- ------ ------ ---- ---- ------- ----- -- ----<br>-------- ------- -- ---------- --- - --- ----- ----- ----<br>---- --- --- ----- --- ---- ---- ------- ----- ---- -------<br>--- --- as ----- -- --- ---- -- --- ---- -- ------ ------<br>--- ----- -- ----,75420.39999997616,75419.60000002384,75013.82,75028.60000002384,75030.492,75430.552,,41,as
screen,html.Screen,0_2_0_1_42,2021-11-12T11:55:15.794Z,,,,,,,,,,,,,,,,53,,,,,,,,,,,,,,460.94800000000396,,response,,,99,,,,,,Space,keypress(Space),,,,,---- -- ----- -- ------ - ------- --- ----------<br>------------- ------ ------ ---- ---- ------- ----- -- ----<br>-------- ------- -- ---------- --- - --- ----- ----- ----<br>---- --- --- ----- --- ---- ---- ------- ----- ---- -------<br>--- --- -- close -- --- ---- -- --- ---- -- ------ ------<br>--- ----- -- ----,75892.19999992847,75891.5,75413.881,75420.60000002384,75430.552,75897.215,,42,close
screen,html.Screen,0_2_0_1_43,2021-11-12T11:55:16.250Z,,,,,,,,,,,,,,,,53,,,,,,,,,,,,,,450.38500002384535,,response,,,99,,,,,,Space,keypress(Space),,,,,---- -- ----- -- ------ - ------- --- ----------<br>------------- ------ ------ ---- ---- ------- ----- -- ----<br>-------- ------- -- ---------- --- - --- ----- ----- ----<br>---- --- --- ----- --- ---- ---- ------- ----- ---- -------<br>--- --- -- ----- as --- ---- -- --- ---- -- ------ ------<br>--- ----- -- ----,76348.29999995232,76347.60000002384,75880.546,75892.5,75897.215,76364.18,,43,as
screen,html.Screen,0_2_0_1_44,2021-11-12T11:55:16.626Z,,,,,,,,,,,,,,,,53,,,,,,,,,,,,,,359.320000000007,,response,,,99,,,,,,Space,keypress(Space),,,,,---- -- ----- -- ------ - ------- --- ----------<br>------------- ------ ------ ---- ---- ------- ----- -- ----<br>-------- ------- -- ---------- --- - --- ----- ----- ----<br>---- --- --- ----- --- ---- ---- ------- ----- ---- -------<br>--- --- -- ----- -- you ---- -- --- ---- -- ------ ------<br>--- ----- -- ----,76724.29999995232,76723.5,76347.508,76348.60000002384,76364.18,76730.906,,44,you
screen,html.Screen,0_2_0_1_45,2021-11-12T11:55:17.034Z,,,,,,,,,,,,,,,,53,,,,,,,,,,,,,,400.5939999999973,,response,,,99,,,,,,Space,keypress(Space),,,,,---- -- ----- -- ------ - ------- --- ----------<br>------------- ------ ------ ---- ---- ------- ----- -- ----<br>-------- ------- -- ---------- --- - --- ----- ----- ----<br>---- --- --- ----- --- ---- ---- ------- ----- ---- -------<br>--- --- -- ----- -- --- want -- --- ---- -- ------ ------<br>--- ----- -- ----,77132.19999992847,77131.5,76714.235,76724.60000002384,76730.906,77147.509,,45,want
screen,html.Screen,0_2_0_1_46,2021-11-12T11:55:17.442Z,,,,,,,,,,,,,,,,53,,,,,,,,,,,,,,391.99099999999453,,response,,,99,,,,,,Space,keypress(Space),,,,,---- -- ----- -- ------ - ------- --- ----------<br>------------- ------ ------ ---- ---- ------- ----- -- ----<br>-------- ------- -- ---------- --- - --- ----- ----- ----<br>---- --- --- ----- --- ---- ---- ------- ----- ---- -------<br>--- --- -- ----- -- --- ---- to --- ---- -- ------ ------<br>--- ----- -- ----,77540.29999995232,77539.5,77130.841,77132.5,77147.509,77547.839,,46,to
screen,html.Screen,0_2_0_1_47,2021-11-12T11:55:17.906Z,,,,,,,,,,,,,,,,53,,,,,,,,,,,,,,455.6609999999928,,response,,,99,,,,,,Space,keypress(Space),,,,,"---- -- ----- -- ------ - ------- --- ----------<br>------------- ------ ------ ---- ---- ------- ----- -- ----<br>-------- ------- -- ---------- --- - --- ----- ----- ----<br>---- --- --- ----- --- ---- ---- ------- ----- ---- -------<br>--- --- -- ----- -- --- ---- -- be, ---- -- ------ ------<br>--- ----- -- ----",78004.29999995232,78003.5,77531.167,77540.5,77547.839,78014.568,,47,"be,"
screen,html.Screen,0_2_0_1_48,2021-11-12T11:55:18.354Z,,,,,,,,,,,,,,,,53,,,,,,,,,,,,,,436.9320000000007,,response,,,99,,,,,,Space,keypress(Space),,,,,---- -- ----- -- ------ - ------- --- ----------<br>------------- ------ ------ ---- ---- ------- ----- -- ----<br>-------- ------- -- ---------- --- - --- ----- ----- ----<br>---- --- --- ----- --- ---- ---- ------- ----- ---- -------<br>--- --- -- ----- -- --- ---- -- --- even -- ------ ------<br>--- ----- -- ----,78452.29999995232,78451.5,77997.897,78004.5,78014.568,78464.686,,48,even
screen,html.Screen,0_2_0_1_49,2021-11-12T11:55:18.762Z,,,,,,,,,,,,,,,,53,,,,,,,,,,,,,,394.8139999999985,,response,,,99,,,,,,Space,keypress(Space),,,,,---- -- ----- -- ------ - ------- --- ----------<br>------------- ------ ------ ---- ---- ------- ----- -- ----<br>-------- ------- -- ---------- --- - --- ----- ----- ----<br>---- --- --- ----- --- ---- ---- ------- ----- ---- -------<br>--- --- -- ----- -- --- ---- -- --- ---- if ------ ------<br>--- ----- -- ----,78860.19999992847,78859.5,78448.015,78452.5,78464.686,78864.795,,49,if
screen,html.Screen,0_2_0_1_50,2021-11-12T11:55:19.266Z,,,,,,,,,,,,,,,,53,,,,,,,,,,,,,,498.70500000000175,,response,,,99,,,,,,Space,keypress(Space),,,,,---- -- ----- -- ------ - ------- --- ----------<br>------------- ------ ------ ---- ---- ------- ----- -- ----<br>-------- ------- -- ---------- --- - --- ----- ----- ----<br>---- --- --- ----- --- ---- ---- ------- ----- ---- -------<br>--- --- -- ----- -- --- ---- -- --- ---- -- that's ------<br>--- ----- -- ----,79364.29999995232,79363.5,78848.124,78860.5,78864.795,79381.539,,50,that's
screen,html.Screen,0_2_0_1_51,2021-11-12T11:55:19.682Z,,,,,,,,,,,,,,,,53,,,,,,,,,,,,,,397.86099997615383,,response,,,99,,,,,,Space,keypress(Space),,,,,---- -- ----- -- ------ - ------- --- ----------<br>------------- ------ ------ ---- ---- ------- ----- -- ----<br>-------- ------- -- ---------- --- - --- ----- ----- ----<br>---- --- --- ----- --- ---- ---- ------- ----- ---- -------<br>--- --- -- ----- -- --- ---- -- --- ---- -- ------ really<br>--- ----- -- ----,79780.10000002384,79779.39999997616,79364.869,79364.5,79381.539,79781.742,,51,really
screen,html.Screen,0_2_0_1_52,2021-11-12T11:55:20.098Z,,,,,,,,,,,,,,,,53,,,,,,,,,,,,,,413.6579999761598,,response,,,99,,,,,,Space,keypress(Space),,,,,---- -- ----- -- ------ - ------- --- ----------<br>------------- ------ ------ ---- ---- ------- ----- -- ----<br>-------- ------- -- ---------- --- - --- ----- ----- ----<br>---- --- --- ----- --- ---- ---- ------- ----- ---- -------<br>--- --- -- ----- -- --- ---- -- --- ---- -- ------ ------<br>not ----- -- ----,80196.5,80195.39999997616,79765.071,79780.5,79781.742,80198.511,,52,not
screen,html.Screen,0_2_0_1_53,2021-11-12T11:55:20.522Z,,,,,,,,,,,,,,,,53,,,,,,,,,,,,,,420.88899997615954,,response,,,99,,,,,,Space,keypress(Space),,,,,---- -- ----- -- ------ - ------- --- ----------<br>------------- ------ ------ ---- ---- ------- ----- -- ----<br>-------- ------- -- ---------- --- - --- ----- ----- ----<br>---- --- --- ----- --- ---- ---- ------- ----- ---- -------<br>--- --- -- ----- -- --- ---- -- --- ---- -- ------ ------<br>--- close -- ----,80620.19999992847,80619.39999997616,80181.84,80196.69999992847,80198.511,80631.885,,53,close
screen,html.Screen,0_2_0_1_54,2021-11-12T11:55:21.058Z,,,,,,,,,,,,,,,,53,,,,,,,,,,,,,,523.4149999523215,,response,,,99,,,,,,Space,keypress(Space),,,,,---- -- ----- -- ------ - ------- --- ----------<br>------------- ------ ------ ---- ---- ------- ----- -- ----<br>-------- ------- -- ---------- --- - --- ----- ----- ----<br>---- --- --- ----- --- ---- ---- ------- ----- ---- -------<br>--- --- -- ----- -- --- ---- -- --- ---- -- ------ ------<br>--- ----- at ----,81156.19999992847,81155.29999995232,80615.215,80620.39999997616,80631.885,81165.419,,54,at
screen,html.Screen,0_2_0_1_55,2021-11-12T11:55:21.978Z,,,,,,,,,,,,,,,,53,,,,,,,,,,,,,,909.8809999523219,,response,,,99,,,,,,Space,keypress(Space),,,,,---- -- ----- -- ------ - ------- --- ----------<br>------------- ------ ------ ---- ---- ------- ----- -- ----<br>-------- ------- -- ---------- --- - --- ----- ----- ----<br>---- --- --- ----- --- ---- ---- ------- ----- ---- -------<br>--- --- -- ----- -- --- ---- -- --- ---- -- ------ ------<br>--- ----- -- all.,82076.10000002384,82075.29999995232,81148.748,81156.39999997616,81165.419,82082.32,,55,all.
Item 99,flow.Loop,0_2_0_1,2021-11-12T11:55:21.982Z,,,,,,,,,,,,,,,,,,,,,,,,,,,,,,32818.619999952316,,completion,,,,B,,,,,,,,,,silence,,82080.39999997616,82075.29999995232,49240.01,49247.199999928474,49256.68,82082.32,,,
Question 1,html.Screen,0_2_0_2,2021-11-12T11:55:28.970Z,,,,,,,,,,,,,,,,,,,,,,,,,,,true,FALSE,,6984.479999952309,,response,,,99,B,,,,,FALSE,click #choice-2,,,,silence,,89068.19999992847,89066.79999995232,82065.649,82080.69999992847,82082.32,89084.218,,,
Question 2,html.Screen,0_2_0_3,2021-11-12T11:55:35.393Z,,,,,,,,,,,,,,,,,,,,,,,,,,,true,TRUE,,6406.382000023848,,response,,,99,B,,,,,TRUE,click #choice-1,,,,silence,,95491.79999995232,95490.60000002384,89067.547,89068.5,89084.218,95502.728,,,
Item 99,flow.Sequence,0_2_0,2021-11-12T11:55:35.394Z,,,,,,,,,,,,,,,,,,,,,,,,,,,,,,56236.489000023845,,completion,,,,,,,,,,,,,,,,95492.39999997616,95490.60000002384,39237.44,39239.60000002384,39254.111,95502.728,,,
Holding screen,html.Screen,0_2_1_0,2021-11-12T11:55:45.391Z,,,,,,,,,,,,,,,,,,,,,,,,,,,,,,10002.496,,timeout,,,,,,,,,,,,,,,,105489.60000002384,105488.553,95486.055,95492.79999995232,95502.728,105505.224,,,
screen,html.Screen,0_2_1_1_0,2021-11-12T11:55:46.505Z,,,,,,,,,,,,,,,,54,,,,,,,,,,,,,,1097.5759999523143,,response,,,100,,,,,,Space,keypress(Space),,,,,At --- ---- --- ------ ----- ------- ---- -- --- ------- --<br>------- ---------- ------ -- ----- -- ----- -- ---- ------<br>--- ----- --- --- ------ -------- ----- --- ------ ----- --<br>----- ----- ---------- --- --- ------ ------ ---- -- ------<br>------- --- ------ ----- --- ---- ------- -- ---- --- --<br>------- ------,106603.5,106602.79999995232,105488.553,105490,105505.224,106605.635,,0,At
screen,html.Screen,0_2_1_1_1,2021-11-12T11:55:46.961Z,,,,,,,,,,,,,,,,54,,,,,,,,,,,,,,452.56499992847966,,response,,,100,,,,,,Space,keypress(Space),,,,,-- the ---- --- ------ ----- ------- ---- -- --- ------- --<br>------- ---------- ------ -- ----- -- ----- -- ---- ------<br>--- ----- --- --- ------ -------- ----- --- ------ ----- --<br>----- ----- ---------- --- --- ------ ------ ---- -- ------<br>------- --- ------ ----- --- ---- ------- -- ---- --- --<br>------- ------,107059.10000002384,107058.19999992847,106588.963,106603.89999997616,106605.635,107072.381,,1,the
screen,html.Screen,0_2_1_1_2,2021-11-12T11:55:47.353Z,,,,,,,,,,,,,,,,54,,,,,,,,,,,,,,377.8189999284805,,response,,,100,,,,,,Space,keypress(Space),,,,,-- --- time --- ------ ----- ------- ---- -- --- ------- --<br>------- ---------- ------ -- ----- -- ----- -- ---- ------<br>--- ----- --- --- ------ -------- ----- --- ------ ----- --<br>----- ----- ---------- --- --- ------ ------ ---- -- ------<br>------- --- ------ ----- --- ---- ------- -- ---- --- --<br>------- ------,107451,107450.19999992847,107055.71,107059.29999995232,107072.381,107455.816,,2,time
screen,html.Screen,0_2_1_1_3,2021-11-12T11:55:47.898Z,,,,,,,,,,,,,,,,54,,,,,,,,,,,,,,538.2840000238357,,response,,,100,,,,,,Space,keypress(Space),,,,,-- --- ---- the ------ ----- ------- ---- -- --- ------- --<br>------- ---------- ------ -- ----- -- ----- -- ---- ------<br>--- ----- --- --- ------ -------- ----- --- ------ ----- --<br>----- ----- ---------- --- --- ------ ------ ---- -- ------<br>------- --- ------ ----- --- ---- ------- -- ---- --- --<br>------- ------,107996.19999992847,107994.10000002384,107439.145,107451.39999997616,107455.816,108005.92,,3,the
screen,html.Screen,0_2_1_1_4,2021-11-12T11:55:48.441Z,,,,,,,,,,,,,,,,54,,,,,,,,,,,,,,532.2799999284762,,response,,,100,,,,,,Space,keypress(Space),,,,,-- --- ---- --- French ----- ------- ---- -- --- ------- --<br>------- ---------- ------ -- ----- -- ----- -- ---- ------<br>--- ----- --- --- ------ -------- ----- --- ------ ----- --<br>----- ----- ---------- --- --- ------ ------ ---- -- ------<br>------- --- ------ ----- --- ---- ------- -- ---- --- --<br>------- ------,108538.89999997616,108538.19999992847,107989.25,107996.5,108005.92,108556.123,,4,French
screen,html.Screen,0_2_1_1_5,2021-11-12T11:55:48.849Z,,,,,,,,,,,,,,,,54,,,,,,,,,,,,,,389.977000023835,,response,,,100,,,,,,Space,keypress(Space),,,,,-- --- ---- --- ------ crown ------- ---- -- --- ------- --<br>------- ---------- ------ -- ----- -- ----- -- ---- ------<br>--- ----- --- --- ------ -------- ----- --- ------ ----- --<br>----- ----- ---------- --- --- ------ ------ ---- -- ------<br>------- --- ------ ----- --- ---- ------- -- ---- --- --<br>------- ------,108947.19999992847,108946.10000002384,108539.452,108539.19999992847,108556.123,108956.223,,5,crown
screen,html.Screen,0_2_1_1_6,2021-11-12T11:55:49.249Z,,,,,,,,,,,,,,,,54,,,,,,,,,,,,,,389.9769999284763,,response,,,100,,,,,,Space,keypress(Space),,,,,-- --- ---- --- ------ ----- secured ---- -- --- ------- --<br>------- ---------- ------ -- ----- -- ----- -- ---- ------<br>--- ----- --- --- ------ -------- ----- --- ------ ----- --<br>----- ----- ---------- --- --- ------ ------ ---- -- ------<br>------- --- ------ ----- --- ---- ------- -- ---- --- --<br>------- ------,109346.89999997616,109346.19999992847,108939.552,108947.39999997616,108956.223,109356.186,,6,secured
screen,html.Screen,0_2_1_1_7,2021-11-12T11:55:49.665Z,,,,,,,,,,,,,,,,54,,,,,,,,,,,,,,405.91400002384034,,response,,,100,,,,,,Space,keypress(Space),,,,,-- --- ---- --- ------ ----- ------- much -- --- ------- --<br>------- ---------- ------ -- ----- -- ----- -- ---- ------<br>--- ----- --- --- ------ -------- ----- --- ------ ----- --<br>----- ----- ---------- --- --- ------ ------ ---- -- ------<br>------- --- ------ ----- --- ---- ------- -- ---- --- --<br>------- ------,109762.89999997616,109762.10000002384,109339.517,109347.19999992847,109356.186,109773.16,,7,much
screen,html.Screen,0_2_1_1_8,2021-11-12T11:55:50.049Z,,,,,,,,,,,,,,,,54,,,,,,,,,,,,,,372.94000002383837,,response,,,100,,,,,,Space,keypress(Space),,,,,-- --- ---- --- ------ ----- ------- ---- of --- ------- --<br>------- ---------- ------ -- ----- -- ----- -- ---- ------<br>--- ----- --- --- ------ -------- ----- --- ------ ----- --<br>----- ----- ---------- --- --- ------ ------ ---- -- ------<br>------- --- ------ ----- --- ---- ------- -- ---- --- --<br>------- ------,110146.89999997616,110146.10000002384,109756.488,109763.19999992847,109773.16,110156.546,,8,of
screen,html.Screen,0_2_1_1_9,2021-11-12T11:55:50.456Z,,,,,,,,,,,,,,,,54,,,,,,,,,,,,,,397.35399997615605,,response,,,100,,,,,,Space,keypress(Space),,,,,-- --- ---- --- ------ ----- ------- ---- -- its ------- --<br>------- ---------- ------ -- ----- -- ----- -- ---- ------<br>--- ----- --- --- ------ -------- ----- --- ------ ----- --<br>----- ----- ---------- --- --- ------ ------ ---- -- ------<br>------- --- ------ ----- --- ---- ------- -- ---- --- --<br>------- ------,110554.79999995232,110553.89999997616,110139.875,110147.10000002384,110156.546,110556.534,,9,its
screen,html.Screen,0_2_1_1_10,2021-11-12T11:55:50.880Z,,,,,,,,,,,,,,,,54,,,,,,,,,,,,,,421.46600000000035,,response,,,100,,,,,,Space,keypress(Space),,,,,-- --- ---- --- ------ ----- ------- ---- -- --- revenue --<br>------- ---------- ------ -- ----- -- ----- -- ---- ------<br>--- ----- --- --- ------ -------- ----- --- ------ ----- --<br>----- ----- ---------- --- --- ------ ------ ---- -- ------<br>------- --- ------ ----- --- ---- ------- -- ---- --- --<br>------- ------,110978.69999992847,110978,110539.865,110555,110556.534,110990.164,,10,revenue
screen,html.Screen,0_2_1_1_11,2021-11-12T11:55:51.288Z,,,,,,,,,,,,,,,,54,,,,,,,,,,,,,,395.8359999999957,,response,,,100,,,,,,Space,keypress(Space),,,,,-- --- ---- --- ------ ----- ------- ---- -- --- ------- by<br>------- ---------- ------ -- ----- -- ----- -- ---- ------<br>--- ----- --- --- ------ -------- ----- --- ------ ----- --<br>----- ----- ---------- --- --- ------ ------ ---- -- ------<br>------- --- ------ ----- --- ---- ------- -- ---- --- --<br>------- ------,111386.79999995232,111386,110973.492,110979,110990.164,111390.173,,11,by
screen,html.Screen,0_2_1_1_12,2021-11-12T11:55:51.792Z,,,,,,,,,,,,,,,,54,,,,,,,,,,,,,,499.7269999761629,,response,,,100,,,,,,Space,keypress(Space),,,,,-- --- ---- --- ------ ----- ------- ---- -- --- ------- --<br>issuing ---------- ------ -- ----- -- ----- -- ---- ------<br>--- ----- --- --- ------ -------- ----- --- ------ ----- --<br>----- ----- ---------- --- --- ------ ------ ---- -- ------<br>------- --- ------ ----- --- ---- ------- -- ---- --- --<br>------- ------,111890.89999997616,111889.89999997616,111373.503,111387.10000002384,111390.173,111906.969,,12,issuing
screen,html.Screen,0_2_1_1_13,2021-11-12T11:55:52.352Z,,,,,,,,,,,,,,,,54,,,,,,,,,,,,,,543.0310000000027,,response,,,100,,,,,,Space,keypress(Space),,,,,-- --- ---- --- ------ ----- ------- ---- -- --- ------- --<br>------- government ------ -- ----- -- ----- -- ---- ------<br>--- ----- --- --- ------ -------- ----- --- ------ ----- --<br>----- ----- ---------- --- --- ------ ------ ---- -- ------<br>------- --- ------ ----- --- ---- ------- -- ---- --- --<br>------- ------,112450.79999995232,112450,111890.299,111891,111906.969,112457.153,,13,government
screen,html.Screen,0_2_1_1_14,2021-11-12T11:55:52.793Z,,,,,,,,,,,,,,,,54,,,,,,,,,,,,,,432.74699997615244,,response,,,100,,,,,,Space,keypress(Space),,,,,-- --- ---- --- ------ ----- ------- ---- -- --- ------- --<br>------- ---------- bonds. -- ----- -- ----- -- ---- ------<br>--- ----- --- --- ------ -------- ----- --- ------ ----- --<br>----- ----- ---------- --- --- ------ ------ ---- -- ------<br>------- --- ------ ----- --- ---- ------- -- ---- --- --<br>------- ------,112890.79999995232,112889.89999997616,112440.482,112451,112457.153,112907.291,,14,bonds.
screen,html.Screen,0_2_1_1_15,2021-11-12T11:55:54.256Z,,,,,,,,,,,,,,,,54,,,,,,,,,,,,,,1446.6089999761607,,response,,,100,,,,,,Space,keypress(Space),,,,,-- --- ---- --- ------ ----- ------- ---- -- --- ------- --<br>------- ---------- ------ In ----- -- ----- -- ---- ------<br>--- ----- --- --- ------ -------- ----- --- ------ ----- --<br>----- ----- ---------- --- --- ------ ------ ---- -- ------<br>------- --- ------ ----- --- ---- ------- -- ---- --- --<br>------- ------,114354.79999995232,114353.89999997616,112890.62,112891.10000002384,112907.291,114357.405,,15,In
screen,html.Screen,0_2_1_1_16,2021-11-12T11:55:54.640Z,,,,,,,,,,,,,,,,54,,,,,,,,,,,,,,380.39499995231745,,response,,,100,,,,,,Space,keypress(Space),,,,,"-- --- ---- --- ------ ----- ------- ---- -- --- ------- --<br>------- ---------- ------ -- 1727, -- ----- -- ---- ------<br>--- ----- --- --- ------ -------- ----- --- ------ ----- --<br>----- ----- ---------- --- --- ------ ------ ---- -- ------<br>------- --- ------ ----- --- ---- ------- -- ---- --- --<br>------- ------",114738.60000002384,114737.79999995232,114340.736,114355,114357.405,114741.192,,16,"1727,"
screen,html.Screen,0_2_1_1_17,2021-11-12T11:55:55.192Z,,,,,,,,,,,,,,,,54,,,,,,,,,,,,,,548.6079999523208,,response,,,100,,,,,,Space,keypress(Space),,,,,-- --- ---- --- ------ ----- ------- ---- -- --- ------- --<br>------- ---------- ------ -- ----- in ----- -- ---- ------<br>--- ----- --- --- ------ -------- ----- --- ------ ----- --<br>----- ----- ---------- --- --- ------ ------ ---- -- ------<br>------- --- ------ ----- --- ---- ------- -- ---- --- --<br>------- ------,115290.60000002384,115289.79999995232,114724.52,114738.89999997616,114741.192,115307.929,,17,in
screen,html.Screen,0_2_1_1_18,2021-11-12T11:55:56.296Z,,,,,,,,,,,,,,,,54,,,,,,,,,,,,,,1085.8709999523126,,response,,,100,,,,,,Space,keypress(Space),,,,,-- --- ---- --- ------ ----- ------- ---- -- --- ------- --<br>------- ---------- ------ -- ----- -- order -- ---- ------<br>--- ----- --- --- ------ -------- ----- --- ------ ----- --<br>----- ----- ---------- --- --- ------ ------ ---- -- ------<br>------- --- ------ ----- --- ---- ------- -- ---- --- --<br>------- ------,116394.60000002384,116393.79999995232,115291.258,115290.89999997616,115307.929,116407.992,,18,order
screen,html.Screen,0_2_1_1_19,2021-11-12T11:55:56.777Z,,,,,,,,,,,,,,,,54,,,,,,,,,,,,,,466.3079999523179,,response,,,100,,,,,,Space,keypress(Space),,,,,-- --- ---- --- ------ ----- ------- ---- -- --- ------- --<br>------- ---------- ------ -- ----- -- ----- to ---- ------<br>--- ----- --- --- ------ -------- ----- --- ------ ----- --<br>----- ----- ---------- --- --- ------ ------ ---- -- ------<br>------- --- ------ ----- --- ---- ------- -- ---- --- --<br>------- ------,116875.10000002384,116874.29999995232,116391.323,116394.79999995232,116407.992,116891.731,,19,to
screen,html.Screen,0_2_1_1_20,2021-11-12T11:55:57.264Z,,,,,,,,,,,,,,,,54,,,,,,,,,,,,,,470.0689999523165,,response,,,100,,,,,,Space,keypress(Space),,,,,-- --- ---- --- ------ ----- ------- ---- -- --- ------- --<br>------- ---------- ------ -- ----- -- ----- -- save ------<br>--- ----- --- --- ------ -------- ----- --- ------ ----- --<br>----- ----- ---------- --- --- ------ ------ ---- -- ------<br>------- --- ------ ----- --- ---- ------- -- ---- --- --<br>------- ------,117362.60000002384,117361.79999995232,116875.06,116875.29999995232,116891.731,117375.163,,20,save
screen,html.Screen,0_2_1_1_21,2021-11-12T11:55:57.897Z,,,,,,,,,,,,,,,,54,,,,,,,,,,,,,,619.1369999523158,,response,,,100,,,,,,Space,keypress(Space),,,,,"-- --- ---- --- ------ ----- ------- ---- -- --- ------- --<br>------- ---------- ------ -- ----- -- ----- -- ---- money,<br>--- ----- --- --- ------ -------- ----- --- ------ ----- --<br>----- ----- ---------- --- --- ------ ------ ---- -- ------<br>------- --- ------ ----- --- ---- ------- -- ---- --- --<br>------- ------",117995,117994.29999995232,117358.492,117362.79999995232,117375.163,118008.66,,21,"money,"
screen,html.Screen,0_2_1_1_22,2021-11-12T11:55:58.352Z,,,,,,,,,,,,,,,,54,,,,,,,,,,,,,,441.03999992847093,,response,,,100,,,,,,Space,keypress(Space),,,,,-- --- ---- --- ------ ----- ------- ---- -- --- ------- --<br>------- ---------- ------ -- ----- -- ----- -- ---- ------<br>the ----- --- --- ------ -------- ----- --- ------ ----- --<br>----- ----- ---------- --- --- ------ ------ ---- -- ------<br>------- --- ------ ----- --- ---- ------- -- ---- --- --<br>------- ------,118450.5,118449.69999992847,117991.989,117995.29999995232,118008.66,118458.718,,22,the
screen,html.Screen,0_2_1_1_23,2021-11-12T11:55:58.920Z,,,,,,,,,,,,,,,,54,,,,,,,,,,,,,,558.981999928481,,response,,,100,,,,,,Space,keypress(Space),,,,,-- --- ---- --- ------ ----- ------- ---- -- --- ------- --<br>------- ---------- ------ -- ----- -- ----- -- ---- ------<br>--- state --- --- ------ -------- ----- --- ------ ----- --<br>----- ----- ---------- --- --- ------ ------ ---- -- ------<br>------- --- ------ ----- --- ---- ------- -- ---- --- --<br>------- ------,119018.5,119017.69999992847,118442.048,118450.69999992847,118458.718,119025.604,,23,state
screen,html.Screen,0_2_1_1_24,2021-11-12T11:55:59.448Z,,,,,,,,,,,,,,,,54,,,,,,,,,,,,,,520.0959999284678,,response,,,100,,,,,,Space,keypress(Space),,,,,-- --- ---- --- ------ ----- ------- ---- -- --- ------- --<br>------- ---------- ------ -- ----- -- ----- -- ---- ------<br>--- ----- cut --- ------ -------- ----- --- ------ ----- --<br>----- ----- ---------- --- --- ------ ------ ---- -- ------<br>------- --- ------ ----- --- ---- ------- -- ---- --- --<br>------- ------,119546.5,119545.69999992847,119008.933,119018.69999992847,119025.604,119559.074,,24,cut
screen,html.Screen,0_2_1_1_25,2021-11-12T11:55:59.912Z,,,,,,,,,,,,,,,,54,,,,,,,,,,,,,,450.6259999284812,,response,,,100,,,,,,Space,keypress(Space),,,,,-- --- ---- --- ------ ----- ------- ---- -- --- ------- --<br>------- ---------- ------ -- ----- -- ----- -- ---- ------<br>--- ----- --- the ------ -------- ----- --- ------ ----- --<br>----- ----- ---------- --- --- ------ ------ ---- -- ------<br>------- --- ------ ----- --- ---- ------- -- ---- --- --<br>------- ------,120010.39999997616,120009.69999992847,119542.403,119546.69999992847,119559.074,120025.824,,25,the
screen,html.Screen,0_2_1_1_26,2021-11-12T11:56:00.512Z,,,,,,,,,,,,,,,,54,,,,,,,,,,,,,,583.8759999284812,,response,,,100,,,,,,Space,keypress(Space),,,,,-- --- ---- --- ------ ----- ------- ---- -- --- ------- --<br>------- ---------- ------ -- ----- -- ----- -- ---- ------<br>--- ----- --- --- bonds' -------- ----- --- ------ ----- --<br>----- ----- ---------- --- --- ------ ------ ---- -- ------<br>------- --- ------ ----- --- ---- ------- -- ---- --- --<br>------- ------,120610.5,120609.69999992847,120009.154,120010.69999992847,120025.824,120626.019,,26,bonds'
screen,html.Screen,0_2_1_1_27,2021-11-12T11:56:01.072Z,,,,,,,,,,,,,,,,54,,,,,,,,,,,,,,543.5810000238416,,response,,,100,,,,,,Space,keypress(Space),,,,,-- --- ---- --- ------ ----- ------- ---- -- --- ------- --<br>------- ---------- ------ -- ----- -- ----- -- ---- ------<br>--- ----- --- --- ------ interest ----- --- ------ ----- --<br>----- ----- ---------- --- --- ------ ------ ---- -- ------<br>------- --- ------ ----- --- ---- ------- -- ---- --- --<br>------- ------,121170.60000002384,121169.60000002384,120609.348,120610.69999992847,120626.019,121176.013,,27,interest
screen,html.Screen,0_2_1_1_28,2021-11-12T11:56:01.688Z,,,,,,,,,,,,,,,,54,,,,,,,,,,,,,,609.5870000238356,,response,,,100,,,,,,Space,keypress(Space),,,,,-- --- ---- --- ------ ----- ------- ---- -- --- ------- --<br>------- ---------- ------ -- ----- -- ----- -- ---- ------<br>--- ----- --- --- ------ -------- rate. --- ------ ----- --<br>----- ----- ---------- --- --- ------ ------ ---- -- ------<br>------- --- ------ ----- --- ---- ------- -- ---- --- --<br>------- ------,121786.29999995232,121785.60000002384,121159.344,121170.89999997616,121176.013,121793.026,,28,rate.
screen,html.Screen,0_2_1_1_29,2021-11-12T11:56:02.291Z,,,,,,,,,,,,,,,,54,,,,,,,,,,,,,,592.474000000002,,response,,,100,,,,,,Space,keypress(Space),,,,,-- --- ---- --- ------ ----- ------- ---- -- --- ------- --<br>------- ---------- ------ -- ----- -- ----- -- ---- ------<br>--- ----- --- --- ------ -------- ----- The ------ ----- --<br>----- ----- ---------- --- --- ------ ------ ---- -- ------<br>------- --- ------ ----- --- ---- ------- -- ---- --- --<br>------- ------,122386.39999997616,122385.5,121776.355,121786.60000002384,121793.026,122393.161,,29,The
screen,html.Screen,0_2_1_1_30,2021-11-12T11:56:02.883Z,,,,,,,,,,,,,,,,54,,,,,,,,,,,,,,584.2389999761654,,response,,,100,,,,,,Space,keypress(Space),,,,,-- --- ---- --- ------ ----- ------- ---- -- --- ------- --<br>------- ---------- ------ -- ----- -- ----- -- ---- ------<br>--- ----- --- --- ------ -------- ----- --- market ----- --<br>----- ----- ---------- --- --- ------ ------ ---- -- ------<br>------- --- ------ ----- --- ---- ------- -- ---- --- --<br>------- ------,122978.19999992847,122977.39999997616,122376.49,122386.60000002384,122393.161,122993.273,,30,market
screen,html.Screen,0_2_1_1_31,2021-11-12T11:56:03.395Z,,,,,,,,,,,,,,,,54,,,,,,,,,,,,,,496.22699999999895,,response,,,100,,,,,,Space,keypress(Space),,,,,-- --- ---- --- ------ ----- ------- ---- -- --- ------- --<br>------- ---------- ------ -- ----- -- ----- -- ---- ------<br>--- ----- --- --- ------ -------- ----- --- ------ value --<br>----- ----- ---------- --- --- ------ ------ ---- -- ------<br>------- --- ------ ----- --- ---- ------- -- ---- --- --<br>------- ------,123490.29999995232,123489.5,122976.603,122978.39999997616,122993.273,123493.455,,31,value
screen,html.Screen,0_2_1_1_32,2021-11-12T11:56:03.875Z,,,,,,,,,,,,,,,,54,,,,,,,,,,,,,,476.04499999999825,,response,,,100,,,,,,Space,keypress(Space),,,,,-- --- ---- --- ------ ----- ------- ---- -- --- ------- --<br>------- ---------- ------ -- ----- -- ----- -- ---- ------<br>--- ----- --- --- ------ -------- ----- --- ------ ----- of<br>----- ----- ---------- --- --- ------ ------ ---- -- ------<br>------- --- ------ ----- --- ---- ------- -- ---- --- --<br>------- ------,123970.29999995232,123969.5,123476.784,123490.5,123493.455,123976.921,,32,of
screen,html.Screen,0_2_1_1_33,2021-11-12T11:56:04.379Z,,,,,,,,,,,,,,,,54,,,,,,,,,,,,,,496.47899997615605,,response,,,100,,,,,,Space,keypress(Space),,,,,-- --- ---- --- ------ ----- ------- ---- -- --- ------- --<br>------- ---------- ------ -- ----- -- ----- -- ---- ------<br>--- ----- --- --- ------ -------- ----- --- ------ ----- --<br>these ----- ---------- --- --- ------ ------ ---- -- ------<br>------- --- ------ ----- --- ---- ------- -- ---- --- --<br>------- ------,124474.19999992847,124473.39999997616,123960.25,123970.5,123976.921,124477.056,,33,these
screen,html.Screen,0_2_1_1_34,2021-11-12T11:56:04.891Z,,,,,,,,,,,,,,,,54,,,,,,,,,,,,,,508.3439999761613,,response,,,100,,,,,,Space,keypress(Space),,,,,-- --- ---- --- ------ ----- ------- ---- -- --- ------- --<br>------- ---------- ------ -- ----- -- ----- -- ---- ------<br>--- ----- --- --- ------ -------- ----- --- ------ ----- --<br>----- bonds ---------- --- --- ------ ------ ---- -- ------<br>------- --- ------ ----- --- ---- ------- -- ---- --- --<br>------- ------,124986.19999992847,124985.39999997616,124460.385,124474.5,124477.056,124993.714,,34,bonds
screen,html.Screen,0_2_1_1_35,2021-11-12T11:56:05.507Z,,,,,,,,,,,,,,,,54,,,,,,,,,,,,,,607.6859999761509,,response,,,100,,,,,,Space,keypress(Space),,,,,"-- --- ---- --- ------ ----- ------- ---- -- --- ------- --<br>------- ---------- ------ -- ----- -- ----- -- ---- ------<br>--- ----- --- --- ------ -------- ----- --- ------ ----- --<br>----- ----- plummeted, --- --- ------ ------ ---- -- ------<br>------- --- ------ ----- --- ---- ------- -- ---- --- --<br>------- ------",125602.19999992847,125601.39999997616,124977.045,124986.39999997616,124993.714,125610.648,,35,"plummeted,"
screen,html.Screen,0_2_1_1_36,2021-11-12T11:56:06.011Z,,,,,,,,,,,,,,,,54,,,,,,,,,,,,,,494.65199995231524,,response,,,100,,,,,,Space,keypress(Space),,,,,-- --- ---- --- ------ ----- ------- ---- -- --- ------- --<br>------- ---------- ------ -- ----- -- ----- -- ---- ------<br>--- ----- --- --- ------ -------- ----- --- ------ ----- --<br>----- ----- ---------- and --- ------ ------ ---- -- ------<br>------- --- ------ ----- --- ---- ------- -- ---- --- --<br>------- ------,126106.10000002384,126105.29999995232,125593.977,125602.5,125610.648,126110.782,,36,and
screen,html.Screen,0_2_1_1_37,2021-11-12T11:56:06.507Z,,,,,,,,,,,,,,,,54,,,,,,,,,,,,,,490.6179999761516,,response,,,100,,,,,,Space,keypress(Space),,,,,-- --- ---- --- ------ ----- ------- ---- -- --- ------- --<br>------- ---------- ------ -- ----- -- ----- -- ---- ------<br>--- ----- --- --- ------ -------- ----- --- ------ ----- --<br>----- ----- ---------- --- the ------ ------ ---- -- ------<br>------- --- ------ ----- --- ---- ------- -- ---- --- --<br>------- ------,126602.10000002384,126601.39999997616,126094.111,126106.39999997616,126110.782,126611.023,,37,the
screen,html.Screen,0_2_1_1_38,2021-11-12T11:56:07.011Z,,,,,,,,,,,,,,,,54,,,,,,,,,,,,,,494.77699995231524,,response,,,100,,,,,,Space,keypress(Space),,,,,-- --- ---- --- ------ ----- ------- ---- -- --- ------- --<br>------- ---------- ------ -- ----- -- ----- -- ---- ------<br>--- ----- --- --- ------ -------- ----- --- ------ ----- --<br>----- ----- ---------- --- --- market ------ ---- -- ------<br>------- --- ------ ----- --- ---- ------- -- ---- --- --<br>------- ------,127106.5,127105.79999995232,126594.351,126602.29999995232,126611.023,127111.016,,38,market
screen,html.Screen,0_2_1_1_39,2021-11-12T11:56:07.539Z,,,,,,,,,,,,,,,,54,,,,,,,,,,,,,,522.283999952313,,response,,,100,,,,,,Space,keypress(Space),,,,,-- --- ---- --- ------ ----- ------- ---- -- --- ------- --<br>------- ---------- ------ -- ----- -- ----- -- ---- ------<br>--- ----- --- --- ------ -------- ----- --- ------ ----- --<br>----- ----- ---------- --- --- ------ became ---- -- ------<br>------- --- ------ ----- --- ---- ------- -- ---- --- --<br>------- ------,127634.10000002384,127633.29999995232,127094.346,127106.69999992847,127111.016,127644.597,,39,became
screen,html.Screen,0_2_1_1_40,2021-11-12T11:56:08.075Z,,,,,,,,,,,,,,,,54,,,,,,,,,,,,,,524.6029999284801,,response,,,100,,,,,,Space,keypress(Space),,,,,-- --- ---- --- ------ ----- ------- ---- -- --- ------- --<br>------- ---------- ------ -- ----- -- ----- -- ---- ------<br>--- ----- --- --- ------ -------- ----- --- ------ ----- --<br>----- ----- ---------- --- --- ------ ------ wary -- ------<br>------- --- ------ ----- --- ---- ------- -- ---- --- --<br>------- ------,128170,128169.19999992847,127627.926,127634.29999995232,127644.597,128178.048,,40,wary
screen,html.Screen,0_2_1_1_41,2021-11-12T11:56:08.523Z,,,,,,,,,,,,,,,,54,,,,,,,,,,,,,,439.25199995232106,,response,,,100,,,,,,Space,keypress(Space),,,,,-- --- ---- --- ------ ----- ------- ---- -- --- ------- --<br>------- ---------- ------ -- ----- -- ----- -- ---- ------<br>--- ----- --- --- ------ -------- ----- --- ------ ----- --<br>----- ----- ---------- --- --- ------ ------ ---- of ------<br>------- --- ------ ----- --- ---- ------- -- ---- --- --<br>------- ------,128618,128617.29999995232,128161.377,128170.29999995232,128178.048,128628.028,,41,of
screen,html.Screen,0_2_1_1_42,2021-11-12T11:56:09.019Z,,,,,,,,,,,,,,,,54,,,,,,,,,,,,,,485.1719999284687,,response,,,100,,,,,,Space,keypress(Space),,,,,-- --- ---- --- ------ ----- ------- ---- -- --- ------- --<br>------- ---------- ------ -- ----- -- ----- -- ---- ------<br>--- ----- --- --- ------ -------- ----- --- ------ ----- --<br>----- ----- ---------- --- --- ------ ------ ---- -- French<br>------- --- ------ ----- --- ---- ------- -- ---- --- --<br>------- ------,129114,129113.19999992847,128611.359,128618.19999992847,128628.028,129128.373,,42,French
screen,html.Screen,0_2_1_1_43,2021-11-12T11:56:09.499Z,,,,,,,,,,,,,,,,54,,,,,,,,,,,,,,464.82699992846756,,response,,,100,,,,,,Space,keypress(Space),,,,,-- --- ---- --- ------ ----- ------- ---- -- --- ------- --<br>------- ---------- ------ -- ----- -- ----- -- ---- ------<br>--- ----- --- --- ------ -------- ----- --- ------ ----- --<br>----- ----- ---------- --- --- ------ ------ ---- -- ------<br>credit. --- ------ ----- --- ---- ------- -- ---- --- --<br>------- ------,129594,129593.19999992847,129111.701,129114.29999995232,129128.373,129595.096,,43,credit.
screen,html.Screen,0_2_1_1_44,2021-11-12T11:56:09.947Z,,,,,,,,,,,,,,,,54,,,,,,,,,,,,,,446.1039999284694,,response,,,100,,,,,,Space,keypress(Space),,,,,-- --- ---- --- ------ ----- ------- ---- -- --- ------- --<br>------- ---------- ------ -- ----- -- ----- -- ---- ------<br>--- ----- --- --- ------ -------- ----- --- ------ ----- --<br>----- ----- ---------- --- --- ------ ------ ---- -- ------<br>------- The ------ ----- --- ---- ------- -- ---- --- --<br>------- ------,130041.89999997616,130041.19999992847,129578.425,129594.19999992847,129595.096,130045.233,,44,The
screen,html.Screen,0_2_1_1_45,2021-11-12T11:56:10.427Z,,,,,,,,,,,,,,,,54,,,,,,,,,,,,,,475.86700002384896,,response,,,100,,,,,,Space,keypress(Space),,,,,-- --- ---- --- ------ ----- ------- ---- -- --- ------- --<br>------- ---------- ------ -- ----- -- ----- -- ---- ------<br>--- ----- --- --- ------ -------- ----- --- ------ ----- --<br>----- ----- ---------- --- --- ------ ------ ---- -- ------<br>------- --- French ----- --- ---- ------- -- ---- --- --<br>------- ------,130521.89999997616,130521.10000002384,130028.562,130042.19999992847,130045.233,130528.689,,45,French
screen,html.Screen,0_2_1_1_46,2021-11-12T11:56:10.907Z,,,,,,,,,,,,,,,,54,,,,,,,,,,,,,,472.41100002384337,,response,,,100,,,,,,Space,keypress(Space),,,,,-- --- ---- --- ------ ----- ------- ---- -- --- ------- --<br>------- ---------- ------ -- ----- -- ----- -- ---- ------<br>--- ----- --- --- ------ -------- ----- --- ------ ----- --<br>----- ----- ---------- --- --- ------ ------ ---- -- ------<br>------- --- ------ state --- ---- ------- -- ---- --- --<br>------- ------,131001.89999997616,131001.10000002384,130512.018,130522.10000002384,130528.689,131011.959,,46,state
screen,html.Screen,0_2_1_1_47,2021-11-12T11:56:11.363Z,,,,,,,,,,,,,,,,54,,,,,,,,,,,,,,445.1410000238393,,response,,,100,,,,,,Space,keypress(Space),,,,,-- --- ---- --- ------ ----- ------- ---- -- --- ------- --<br>------- ---------- ------ -- ----- -- ----- -- ---- ------<br>--- ----- --- --- ------ -------- ----- --- ------ ----- --<br>----- ----- ---------- --- --- ------ ------ ---- -- ------<br>------- --- ------ ----- was ---- ------- -- ---- --- --<br>------- ------,131457.89999997616,131457.10000002384,130995.291,131002.10000002384,131011.959,131462.345,,47,was
screen,html.Screen,0_2_1_1_48,2021-11-12T11:56:11.819Z,,,,,,,,,,,,,,,,54,,,,,,,,,,,,,,450.65499999999884,,response,,,100,,,,,,Space,keypress(Space),,,,,-- --- ---- --- ------ ----- ------- ---- -- --- ------- --<br>------- ---------- ------ -- ----- -- ----- -- ---- ------<br>--- ----- --- --- ------ -------- ----- --- ------ ----- --<br>----- ----- ---------- --- --- ------ ------ ---- -- ------<br>------- --- ------ ----- --- left ------- -- ---- --- --<br>------- ------,131913.79999995232,131913,131445.673,131458.29999995232,131462.345,131929.024,,48,left
screen,html.Screen,0_2_1_1_49,2021-11-12T11:56:12.483Z,,,,,,,,,,,,,,,,54,,,,,,,,,,,,,,648.076000023837,,response,,,100,,,,,,Space,keypress(Space),,,,,-- --- ---- --- ------ ----- ------- ---- -- --- ------- --<br>------- ---------- ------ -- ----- -- ----- -- ---- ------<br>--- ----- --- --- ------ -------- ----- --- ------ ----- --<br>----- ----- ---------- --- --- ------ ------ ---- -- ------<br>------- --- ------ ----- --- ---- without -- ---- --- --<br>------- ------,132578,132577.10000002384,131912.354,131914.10000002384,131929.024,132579.18,,49,without
screen,html.Screen,0_2_1_1_50,2021-11-12T11:56:13.083Z,,,,,,,,,,,,,,,,54,,,,,,,,,,,,,,597.9200000238488,,response,,,100,,,,,,Space,keypress(Space),,,,,-- --- ---- --- ------ ----- ------- ---- -- --- ------- --<br>------- ---------- ------ -- ----- -- ----- -- ---- ------<br>--- ----- --- --- ------ -------- ----- --- ------ ----- --<br>----- ----- ---------- --- --- ------ ------ ---- -- ------<br>------- --- ------ ----- --- ---- ------- an ---- --- --<br>------- ------,133177.79999995232,133177.10000002384,132562.51,132578.19999992847,132579.18,133179.388,,50,an
screen,html.Screen,0_2_1_1_51,2021-11-12T11:56:13.899Z,,,,,,,,,,,,,,,,54,,,,,,,,,,,,,,813.6119999999937,,response,,,100,,,,,,Space,keypress(Space),,,,,-- --- ---- --- ------ ----- ------- ---- -- --- ------- --<br>------- ---------- ------ -- ----- -- ----- -- ---- ------<br>--- ----- --- --- ------ -------- ----- --- ------ ----- --<br>----- ----- ---------- --- --- ------ ------ ---- -- ------<br>------- --- ------ ----- --- ---- ------- -- easy --- --<br>------- ------,133993.89999997616,133993,133162.717,133178,133179.388,133996.292,,51,easy
screen,html.Screen,0_2_1_1_52,2021-11-12T11:56:14.291Z,,,,,,,,,,,,,,,,54,,,,,,,,,,,,,,388.70800000001327,,response,,,100,,,,,,Space,keypress(Space),,,,,-- --- ---- --- ------ ----- ------- ---- -- --- ------- --<br>------- ---------- ------ -- ----- -- ----- -- ---- ------<br>--- ----- --- --- ------ -------- ----- --- ------ ----- --<br>----- ----- ---------- --- --- ------ ------ ---- -- ------<br>------- --- ------ ----- --- ---- ------- -- ---- way --<br>------- ------,134385.89999997616,134385,133979.621,133994.19999992847,133996.292,134396.346,,52,way
screen,html.Screen,0_2_1_1_53,2021-11-12T11:56:14.707Z,,,,,,,,,,,,,,,,54,,,,,,,,,,,,,,404.5539999761677,,response,,,100,,,,,,Space,keypress(Space),,,,,-- --- ---- --- ------ ----- ------- ---- -- --- ------- --<br>------- ---------- ------ -- ----- -- ----- -- ---- ------<br>--- ----- --- --- ------ -------- ----- --- ------ ----- --<br>----- ----- ---------- --- --- ------ ------ ---- -- ------<br>------- --- ------ ----- --- ---- ------- -- ---- --- of<br>------- ------,134801.69999992847,134800.89999997616,134379.676,134386.10000002384,134396.346,134813.079,,53,of
screen,html.Screen,0_2_1_1_54,2021-11-12T11:56:15.171Z,,,,,,,,,,,,,,,,54,,,,,,,,,,,,,,451.82099997616024,,response,,,100,,,,,,Space,keypress(Space),,,,,-- --- ---- --- ------ ----- ------- ---- -- --- ------- --<br>------- ---------- ------ -- ----- -- ----- -- ---- ------<br>--- ----- --- --- ------ -------- ----- --- ------ ----- --<br>----- ----- ---------- --- --- ------ ------ ---- -- ------<br>------- --- ------ ----- --- ---- ------- -- ---- --- --<br>raising ------,135265.69999992847,135264.89999997616,134796.409,134801.89999997616,134813.079,135280.071,,54,raising
screen,html.Screen,0_2_1_1_55,2021-11-12T11:56:15.819Z,,,,,,,,,,,,,,,,54,,,,,,,,,,,,,,632.8289999761619,,response,,,100,,,,,,Space,keypress(Space),,,,,-- --- ---- --- ------ ----- ------- ---- -- --- ------- --<br>------- ---------- ------ -- ----- -- ----- -- ---- ------<br>--- ----- --- --- ------ -------- ----- --- ------ ----- --<br>----- ----- ---------- --- --- ------ ------ ---- -- ------<br>------- --- ------ ----- --- ---- ------- -- ---- --- --<br>------- money.,135913.69999992847,135912.89999997616,135263.398,135266,135280.071,135930.088,,55,money.
Item 100,flow.Loop,0_2_1_1,2021-11-12T11:56:15.819Z,,,,,,,,,,,,,,,,,,,,,,,,,,,,,,30407.675999976156,,completion,,,,B,,,,,,,,,,silence,,135914.10000002384,135912.89999997616,105488.553,105489.89999997616,105505.224,135930.088,,,
Question 1,html.Screen,0_2_1_2,2021-11-12T11:56:19.147Z,,,,,,,,,,,,,,,,,,,,,,,,,,,true,TRUE,,3310.6119999284856,,response,,,100,B,,,,,TRUE,click #choice-1,,,,silence,,139242,139240.69999992847,135913.418,135914.29999995232,135930.088,139247.655,,,
Question 2,html.Screen,0_2_1_3,2021-11-12T11:56:21.259Z,,,,,,,,,,,,,,,,,,,,,,,,,,,true,FALSE,,2104.945000023843,,response,,,100,B,,,,,FALSE,click #choice-2,,,,silence,,141353.69999992847,141352.60000002384,139230.986,139242.19999992847,139247.655,141364.809,,,
Item 100,flow.Sequence,0_2_1,2021-11-12T11:56:21.259Z,,,,,,,,,,,,,,,,,,,,,,,,,,,,,,45849.87200002384,,completion,,,,,,,,,,,,,,,,141354.10000002384,141352.60000002384,95486.055,95492.60000002384,95502.728,141364.809,,,
End of Practice,html.Page,0_2_2,2021-11-12T11:56:27.547Z,,,,,,,,,,,,,,,,,,,,,,,,,,,,,,6277.09099997615,,form submission,,,,,,,,,,,,,,,,147642.5,147641.89999997616,141348.142,141354.29999995232,141364.809,147650.065,,,
Practice,flow.Sequence,0_2,2021-11-12T11:56:27.548Z,,,,,,,,,,,,,,,,,,,,,,,,,,,,,,108387.78899997615,,completion,,,,,,,,,,,,,,,,147643.10000002384,147641.89999997616,39237.44,39239.39999997616,39254.111,147650.065,,,
Trap_instruction,html.Page,0_3_0,2021-11-12T11:56:35.043Z,,,,,,,,,,,,,,,,,,,,,,,,,,,,,,7487.734999952314,,form submission,,,,,,,,,,,,,,,,155138.39999997616,155137.79999995232,147633.393,147643.39999997616,147650.065,155167.998,,,
trap_trial,html.Screen,0_3_1,2021-11-12T11:56:38.866Z,,,,,,,,,,,,,,,,,,,,,,,,,,,true,1,,3792.1020000238495,,response,,,,,,,,,1,click #choice-1,,,,,,158961.60000002384,158960.10000002384,155134.658,155138.60000002384,155167.998,158972.9,,,
end of trap trial,html.Page,0_3_2,2021-11-12T11:56:41.267Z,,,,,,,,,,,,,,,,,,,,,,,,,,,,,,2388.399999952322,,form submission,,,,,,,,,,,,,,,,161361.79999995232,161361.29999995232,158956.214,158961.79999995232,158972.9,161370.226,,,
Trap 1,flow.Sequence,0_3,2021-11-12T11:56:41.267Z,,,,,,,,,,,,,,,,,,,,,,,,,,,,,,13711.234999952314,,completion,,,,,,,,,,,,,,,,161362.19999992847,161361.29999995232,147633.393,147643.19999992847,147650.065,161370.226,,,
Standby,html.Page,0_4_0,2021-11-12T11:56:49.262Z,,,,,,,,,,,,,,,,,,,,,,,,,,,,,,8002.184999999998,,timeout,,,,,,,,,,,,,,,,169357.29999995232,169355.74,161353.555,161362.60000002384,161370.226,169372.411,,,
Holding screen,html.Screen,0_4_1_0_0,2021-11-12T11:56:56.264Z,,,,,,,,,,,,,,,,,,,,,,,,,,,,,,7001.934999999998,,timeout,,,,,,,,,,,,,,,,176358.89999997616,176357.675,169355.74,169357.69999992847,169372.411,176374.346,,,
screen,html.Screen,0_4_1_0_1_0,2021-11-12T11:56:58.009Z,,,,,,,,,,,,,,,,15,,,,,,,,,,,,,,1729.2540000238514,,response,,,7,B,,,,,Space,keypress(Space),,,,lyrical,Greg --------- ---------- - --- ------- -- --- ------------<br>----- -- -------- ------- ---- ------ - -------- ---- -----<br>--- ------- ---- -- --- -------- --- - ----- ------ ---- --<br>-------- --- -------- -------- --- -------- ---- -- ----- -<br>-------- ---- --- ---------- --------- -- ------- ------ -<br>--------- ----- -----,178104.60000002384,178103.60000002384,176357.675,176359.29999995232,176374.346,178107.784,,0,Greg
screen,html.Screen,0_4_1_0_1_1,2021-11-12T11:56:58.913Z,,,,,,,,,,,,,,,,15,,,,,,,,,,,,,,899.3160000238277,,response,,,7,B,,,,,Space,keypress(Space),,,,lyrical,"---- Anderson, ---------- - --- ------- -- --- ------------<br>----- -- -------- ------- ---- ------ - -------- ---- -----<br>--- ------- ---- -- --- -------- --- - ----- ------ ---- --<br>-------- --- -------- -------- --- -------- ---- -- ----- -<br>-------- ---- --- ---------- --------- -- ------- ------ -<br>--------- ----- -----",179007.79999995232,179007.10000002384,178091.115,178105,178107.784,179025.074,,1,"Anderson,"
screen,html.Screen,0_4_1_0_1_2,2021-11-12T11:56:59.505Z,,,,,,,,,,,,,,,,15,,,,,,,,,,,,,,573.9260000000068,,response,,,7,B,,,,,Space,keypress(Space),,,,lyrical,---- --------- considered - --- ------- -- --- ------------<br>----- -- -------- ------- ---- ------ - -------- ---- -----<br>--- ------- ---- -- --- -------- --- - ----- ------ ---- --<br>-------- --- -------- -------- --- -------- ---- -- ----- -<br>-------- ---- --- ---------- --------- -- ------- ------ -<br>--------- ----- -----,179600,179599,179008.403,179008.19999992847,179025.074,179608.556,,2,considered
screen,html.Screen,0_4_1_0_1_3,2021-11-12T11:57:00.041Z,,,,,,,,,,,,,,,,15,,,,,,,,,,,,,,526.3439999761467,,response,,,7,B,,,,,Space,keypress(Space),,,,lyrical,---- --------- ---------- a --- ------- -- --- ------------<br>----- -- -------- ------- ---- ------ - -------- ---- -----<br>--- ------- ---- -- --- -------- --- - ----- ------ ---- --<br>-------- --- -------- -------- --- -------- ---- -- ----- -<br>-------- ---- --- ---------- --------- -- ------- ------ -<br>--------- ----- -----,180135.79999995232,180134.89999997616,179591.885,179600.19999992847,179608.556,180142.019,,3,a
screen,html.Screen,0_4_1_0_1_4,2021-11-12T11:57:00.513Z,,,,,,,,,,,,,,,,15,,,,,,,,,,,,,,464.98099999999977,,response,,,7,B,,,,,Space,keypress(Space),,,,lyrical,---- --------- ---------- - key ------- -- --- ------------<br>----- -- -------- ------- ---- ------ - -------- ---- -----<br>--- ------- ---- -- --- -------- --- - ----- ------ ---- --<br>-------- --- -------- -------- --- -------- ---- -- ----- -<br>-------- ---- --- ---------- --------- -- ------- ------ -<br>--------- ----- -----,180607.79999995232,180607,180125.348,180136.19999992847,180142.019,180608.765,,4,key
screen,html.Screen,0_4_1_0_1_5,2021-11-12T11:57:00.913Z,,,,,,,,,,,,,,,,15,,,,,,,,,,,,,,398.23499999998603,,response,,,7,B,,,,,Space,keypress(Space),,,,lyrical,---- --------- ---------- - --- witness -- --- ------------<br>----- -- -------- ------- ---- ------ - -------- ---- -----<br>--- ------- ---- -- --- -------- --- - ----- ------ ---- --<br>-------- --- -------- -------- --- -------- ---- -- ----- -<br>-------- ---- --- ---------- --------- -- ------- ------ -<br>--------- ----- -----,181007.79999995232,181007,180592.095,180608.10000002384,180608.765,181008.792,,5,witness
screen,html.Screen,0_4_1_0_1_6,2021-11-12T11:57:01.369Z,,,,,,,,,,,,,,,,15,,,,,,,,,,,,,,454.1079999761714,,response,,,7,B,,,,,Space,keypress(Space),,,,lyrical,---- --------- ---------- - --- ------- by --- ------------<br>----- -- -------- ------- ---- ------ - -------- ---- -----<br>--- ------- ---- -- --- -------- --- - ----- ------ ---- --<br>-------- --- -------- -------- --- -------- ---- -- ----- -<br>-------- ---- --- ---------- --------- -- ------- ------ -<br>--------- ----- -----,181463.89999997616,181462.89999997616,180992.123,181008,181008.792,181475.763,,6,by
screen,html.Screen,0_4_1_0_1_7,2021-11-12T11:57:01.857Z,,,,,,,,,,,,,,,,15,,,,,,,,,,,,,,475.13699997615186,,response,,,7,B,,,,,Space,keypress(Space),,,,lyrical,---- --------- ---------- - --- ------- -- the ------------<br>----- -- -------- ------- ---- ------ - -------- ---- -----<br>--- ------- ---- -- --- -------- --- - ----- ------ ---- --<br>-------- --- -------- -------- --- -------- ---- -- ----- -<br>-------- ---- --- ---------- --------- -- ------- ------ -<br>--------- ----- -----,181951.69999992847,181950.89999997616,181459.091,181464.10000002384,181475.763,181959.184,,7,the
screen,html.Screen,0_4_1_0_1_8,2021-11-12T11:57:02.650Z,,,,,,,,,,,,,,,,15,,,,,,,,,,,,,,783.8159999999916,,response,,,7,B,,,,,Space,keypress(Space),,,,lyrical,"---- --------- ---------- - --- ------- -- --- prosecution,<br>----- -- -------- ------- ---- ------ - -------- ---- -----<br>--- ------- ---- -- --- -------- --- - ----- ------ ---- --<br>-------- --- -------- -------- --- -------- ---- -- ----- -<br>-------- ---- --- ---------- --------- -- ------- ------ -<br>--------- ----- -----",182743.79999995232,182743,181942.513,181952,181959.184,182759.39,,8,"prosecution,"
screen,html.Screen,0_4_1_0_1_9,2021-11-12T11:57:03.306Z,,,,,,,,,,,,,,,,15,,,,,,,,,,,,,,639.5099999761442,,response,,,7,B,,,,,Space,keypress(Space),,,,lyrical,---- --------- ---------- - --- ------- -- --- ------------<br>vowed -- -------- ------- ---- ------ - -------- ---- -----<br>--- ------- ---- -- --- -------- --- - ----- ------ ---- --<br>-------- --- -------- -------- --- -------- ---- -- ----- -<br>-------- ---- --- ---------- --------- -- ------- ------ -<br>--------- ----- -----,183399.69999992847,183398.89999997616,182742.719,182744,182759.39,183409.507,,9,vowed
screen,html.Screen,0_4_1_0_1_10,2021-11-12T11:57:03.730Z,,,,,,,,,,,,,,,,15,,,,,,,,,,,,,,413.3929999761458,,response,,,7,B,,,,,Space,keypress(Space),,,,lyrical,---- --------- ---------- - --- ------- -- --- ------------<br>----- he -------- ------- ---- ------ - -------- ---- -----<br>--- ------- ---- -- --- -------- --- - ----- ------ ---- --<br>-------- --- -------- -------- --- -------- ---- -- ----- -<br>-------- ---- --- ---------- --------- -- ------- ------ -<br>--------- ----- -----,183823.60000002384,183822.89999997616,183392.837,183399.89999997616,183409.507,183826.299,,10,he
screen,html.Screen,0_4_1_0_1_11,2021-11-12T11:57:04.265Z,,,,,,,,,,,,,,,,15,,,,,,,,,,,,,,532.6009999761591,,response,,,7,B,,,,,Space,keypress(Space),,,,lyrical,---- --------- ---------- - --- ------- -- --- ------------<br>----- -- wouldn't ------- ---- ------ - -------- ---- -----<br>--- ------- ---- -- --- -------- --- - ----- ------ ---- --<br>-------- --- -------- -------- --- -------- ---- -- ----- -<br>-------- ---- --- ---------- --------- -- ------- ------ -<br>--------- ----- -----,184359.69999992847,184358.89999997616,183809.629,183823.89999997616,183826.299,184376.487,,11,wouldn't
screen,html.Screen,0_4_1_0_1_12,2021-11-12T11:57:04.849Z,,,,,,,,,,,,,,,,15,,,,,,,,,,,,,,566.3129999523226,,response,,,7,B,,,,,Space,keypress(Space),,,,lyrical,---- --------- ---------- - --- ------- -- --- ------------<br>----- -- -------- testify ---- ------ - -------- ---- -----<br>--- ------- ---- -- --- -------- --- - ----- ------ ---- --<br>-------- --- -------- -------- --- -------- ---- -- ----- -<br>-------- ---- --- ---------- --------- -- ------- ------ -<br>--------- ----- -----,184943.69999992847,184942.79999995232,184359.816,184359.89999997616,184376.487,184960.01,,12,testify
screen,html.Screen,0_4_1_0_1_13,2021-11-12T11:57:05.321Z,,,,,,,,,,,,,,,,15,,,,,,,,,,,,,,454.6899999284651,,response,,,7,B,,,,,Space,keypress(Space),,,,lyrical,---- --------- ---------- - --- ------- -- --- ------------<br>----- -- -------- ------- when ------ - -------- ---- -----<br>--- ------- ---- -- --- -------- --- - ----- ------ ---- --<br>-------- --- -------- -------- --- -------- ---- -- ----- -<br>-------- ---- --- ---------- --------- -- ------- ------ -<br>--------- ----- -----,185415.5,185414.69999992847,184943.339,184943.89999997616,184960.01,185426.738,,13,when
screen,html.Screen,0_4_1_0_1_14,2021-11-12T11:57:05.785Z,,,,,,,,,,,,,,,,15,,,,,,,,,,,,,,451.9619999284623,,response,,,7,B,,,,,Space,keypress(Space),,,,lyrical,---- --------- ---------- - --- ------- -- --- ------------<br>----- -- -------- ------- ---- served - -------- ---- -----<br>--- ------- ---- -- --- -------- --- - ----- ------ ---- --<br>-------- --- -------- -------- --- -------- ---- -- ----- -<br>-------- ---- --- ---------- --------- -- ------- ------ -<br>--------- ----- -----,185879.60000002384,185878.69999992847,185410.068,185415.69999992847,185426.738,185893.523,,14,served
screen,html.Screen,0_4_1_0_1_15,2021-11-12T11:57:06.257Z,,,,,,,,,,,,,,,,15,,,,,,,,,,,,,,457.2769999523298,,response,,,7,B,,,,,Space,keypress(Space),,,,lyrical,---- --------- ---------- - --- ------- -- --- ------------<br>----- -- -------- ------- ---- ------ a -------- ---- -----<br>--- ------- ---- -- --- -------- --- - ----- ------ ---- --<br>-------- --- -------- -------- --- -------- ---- -- ----- -<br>-------- ---- --- ---------- --------- -- ------- ------ -<br>--------- ----- -----,186351.5,186350.79999995232,185876.853,185879.79999995232,185893.523,186360.212,,15,a
screen,html.Screen,0_4_1_0_1_16,2021-11-12T11:57:07.145Z,,,,,,,,,,,,,,,,15,,,,,,,,,,,,,,878.5879999523167,,response,,,7,B,,,,,Space,keypress(Space),,,,lyrical,---- --------- ---------- - --- ------- -- --- ------------<br>----- -- -------- ------- ---- ------ - subpoena ---- -----<br>--- ------- ---- -- --- -------- --- - ----- ------ ---- --<br>-------- --- -------- -------- --- -------- ---- -- ----- -<br>-------- ---- --- ---------- --------- -- ------- ------ -<br>--------- ----- -----,187239.5,187238.79999995232,186343.543,186351.79999995232,186360.212,187244.013,,16,subpoena
screen,html.Screen,0_4_1_0_1_17,2021-11-12T11:57:07.729Z,,,,,,,,,,,,,,,,15,,,,,,,,,,,,,,578.6869999284681,,response,,,7,B,,,,,Space,keypress(Space),,,,lyrical,---- --------- ---------- - --- ------- -- --- ------------<br>----- -- -------- ------- ---- ------ - -------- last -----<br>--- ------- ---- -- --- -------- --- - ----- ------ ---- --<br>-------- --- -------- -------- --- -------- ---- -- ----- -<br>-------- ---- --- ---------- --------- -- ------- ------ -<br>--------- ----- -----,187823.5,187822.69999992847,187227.341,187239.69999992847,187244.013,187827.414,,17,last
screen,html.Screen,0_4_1_0_1_18,2021-11-12T11:57:08.186Z,,,,,,,,,,,,,,,,15,,,,,,,,,,,,,,451.78599992848467,,response,,,7,B,,,,,Space,keypress(Space),,,,lyrical,---- --------- ---------- - --- ------- -- --- ------------<br>----- -- -------- ------- ---- ------ - -------- ---- week.<br>--- ------- ---- -- --- -------- --- - ----- ------ ---- --<br>-------- --- -------- -------- --- -------- ---- -- ----- -<br>-------- ---- --- ---------- --------- -- ------- ------ -<br>--------- ----- -----,188280,188279.19999992847,187810.743,187823.79999995232,187827.414,188294.205,,18,week.
screen,html.Screen,0_4_1_0_1_19,2021-11-12T11:57:08.889Z,,,,,,,,,,,,,,,,15,,,,,,,,,,,,,,688.3950000238547,,response,,,7,B,,,,,Space,keypress(Space),,,,lyrical,---- --------- ---------- - --- ------- -- --- ------------<br>----- -- -------- ------- ---- ------ - -------- ---- -----<br>His ------- ---- -- --- -------- --- - ----- ------ ---- --<br>-------- --- -------- -------- --- -------- ---- -- ----- -<br>-------- ---- --- ---------- --------- -- ------- ------ -<br>--------- ----- -----,188983.39999997616,188982.60000002384,188277.534,188280.19999992847,188294.205,188994.334,,19,His
screen,html.Screen,0_4_1_0_1_20,2021-11-12T11:57:09.337Z,,,,,,,,,,,,,,,,15,,,,,,,,,,,,,,436.2660000238393,,response,,,7,B,,,,,Space,keypress(Space),,,,lyrical,---- --------- ---------- - --- ------- -- --- ------------<br>----- -- -------- ------- ---- ------ - -------- ---- -----<br>--- lawyers ---- -- --- -------- --- - ----- ------ ---- --<br>-------- --- -------- -------- --- -------- ---- -- ----- -<br>-------- ---- --- ---------- --------- -- ------- ------ -<br>--------- ----- -----,189431.39999997616,189430.60000002384,188977.664,188983.60000002384,188994.334,189444.531,,20,lawyers
screen,html.Screen,0_4_1_0_1_21,2021-11-12T11:57:09.729Z,,,,,,,,,,,,,,,,15,,,,,,,,,,,,,,378.06900002385373,,response,,,7,B,,,,,Space,keypress(Space),,,,lyrical,---- --------- ---------- - --- ------- -- --- ------------<br>----- -- -------- ------- ---- ------ - -------- ---- -----<br>--- ------- said -- --- -------- --- - ----- ------ ---- --<br>-------- --- -------- -------- --- -------- ---- -- ----- -<br>-------- ---- --- ---------- --------- -- ------- ------ -<br>--------- ----- -----,189823.39999997616,189822.60000002384,189427.86,189431.60000002384,189444.531,189827.96,,21,said
screen,html.Screen,0_4_1_0_1_22,2021-11-12T11:57:10.161Z,,,,,,,,,,,,,,,,15,,,,,,,,,,,,,,426.54000000000815,,response,,,7,B,,,,,Space,keypress(Space),,,,lyrical,---- --------- ---------- - --- ------- -- --- ------------<br>----- -- -------- ------- ---- ------ - -------- ---- -----<br>--- ------- ---- he --- -------- --- - ----- ------ ---- --<br>-------- --- -------- -------- --- -------- ---- -- ----- -<br>-------- ---- --- ---------- --------- -- ------- ------ -<br>--------- ----- -----,190255.29999995232,190254.5,189811.289,189823.60000002384,189827.96,190261.411,,22,he
screen,html.Screen,0_4_1_0_1_23,2021-11-12T11:57:10.601Z,,,,,,,,,,,,,,,,15,,,,,,,,,,,,,,432.98899997616536,,response,,,7,B,,,,,Space,keypress(Space),,,,lyrical,---- --------- ---------- - --- ------- -- --- ------------<br>----- -- -------- ------- ---- ------ - -------- ---- -----<br>--- ------- ---- -- was -------- --- - ----- ------ ---- --<br>-------- --- -------- -------- --- -------- ---- -- ----- -<br>-------- ---- --- ---------- --------- -- ------- ------ -<br>--------- ----- -----,190695.29999995232,190694.39999997616,190244.74,190255.5,190261.411,190711.492,,23,was
screen,html.Screen,0_4_1_0_1_24,2021-11-12T11:57:11.457Z,,,,,,,,,,,,,,,,15,,,,,,,,,,,,,,839.0080000000016,,response,,,7,B,,,,,Space,keypress(Space),,,,lyrical,---- --------- ---------- - --- ------- -- --- ------------<br>----- -- -------- ------- ---- ------ - -------- ---- -----<br>--- ------- ---- -- --- prepared --- - ----- ------ ---- --<br>-------- --- -------- -------- --- -------- ---- -- ----- -<br>-------- ---- --- ---------- --------- -- ------- ------ -<br>--------- ----- -----,191551.29999995232,191550.5,190694.822,190695.5,190711.492,191561.498,,24,prepared
screen,html.Screen,0_4_1_0_1_25,2021-11-12T11:57:11.865Z,,,,,,,,,,,,,,,,15,,,,,,,,,,,,,,397.0020000000077,,response,,,7,B,,,,,Space,keypress(Space),,,,lyrical,---- --------- ---------- - --- ------- -- --- ------------<br>----- -- -------- ------- ---- ------ - -------- ---- -----<br>--- ------- ---- -- --- -------- for - ----- ------ ---- --<br>-------- --- -------- -------- --- -------- ---- -- ----- -<br>-------- ---- --- ---------- --------- -- ------- ------ -<br>--------- ----- -----,191959.29999995232,191958.5,191544.83,191551.60000002384,191561.498,191961.951,,25,for
screen,html.Screen,0_4_1_0_1_26,2021-11-12T11:57:12.281Z,,,,,,,,,,,,,,,,15,,,,,,,,,,,,,,412.54899999999907,,response,,,7,B,,,,,Space,keypress(Space),,,,lyrical,---- --------- ---------- - --- ------- -- --- ------------<br>----- -- -------- ------- ---- ------ - -------- ---- -----<br>--- ------- ---- -- --- -------- --- a ----- ------ ---- --<br>-------- --- -------- -------- --- -------- ---- -- ----- -<br>-------- ---- --- ---------- --------- -- ------- ------ -<br>--------- ----- -----,192375.29999995232,192374.5,191945.279,191959.5,191961.951,192378.66,,26,a
screen,html.Screen,0_4_1_0_1_27,2021-11-12T11:57:12.705Z,,,,,,,,,,,,,,,,15,,,,,,,,,,,,,,419.8399999999965,,response,,,7,B,,,,,Space,keypress(Space),,,,lyrical,---- --------- ---------- - --- ------- -- --- ------------<br>----- -- -------- ------- ---- ------ - -------- ---- -----<br>--- ------- ---- -- --- -------- --- - third ------ ---- --<br>-------- --- -------- -------- --- -------- ---- -- ----- -<br>-------- ---- --- ---------- --------- -- ------- ------ -<br>--------- ----- -----,192799.19999992847,192798.5,192361.989,192375.60000002384,192378.66,192812.038,,27,third
screen,html.Screen,0_4_1_0_1_28,2021-11-12T11:57:13.161Z,,,,,,,,,,,,,,,,15,,,,,,,,,,,,,,442.3619999761577,,response,,,7,B,,,,,Space,keypress(Space),,,,lyrical,---- --------- ---------- - --- ------- -- --- ------------<br>----- -- -------- ------- ---- ------ - -------- ---- -----<br>--- ------- ---- -- --- -------- --- - ----- prison ---- --<br>-------- --- -------- -------- --- -------- ---- -- ----- -<br>-------- ---- --- ---------- --------- -- ------- ------ -<br>--------- ----- -----,193255.5,193254.39999997616,192795.368,192799.5,192812.038,193262.209,,28,prison
screen,html.Screen,0_4_1_0_1_29,2021-11-12T11:57:13.593Z,,,,,,,,,,,,,,,,15,,,,,,,,,,,,,,424.1909999761556,,response,,,7,B,,,,,Space,keypress(Space),,,,lyrical,---- --------- ---------- - --- ------- -- --- ------------<br>----- -- -------- ------- ---- ------ - -------- ---- -----<br>--- ------- ---- -- --- -------- --- - ----- ------ stay --<br>-------- --- -------- -------- --- -------- ---- -- ----- -<br>-------- ---- --- ---------- --------- -- ------- ------ -<br>--------- ----- -----,193687.19999992847,193686.39999997616,193245.538,193255.79999995232,193262.209,193695.662,,29,stay
screen,html.Screen,0_4_1_0_1_30,2021-11-12T11:57:14.129Z,,,,,,,,,,,,,,,,15,,,,,,,,,,,,,,526.737999976147,,response,,,7,B,,,,,Space,keypress(Space),,,,lyrical,---- --------- ---------- - --- ------- -- --- ------------<br>----- -- -------- ------- ---- ------ - -------- ---- -----<br>--- ------- ---- -- --- -------- --- - ----- ------ ---- to<br>-------- --- -------- -------- --- -------- ---- -- ----- -<br>-------- ---- --- ---------- --------- -- ------- ------ -<br>--------- ----- -----,194223.19999992847,194222.39999997616,193678.991,193687.39999997616,193695.662,194229.081,,30,to
screen,html.Screen,0_4_1_0_1_31,2021-11-12T11:57:14.729Z,,,,,,,,,,,,,,,,15,,,,,,,,,,,,,,593.3189999761526,,response,,,7,B,,,,,Space,keypress(Space),,,,lyrical,---- --------- ---------- - --- ------- -- --- ------------<br>----- -- -------- ------- ---- ------ - -------- ---- -----<br>--- ------- ---- -- --- -------- --- - ----- ------ ---- --<br>maintain --- -------- -------- --- -------- ---- -- ----- -<br>-------- ---- --- ---------- --------- -- ------- ------ -<br>--------- ----- -----,194823.19999992847,194822.39999997616,194212.411,194223.39999997616,194229.081,194829.334,,31,maintain
screen,html.Screen,0_4_1_0_1_32,2021-11-12T11:57:15.169Z,,,,,,,,,,,,,,,,15,,,,,,,,,,,,,,433.0659999761556,,response,,,7,B,,,,,Space,keypress(Space),,,,lyrical,---- --------- ---------- - --- ------- -- --- ------------<br>----- -- -------- ------- ---- ------ - -------- ---- -----<br>--- ------- ---- -- --- -------- --- - ----- ------ ---- --<br>-------- his -------- -------- --- -------- ---- -- ----- -<br>-------- ---- --- ---------- --------- -- ------- ------ -<br>--------- ----- -----,195263.19999992847,195262.39999997616,194812.663,194823.39999997616,194829.334,195279.343,,32,his
screen,html.Screen,0_4_1_0_1_33,2021-11-12T11:57:15.593Z,,,,,,,,,,,,,,,,15,,,,,,,,,,,,,,406.9569999523228,,response,,,7,B,,,,,Space,keypress(Space),,,,lyrical,---- --------- ---------- - --- ------- -- --- ------------<br>----- -- -------- ------- ---- ------ - -------- ---- -----<br>--- ------- ---- -- --- -------- --- - ----- ------ ---- --<br>-------- --- silence. -------- --- -------- ---- -- ----- -<br>-------- ---- --- ---------- --------- -- ------- ------ -<br>--------- ----- -----,195687.10000002384,195686.29999995232,195262.673,195263.5,195279.343,195696.213,,33,silence.
screen,html.Screen,0_4_1_0_1_34,2021-11-12T11:57:16.281Z,,,,,,,,,,,,,,,,15,,,,,,,,,,,,,,677.9869999284856,,response,,,7,B,,,,,Space,keypress(Space),,,,lyrical,---- --------- ---------- - --- ------- -- --- ------------<br>----- -- -------- ------- ---- ------ - -------- ---- -----<br>--- ------- ---- -- --- -------- --- - ----- ------ ---- --<br>-------- --- -------- Anderson --- -------- ---- -- ----- -<br>-------- ---- --- ---------- --------- -- ------- ------ -<br>--------- ----- -----,196375.10000002384,196374.19999992847,195679.542,195687.39999997616,195696.213,196379.714,,34,Anderson
screen,html.Screen,0_4_1_0_1_35,2021-11-12T11:57:16.858Z,,,,,,,,,,,,,,,,15,,,,,,,,,,,,,,570.5859999523091,,response,,,7,B,,,,,Space,keypress(Space),,,,lyrical,---- --------- ---------- - --- ------- -- --- ------------<br>----- -- -------- ------- ---- ------ - -------- ---- -----<br>--- ------- ---- -- --- -------- --- - ----- ------ ---- --<br>-------- --- -------- -------- was -------- ---- -- ----- -<br>-------- ---- --- ---------- --------- -- ------- ------ -<br>--------- ----- -----,196952.39999997616,196950.29999995232,196363.043,196375.29999995232,196379.714,196962.969,,35,was
screen,html.Screen,0_4_1_0_1_36,2021-11-12T11:57:17.321Z,,,,,,,,,,,,,,,,15,,,,,,,,,,,,,,451.23099992846255,,response,,,7,B,,,,,Space,keypress(Space),,,,lyrical,---- --------- ---------- - --- ------- -- --- ------------<br>----- -- -------- ------- ---- ------ - -------- ---- -----<br>--- ------- ---- -- --- -------- --- - ----- ------ ---- --<br>-------- --- -------- -------- --- released ---- -- ----- -<br>-------- ---- --- ---------- --------- -- ------- ------ -<br>--------- ----- -----,197415,197414.19999992847,196946.301,196952.69999992847,196962.969,197430.019,,36,released
screen,html.Screen,0_4_1_0_1_37,2021-11-12T11:57:17.729Z,,,,,,,,,,,,,,,,15,,,,,,,,,,,,,,392.1809999284742,,response,,,7,B,,,,,Space,keypress(Space),,,,lyrical,---- --------- ---------- - --- ------- -- --- ------------<br>----- -- -------- ------- ---- ------ - -------- ---- -----<br>--- ------- ---- -- --- -------- --- - ----- ------ ---- --<br>-------- --- -------- -------- --- -------- July -- ----- -<br>-------- ---- --- ---------- --------- -- ------- ------ -<br>--------- ----- -----,197823,197822.19999992847,197413.348,197415.29999995232,197430.019,197830.117,,37,July
screen,html.Screen,0_4_1_0_1_38,2021-11-12T11:57:18.161Z,,,,,,,,,,,,,,,,15,,,,,,,,,,,,,,424.08299992847606,,response,,,7,B,,,,,Space,keypress(Space),,,,lyrical,---- --------- ---------- - --- ------- -- --- ------------<br>----- -- -------- ------- ---- ------ - -------- ---- -----<br>--- ------- ---- -- --- -------- --- - ----- ------ ---- --<br>-------- --- -------- -------- --- -------- ---- 20 ----- -<br>-------- ---- --- ---------- --------- -- ------- ------ -<br>--------- ----- -----,198254.89999997616,198254.19999992847,197813.446,197823.29999995232,197830.117,198263.523,,38,20
screen,html.Screen,0_4_1_0_1_39,2021-11-12T11:57:19.449Z,,,,,,,,,,,,,,,,15,,,,,,,,,,,,,,1279.0770000238554,,response,,,7,B,,,,,Space,keypress(Space),,,,lyrical,---- --------- ---------- - --- ------- -- --- ------------<br>----- -- -------- ------- ---- ------ - -------- ---- -----<br>--- ------- ---- -- --- -------- --- - ----- ------ ---- --<br>-------- --- -------- -------- --- -------- ---- -- after -<br>-------- ---- --- ---------- --------- -- ------- ------ -<br>--------- ----- -----,199543.39999997616,199542.60000002384,198246.853,198255.10000002384,198263.523,199546.898,,39,after
screen,html.Screen,0_4_1_0_1_40,2021-11-12T11:57:20.153Z,,,,,,,,,,,,,,,,15,,,,,,,,,,,,,,699.2020000238554,,response,,,7,B,,,,,Space,keypress(Space),,,,lyrical,---- --------- ---------- - --- ------- -- --- ------------<br>----- -- -------- ------- ---- ------ - -------- ---- -----<br>--- ------- ---- -- --- -------- --- - ----- ------ ---- --<br>-------- --- -------- -------- --- -------- ---- -- ----- a<br>-------- ---- --- ---------- --------- -- ------- ------ -<br>--------- ----- -----,200246.89999997616,200246.10000002384,199530.23,199543.69999992847,199546.898,200264.21,,40,a
screen,html.Screen,0_4_1_0_1_41,2021-11-12T11:57:20.617Z,,,,,,,,,,,,,,,,15,,,,,,,,,,,,,,445.89000002385,,response,,,7,B,,,,,Space,keypress(Space),,,,lyrical,---- --------- ---------- - --- ------- -- --- ------------<br>----- -- -------- ------- ---- ------ - -------- ---- -----<br>--- ------- ---- -- --- -------- --- - ----- ------ ---- --<br>-------- --- -------- -------- --- -------- ---- -- ----- -<br>two-week ---- --- ---------- --------- -- ------- ------ -<br>--------- ----- -----,200711,200710.10000002384,200247.537,200247.10000002384,200264.21,200714.211,,41,two-week
screen,html.Screen,0_4_1_0_1_42,2021-11-12T11:57:20.985Z,,,,,,,,,,,,,,,,15,,,,,,,,,,,,,,363.8890000238316,,response,,,7,B,,,,,Space,keypress(Space),,,,lyrical,---- --------- ---------- - --- ------- -- --- ------------<br>----- -- -------- ------- ---- ------ - -------- ---- -----<br>--- ------- ---- -- --- -------- --- - ----- ------ ---- --<br>-------- --- -------- -------- --- -------- ---- -- ----- -<br>-------- stay --- ---------- --------- -- ------- ------ -<br>--------- ----- -----,201078.89999997616,201078.10000002384,200697.54,200711.10000002384,200714.211,201080.98,,42,stay
screen,html.Screen,0_4_1_0_1_43,2021-11-12T11:57:21.393Z,,,,,,,,,,,,,,,,15,,,,,,,,,,,,,,405.1200000238314,,response,,,7,B,,,,,Space,keypress(Space),,,,lyrical,---- --------- ---------- - --- ------- -- --- ------------<br>----- -- -------- ------- ---- ------ - -------- ---- -----<br>--- ------- ---- -- --- -------- --- - ----- ------ ---- --<br>-------- --- -------- -------- --- -------- ---- -- ----- -<br>-------- ---- for ---------- --------- -- ------- ------ -<br>--------- ----- -----,201486.89999997616,201486.10000002384,201064.309,201079.10000002384,201080.98,201497.651,,43,for
screen,html.Screen,0_4_1_0_1_44,2021-11-12T11:57:21.905Z,,,,,,,,,,,,,,,,15,,,,,,,,,,,,,,500.4490000238293,,response,,,7,B,,,,,Space,keypress(Space),,,,lyrical,---- --------- ---------- - --- ------- -- --- ------------<br>----- -- -------- ------- ---- ------ - -------- ---- -----<br>--- ------- ---- -- --- -------- --- - ----- ------ ---- --<br>-------- --- -------- -------- --- -------- ---- -- ----- -<br>-------- ---- --- previously --------- -- ------- ------ -<br>--------- ----- -----,201998.89999997616,201998.10000002384,201480.982,201487.10000002384,201497.651,202014.471,,44,previously
screen,html.Screen,0_4_1_0_1_45,2021-11-12T11:57:22.369Z,,,,,,,,,,,,,,,,15,,,,,,,,,,,,,,447.6290000238514,,response,,,7,B,,,,,Space,keypress(Space),,,,lyrical,---- --------- ---------- - --- ------- -- --- ------------<br>----- -- -------- ------- ---- ------ - -------- ---- -----<br>--- ------- ---- -- --- -------- --- - ----- ------ ---- --<br>-------- --- -------- -------- --- -------- ---- -- ----- -<br>-------- ---- --- ---------- declining -- ------- ------ -<br>--------- ----- -----,202462.79999995232,202462.10000002384,201997.801,201999.10000002384,202014.471,202464.744,,45,declining
screen,html.Screen,0_4_1_0_1_46,2021-11-12T11:57:22.793Z,,,,,,,,,,,,,,,,15,,,,,,,,,,,,,,421.25599999999395,,response,,,7,B,,,,,Space,keypress(Space),,,,lyrical,---- --------- ---------- - --- ------- -- --- ------------<br>----- -- -------- ------- ---- ------ - -------- ---- -----<br>--- ------- ---- -- --- -------- --- - ----- ------ ---- --<br>-------- --- -------- -------- --- -------- ---- -- ----- -<br>-------- ---- --- ---------- --------- to ------- ------ -<br>--------- ----- -----,202886.79999995232,202886,202448.072,202463.10000002384,202464.744,202898.126,,46,to
screen,html.Screen,0_4_1_0_1_47,2021-11-12T11:57:23.257Z,,,,,,,,,,,,,,,,15,,,,,,,,,,,,,,451.8740000000107,,response,,,7,B,,,,,Space,keypress(Space),,,,lyrical,---- --------- ---------- - --- ------- -- --- ------------<br>----- -- -------- ------- ---- ------ - -------- ---- -----<br>--- ------- ---- -- --- -------- --- - ----- ------ ---- --<br>-------- --- -------- -------- --- -------- ---- -- ----- -<br>-------- ---- --- ---------- --------- -- testify ------ -<br>--------- ----- -----,203350.79999995232,203350,202881.455,202887.10000002384,202898.126,203364.949,,47,testify
screen,html.Screen,0_4_1_0_1_48,2021-11-12T11:57:23.649Z,,,,,,,,,,,,,,,,15,,,,,,,,,,,,,,377.05100000000675,,response,,,7,B,,,,,Space,keypress(Space),,,,lyrical,---- --------- ---------- - --- ------- -- --- ------------<br>----- -- -------- ------- ---- ------ - -------- ---- -----<br>--- ------- ---- -- --- -------- --- - ----- ------ ---- --<br>-------- --- -------- -------- --- -------- ---- -- ----- -<br>-------- ---- --- ---------- --------- -- ------- before -<br>--------- ----- -----,203742.69999992847,203742,203348.278,203351,203364.949,203748.335,,48,before
screen,html.Screen,0_4_1_0_1_49,2021-11-12T11:57:23.993Z,,,,,,,,,,,,,,,,15,,,,,,,,,,,,,,337.66500000000815,,response,,,7,B,,,,,Space,keypress(Space),,,,lyrical,---- --------- ---------- - --- ------- -- --- ------------<br>----- -- -------- ------- ---- ------ - -------- ---- -----<br>--- ------- ---- -- --- -------- --- - ----- ------ ---- --<br>-------- --- -------- -------- --- -------- ---- -- ----- -<br>-------- ---- --- ---------- --------- -- ------- ------ a<br>--------- ----- -----,204086.69999992847,204086,203731.665,203743,203748.335,204098.463,,49,a
screen,html.Screen,0_4_1_0_1_50,2021-11-12T11:57:24.433Z,,,,,,,,,,,,,,,,15,,,,,,,,,,,,,,427.5370000000112,,response,,,7,B,,,,,Space,keypress(Space),,,,lyrical,---- --------- ---------- - --- ------- -- --- ------------<br>----- -- -------- ------- ---- ------ - -------- ---- -----<br>--- ------- ---- -- --- -------- --- - ----- ------ ---- --<br>-------- --- -------- -------- --- -------- ---- -- ----- -<br>-------- ---- --- ---------- --------- -- ------- ------ -<br>different ----- -----,204526.79999995232,204526,204081.792,204087,204098.463,204531.911,,50,different
screen,html.Screen,0_4_1_0_1_51,2021-11-12T11:57:24.841Z,,,,,,,,,,,,,,,,15,,,,,,,,,,,,,,401.98899997616536,,response,,,7,B,,,,,Space,keypress(Space),,,,lyrical,---- --------- ---------- - --- ------- -- --- ------------<br>----- -- -------- ------- ---- ------ - -------- ---- -----<br>--- ------- ---- -- --- -------- --- - ----- ------ ---- --<br>-------- --- -------- -------- --- -------- ---- -- ----- -<br>-------- ---- --- ---------- --------- -- ------- ------ -<br>--------- grand -----,204934.69999992847,204933.89999997616,204515.24,204527,204531.911,204948.626,,51,grand
screen,html.Screen,0_4_1_0_1_52,2021-11-12T11:57:25.608Z,,,,,,,,,,,,,,,,15,,,,,,,,,,,,,,753.173999952327,,response,,,7,B,,,,,Space,keypress(Space),,,,lyrical,---- --------- ---------- - --- ------- -- --- ------------<br>----- -- -------- ------- ---- ------ - -------- ---- -----<br>--- ------- ---- -- --- -------- --- - ----- ------ ---- --<br>-------- --- -------- -------- --- -------- ---- -- ----- -<br>-------- ---- --- ---------- --------- -- ------- ------ -<br>--------- ----- jury.,205702.60000002384,205701.79999995232,204931.956,204935,204948.626,205715.548,,52,jury.
Item 7,flow.Loop,0_4_1_0_1,2021-11-12T11:57:25.609Z,,,,,,,,,,,,,,,,,,,,,,,,,,,,,,29327.453999952326,,completion,,,,,,,,,,,,,,,,205703,205701.79999995232,176357.675,176359.19999992847,176374.346,205715.548,,,
