sender,sender_type,sender_id,timestamp,meta,,Blues,Classical,Country,Dance,Electronic,Folk,Gospel,Hip-Hop,Jazz,Latin,Musical/Film,New-age,Pop,Provo_ID,R&B,Rap,Reggae,Religious,Rock,Soul,Swing,Traditional,age,artist_name,correct,correctResponse,distraction,duration,education,ended_on,familiarity,gender,item,list,music_frequency,offensiveness,pleasantness,preference,response,response_action,snippet_file,song_name,song_rating,sound,text,time_commit,time_end,time_render,time_run,time_show,time_switch,url,word,word_ID
Instructions,html.Page,0_0,2021-11-12T10:00:00.330Z,"{""labjs_version"":""20.2.3"",""labjs_build"":{""flavor"":""production"",""commit"":""7ea907d66ca8aeef8054924ca5d82ffbe11e34e5""},""location"":""https://run.pavlovia.org/mvasilev/lab_music_a/"",""userAgent"":""Mozilla/5.0 (Windows NT 6.1; Win64; x64) AppleWebKit/537.36 (KHTML, like Gecko) Chrome/95.0.4638.69 Safari/537.36"",""platform"":""Win32"",""language"":""en-US"",""locale"":""en-US"",""timeZone"":""Europe/London"",""timezoneOffset"":0,""screen_width"":1920,""screen_height"":1080,""scroll_width"":1920,""scroll_height"":959,""window_innerWidth"":1920,""window_innerHeight"":1007,""devicePixelRatio"":1}",,,,,,,,,,,,,,,,,,,,,,,,,,,,,26824.906999952316,,form submission,,,,,,,,,,,,,,,,41523.5,41522.299999952316,14664.025,14682.699999988079,14697.393,41519.254,{},,
Headphones,html.Page,0_1,2021-11-12T10:00:10.245Z,,,,,,,,,,,,,,,,,,,,,,,,,,,,,,9918.845999964236,,form submission,,,,,,,,,,,,,,,,51438.799999952316,51438.09999996424,41502.582,41524.299999952316,41519.254,51438.43,,,
Holding screen,html.Screen,0_2_0_0,2021-11-12T10:00:20.240Z,,,,,,,,,,,,,,,,,,,,,,,,,,,,,,10002.491000000002,,timeout,,,,,,,,,,,,,,,,61430.89999997616,61424.251,51421.759,51439.5,51438.43,61440.921,,,
screen,html.Screen,0_2_0_1_0,2021-11-12T10:00:20.840Z,,,,,,,,,,,,,,,,53,,,,,,,,,,,,,,587.8789999523142,,response,,,99,,,,,,Space,keypress(Space),,,,,When -- ----- -- ------ - ------- --- ----------<br>------------- ------ ------ ---- ---- ------- ----- -- ----<br>-------- ------- -- ---------- --- - --- ----- ----- ----<br>---- --- --- ----- --- ---- ---- ------- ----- ---- -------<br>--- --- -- ----- -- --- ---- -- --- ---- -- ------ ------<br>--- ----- -- ----,62030.19999998808,62028.799999952316,61424.251,61431.39999997616,61440.921,62041.17,,0,When
screen,html.Screen,0_2_0_1_1,2021-11-12T10:00:21.159Z,,,,,,,,,,,,,,,,53,,,,,,,,,,,,,,307.5299999880808,,response,,,99,,,,,,Space,keypress(Space),,,,,---- it ----- -- ------ - ------- --- ----------<br>------------- ------ ------ ---- ---- ------- ----- -- ----<br>-------- ------- -- ---------- --- - --- ----- ----- ----<br>---- --- --- ----- --- ---- ---- ------- ----- ---- -------<br>--- --- -- ----- -- --- ---- -- --- ---- -- ------ ------<br>--- ----- -- ----,62349.59999996424,62348.69999998808,62024.499,62030.69999998808,62041.17,62357.858,,1,it
screen,html.Screen,0_2_0_1_2,2021-11-12T10:00:21.967Z,,,,,,,,,,,,,,,,53,,,,,,,,,,,,,,798.9419999523161,,response,,,99,,,,,,Space,keypress(Space),,,,,---- -- comes -- ------ - ------- --- ----------<br>------------- ------ ------ ---- ---- ------- ----- -- ----<br>-------- ------- -- ---------- --- - --- ----- ----- ----<br>---- --- --- ----- --- ---- ---- ------- ----- ---- -------<br>--- --- -- ----- -- --- ---- -- --- ---- -- ------ ------<br>--- ----- -- ----,63157.69999998808,63156.799999952316,62341.188,62350,62357.858,63174.904,,2,comes
screen,html.Screen,0_2_0_1_3,2021-11-12T10:00:22.376Z,,,,,,,,,,,,,,,,53,,,,,,,,,,,,,,390.2959999880768,,response,,,99,,,,,,Space,keypress(Space),,,,,---- -- ----- to ------ - ------- --- ----------<br>------------- ------ ------ ---- ---- ------- ----- -- ----<br>-------- ------- -- ---------- --- - --- ----- ----- ----<br>---- --- --- ----- --- ---- ---- ------- ----- ---- -------<br>--- --- -- ----- -- --- ---- -- --- ---- -- ------ ------<br>--- ----- -- ----,63566.09999996424,63565.19999998808,63158.232,63158,63174.904,63574.882,,3,to
screen,html.Screen,0_2_0_1_4,2021-11-12T10:00:22.839Z,,,,,,,,,,,,,,,,53,,,,,,,,,,,,,,453.8179999880813,,response,,,99,,,,,,Space,keypress(Space),,,,,---- -- ----- -- having - ------- --- ----------<br>------------- ------ ------ ---- ---- ------- ----- -- ----<br>-------- ------- -- ---------- --- - --- ----- ----- ----<br>---- --- --- ----- --- ---- ---- ------- ----- ---- -------<br>--- --- -- ----- -- --- ---- -- --- ---- -- ------ ------<br>--- ----- -- ----,64029.89999997616,64028.69999998808,63558.212,63566.69999998808,63574.882,64041.594,,4,having
screen,html.Screen,0_2_0_1_5,2021-11-12T10:00:23.191Z,,,,,,,,,,,,,,,,53,,,,,,,,,,,,,,339.10599998808175,,response,,,99,,,,,,Space,keypress(Space),,,,,---- -- ----- -- ------ a ------- --- ----------<br>------------- ------ ------ ---- ---- ------- ----- -- ----<br>-------- ------- -- ---------- --- - --- ----- ----- ----<br>---- --- --- ----- --- ---- ---- ------- ----- ---- -------<br>--- --- -- ----- -- --- ---- -- --- ---- -- ------ ------<br>--- ----- -- ----,64381.69999998808,64380.69999998808,64024.925,64030.299999952316,64041.594,64391.856,,5,a
screen,html.Screen,0_2_0_1_6,2021-11-12T10:00:23.567Z,,,,,,,,,,,,,,,,53,,,,,,,,,,,,,,364.8439999880793,,response,,,99,,,,,,Space,keypress(Space),,,,,---- -- ----- -- ------ - lasting --- ----------<br>------------- ------ ------ ---- ---- ------- ----- -- ----<br>-------- ------- -- ---------- --- - --- ----- ----- ----<br>---- --- --- ----- --- ---- ---- ------- ----- ---- -------<br>--- --- -- ----- -- --- ---- -- --- ---- -- ------ ------<br>--- ----- -- ----,64757.59999996424,64756.69999998808,64375.184,64382.19999998808,64391.856,64775.211,,6,lasting
screen,html.Screen,0_2_0_1_7,2021-11-12T10:00:23.951Z,,,,,,,,,,,,,,,,53,,,,,,,,,,,,,,365.4889999880761,,response,,,99,,,,,,Space,keypress(Space),,,,,---- -- ----- -- ------ - ------- and ----------<br>------------- ------ ------ ---- ---- ------- ----- -- ----<br>-------- ------- -- ---------- --- - --- ----- ----- ----<br>---- --- --- ----- --- ---- ---- ------- ----- ---- -------<br>--- --- -- ----- -- --- ---- -- --- ---- -- ------ ------<br>--- ----- -- ----,65141.59999996424,65140.69999998808,64758.541,64758,64775.211,65158.547,,7,and
screen,html.Screen,0_2_0_1_8,2021-11-12T10:00:24.775Z,,,,,,,,,,,,,,,,53,,,,,,,,,,,,,,806.0529999642386,,response,,,99,,,,,,Space,keypress(Space),,,,,---- -- ----- -- ------ - ------- --- fulfilling<br>------------- ------ ------ ---- ---- ------- ----- -- ----<br>-------- ------- -- ---------- --- - --- ----- ----- ----<br>---- --- --- ----- --- ---- ---- ------- ----- ---- -------<br>--- --- -- ----- -- --- ---- -- --- ---- -- ------ ------<br>--- ----- -- ----,65965.79999995232,65964.59999996424,65141.878,65142,65158.547,65975.623,,8,fulfilling
screen,html.Screen,0_2_0_1_9,2021-11-12T10:00:25.527Z,,,,,,,,,,,,,,,,53,,,,,,,,,,,,,,740.9769999642303,,response,,,99,,,,,,Space,keypress(Space),,,,,"---- -- ----- -- ------ - ------- --- ----------<br>relationship, ------ ------ ---- ---- ------- ----- -- ----<br>-------- ------- -- ---------- --- - --- ----- ----- ----<br>---- --- --- ----- --- ---- ---- ------- ----- ---- -------<br>--- --- -- ----- -- --- ---- -- --- ---- -- ------ ------<br>--- ----- -- ----",66717.5,66716.59999996424,65958.951,65966.19999998808,65975.623,66725.648,,9,"relationship,"
screen,html.Screen,0_2_0_1_10,2021-11-12T10:00:25.935Z,,,,,,,,,,,,,,,,53,,,,,,,,,,,,,,398.85199999999895,,response,,,99,,,,,,Space,keypress(Space),,,,,---- -- ----- -- ------ - ------- --- ----------<br>------------- common ------ ---- ---- ------- ----- -- ----<br>-------- ------- -- ---------- --- - --- ----- ----- ----<br>---- --- --- ----- --- ---- ---- ------- ----- ---- -------<br>--- --- -- ----- -- --- ---- -- --- ---- -- ------ ------<br>--- ----- -- ----,67125.5,67124.5,66708.978,66717.79999995232,66725.648,67142.517,,10,common
screen,html.Screen,0_2_0_1_11,2021-11-12T10:00:26.375Z,,,,,,,,,,,,,,,,53,,,,,,,,,,,,,,421.9829999999929,,response,,,99,,,,,,Space,keypress(Space),,,,,---- -- ----- -- ------ - ------- --- ----------<br>------------- ------ wisdom ---- ---- ------- ----- -- ----<br>-------- ------- -- ---------- --- - --- ----- ----- ----<br>---- --- --- ----- --- ---- ---- ------- ----- ---- -------<br>--- --- -- ----- -- --- ---- -- --- ---- -- ------ ------<br>--- ----- -- ----,67565.5,67564.5,67125.846,67125.79999995232,67142.517,67575.927,,11,wisdom
screen,html.Screen,0_2_0_1_12,2021-11-12T10:00:26.743Z,,,,,,,,,,,,,,,,53,,,,,,,,,,,,,,356.57300000000396,,response,,,99,,,,,,Space,keypress(Space),,,,,---- -- ----- -- ------ - ------- --- ----------<br>------------- ------ ------ says ---- ------- ----- -- ----<br>-------- ------- -- ---------- --- - --- ----- ----- ----<br>---- --- --- ----- --- ---- ---- ------- ----- ---- -------<br>--- --- -- ----- -- --- ---- -- --- ---- -- ------ ------<br>--- ----- -- ----,67933.39999997616,67932.5,67559.257,67565.79999995232,67575.927,67942.584,,12,says
screen,html.Screen,0_2_0_1_13,2021-11-12T10:00:27.087Z,,,,,,,,,,,,,,,,53,,,,,,,,,,,,,,333.91599999999744,,response,,,99,,,,,,Space,keypress(Space),,,,,---- -- ----- -- ------ - ------- --- ----------<br>------------- ------ ------ ---- that ------- ----- -- ----<br>-------- ------- -- ---------- --- - --- ----- ----- ----<br>---- --- --- ----- --- ---- ---- ------- ----- ---- -------<br>--- --- -- ----- -- --- ---- -- --- ---- -- ------ ------<br>--- ----- -- ----,68277.29999995232,68276.5,67925.915,67933.59999996424,67942.584,68292.837,,13,that
screen,html.Screen,0_2_0_1_14,2021-11-12T10:00:27.423Z,,,,,,,,,,,,,,,,53,,,,,,,,,,,,,,319.5629999761586,,response,,,99,,,,,,Space,keypress(Space),,,,,---- -- ----- -- ------ - ------- --- ----------<br>------------- ------ ------ ---- ---- feeling ----- -- ----<br>-------- ------- -- ---------- --- - --- ----- ----- ----<br>---- --- --- ----- --- ---- ---- ------- ----- ---- -------<br>--- --- -- ----- -- --- ---- -- --- ---- -- ------ ------<br>--- ----- -- ----,68613.29999995232,68612.39999997616,68276.165,68277.5,68292.837,68626.234,,14,feeling
screen,html.Screen,0_2_0_1_15,2021-11-12T10:00:27.815Z,,,,,,,,,,,,,,,,53,,,,,,,,,,,,,,378.26600000000326,,response,,,99,,,,,,Space,keypress(Space),,,,,---- -- ----- -- ------ - ------- --- ----------<br>------------- ------ ------ ---- ---- ------- close -- ----<br>-------- ------- -- ---------- --- - --- ----- ----- ----<br>---- --- --- ----- --- ---- ---- ------- ----- ---- -------<br>--- --- -- ----- -- --- ---- -- --- ---- -- ------ ------<br>--- ----- -- ----,69005.29999995232,69004.5,68609.563,68613.59999996424,68626.234,69009.636,,15,close
screen,html.Screen,0_2_0_1_16,2021-11-12T10:00:28.198Z,,,,,,,,,,,,,,,,53,,,,,,,,,,,,,,378.3640000000014,,response,,,99,,,,,,Space,keypress(Space),,,,,---- -- ----- -- ------ - ------- --- ----------<br>------------- ------ ------ ---- ---- ------- ----- to ----<br>-------- ------- -- ---------- --- - --- ----- ----- ----<br>---- --- --- ----- --- ---- ---- ------- ----- ---- -------<br>--- --- -- ----- -- --- ---- -- --- ---- -- ------ ------<br>--- ----- -- ----,69388.39999997616,69388,68992.966,69005.59999996424,69009.636,69393.101,,16,to
screen,html.Screen,0_2_0_1_17,2021-11-12T10:00:28.598Z,,,,,,,,,,,,,,,,53,,,,,,,,,,,,,,394.8990000000049,,response,,,99,,,,,,Space,keypress(Space),,,,,---- -- ----- -- ------ - ------- --- ----------<br>------------- ------ ------ ---- ---- ------- ----- -- your<br>-------- ------- -- ---------- --- - --- ----- ----- ----<br>---- --- --- ----- --- ---- ---- ------- ----- ---- -------<br>--- --- -- ----- -- --- ---- -- --- ---- -- ------ ------<br>--- ----- -- ----,69788.39999997616,69788,69376.43,69388.39999997616,69393.101,69793.176,,17,your
screen,html.Screen,0_2_0_1_18,2021-11-12T10:00:28.958Z,,,,,,,,,,,,,,,,53,,,,,,,,,,,,,,354.7239999761514,,response,,,99,,,,,,Space,keypress(Space),,,,,---- -- ----- -- ------ - ------- --- ----------<br>------------- ------ ------ ---- ---- ------- ----- -- ----<br>romantic ------- -- ---------- --- - --- ----- ----- ----<br>---- --- --- ----- --- ---- ---- ------- ----- ---- -------<br>--- --- -- ----- -- --- ---- -- --- ---- -- ------ ------<br>--- ----- -- ----,70148.5,70147.89999997616,69776.506,69788.5,69793.176,70159.731,,18,romantic
screen,html.Screen,0_2_0_1_19,2021-11-12T10:00:29.447Z,,,,,,,,,,,,,,,,53,,,,,,,,,,,,,,476.6689999761584,,response,,,99,,,,,,Space,keypress(Space),,,,,---- -- ----- -- ------ - ------- --- ----------<br>------------- ------ ------ ---- ---- ------- ----- -- ----<br>-------- partner -- ---------- --- - --- ----- ----- ----<br>---- --- --- ----- --- ---- ---- ------- ----- ---- -------<br>--- --- -- ----- -- --- ---- -- --- ---- -- ------ ------<br>--- ----- -- ----,70637.5,70636.39999997616,70143.064,70148.5,70159.731,70643.317,,19,partner
screen,html.Screen,0_2_0_1_20,2021-11-12T10:00:29.847Z,,,,,,,,,,,,,,,,53,,,,,,,,,,,,,,392.9829999523208,,response,,,99,,,,,,Space,keypress(Space),,,,,---- -- ----- -- ------ - ------- --- ----------<br>------------- ------ ------ ---- ---- ------- ----- -- ----<br>-------- ------- is ---------- --- - --- ----- ----- ----<br>---- --- --- ----- --- ---- ---- ------- ----- ---- -------<br>--- --- -- ----- -- --- ---- -- --- ---- -- ------ ------<br>--- ----- -- ----,71037.19999998808,71036.29999995232,70626.647,70637.69999998808,70643.317,71043.423,,20,is
screen,html.Screen,0_2_0_1_21,2021-11-12T10:00:30.239Z,,,,,,,,,,,,,,,,53,,,,,,,,,,,,,,384.87699995232106,,response,,,99,,,,,,Space,keypress(Space),,,,,---- -- ----- -- ------ - ------- --- ----------<br>------------- ------ ------ ---- ---- ------- ----- -- ----<br>-------- ------- -- paramount. --- - --- ----- ----- ----<br>---- --- --- ----- --- ---- ---- ------- ----- ---- -------<br>--- --- -- ----- -- --- ---- -- --- ---- -- ------ ------<br>--- ----- -- ----,71429.09999996424,71428.29999995232,71026.753,71037.5,71043.423,71443.687,,21,paramount.
screen,html.Screen,0_2_0_1_22,2021-11-12T10:00:30.975Z,,,,,,,,,,,,,,,,53,,,,,,,,,,,,,,720.6129999523109,,response,,,99,,,,,,Space,keypress(Space),,,,,---- -- ----- -- ------ - ------- --- ----------<br>------------- ------ ------ ---- ---- ------- ----- -- ----<br>-------- ------- -- ---------- But - --- ----- ----- ----<br>---- --- --- ----- --- ---- ---- ------- ----- ---- -------<br>--- --- -- ----- -- --- ---- -- --- ---- -- ------ ------<br>--- ----- -- ----,72165.09999996424,72164.29999995232,71427.015,71429.59999996424,71443.687,72177.096,,22,But
screen,html.Screen,0_2_0_1_23,2021-11-12T10:00:31.375Z,,,,,,,,,,,,,,,,53,,,,,,,,,,,,,,387.2039999523113,,response,,,99,,,,,,Space,keypress(Space),,,,,---- -- ----- -- ------ - ------- --- ----------<br>------------- ------ ------ ---- ---- ------- ----- -- ----<br>-------- ------- -- ---------- --- a --- ----- ----- ----<br>---- --- --- ----- --- ---- ---- ------- ----- ---- -------<br>--- --- -- ----- -- --- ---- -- --- ---- -- ------ ------<br>--- ----- -- ----,72565,72564.29999995232,72160.426,72165.29999995232,72177.096,72577.213,,23,a
screen,html.Screen,0_2_0_1_24,2021-11-12T10:00:31.679Z,,,,,,,,,,,,,,,,53,,,,,,,,,,,,,,291.0869999523129,,response,,,99,,,,,,Space,keypress(Space),,,,,---- -- ----- -- ------ - ------- --- ----------<br>------------- ------ ------ ---- ---- ------- ----- -- ----<br>-------- ------- -- ---------- --- - new ----- ----- ----<br>---- --- --- ----- --- ---- ---- ------- ----- ---- -------<br>--- --- -- ----- -- --- ---- -- --- ---- -- ------ ------<br>--- ----- -- ----,72869.09999996424,72868.29999995232,72560.543,72565.39999997616,72577.213,72877.218,,24,new
screen,html.Screen,0_2_0_1_25,2021-11-12T10:00:31.983Z,,,,,,,,,,,,,,,,53,,,,,,,,,,,,,,294.9819999880856,,response,,,99,,,,,,Space,keypress(Space),,,,,---- -- ----- -- ------ - ------- --- ----------<br>------------- ------ ------ ---- ---- ------- ----- -- ----<br>-------- ------- -- ---------- --- - --- study ----- ----<br>---- --- --- ----- --- ---- ---- ------- ----- ---- -------<br>--- --- -- ----- -- --- ---- -- --- ---- -- ------ ------<br>--- ----- -- ----,73173.09999996424,73172.19999998808,72860.549,72869.29999995232,72877.218,73177.443,,25,study
screen,html.Screen,0_2_0_1_26,2021-11-12T10:00:32.350Z,,,,,,,,,,,,,,,,53,,,,,,,,,,,,,,362.6569999642379,,response,,,99,,,,,,Space,keypress(Space),,,,,---- -- ----- -- ------ - ------- --- ----------<br>------------- ------ ------ ---- ---- ------- ----- -- ----<br>-------- ------- -- ---------- --- - --- ----- finds ----<br>---- --- --- ----- --- ---- ---- ------- ----- ---- -------<br>--- --- -- ----- -- --- ---- -- --- ---- -- ------ ------<br>--- ----- -- ----,73541,73540.09999996424,73160.771,73173.29999995232,73177.443,73544.176,,26,finds
screen,html.Screen,0_2_0_1_27,2021-11-12T10:00:32.687Z,,,,,,,,,,,,,,,,53,,,,,,,,,,,,,,332.42399996423046,,response,,,99,,,,,,Space,keypress(Space),,,,,---- -- ----- -- ------ - ------- --- ----------<br>------------- ------ ------ ---- ---- ------- ----- -- ----<br>-------- ------- -- ---------- --- - --- ----- ----- that<br>---- --- --- ----- --- ---- ---- ------- ----- ---- -------<br>--- --- -- ----- -- --- ---- -- --- ---- -- ------ ------<br>--- ----- -- ----,73877.5,73876.59999996424,73527.505,73541.29999995232,73544.176,73894.212,,27,that
screen,html.Screen,0_2_0_1_28,2021-11-12T10:00:33.014Z,,,,,,,,,,,,,,,,53,,,,,,,,,,,,,,309.8879999642377,,response,,,99,,,,,,Space,keypress(Space),,,,,---- -- ----- -- ------ - ------- --- ----------<br>------------- ------ ------ ---- ---- ------- ----- -- ----<br>-------- ------- -- ---------- --- - --- ----- ----- ----<br>it's --- --- ----- --- ---- ---- ------- ----- ---- -------<br>--- --- -- ----- -- --- ---- -- --- ---- -- ------ ------<br>--- ----- -- ----,74205,74204.09999996424,73877.542,73877.79999995232,73894.212,74211.008,,28,it's
screen,html.Screen,0_2_0_1_29,2021-11-12T10:00:33.382Z,,,,,,,,,,,,,,,,53,,,,,,,,,,,,,,361.19199998807744,,response,,,99,,,,,,Space,keypress(Space),,,,,---- -- ----- -- ------ - ------- --- ----------<br>------------- ------ ------ ---- ---- ------- ----- -- ----<br>-------- ------- -- ---------- --- - --- ----- ----- ----<br>---- not --- ----- --- ---- ---- ------- ----- ---- -------<br>--- --- -- ----- -- --- ---- -- --- ---- -- ------ ------<br>--- ----- -- ----,74573,74572.19999998808,74194.337,74205.19999998808,74211.008,74577.744,,29,not
screen,html.Screen,0_2_0_1_30,2021-11-12T10:00:33.750Z,,,,,,,,,,,,,,,,53,,,,,,,,,,,,,,362.35599996423116,,response,,,99,,,,,,Space,keypress(Space),,,,,---- -- ----- -- ------ - ------- --- ----------<br>------------- ------ ------ ---- ---- ------- ----- -- ----<br>-------- ------- -- ---------- --- - --- ----- ----- ----<br>---- --- how ----- --- ---- ---- ------- ----- ---- -------<br>--- --- -- ----- -- --- ---- -- --- ---- -- ------ ------<br>--- ----- -- ----,74940.89999997616,74940.09999996424,74561.074,74573.19999998808,74577.744,74944.496,,30,how
screen,html.Screen,0_2_0_1_31,2021-11-12T10:00:34.006Z,,,,,,,,,,,,,,,,53,,,,,,,,,,,,,,251.50400000000081,,response,,,99,,,,,,Space,keypress(Space),,,,,---- -- ----- -- ------ - ------- --- ----------<br>------------- ------ ------ ---- ---- ------- ----- -- ----<br>-------- ------- -- ---------- --- - --- ----- ----- ----<br>---- --- --- close --- ---- ---- ------- ----- ---- -------<br>--- --- -- ----- -- --- ---- -- --- ---- -- ------ ------<br>--- ----- -- ----,75196.79999995232,75196,74927.826,74941.09999996424,74944.496,75211.153,,31,close
screen,html.Screen,0_2_0_1_32,2021-11-12T10:00:34.350Z,,,,,,,,,,,,,,,,53,,,,,,,,,,,,,,328.8469999999943,,response,,,99,,,,,,Space,keypress(Space),,,,,---- -- ----- -- ------ - ------- --- ----------<br>------------- ------ ------ ---- ---- ------- ----- -- ----<br>-------- ------- -- ---------- --- - --- ----- ----- ----<br>---- --- --- ----- you ---- ---- ------- ----- ---- -------<br>--- --- -- ----- -- --- ---- -- --- ---- -- ------ ------<br>--- ----- -- ----,75540.89999997616,75540,75194.484,75197.19999998808,75211.153,75544.712,,32,you
screen,html.Screen,0_2_0_1_33,2021-11-12T10:00:34.671Z,,,,,,,,,,,,,,,,53,,,,,,,,,,,,,,315.1879999761586,,response,,,99,,,,,,Space,keypress(Space),,,,,---- -- ----- -- ------ - ------- --- ----------<br>------------- ------ ------ ---- ---- ------- ----- -- ----<br>-------- ------- -- ---------- --- - --- ----- ----- ----<br>---- --- --- ----- --- feel ---- ------- ----- ---- -------<br>--- --- -- ----- -- --- ---- -- --- ---- -- ------ ------<br>--- ----- -- ----,75861.09999996424,75859.89999997616,75528.04,75541.19999998808,75544.712,75878.069,,33,feel
screen,html.Screen,0_2_0_1_34,2021-11-12T10:00:34.991Z,,,,,,,,,,,,,,,,53,,,,,,,,,,,,,,301.93099999999686,,response,,,99,,,,,,Space,keypress(Space),,,,,---- -- ----- -- ------ - ------- --- ----------<br>------------- ------ ------ ---- ---- ------- ----- -- ----<br>-------- ------- -- ---------- --- - --- ----- ----- ----<br>---- --- --- ----- --- ---- that ------- ----- ---- -------<br>--- --- -- ----- -- --- ---- -- --- ---- -- ------ ------<br>--- ----- -- ----,76181.29999995232,76180,75861.399,75864.09999996424,75878.069,76194.858,,34,that
screen,html.Screen,0_2_0_1_35,2021-11-12T10:00:35.310Z,,,,,,,,,,,,,,,,53,,,,,,,,,,,,,,305.1420000000071,,response,,,99,,,,,,Space,keypress(Space),,,,,---- -- ----- -- ------ - ------- --- ----------<br>------------- ------ ------ ---- ---- ------- ----- -- ----<br>-------- ------- -- ---------- --- - --- ----- ----- ----<br>---- --- --- ----- --- ---- ---- matters ----- ---- -------<br>--- --- -- ----- -- --- ---- -- --- ---- -- ------ ------<br>--- ----- -- ----,76500.89999997616,76500,76178.187,76181.69999998808,76194.858,76511.577,,35,matters
screen,html.Screen,0_2_0_1_36,2021-11-12T10:00:35.686Z,,,,,,,,,,,,,,,,53,,,,,,,,,,,,,,364.32299997615337,,response,,,99,,,,,,Space,keypress(Space),,,,,"---- -- ----- -- ------ - ------- --- ----------<br>------------- ------ ------ ---- ---- ------- ----- -- ----<br>-------- ------- -- ---------- --- - --- ----- ----- ----<br>---- --- --- ----- --- ---- ---- ------- most, ---- -------<br>--- --- -- ----- -- --- ---- -- --- ---- -- ------ ------<br>--- ----- -- ----",76876.79999995232,76875.89999997616,76494.907,76501,76511.577,76878.313,,36,"most,"
screen,html.Screen,0_2_0_1_37,2021-11-12T10:00:36.110Z,,,,,,,,,,,,,,,,53,,,,,,,,,,,,,,421.68700000000536,,response,,,99,,,,,,Space,keypress(Space),,,,,---- -- ----- -- ------ - ------- --- ----------<br>------------- ------ ------ ---- ---- ------- ----- -- ----<br>-------- ------- -- ---------- --- - --- ----- ----- ----<br>---- --- --- ----- --- ---- ---- ------- ----- it's -------<br>--- --- -- ----- -- --- ---- -- --- ---- -- ------ ------<br>--- ----- -- ----,77300.79999995232,77300,76861.643,76877,76878.313,77311.764,,37,it's
screen,html.Screen,0_2_0_1_38,2021-11-12T10:00:36.542Z,,,,,,,,,,,,,,,,53,,,,,,,,,,,,,,420.13599997616257,,response,,,99,,,,,,Space,keypress(Space),,,,,---- -- ----- -- ------ - ------- --- ----------<br>------------- ------ ------ ---- ---- ------- ----- -- ----<br>-------- ------- -- ---------- --- - --- ----- ----- ----<br>---- --- --- ----- --- ---- ---- ------- ----- ---- whether<br>--- --- -- ----- -- --- ---- -- --- ---- -- ------ ------<br>--- ----- -- ----,77732.69999998808,77731.89999997616,77295.094,77301,77311.764,77745.247,,38,whether
screen,html.Screen,0_2_0_1_39,2021-11-12T10:00:36.838Z,,,,,,,,,,,,,,,,53,,,,,,,,,,,,,,282.6529999761551,,response,,,99,,,,,,Space,keypress(Space),,,,,---- -- ----- -- ------ - ------- --- ----------<br>------------- ------ ------ ---- ---- ------- ----- -- ----<br>-------- ------- -- ---------- --- - --- ----- ----- ----<br>---- --- --- ----- --- ---- ---- ------- ----- ---- -------<br>you --- -- ----- -- --- ---- -- --- ---- -- ------ ------<br>--- ----- -- ----,78028.79999995232,78027.89999997616,77728.576,77733,77745.247,78045.286,,39,you
screen,html.Screen,0_2_0_1_40,2021-11-12T10:00:37.222Z,,,,,,,,,,,,,,,,53,,,,,,,,,,,,,,366.61399997616536,,response,,,99,,,,,,Space,keypress(Space),,,,,---- -- ----- -- ------ - ------- --- ----------<br>------------- ------ ------ ---- ---- ------- ----- -- ----<br>-------- ------- -- ---------- --- - --- ----- ----- ----<br>---- --- --- ----- --- ---- ---- ------- ----- ---- -------<br>--- are -- ----- -- --- ---- -- --- ---- -- ------ ------<br>--- ----- -- ----,78412.69999998808,78411.89999997616,78028.616,78029.09999996424,78045.286,78428.759,,40,are
screen,html.Screen,0_2_0_1_41,2021-11-12T10:00:37.494Z,,,,,,,,,,,,,,,,53,,,,,,,,,,,,,,255.14099997615267,,response,,,99,,,,,,Space,keypress(Space),,,,,---- -- ----- -- ------ - ------- --- ----------<br>------------- ------ ------ ---- ---- ------- ----- -- ----<br>-------- ------- -- ---------- --- - --- ----- ----- ----<br>---- --- --- ----- --- ---- ---- ------- ----- ---- -------<br>--- --- as ----- -- --- ---- -- --- ---- -- ------ ------<br>--- ----- -- ----,78684.59999996424,78683.89999997616,78412.088,78413,78428.759,78695.498,,41,as
screen,html.Screen,0_2_0_1_42,2021-11-12T10:00:37.806Z,,,,,,,,,,,,,,,,53,,,,,,,,,,,,,,300.3019999523094,,response,,,99,,,,,,Space,keypress(Space),,,,,---- -- ----- -- ------ - ------- --- ----------<br>------------- ------ ------ ---- ---- ------- ----- -- ----<br>-------- ------- -- ---------- --- - --- ----- ----- ----<br>---- --- --- ----- --- ---- ---- ------- ----- ---- -------<br>--- --- -- close -- --- ---- -- --- ---- -- ------ ------<br>--- ----- -- ----,78996.69999998808,78995.79999995232,78678.827,78684.89999997616,78695.498,79012.199,,42,close
screen,html.Screen,0_2_0_1_43,2021-11-12T10:00:38.054Z,,,,,,,,,,,,,,,,53,,,,,,,,,,,,,,231.60099995232304,,response,,,99,,,,,,Space,keypress(Space),,,,,---- -- ----- -- ------ - ------- --- ----------<br>------------- ------ ------ ---- ---- ------- ----- -- ----<br>-------- ------- -- ---------- --- - --- ----- ----- ----<br>---- --- --- ----- --- ---- ---- ------- ----- ---- -------<br>--- --- -- ----- as --- ---- -- --- ---- -- ------ ------<br>--- ----- -- ----,79244.59999996424,79243.79999995232,78995.529,78996.79999995232,79012.199,79262.165,,43,as
screen,html.Screen,0_2_0_1_44,2021-11-12T10:00:38.294Z,,,,,,,,,,,,,,,,53,,,,,,,,,,,,,,221.6349999523227,,response,,,99,,,,,,Space,keypress(Space),,,,,---- -- ----- -- ------ - ------- --- ----------<br>------------- ------ ------ ---- ---- ------- ----- -- ----<br>-------- ------- -- ---------- --- - --- ----- ----- ----<br>---- --- --- ----- --- ---- ---- ------- ----- ---- -------<br>--- --- -- ----- -- you ---- -- --- ---- -- ------ ------<br>--- ----- -- ----,79484.59999996424,79483.79999995232,79245.497,79244.89999997616,79262.165,79495.761,,44,you
screen,html.Screen,0_2_0_1_45,2021-11-12T10:00:38.542Z,,,,,,,,,,,,,,,,53,,,,,,,,,,,,,,236.03899995231768,,response,,,99,,,,,,Space,keypress(Space),,,,,---- -- ----- -- ------ - ------- --- ----------<br>------------- ------ ------ ---- ---- ------- ----- -- ----<br>-------- ------- -- ---------- --- - --- ----- ----- ----<br>---- --- --- ----- --- ---- ---- ------- ----- ---- -------<br>--- --- -- ----- -- --- want -- --- ---- -- ------ ------<br>--- ----- -- ----,79732.59999996424,79731.79999995232,79479.088,79484.79999995232,79495.761,79745.737,,45,want
screen,html.Screen,0_2_0_1_46,2021-11-12T10:00:38.846Z,,,,,,,,,,,,,,,,53,,,,,,,,,,,,,,290.06299995232257,,response,,,99,,,,,,Space,keypress(Space),,,,,---- -- ----- -- ------ - ------- --- ----------<br>------------- ------ ------ ---- ---- ------- ----- -- ----<br>-------- ------- -- ---------- --- - --- ----- ----- ----<br>---- --- --- ----- --- ---- ---- ------- ----- ---- -------<br>--- --- -- ----- -- --- ---- to --- ---- -- ------ ------<br>--- ----- -- ----,80036.59999996424,80035.79999995232,79729.067,79732.89999997616,79745.737,80045.81,,46,to
screen,html.Screen,0_2_0_1_47,2021-11-12T10:00:39.158Z,,,,,,,,,,,,,,,,53,,,,,,,,,,,,,,301.8899999880814,,response,,,99,,,,,,Space,keypress(Space),,,,,"---- -- ----- -- ------ - ------- --- ----------<br>------------- ------ ------ ---- ---- ------- ----- -- ----<br>-------- ------- -- ---------- --- - --- ----- ----- ----<br>---- --- --- ----- --- ---- ---- ------- ----- ---- -------<br>--- --- -- ----- -- --- ---- -- be, ---- -- ------ ------<br>--- ----- -- ----",80348.59999996424,80347.69999998808,80029.14,80036.79999995232,80045.81,80362.597,,47,"be,"
screen,html.Screen,0_2_0_1_48,2021-11-12T10:00:39.414Z,,,,,,,,,,,,,,,,53,,,,,,,,,,,,,,241.10299998808478,,response,,,99,,,,,,Space,keypress(Space),,,,,---- -- ----- -- ------ - ------- --- ----------<br>------------- ------ ------ ---- ---- ------- ----- -- ----<br>-------- ------- -- ---------- --- - --- ----- ----- ----<br>---- --- --- ----- --- ---- ---- ------- ----- ---- -------<br>--- --- -- ----- -- --- ---- -- --- even -- ------ ------<br>--- ----- -- ----,80604.59999996424,80603.69999998808,80345.926,80348.79999995232,80362.597,80612.536,,48,even
screen,html.Screen,0_2_0_1_49,2021-11-12T10:00:39.726Z,,,,,,,,,,,,,,,,53,,,,,,,,,,,,,,303.2639999523235,,response,,,99,,,,,,Space,keypress(Space),,,,,---- -- ----- -- ------ - ------- --- ----------<br>------------- ------ ------ ---- ---- ------- ----- -- ----<br>-------- ------- -- ---------- --- - --- ----- ----- ----<br>---- --- --- ----- --- ---- ---- ------- ----- ---- -------<br>--- --- -- ----- -- --- ---- -- --- ---- if ------ ------<br>--- ----- -- ----,80916.5,80915.79999995232,80595.868,80604.79999995232,80612.536,80929.394,,49,if
screen,html.Screen,0_2_0_1_50,2021-11-12T10:00:39.998Z,,,,,,,,,,,,,,,,53,,,,,,,,,,,,,,258.40599995231605,,response,,,99,,,,,,Space,keypress(Space),,,,,---- -- ----- -- ------ - ------- --- ----------<br>------------- ------ ------ ---- ---- ------- ----- -- ----<br>-------- ------- -- ---------- --- - --- ----- ----- ----<br>---- --- --- ----- --- ---- ---- ------- ----- ---- -------<br>--- --- -- ----- -- --- ---- -- --- ---- -- that's ------<br>--- ----- -- ----,81188.59999996424,81187.79999995232,80912.723,80916.79999995232,80929.394,81196.148,,50,that's
screen,html.Screen,0_2_0_1_51,2021-11-12T10:00:40.262Z,,,,,,,,,,,,,,,,53,,,,,,,,,,,,,,255.65199995231524,,response,,,99,,,,,,Space,keypress(Space),,,,,---- -- ----- -- ------ - ------- --- ----------<br>------------- ------ ------ ---- ---- ------- ----- -- ----<br>-------- ------- -- ---------- --- - --- ----- ----- ----<br>---- --- --- ----- --- ---- ---- ------- ----- ---- -------<br>--- --- -- ----- -- --- ---- -- --- ---- -- ------ really<br>--- ----- -- ----,81452.59999996424,81451.79999995232,81179.477,81188.79999995232,81196.148,81462.852,,51,really
screen,html.Screen,0_2_0_1_52,2021-11-12T10:00:40.750Z,,,,,,,,,,,,,,,,53,,,,,,,,,,,,,,476.8479999880801,,response,,,99,,,,,,Space,keypress(Space),,,,,---- -- ----- -- ------ - ------- --- ----------<br>------------- ------ ------ ---- ---- ------- ----- -- ----<br>-------- ------- -- ---------- --- - --- ----- ----- ----<br>---- --- --- ----- --- ---- ---- ------- ----- ---- -------<br>--- --- -- ----- -- --- ---- -- --- ---- -- ------ ------<br>not ----- -- ----,81940.59999996424,81939.69999998808,81446.182,81452.79999995232,81462.852,81946.28,,52,not
screen,html.Screen,0_2_0_1_53,2021-11-12T10:00:41.110Z,,,,,,,,,,,,,,,,53,,,,,,,,,,,,,,353.41999998808024,,response,,,99,,,,,,Space,keypress(Space),,,,,---- -- ----- -- ------ - ------- --- ----------<br>------------- ------ ------ ---- ---- ------- ----- -- ----<br>-------- ------- -- ---------- --- - --- ----- ----- ----<br>---- --- --- ----- --- ---- ---- ------- ----- ---- -------<br>--- --- -- ----- -- --- ---- -- --- ---- -- ------ ------<br>--- close -- ----,82300.5,82299.69999998808,81929.61,81940.79999995232,81946.28,82313.104,,53,close
screen,html.Screen,0_2_0_1_54,2021-11-12T10:00:41.550Z,,,,,,,,,,,,,,,,53,,,,,,,,,,,,,,426.4959999642306,,response,,,99,,,,,,Space,keypress(Space),,,,,---- -- ----- -- ------ - ------- --- ----------<br>------------- ------ ------ ---- ---- ------- ----- -- ----<br>-------- ------- -- ---------- --- - --- ----- ----- ----<br>---- --- --- ----- --- ---- ---- ------- ----- ---- -------<br>--- --- -- ----- -- --- ---- -- --- ---- -- ------ ------<br>--- ----- at ----,82740.5,82739.59999996424,82296.433,82300.69999998808,82313.104,82746.49,,54,at
screen,html.Screen,0_2_0_1_55,2021-11-12T10:00:42.366Z,,,,,,,,,,,,,,,,53,,,,,,,,,,,,,,809.109999964232,,response,,,99,,,,,,Space,keypress(Space),,,,,---- -- ----- -- ------ - ------- --- ----------<br>------------- ------ ------ ---- ---- ------- ----- -- ----<br>-------- ------- -- ---------- --- - --- ----- ----- ----<br>---- --- --- ----- --- ---- ---- ------- ----- ---- -------<br>--- --- -- ----- -- --- ---- -- --- ---- -- ------ ------<br>--- ----- -- all.,83556.39999997616,83555.59999996424,82729.82,82740.69999998808,82746.49,83563.411,,55,all.
Item 99,flow.Loop,0_2_0_1,2021-11-12T10:00:42.370Z,,,,,,,,,,,,,,,,,,,,,,,,,,,,,,22114.678999964235,,completion,,,,A,,,,,,,,,,silence,,83561,83555.59999996424,61424.251,61431.19999998808,61440.921,83563.411,,,
Question 1,html.Screen,0_2_0_2,2021-11-12T10:00:49.627Z,,,,,,,,,,,,,,,,,,,,,,,,,,,true,FALSE,,7252.788999988086,,response,,,99,A,,,,,FALSE,click #choice-2,,,,silence,,90817.69999998808,90816.19999998808,83546.74,83561.29999995232,83563.411,90831.898,,,
Question 2,html.Screen,0_2_0_3,2021-11-12T10:00:53.625Z,,,,,,,,,,,,,,,,,,,,,,,,,,,true,TRUE,,3982.701999964236,,response,,,99,A,,,,,TRUE,click #choice-1,,,,silence,,94815.89999997616,94814.59999996424,90815.228,90818,90831.898,94816.28,,,
Item 99,flow.Sequence,0_2_0,2021-11-12T10:00:53.626Z,,,,,,,,,,,,,,,,,,,,,,,,,,,,,,43376.16999996424,,completion,,,,,,,,,,,,,,,,94816.5,94814.59999996424,51421.759,51439.299999952316,51438.43,94816.28,,,
Holding screen,html.Screen,0_2_1_0,2021-11-12T10:01:03.613Z,,,,,,,,,,,,,,,,,,,,,,,,,,,,,,10002.440000000002,,timeout,,,,,,,,,,,,,,,,104803.29999995232,104802.05,94799.61,94817,94816.28,104818.72,,,
screen,html.Screen,0_2_1_1_0,2021-11-12T10:01:04.365Z,,,,,,,,,,,,,,,,54,,,,,,,,,,,,,,736.2799999999988,,response,,,100,,,,,,Space,keypress(Space),,,,,At --- ---- --- ------ ----- ------- ---- -- --- ------- --<br>------- ---------- ------ -- ----- -- ----- -- ---- ------<br>--- ----- --- --- ------ -------- ----- --- ------ ----- --<br>----- ----- ---------- --- --- ------ ------ ---- -- ------<br>------- --- ------ ----- --- ---- ------- -- ---- --- --<br>------- ------,105555.79999995232,105555,104802.05,104803.69999998808,104818.72,105569.036,,0,At
screen,html.Screen,0_2_1_1_1,2021-11-12T10:01:04.837Z,,,,,,,,,,,,,,,,54,,,,,,,,,,,,,,457.36399997616536,,response,,,100,,,,,,Space,keypress(Space),,,,,-- the ---- --- ------ ----- ------- ---- -- --- ------- --<br>------- ---------- ------ -- ----- -- ----- -- ---- ------<br>--- ----- --- --- ------ -------- ----- --- ------ ----- --<br>----- ----- ---------- --- --- ------ ------ ---- -- ------<br>------- --- ------ ----- --- ---- ------- -- ---- --- --<br>------- ------,106027.19999998808,106026.39999997616,105552.365,105556.19999998808,105569.036,106035.757,,1,the
screen,html.Screen,0_2_1_1_2,2021-11-12T10:01:05.181Z,,,,,,,,,,,,,,,,54,,,,,,,,,,,,,,334.5429999523185,,response,,,100,,,,,,Space,keypress(Space),,,,,-- --- time --- ------ ----- ------- ---- -- --- ------- --<br>------- ---------- ------ -- ----- -- ----- -- ---- ------<br>--- ----- --- --- ------ -------- ----- --- ------ ----- --<br>----- ----- ---------- --- --- ------ ------ ---- -- ------<br>------- --- ------ ----- --- ---- ------- -- ---- --- --<br>------- ------,106371.09999996424,106370.29999995232,106019.087,106027.5,106035.757,106385.99,,2,time
screen,html.Screen,0_2_1_1_3,2021-11-12T10:01:05.533Z,,,,,,,,,,,,,,,,54,,,,,,,,,,,,,,336.4099999761529,,response,,,100,,,,,,Space,keypress(Space),,,,,-- --- ---- the ------ ----- ------- ---- -- --- ------- --<br>------- ---------- ------ -- ----- -- ----- -- ---- ------<br>--- ----- --- --- ------ -------- ----- --- ------ ----- --<br>----- ----- ---------- --- --- ------ ------ ---- -- ------<br>------- --- ------ ----- --- ---- ------- -- ---- --- --<br>------- ------,106723.19999998808,106722.39999997616,106369.318,106371.5,106385.99,106736.01,,3,the
screen,html.Screen,0_2_1_1_4,2021-11-12T10:01:05.846Z,,,,,,,,,,,,,,,,54,,,,,,,,,,,,,,298.3899999761634,,response,,,100,,,,,,Space,keypress(Space),,,,,-- --- ---- --- French ----- ------- ---- -- --- ------- --<br>------- ---------- ------ -- ----- -- ----- -- ---- ------<br>--- ----- --- --- ------ -------- ----- --- ------ ----- --<br>----- ----- ---------- --- --- ------ ------ ---- -- ------<br>------- --- ------ ----- --- ---- ------- -- ---- --- --<br>------- ------,107036.89999997616,107034.39999997616,106719.34,106723.39999997616,106736.01,107052.795,,4,French
screen,html.Screen,0_2_1_1_5,2021-11-12T10:01:06.213Z,,,,,,,,,,,,,,,,54,,,,,,,,,,,,,,349.50499995231803,,response,,,100,,,,,,Space,keypress(Space),,,,,-- --- ---- --- ------ crown ------- ---- -- --- ------- --<br>------- ---------- ------ -- ----- -- ----- -- ---- ------<br>--- ----- --- --- ------ -------- ----- --- ------ ----- --<br>----- ----- ---------- --- --- ------ ------ ---- -- ------<br>------- --- ------ ----- --- ---- ------- -- ---- --- --<br>------- ------,107403.5,107402.29999995232,107036.124,107037.09999996424,107052.795,107419.505,,5,crown
screen,html.Screen,0_2_1_1_6,2021-11-12T10:01:06.645Z,,,,,,,,,,,,,,,,54,,,,,,,,,,,,,,414.7949999523116,,response,,,100,,,,,,Space,keypress(Space),,,,,-- --- ---- --- ------ ----- secured ---- -- --- ------- --<br>------- ---------- ------ -- ----- -- ----- -- ---- ------<br>--- ----- --- --- ------ -------- ----- --- ------ ----- --<br>----- ----- ---------- --- --- ------ ------ ---- -- ------<br>------- --- ------ ----- --- ---- ------- -- ---- --- --<br>------- ------,107835.09999996424,107834.29999995232,107402.835,107403.69999998808,107419.505,107836.14,,6,secured
screen,html.Screen,0_2_1_1_7,2021-11-12T10:01:07.172Z,,,,,,,,,,,,,,,,54,,,,,,,,,,,,,,525.7599999761587,,response,,,100,,,,,,Space,keypress(Space),,,,,-- --- ---- --- ------ ----- ------- much -- --- ------- --<br>------- ---------- ------ -- ----- -- ----- -- ---- ------<br>--- ----- --- --- ------ -------- ----- --- ------ ----- --<br>----- ----- ---------- --- --- ------ ------ ---- -- ------<br>------- --- ------ ----- --- ---- ------- -- ---- --- --<br>------- ------,108362.29999995232,108361.89999997616,107819.472,107835.39999997616,107836.14,108369.868,,7,much
screen,html.Screen,0_2_1_1_8,2021-11-12T10:01:07.789Z,,,,,,,,,,,,,,,,54,,,,,,,,,,,,,,608.3319999880769,,response,,,100,,,,,,Space,keypress(Space),,,,,-- --- ---- --- ------ ----- ------- ---- of --- ------- --<br>------- ---------- ------ -- ----- -- ----- -- ---- ------<br>--- ----- --- --- ------ -------- ----- --- ------ ----- --<br>----- ----- ---------- --- --- ------ ------ ---- -- ------<br>------- --- ------ ----- --- ---- ------- -- ---- --- --<br>------- ------,108979.09999996424,108978.19999998808,108353.195,108362.39999997616,108369.868,108986.596,,8,of
screen,html.Screen,0_2_1_1_9,2021-11-12T10:01:08.165Z,,,,,,,,,,,,,,,,54,,,,,,,,,,,,,,367.5039999642322,,response,,,100,,,,,,Space,keypress(Space),,,,,-- --- ---- --- ------ ----- ------- ---- -- its ------- --<br>------- ---------- ------ -- ----- -- ----- -- ---- ------<br>--- ----- --- --- ------ -------- ----- --- ------ ----- --<br>----- ----- ---------- --- --- ------ ------ ---- -- ------<br>------- --- ------ ----- --- ---- ------- -- ---- --- --<br>------- ------,109355,109354.09999996424,108969.925,108979.39999997616,108986.596,109369.825,,9,its
screen,html.Screen,0_2_1_1_10,2021-11-12T10:01:08.661Z,,,,,,,,,,,,,,,,54,,,,,,,,,,,,,,480.374999988082,,response,,,100,,,,,,Space,keypress(Space),,,,,-- --- ---- --- ------ ----- ------- ---- -- --- revenue --<br>------- ---------- ------ -- ----- -- ----- -- ---- ------<br>--- ----- --- --- ------ -------- ----- --- ------ ----- --<br>----- ----- ---------- --- --- ------ ------ ---- -- ------<br>------- --- ------ ----- --- ---- ------- -- ---- --- --<br>------- ------,109851,109850.19999998808,109353.157,109355.29999995232,109369.825,109853.57,,10,revenue
screen,html.Screen,0_2_1_1_11,2021-11-12T10:01:09.108Z,,,,,,,,,,,,,,,,54,,,,,,,,,,,,,,444.5299999642302,,response,,,100,,,,,,Space,keypress(Space),,,,,-- --- ---- --- ------ ----- ------- ---- -- --- ------- by<br>------- ---------- ------ -- ----- -- ----- -- ---- ------<br>--- ----- --- --- ------ -------- ----- --- ------ ----- --<br>----- ----- ---------- --- --- ------ ------ ---- -- ------<br>------- --- ------ ----- --- ---- ------- -- ---- --- --<br>------- ------,110298.89999997616,110298.09999996424,109836.898,109851.29999995232,109853.57,110303.578,,11,by
screen,html.Screen,0_2_1_1_12,2021-11-12T10:01:09.508Z,,,,,,,,,,,,,,,,54,,,,,,,,,,,,,,394.52199996424315,,response,,,100,,,,,,Space,keypress(Space),,,,,-- --- ---- --- ------ ----- ------- ---- -- --- ------- --<br>issuing ---------- ------ -- ----- -- ----- -- ---- ------<br>--- ----- --- --- ------ -------- ----- --- ------ ----- --<br>----- ----- ---------- --- --- ------ ------ ---- -- ------<br>------- --- ------ ----- --- ---- ------- -- ---- --- --<br>------- ------,110698.89999997616,110698.09999996424,110286.908,110299.09999996424,110303.578,110703.696,,12,issuing
screen,html.Screen,0_2_1_1_13,2021-11-12T10:01:09.916Z,,,,,,,,,,,,,,,,54,,,,,,,,,,,,,,402.3040000000037,,response,,,100,,,,,,Space,keypress(Space),,,,,-- --- ---- --- ------ ----- ------- ---- -- --- ------- --<br>------- government ------ -- ----- -- ----- -- ---- ------<br>--- ----- --- --- ------ -------- ----- --- ------ ----- --<br>----- ----- ---------- --- --- ------ ------ ---- -- ------<br>------- --- ------ ----- --- ---- ------- -- ---- --- --<br>------- ------,111106.79999995232,111106,110687.026,110699.19999998808,110703.696,111120.507,,13,government
screen,html.Screen,0_2_1_1_14,2021-11-12T10:01:10.324Z,,,,,,,,,,,,,,,,54,,,,,,,,,,,,,,393.4930000000022,,response,,,100,,,,,,Space,keypress(Space),,,,,-- --- ---- --- ------ ----- ------- ---- -- --- ------- --<br>------- ---------- bonds. -- ----- -- ----- -- ---- ------<br>--- ----- --- --- ------ -------- ----- --- ------ ----- --<br>----- ----- ---------- --- --- ------ ------ ---- -- ------<br>------- --- ------ ----- --- ---- ------- -- ---- --- --<br>------- ------,111514.79999995232,111514,111103.836,111107.09999996424,111120.507,111520.564,,14,bonds.
screen,html.Screen,0_2_1_1_15,2021-11-12T10:01:11.124Z,,,,,,,,,,,,,,,,54,,,,,,,,,,,,,,793.3359999761597,,response,,,100,,,,,,Space,keypress(Space),,,,,-- --- ---- --- ------ ----- ------- ---- -- --- ------- --<br>------- ---------- ------ In ----- -- ----- -- ---- ------<br>--- ----- --- --- ------ -------- ----- --- ------ ----- --<br>----- ----- ---------- --- --- ------ ------ ---- -- ------<br>------- --- ------ ----- --- ---- ------- -- ---- --- --<br>------- ------,112314.39999997616,112313.89999997616,111503.894,111515.09999996424,111520.564,112320.753,,15,In
screen,html.Screen,0_2_1_1_16,2021-11-12T10:01:11.516Z,,,,,,,,,,,,,,,,54,,,,,,,,,,,,,,385.247000000003,,response,,,100,,,,,,Space,keypress(Space),,,,,"-- --- ---- --- ------ ----- ------- ---- -- --- ------- --<br>------- ---------- ------ -- 1727, -- ----- -- ---- ------<br>--- ----- --- --- ------ -------- ----- --- ------ ----- --<br>----- ----- ---------- --- --- ------ ------ ---- -- ------<br>------- --- ------ ----- --- ---- ------- -- ---- --- --<br>------- ------",112706.79999995232,112706,112304.083,112314.5,112320.753,112720.875,,16,"1727,"
screen,html.Screen,0_2_1_1_17,2021-11-12T10:01:11.836Z,,,,,,,,,,,,,,,,54,,,,,,,,,,,,,,305.125,,response,,,100,,,,,,Space,keypress(Space),,,,,-- --- ---- --- ------ ----- ------- ---- -- --- ------- --<br>------- ---------- ------ -- ----- in ----- -- ---- ------<br>--- ----- --- --- ------ -------- ----- --- ------ ----- --<br>----- ----- ---------- --- --- ------ ------ ---- -- ------<br>------- --- ------ ----- --- ---- ------- -- ---- --- --<br>------- ------,113026.79999995232,113026,112704.205,112707.09999996424,112720.875,113037.631,,17,in
screen,html.Screen,0_2_1_1_18,2021-11-12T10:01:12.388Z,,,,,,,,,,,,,,,,54,,,,,,,,,,,,,,540.2689999761642,,response,,,100,,,,,,Space,keypress(Space),,,,,-- --- ---- --- ------ ----- ------- ---- -- --- ------- --<br>------- ---------- ------ -- ----- -- order -- ---- ------<br>--- ----- --- --- ------ -------- ----- --- ------ ----- --<br>----- ----- ---------- --- --- ------ ------ ---- -- ------<br>------- --- ------ ----- --- ---- ------- -- ---- --- --<br>------- ------,113578.69999998808,113577.89999997616,113020.961,113027.09999996424,113037.631,113587.654,,18,order
screen,html.Screen,0_2_1_1_19,2021-11-12T10:01:13.028Z,,,,,,,,,,,,,,,,54,,,,,,,,,,,,,,630.2459999761631,,response,,,100,,,,,,Space,keypress(Space),,,,,-- --- ---- --- ------ ----- ------- ---- -- --- ------- --<br>------- ---------- ------ -- ----- -- ----- to ---- ------<br>--- ----- --- --- ------ -------- ----- --- ------ ----- --<br>----- ----- ---------- --- --- ------ ------ ---- -- ------<br>------- --- ------ ----- --- ---- ------- -- ---- --- --<br>------- ------,114218.69999998808,114217.89999997616,113570.985,113579.09999996424,113587.654,114221.471,,19,to
screen,html.Screen,0_2_1_1_20,2021-11-12T10:01:13.364Z,,,,,,,,,,,,,,,,54,,,,,,,,,,,,,,332.42899997615314,,response,,,100,,,,,,Space,keypress(Space),,,,,-- --- ---- --- ------ ----- ------- ---- -- --- ------- --<br>------- ---------- ------ -- ----- -- ----- -- save ------<br>--- ----- --- --- ------ -------- ----- --- ------ ----- --<br>----- ----- ---------- --- --- ------ ------ ---- -- ------<br>------- --- ------ ----- --- ---- ------- -- ---- --- --<br>------- ------,114554.69999998808,114553.89999997616,114204.798,114219,114221.471,114571.334,,20,save
screen,html.Screen,0_2_1_1_21,2021-11-12T10:01:13.740Z,,,,,,,,,,,,,,,,54,,,,,,,,,,,,,,358.4659999523137,,response,,,100,,,,,,Space,keypress(Space),,,,,"-- --- ---- --- ------ ----- ------- ---- -- --- ------- --<br>------- ---------- ------ -- ----- -- ----- -- ---- money,<br>--- ----- --- --- ------ -------- ----- --- ------ ----- --<br>----- ----- ---------- --- --- ------ ------ ---- -- ------<br>------- --- ------ ----- --- ---- ------- -- ---- --- --<br>------- ------",114930.69999998808,114929.79999995232,114554.664,114554.89999997616,114571.334,114938.08,,21,"money,"
screen,html.Screen,0_2_1_1_22,2021-11-12T10:01:14.196Z,,,,,,,,,,,,,,,,54,,,,,,,,,,,,,,447.8199999761564,,response,,,100,,,,,,Space,keypress(Space),,,,,-- --- ---- --- ------ ----- ------- ---- -- --- ------- --<br>------- ---------- ------ -- ----- -- ----- -- ---- ------<br>the ----- --- --- ------ -------- ----- --- ------ ----- --<br>----- ----- ---------- --- --- ------ ------ ---- -- ------<br>------- --- ------ ----- --- ---- ------- -- ---- --- --<br>------- ------,115386.59999996424,115385.89999997616,114921.41,114930.89999997616,114938.08,115388.319,,22,the
screen,html.Screen,0_2_1_1_23,2021-11-12T10:01:14.509Z,,,,,,,,,,,,,,,,54,,,,,,,,,,,,,,309.98099995231314,,response,,,100,,,,,,Space,keypress(Space),,,,,-- --- ---- --- ------ ----- ------- ---- -- --- ------- --<br>------- ---------- ------ -- ----- -- ----- -- ---- ------<br>--- state --- --- ------ -------- ----- --- ------ ----- --<br>----- ----- ---------- --- --- ------ ------ ---- -- ------<br>------- --- ------ ----- --- ---- ------- -- ---- --- --<br>------- ------,115699.19999998808,115698.29999995232,115371.647,115386.89999997616,115388.319,115705.001,,23,state
screen,html.Screen,0_2_1_1_24,2021-11-12T10:01:14.884Z,,,,,,,,,,,,,,,,54,,,,,,,,,,,,,,368.8989999761543,,response,,,100,,,,,,Space,keypress(Space),,,,,-- --- ---- --- ------ ----- ------- ---- -- --- ------- --<br>------- ---------- ------ -- ----- -- ----- -- ---- ------<br>--- ----- cut --- ------ -------- ----- --- ------ ----- --<br>----- ----- ---------- --- --- ------ ------ ---- -- ------<br>------- --- ------ ----- --- ---- ------- -- ---- --- --<br>------- ------,116074.69999998808,116073.89999997616,115688.331,115699.39999997616,115705.001,116088.297,,24,cut
screen,html.Screen,0_2_1_1_25,2021-11-12T10:01:15.220Z,,,,,,,,,,,,,,,,54,,,,,,,,,,,,,,321.50299995231035,,response,,,100,,,,,,Space,keypress(Space),,,,,-- --- ---- --- ------ ----- ------- ---- -- --- ------- --<br>------- ---------- ------ -- ----- -- ----- -- ---- ------<br>--- ----- --- the ------ -------- ----- --- ------ ----- --<br>----- ----- ---------- --- --- ------ ------ ---- -- ------<br>------- --- ------ ----- --- ---- ------- -- ---- --- --<br>------- ------,116410.59999996424,116409.79999995232,116071.629,116075,116088.297,116421.922,,25,the
screen,html.Screen,0_2_1_1_26,2021-11-12T10:01:15.548Z,,,,,,,,,,,,,,,,54,,,,,,,,,,,,,,315.87799995231035,,response,,,100,,,,,,Space,keypress(Space),,,,,-- --- ---- --- ------ ----- ------- ---- -- --- ------- --<br>------- ---------- ------ -- ----- -- ----- -- ---- ------<br>--- ----- --- --- bonds' -------- ----- --- ------ ----- --<br>----- ----- ---------- --- --- ------ ------ ---- -- ------<br>------- --- ------ ----- --- ---- ------- -- ---- --- --<br>------- ------,116738.59999996424,116737.79999995232,116405.25,116410.89999997616,116421.922,116755.259,,26,bonds'
screen,html.Screen,0_2_1_1_27,2021-11-12T10:01:15.892Z,,,,,,,,,,,,,,,,54,,,,,,,,,,,,,,326.5409999523108,,response,,,100,,,,,,Space,keypress(Space),,,,,-- --- ---- --- ------ ----- ------- ---- -- --- ------- --<br>------- ---------- ------ -- ----- -- ----- -- ---- ------<br>--- ----- --- --- ------ interest ----- --- ------ ----- --<br>----- ----- ---------- --- --- ------ ------ ---- -- ------<br>------- --- ------ ----- --- ---- ------- -- ---- --- --<br>------- ------,117082.59999996424,117081.79999995232,116738.589,116738.89999997616,116755.259,117088.678,,27,interest
screen,html.Screen,0_2_1_1_28,2021-11-12T10:01:16.259Z,,,,,,,,,,,,,,,,54,,,,,,,,,,,,,,360.72199997615826,,response,,,100,,,,,,Space,keypress(Space),,,,,-- --- ---- --- ------ ----- ------- ---- -- --- ------- --<br>------- ---------- ------ -- ----- -- ----- -- ---- ------<br>--- ----- --- --- ------ -------- rate. --- ------ ----- --<br>----- ----- ---------- --- --- ------ ------ ---- -- ------<br>------- --- ------ ----- --- ---- ------- -- ---- --- --<br>------- ------,117450,117449.39999997616,117072.008,117082.89999997616,117088.678,117455.47,,28,rate.
screen,html.Screen,0_2_1_1_29,2021-11-12T10:01:17.004Z,,,,,,,,,,,,,,,,54,,,,,,,,,,,,,,738.2299999880779,,response,,,100,,,,,,Space,keypress(Space),,,,,-- --- ---- --- ------ ----- ------- ---- -- --- ------- --<br>------- ---------- ------ -- ----- -- ----- -- ---- ------<br>--- ----- --- --- ------ -------- ----- The ------ ----- --<br>----- ----- ---------- --- --- ------ ------ ---- -- ------<br>------- --- ------ ----- --- ---- ------- -- ---- --- --<br>------- ------,118194.59999996424,118193.69999998808,117438.799,117450.09999996424,117455.47,118205.613,,29,The
screen,html.Screen,0_2_1_1_30,2021-11-12T10:01:17.340Z,,,,,,,,,,,,,,,,54,,,,,,,,,,,,,,324.0869999880815,,response,,,100,,,,,,Space,keypress(Space),,,,,-- --- ---- --- ------ ----- ------- ---- -- --- ------- --<br>------- ---------- ------ -- ----- -- ----- -- ---- ------<br>--- ----- --- --- ------ -------- ----- --- market ----- --<br>----- ----- ---------- --- --- ------ ------ ---- -- ------<br>------- --- ------ ----- --- ---- ------- -- ---- --- --<br>------- ------,118530.5,118529.69999998808,118188.943,118194.79999995232,118205.613,118539.015,,30,market
screen,html.Screen,0_2_1_1_31,2021-11-12T10:01:18.468Z,,,,,,,,,,,,,,,,54,,,,,,,,,,,,,,1118.5849999642378,,response,,,100,,,,,,Space,keypress(Space),,,,,-- --- ---- --- ------ ----- ------- ---- -- --- ------- --<br>------- ---------- ------ -- ----- -- ----- -- ---- ------<br>--- ----- --- --- ------ -------- ----- --- ------ value --<br>----- ----- ---------- --- --- ------ ------ ---- -- ------<br>------- --- ------ ----- --- ---- ------- -- ---- --- --<br>------- ------,119658.5,119657.59999996424,118522.345,118530.79999995232,118539.015,119672.629,,31,value
screen,html.Screen,0_2_1_1_32,2021-11-12T10:01:18.892Z,,,,,,,,,,,,,,,,54,,,,,,,,,,,,,,408.9709999642364,,response,,,100,,,,,,Space,keypress(Space),,,,,-- --- ---- --- ------ ----- ------- ---- -- --- ------- --<br>------- ---------- ------ -- ----- -- ----- -- ---- ------<br>--- ----- --- --- ------ -------- ----- --- ------ ----- of<br>----- ----- ---------- --- --- ------ ------ ---- -- ------<br>------- --- ------ ----- --- ---- ------- -- ---- --- --<br>------- ------,120082.39999997616,120081.59999996424,119655.959,119658.69999998808,119672.629,120089.49,,32,of
screen,html.Screen,0_2_1_1_33,2021-11-12T10:01:19.287Z,,,,,,,,,,,,,,,,54,,,,,,,,,,,,,,384.109999964232,,response,,,100,,,,,,Space,keypress(Space),,,,,-- --- ---- --- ------ ----- ------- ---- -- --- ------- --<br>------- ---------- ------ -- ----- -- ----- -- ---- ------<br>--- ----- --- --- ------ -------- ----- --- ------ ----- --<br>these ----- ---------- --- --- ------ ------ ---- -- ------<br>------- --- ------ ----- --- ---- ------- -- ---- --- --<br>------- ------,120474.39999997616,120473.59999996424,120072.819,120082.59999996424,120089.49,120489.539,,33,these
screen,html.Screen,0_2_1_1_34,2021-11-12T10:01:19.591Z,,,,,,,,,,,,,,,,54,,,,,,,,,,,,,,288.0609999642329,,response,,,100,,,,,,Space,keypress(Space),,,,,-- --- ---- --- ------ ----- ------- ---- -- --- ------- --<br>------- ---------- ------ -- ----- -- ----- -- ---- ------<br>--- ----- --- --- ------ -------- ----- --- ------ ----- --<br>----- bonds ---------- --- --- ------ ------ ---- -- ------<br>------- --- ------ ----- --- ---- ------- -- ---- --- --<br>------- ------,120778.5,120777.59999996424,120472.869,120474.69999998808,120489.539,120789.661,,34,bonds
screen,html.Screen,0_2_1_1_35,2021-11-12T10:01:19.815Z,,,,,,,,,,,,,,,,54,,,,,,,,,,,,,,211.83900000000722,,response,,,100,,,,,,Space,keypress(Space),,,,,"-- --- ---- --- ------ ----- ------- ---- -- --- ------- --<br>------- ---------- ------ -- ----- -- ----- -- ---- ------<br>--- ----- --- --- ------ -------- ----- --- ------ ----- --<br>----- ----- plummeted, --- --- ------ ------ ---- -- ------<br>------- --- ------ ----- --- ---- ------- -- ---- --- --<br>------- ------",121002.39999997616,121001.5,120772.99,120778.59999996424,120789.661,121006.414,,35,"plummeted,"
screen,html.Screen,0_2_1_1_36,2021-11-12T10:01:20.143Z,,,,,,,,,,,,,,,,54,,,,,,,,,,,,,,323.0859999999957,,response,,,100,,,,,,Space,keypress(Space),,,,,-- --- ---- --- ------ ----- ------- ---- -- --- ------- --<br>------- ---------- ------ -- ----- -- ----- -- ---- ------<br>--- ----- --- --- ------ -------- ----- --- ------ ----- --<br>----- ----- ---------- and --- ------ ------ ---- -- ------<br>------- --- ------ ----- --- ---- ------- -- ---- --- --<br>------- ------,121330.29999995232,121329.5,120989.743,121002.69999998808,121006.414,121339.734,,36,and
screen,html.Screen,0_2_1_1_37,2021-11-12T10:01:20.519Z,,,,,,,,,,,,,,,,54,,,,,,,,,,,,,,365.6659999761614,,response,,,100,,,,,,Space,keypress(Space),,,,,-- --- ---- --- ------ ----- ------- ---- -- --- ------- --<br>------- ---------- ------ -- ----- -- ----- -- ---- ------<br>--- ----- --- --- ------ -------- ----- --- ------ ----- --<br>----- ----- ---------- --- the ------ ------ ---- -- ------<br>------- --- ------ ----- --- ---- ------- -- ---- --- --<br>------- ------,121706.19999998808,121705.39999997616,121323.065,121330.5,121339.734,121723.231,,37,the
screen,html.Screen,0_2_1_1_38,2021-11-12T10:01:20.807Z,,,,,,,,,,,,,,,,54,,,,,,,,,,,,,,270.26900000000023,,response,,,100,,,,,,Space,keypress(Space),,,,,-- --- ---- --- ------ ----- ------- ---- -- --- ------- --<br>------- ---------- ------ -- ----- -- ----- -- ---- ------<br>--- ----- --- --- ------ -------- ----- --- ------ ----- --<br>----- ----- ---------- --- --- market ------ ---- -- ------<br>------- --- ------ ----- --- ---- ------- -- ---- --- --<br>------- ------,121994.29999995232,121993.5,121706.56,121706.39999997616,121723.231,122006.601,,38,market
screen,html.Screen,0_2_1_1_39,2021-11-12T10:01:21.039Z,,,,,,,,,,,,,,,,54,,,,,,,,,,,,,,218.79899997616303,,response,,,100,,,,,,Space,keypress(Space),,,,,-- --- ---- --- ------ ----- ------- ---- -- --- ------- --<br>------- ---------- ------ -- ----- -- ----- -- ---- ------<br>--- ----- --- --- ------ -------- ----- --- ------ ----- --<br>----- ----- ---------- --- --- ------ became ---- -- ------<br>------- --- ------ ----- --- ---- ------- -- ---- --- --<br>------- ------,122226.19999998808,122225.39999997616,121989.931,121994.59999996424,122006.601,122239.992,,39,became
screen,html.Screen,0_2_1_1_40,2021-11-12T10:01:21.543Z,,,,,,,,,,,,,,,,54,,,,,,,,,,,,,,489.4079999761598,,response,,,100,,,,,,Space,keypress(Space),,,,,-- --- ---- --- ------ ----- ------- ---- -- --- ------- --<br>------- ---------- ------ -- ----- -- ----- -- ---- ------<br>--- ----- --- --- ------ -------- ----- --- ------ ----- --<br>----- ----- ---------- --- --- ------ ------ wary -- ------<br>------- --- ------ ----- --- ---- ------- -- ---- --- --<br>------- ------,122730.19999998808,122729.39999997616,122223.322,122226.5,122239.992,122740.204,,40,wary
screen,html.Screen,0_2_1_1_41,2021-11-12T10:01:22.031Z,,,,,,,,,,,,,,,,54,,,,,,,,,,,,,,477.19599997616024,,response,,,100,,,,,,Space,keypress(Space),,,,,-- --- ---- --- ------ ----- ------- ---- -- --- ------- --<br>------- ---------- ------ -- ----- -- ----- -- ---- ------<br>--- ----- --- --- ------ -------- ----- --- ------ ----- --<br>----- ----- ---------- --- --- ------ ------ ---- of ------<br>------- --- ------ ----- --- ---- ------- -- ---- --- --<br>------- ------,123218.19999998808,123217.39999997616,122723.532,122730.5,122740.204,123223.586,,41,of
screen,html.Screen,0_2_1_1_42,2021-11-12T10:01:22.407Z,,,,,,,,,,,,,,,,54,,,,,,,,,,,,,,369.81399997616245,,response,,,100,,,,,,Space,keypress(Space),,,,,-- --- ---- --- ------ ----- ------- ---- -- --- ------- --<br>------- ---------- ------ -- ----- -- ----- -- ---- ------<br>--- ----- --- --- ------ -------- ----- --- ------ ----- --<br>----- ----- ---------- --- --- ------ ------ ---- -- French<br>------- --- ------ ----- --- ---- ------- -- ---- --- --<br>------- ------,123594.19999998808,123593.39999997616,123206.916,123218.5,123223.586,123606.948,,42,French
screen,html.Screen,0_2_1_1_43,2021-11-12T10:01:22.783Z,,,,,,,,,,,,,,,,54,,,,,,,,,,,,,,362.8519999523123,,response,,,100,,,,,,Space,keypress(Space),,,,,-- --- ---- --- ------ ----- ------- ---- -- --- ------- --<br>------- ---------- ------ -- ----- -- ----- -- ---- ------<br>--- ----- --- --- ------ -------- ----- --- ------ ----- --<br>----- ----- ---------- --- --- ------ ------ ---- -- ------<br>credit. --- ------ ----- --- ---- ------- -- ---- --- --<br>------- ------,123970.59999996424,123969.79999995232,123590.279,123594.39999997616,123606.948,123973.81,,43,credit.
screen,html.Screen,0_2_1_1_44,2021-11-12T10:01:23.287Z,,,,,,,,,,,,,,,,54,,,,,,,,,,,,,,499.58999997616047,,response,,,100,,,,,,Space,keypress(Space),,,,,-- --- ---- --- ------ ----- ------- ---- -- --- ------- --<br>------- ---------- ------ -- ----- -- ----- -- ---- ------<br>--- ----- --- --- ------ -------- ----- --- ------ ----- --<br>----- ----- ---------- --- --- ------ ------ ---- -- ------<br>------- The ------ ----- --- ---- ------- -- ---- --- --<br>------- ------,124474.19999998808,124473.39999997616,123957.139,123970.79999995232,123973.81,124490.623,,44,The
screen,html.Screen,0_2_1_1_45,2021-11-12T10:01:23.615Z,,,,,,,,,,,,,,,,54,,,,,,,,,,,,,,310.6769999523094,,response,,,100,,,,,,Space,keypress(Space),,,,,-- --- ---- --- ------ ----- ------- ---- -- --- ------- --<br>------- ---------- ------ -- ----- -- ----- -- ---- ------<br>--- ----- --- --- ------ -------- ----- --- ------ ----- --<br>----- ----- ---------- --- --- ------ ------ ---- -- ------<br>------- --- French ----- --- ---- ------- -- ---- --- --<br>------- ------,124802.19999998808,124801.29999995232,124473.952,124474.39999997616,124490.623,124807.324,,45,French
screen,html.Screen,0_2_1_1_46,2021-11-12T10:01:23.903Z,,,,,,,,,,,,,,,,54,,,,,,,,,,,,,,282.0759999761649,,response,,,100,,,,,,Space,keypress(Space),,,,,-- --- ---- --- ------ ----- ------- ---- -- --- ------- --<br>------- ---------- ------ -- ----- -- ----- -- ---- ------<br>--- ----- --- --- ------ -------- ----- --- ------ ----- --<br>----- ----- ---------- --- --- ------ ------ ---- -- ------<br>------- --- ------ state --- ---- ------- -- ---- --- --<br>------- ------,125090.19999998808,125089.39999997616,124790.654,124802.5,124807.324,125107.404,,46,state
screen,html.Screen,0_2_1_1_47,2021-11-12T10:01:24.279Z,,,,,,,,,,,,,,,,54,,,,,,,,,,,,,,357.8959999523213,,response,,,100,,,,,,Space,keypress(Space),,,,,-- --- ---- --- ------ ----- ------- ---- -- --- ------- --<br>------- ---------- ------ -- ----- -- ----- -- ---- ------<br>--- ----- --- --- ------ -------- ----- --- ------ ----- --<br>----- ----- ---------- --- --- ------ ------ ---- -- ------<br>------- --- ------ ----- was ---- ------- -- ---- --- --<br>------- ------,125466.09999996424,125465.29999995232,125090.734,125090.5,125107.404,125474.197,,47,was
screen,html.Screen,0_2_1_1_48,2021-11-12T10:01:24.647Z,,,,,,,,,,,,,,,,54,,,,,,,,,,,,,,359.50299998807895,,response,,,100,,,,,,Space,keypress(Space),,,,,-- --- ---- --- ------ ----- ------- ---- -- --- ------- --<br>------- ---------- ------ -- ----- -- ----- -- ---- ------<br>--- ----- --- --- ------ -------- ----- --- ------ ----- --<br>----- ----- ---------- --- --- ------ ------ ---- -- ------<br>------- --- ------ ----- --- left ------- -- ---- --- --<br>------- ------,125834.5,125833.69999998808,125457.526,125466.29999995232,125474.197,125840.921,,48,left
screen,html.Screen,0_2_1_1_49,2021-11-12T10:01:24.983Z,,,,,,,,,,,,,,,,54,,,,,,,,,,,,,,328.3789999523142,,response,,,100,,,,,,Space,keypress(Space),,,,,-- --- ---- --- ------ ----- ------- ---- -- --- ------- --<br>------- ---------- ------ -- ----- -- ----- -- ---- ------<br>--- ----- --- --- ------ -------- ----- --- ------ ----- --<br>----- ----- ---------- --- --- ------ ------ ---- -- ------<br>------- --- ------ ----- --- ---- without -- ---- --- --<br>------- ------,126170.19999998808,126169.29999995232,125824.251,125834.79999995232,125840.921,126174.382,,49,without
screen,html.Screen,0_2_1_1_50,2021-11-12T10:01:25.399Z,,,,,,,,,,,,,,,,54,,,,,,,,,,,,,,410.9179999523185,,response,,,100,,,,,,Space,keypress(Space),,,,,-- --- ---- --- ------ ----- ------- ---- -- --- ------- --<br>------- ---------- ------ -- ----- -- ----- -- ---- ------<br>--- ----- --- --- ------ -------- ----- --- ------ ----- --<br>----- ----- ---------- --- --- ------ ------ ---- -- ------<br>------- --- ------ ----- --- ---- ------- an ---- --- --<br>------- ------,126586.09999996424,126585.29999995232,126157.711,126170.39999997616,126174.382,126591.104,,50,an
screen,html.Screen,0_2_1_1_51,2021-11-12T10:01:25.790Z,,,,,,,,,,,,,,,,54,,,,,,,,,,,,,,386.09599998807244,,response,,,100,,,,,,Space,keypress(Space),,,,,-- --- ---- --- ------ ----- ------- ---- -- --- ------- --<br>------- ---------- ------ -- ----- -- ----- -- ---- ------<br>--- ----- --- --- ------ -------- ----- --- ------ ----- --<br>----- ----- ---------- --- --- ------ ------ ---- -- ------<br>------- --- ------ ----- --- ---- ------- -- easy --- --<br>------- ------,126978,126977.19999998808,126574.434,126586.29999995232,126591.104,126991.257,,51,easy
screen,html.Screen,0_2_1_1_52,2021-11-12T10:01:26.302Z,,,,,,,,,,,,,,,,54,,,,,,,,,,,,,,497.9429999880813,,response,,,100,,,,,,Space,keypress(Space),,,,,-- --- ---- --- ------ ----- ------- ---- -- --- ------- --<br>------- ---------- ------ -- ----- -- ----- -- ---- ------<br>--- ----- --- --- ------ -------- ----- --- ------ ----- --<br>----- ----- ---------- --- --- ------ ------ ---- -- ------<br>------- --- ------ ----- --- ---- ------- -- ---- way --<br>------- ------,127490,127489.19999998808,126974.586,126978.29999995232,126991.257,127491.338,,52,way
screen,html.Screen,0_2_1_1_53,2021-11-12T10:01:26.710Z,,,,,,,,,,,,,,,,54,,,,,,,,,,,,,,405.8619999880757,,response,,,100,,,,,,Space,keypress(Space),,,,,-- --- ---- --- ------ ----- ------- ---- -- --- ------- --<br>------- ---------- ------ -- ----- -- ----- -- ---- ------<br>--- ----- --- --- ------ -------- ----- --- ------ ----- --<br>----- ----- ---------- --- --- ------ ------ ---- -- ------<br>------- --- ------ ----- --- ---- ------- -- ---- --- of<br>------- ------,127898,127897.19999998808,127474.668,127490.29999995232,127491.338,127908.108,,53,of
screen,html.Screen,0_2_1_1_54,2021-11-12T10:01:27.254Z,,,,,,,,,,,,,,,,54,,,,,,,,,,,,,,533.0919999880862,,response,,,100,,,,,,Space,keypress(Space),,,,,-- --- ---- --- ------ ----- ------- ---- -- --- ------- --<br>------- ---------- ------ -- ----- -- ----- -- ---- ------<br>--- ----- --- --- ------ -------- ----- --- ------ ----- --<br>----- ----- ---------- --- --- ------ ------ ---- -- ------<br>------- --- ------ ----- --- ---- ------- -- ---- --- --<br>raising ------,128442,128441.19999998808,127891.438,127898.19999998808,127908.108,128458.313,,54,raising
screen,html.Screen,0_2_1_1_55,2021-11-12T10:01:28.190Z,,,,,,,,,,,,,,,,54,,,,,,,,,,,,,,918.7869999642426,,response,,,100,,,,,,Space,keypress(Space),,,,,-- --- ---- --- ------ ----- ------- ---- -- --- ------- --<br>------- ---------- ------ -- ----- -- ----- -- ---- ------<br>--- ----- --- --- ------ -------- ----- --- ------ ----- --<br>----- ----- ---------- --- --- ------ ------ ---- -- ------<br>------- --- ------ ----- --- ---- ------- -- ---- --- --<br>------- money.,129377.89999997616,129377.09999996424,128441.642,128442.19999998808,128458.313,129391.698,,55,money.
Item 100,flow.Loop,0_2_1_1,2021-11-12T10:01:28.191Z,,,,,,,,,,,,,,,,,,,,,,,,,,,,,,24558.379999964236,,completion,,,,A,,,,,,,,,,silence,,129378.29999995232,129377.09999996424,104802.05,104803.59999996424,104818.72,129391.698,,,
Question 1,html.Screen,0_2_1_2,2021-11-12T10:01:30.629Z,,,,,,,,,,,,,,,,,,,,,,,,,,,true,TRUE,,2423.301999999996,,response,,,100,A,,,,,TRUE,click #choice-1,,,,silence,,131816.19999998808,131815,129375.029,129378.59999996424,129391.698,131825.848,,,
Question 2,html.Screen,0_2_1_3,2021-11-12T10:01:33.466Z,,,,,,,,,,,,,,,,,,,,,,,,,,,true,FALSE,,2826.152000000002,,response,,,100,A,,,,,FALSE,click #choice-2,,,,silence,,134653.39999997616,134652,131809.176,131816.5,131825.848,134660.345,,,
Item 100,flow.Sequence,0_2_1,2021-11-12T10:01:33.466Z,,,,,,,,,,,,,,,,,,,,,,,,,,,,,,39835.72,,completion,,,,,,,,,,,,,,,,134653.79999995232,134652,94799.61,94816.79999995232,94816.28,134660.345,,,
End of Practice,html.Page,0_2_2,2021-11-12T10:01:39.001Z,,,,,,,,,,,,,,,,,,,,,,,,,,,,,,5527.854999988078,,form submission,,,,,,,,,,,,,,,,140188.89999997616,140188.19999998808,134643.666,134654,134660.345,140194.603,,,
Practice,flow.Sequence,0_2,2021-11-12T10:01:39.002Z,,,,,,,,,,,,,,,,,,,,,,,,,,,,,,88749.76999998809,,completion,,,,,,,,,,,,,,,,140189.39999997616,140188.19999998808,51421.759,51439.299999952316,51438.43,140194.603,,,
Trap_instruction,html.Page,0_3_0,2021-11-12T10:01:44.343Z,,,,,,,,,,,,,,,,,,,,,,,,,,,,,,5335.396999999997,,form submission,,,,,,,,,,,,,,,,145530.59999996424,145530,140177.933,140189.79999995232,140194.603,145578.981,,,
trap_trial,html.Screen,0_3_1,2021-11-12T10:01:47.306Z,,,,,,,,,,,,,,,,,,,,,,,,,,,true,1,,2912.7189999880793,,response,,,,,,,,,1,click #choice-1,,,,,,148493.19999998808,148491.69999998808,145528.971,145530.89999997616,145578.981,148496.56,,,
end of trap trial,html.Page,0_3_2,2021-11-12T10:01:49.216Z,,,,,,,,,,,,,,,,,,,,,,,,,,,,,,1906.8399999761605,,form submission,,,,,,,,,,,,,,,,150404,150403.39999997616,148479.89,148493.39999997616,148496.56,150413.861,,,
Trap 1,flow.Sequence,0_3,2021-11-12T10:01:49.217Z,,,,,,,,,,,,,,,,,,,,,,,,,,,,,,10208.796999976155,,completion,,,,,,,,,,,,,,,,150404.5,150403.39999997616,140177.933,140189.69999998808,140194.603,150413.861,,,
Standby,html.Page,0_4_0,2021-11-12T10:01:57.215Z,,,,,,,,,,,,,,,,,,,,,,,,,,,,,,8004.568999999989,,timeout,,,,,,,,,,,,,,,,158402.79999995232,158401.754,150397.191,150404.79999995232,150413.861,158418.43,,,
Holding screen,html.Screen,0_4_1_0_0,2021-11-12T10:02:04.215Z,,,,,,,,,,,,,,,,,,,,,,,,,,,,,,6999.271000000008,,timeout,,,,,,,,,,,,,,,,165402.69999998808,165401.031,158401.754,158403.19999998808,158418.43,165417.701,,,
screen,html.Screen,0_4_1_0_1_0,2021-11-12T10:02:05.013Z,,,,,,,,,,,,,,,,2,,,,,,,,,,,,,,781.9989999880781,,response,,,1,A,,,,,Space,keypress(Space),,,,silence,Two ---- ------ --- ------- ---------- ------- ----------<br>--- --------- --- ----------- ------- ----- ------- ---<br>--------- ---- -- --- ---- -- --------- -- ---- -------<br>-- --------- ------ --- ----- ------ ---- --- --------- --<br>------ - ---- -- --- ----------- ------- ---- ----- -----<br>--- -------- - ------ ---- -- ----- ---- --- --- -----------<br>-- -------,166200.79999995232,166199.69999998808,165401.031,165403.09999996424,165417.701,166201.319,,0,Two
screen,html.Screen,0_4_1_0_1_1,2021-11-12T10:02:05.364Z,,,,,,,,,,,,,,,,2,,,,,,,,,,,,,,349.7809999642486,,response,,,1,A,,,,,Space,keypress(Space),,,,silence,--- days ------ --- ------- ---------- ------- ----------<br>--- --------- --- ----------- ------- ----- ------- ---<br>--------- ---- -- --- ---- -- --------- -- ---- -------<br>-- --------- ------ --- ----- ------ ---- --- --------- --<br>------ - ---- -- --- ----------- ------- ---- ----- -----<br>--- -------- - ------ ---- -- ----- ---- --- --- -----------<br>-- -------,166551.89999997616,166551.09999996424,166184.648,166201.09999996424,166201.319,166567.954,,1,days
screen,html.Screen,0_4_1_0_1_2,2021-11-12T10:02:05.684Z,,,,,,,,,,,,,,,,2,,,,,,,,,,,,,,303.0460000000021,,response,,,1,A,,,,,Space,keypress(Space),,,,silence,"--- ---- later, --- ------- ---------- ------- ----------<br>--- --------- --- ----------- ------- ----- ------- ---<br>--------- ---- -- --- ---- -- --------- -- ---- -------<br>-- --------- ------ --- ----- ------ ---- --- --------- --<br>------ - ---- -- --- ----------- ------- ---- ----- -----<br>--- -------- - ------ ---- -- ----- ---- --- --- -----------<br>-- -------",166872,166871,166551.285,166552.19999998808,166567.954,166884.884,,2,"later,"
screen,html.Screen,0_4_1_0_1_3,2021-11-12T10:02:06.132Z,,,,,,,,,,,,,,,,2,,,,,,,,,,,,,,434.1160000000091,,response,,,1,A,,,,,Space,keypress(Space),,,,silence,--- ---- ------ the ------- ---------- ------- ----------<br>--- --------- --- ----------- ------- ----- ------- ---<br>--------- ---- -- --- ---- -- --------- -- ---- -------<br>-- --------- ------ --- ----- ------ ---- --- --------- --<br>------ - ---- -- --- ----------- ------- ---- ----- -----<br>--- -------- - ------ ---- -- ----- ---- --- --- -----------<br>-- -------,167319.89999997616,167319,166868.212,166872.29999995232,166884.884,167334.789,,3,the
screen,html.Screen,0_4_1_0_1_4,2021-11-12T10:02:06.476Z,,,,,,,,,,,,,,,,2,,,,,,,,,,,,,,328.21100000001024,,response,,,1,A,,,,,Space,keypress(Space),,,,silence,--- ---- ------ --- British ---------- ------- ----------<br>--- --------- --- ----------- ------- ----- ------- ---<br>--------- ---- -- --- ---- -- --------- -- ---- -------<br>-- --------- ------ --- ----- ------ ---- --- --------- --<br>------ - ---- -- --- ----------- ------- ---- ----- -----<br>--- -------- - ------ ---- -- ----- ---- --- --- -----------<br>-- -------,167663.89999997616,167663,167318.121,167320.09999996424,167334.789,167668.463,,4,British
screen,html.Screen,0_4_1_0_1_5,2021-11-12T10:02:06.892Z,,,,,,,,,,,,,,,,2,,,,,,,,,,,,,,410.5370000000112,,response,,,1,A,,,,,Space,keypress(Space),,,,silence,--- ---- ------ --- ------- astronomer ------- ----------<br>--- --------- --- ----------- ------- ----- ------- ---<br>--------- ---- -- --- ---- -- --------- -- ---- -------<br>-- --------- ------ --- ----- ------ ---- --- --------- --<br>------ - ---- -- --- ----------- ------- ---- ----- -----<br>--- -------- - ------ ---- -- ----- ---- --- --- -----------<br>-- -------,168079.79999995232,168079,167651.79,167664.09999996424,167668.463,168085.166,,5,astronomer
screen,html.Screen,0_4_1_0_1_6,2021-11-12T10:02:07.452Z,,,,,,,,,,,,,,,,2,,,,,,,,,,,,,,553.7339999761607,,response,,,1,A,,,,,Space,keypress(Space),,,,silence,--- ---- ------ --- ------- ---------- Richard ----------<br>--- --------- --- ----------- ------- ----- ------- ---<br>--------- ---- -- --- ---- -- --------- -- ---- -------<br>-- --------- ------ --- ----- ------ ---- --- --------- --<br>------ - ---- -- --- ----------- ------- ---- ----- -----<br>--- -------- - ------ ---- -- ----- ---- --- --- -----------<br>-- -------,168639.79999995232,168638.89999997616,168068.495,168080,168085.166,168651.94,,6,Richard
screen,html.Screen,0_4_1_0_1_7,2021-11-12T10:02:07.908Z,,,,,,,,,,,,,,,,2,,,,,,,,,,,,,,442.9599999761558,,response,,,1,A,,,,,Space,keypress(Space),,,,silence,--- ---- ------ --- ------- ---------- ------- Carrington<br>--- --------- --- ----------- ------- ----- ------- ---<br>--------- ---- -- --- ---- -- --------- -- ---- -------<br>-- --------- ------ --- ----- ------ ---- --- --------- --<br>------ - ---- -- --- ----------- ------- ---- ----- -----<br>--- -------- - ------ ---- -- ----- ---- --- --- -----------<br>-- -------,169095.69999998808,169094.89999997616,168635.27,168640,168651.94,169102.03,,7,Carrington
screen,html.Screen,0_4_1_0_1_8,2021-11-12T10:02:08.316Z,,,,,,,,,,,,,,,,2,,,,,,,,,,,,,,400.8699999761593,,response,,,1,A,,,,,Space,keypress(Space),,,,silence,--- ---- ------ --- ------- ---------- ------- ----------<br>was --------- --- ----------- ------- ----- ------- ---<br>--------- ---- -- --- ---- -- --------- -- ---- -------<br>-- --------- ------ --- ----- ------ ---- --- --------- --<br>------ - ---- -- --- ----------- ------- ---- ----- -----<br>--- -------- - ------ ---- -- ----- ---- --- --- -----------<br>-- -------,169503.69999998808,169502.89999997616,169085.36,169095.89999997616,169102.03,169518.826,,8,was
screen,html.Screen,0_4_1_0_1_9,2021-11-12T10:02:08.684Z,,,,,,,,,,,,,,,,2,,,,,,,,,,,,,,351.97399995231535,,response,,,1,A,,,,,Space,keypress(Space),,,,silence,--- ---- ------ --- ------- ---------- ------- ----------<br>--- observing --- ----------- ------- ----- ------- ---<br>--------- ---- -- --- ---- -- --------- -- ---- -------<br>-- --------- ------ --- ----- ------ ---- --- --------- --<br>------ - ---- -- --- ----------- ------- ---- ----- -----<br>--- -------- - ------ ---- -- ----- ---- --- --- -----------<br>-- -------,169871.69999998808,169870.79999995232,169502.156,169504,169518.826,169885.592,,9,observing
screen,html.Screen,0_4_1_0_1_10,2021-11-12T10:02:09.124Z,,,,,,,,,,,,,,,,2,,,,,,,,,,,,,,425.30799997615395,,response,,,1,A,,,,,Space,keypress(Space),,,,silence,--- ---- ------ --- ------- ---------- ------- ----------<br>--- --------- the ----------- ------- ----- ------- ---<br>--------- ---- -- --- ---- -- --------- -- ---- -------<br>-- --------- ------ --- ----- ------ ---- --- --------- --<br>------ - ---- -- --- ----------- ------- ---- ----- -----<br>--- -------- - ------ ---- -- ----- ---- --- --- -----------<br>-- -------,170311.59999996424,170310.89999997616,169868.922,169872,169885.592,170319.073,,10,the
screen,html.Screen,0_4_1_0_1_11,2021-11-12T10:02:09.724Z,,,,,,,,,,,,,,,,2,,,,,,,,,,,,,,591.8269999761542,,response,,,1,A,,,,,Space,keypress(Space),,,,silence,--- ---- ------ --- ------- ---------- ------- ----------<br>--- --------- --- interesting ------- ----- ------- ---<br>--------- ---- -- --- ---- -- --------- -- ---- -------<br>-- --------- ------ --- ----- ------ ---- --- --------- --<br>------ - ---- -- --- ----------- ------- ---- ----- -----<br>--- -------- - ------ ---- -- ----- ---- --- --- -----------<br>-- -------,170911.69999998808,170910.89999997616,170302.402,170311.89999997616,170319.073,170919.17,,11,interesting
screen,html.Screen,0_4_1_0_1_12,2021-11-12T10:02:10.164Z,,,,,,,,,,,,,,,,2,,,,,,,,,,,,,,431.6299999523035,,response,,,1,A,,,,,Space,keypress(Space),,,,silence,--- ---- ------ --- ------- ---------- ------- ----------<br>--- --------- --- ----------- sunspot ----- ------- ---<br>--------- ---- -- --- ---- -- --------- -- ---- -------<br>-- --------- ------ --- ----- ------ ---- --- --------- --<br>------ - ---- -- --- ----------- ------- ---- ----- -----<br>--- -------- - ------ ---- -- ----- ---- --- --- -----------<br>-- -------,171351.59999996424,171350.79999995232,170902.5,170911.89999997616,170919.17,171352.618,,12,sunspot
screen,html.Screen,0_4_1_0_1_13,2021-11-12T10:02:10.556Z,,,,,,,,,,,,,,,,2,,,,,,,,,,,,,,390.0819999880914,,response,,,1,A,,,,,Space,keypress(Space),,,,silence,--- ---- ------ --- ------- ---------- ------- ----------<br>--- --------- --- ----------- ------- group ------- ---<br>--------- ---- -- --- ---- -- --------- -- ---- -------<br>-- --------- ------ --- ----- ------ ---- --- --------- --<br>------ - ---- -- --- ----------- ------- ---- ----- -----<br>--- -------- - ------ ---- -- ----- ---- --- --- -----------<br>-- -------,171743.59999996424,171742.69999998808,171335.948,171351.89999997616,171352.618,171752.773,,13,group
screen,html.Screen,0_4_1_0_1_14,2021-11-12T10:02:10.996Z,,,,,,,,,,,,,,,,2,,,,,,,,,,,,,,430.0269999523298,,response,,,1,A,,,,,Space,keypress(Space),,,,silence,--- ---- ------ --- ------- ---------- ------- ----------<br>--- --------- --- ----------- ------- ----- through ---<br>--------- ---- -- --- ---- -- --------- -- ---- -------<br>-- --------- ------ --- ----- ------ ---- --- --------- --<br>------ - ---- -- --- ----------- ------- ---- ----- -----<br>--- -------- - ------ ---- -- ----- ---- --- --- -----------<br>-- -------,172183.59999996424,172182.79999995232,171736.102,171743.89999997616,171752.773,172186.168,,14,through
screen,html.Screen,0_4_1_0_1_15,2021-11-12T10:02:11.316Z,,,,,,,,,,,,,,,,2,,,,,,,,,,,,,,316.53199998807395,,response,,,1,A,,,,,Space,keypress(Space),,,,silence,--- ---- ------ --- ------- ---------- ------- ----------<br>--- --------- --- ----------- ------- ----- ------- his<br>--------- ---- -- --- ---- -- --------- -- ---- -------<br>-- --------- ------ --- ----- ------ ---- --- --------- --<br>------ - ---- -- --- ----------- ------- ---- ----- -----<br>--- -------- - ------ ---- -- ----- ---- --- --- -----------<br>-- -------,172503.5,172502.69999998808,172169.498,172183.79999995232,172186.168,172519.602,,15,his
screen,html.Screen,0_4_1_0_1_16,2021-11-12T10:02:11.724Z,,,,,,,,,,,,,,,,2,,,,,,,,,,,,,,391.09799998806557,,response,,,1,A,,,,,Space,keypress(Space),,,,silence,--- ---- ------ --- ------- ---------- ------- ----------<br>--- --------- --- ----------- ------- ----- ------- ---<br>telescope ---- -- --- ---- -- --------- -- ---- -------<br>-- --------- ------ --- ----- ------ ---- --- --------- --<br>------ - ---- -- --- ----------- ------- ---- ----- -----<br>--- -------- - ------ ---- -- ----- ---- --- --- -----------<br>-- -------,172911.5,172910.69999998808,172502.932,172503.89999997616,172519.602,172919.703,,16,telescope
screen,html.Screen,0_4_1_0_1_17,2021-11-12T10:02:12.172Z,,,,,,,,,,,,,,,,2,,,,,,,,,,,,,,438.99699998807046,,response,,,1,A,,,,,Space,keypress(Space),,,,silence,--- ---- ------ --- ------- ---------- ------- ----------<br>--- --------- --- ----------- ------- ----- ------- ---<br>--------- when -- --- ---- -- --------- -- ---- -------<br>-- --------- ------ --- ----- ------ ---- --- --------- --<br>------ - ---- -- --- ----------- ------- ---- ----- -----<br>--- -------- - ------ ---- -- ----- ---- --- --- -----------<br>-- -------,173359.5,173358.69999998808,172903.033,172911.79999995232,172919.703,173369.806,,17,when
screen,html.Screen,0_4_1_0_1_18,2021-11-12T10:02:12.500Z,,,,,,,,,,,,,,,,2,,,,,,,,,,,,,,316.89399998806766,,response,,,1,A,,,,,Space,keypress(Space),,,,silence,--- ---- ------ --- ------- ---------- ------- ----------<br>--- --------- --- ----------- ------- ----- ------- ---<br>--------- ---- he --- ---- -- --------- -- ---- -------<br>-- --------- ------ --- ----- ------ ---- --- --------- --<br>------ - ---- -- --- ----------- ------- ---- ----- -----<br>--- -------- - ------ ---- -- ----- ---- --- --- -----------<br>-- -------,173687.59999996424,173686.69999998808,173353.136,173359.69999998808,173369.806,173703.274,,18,he
screen,html.Screen,0_4_1_0_1_19,2021-11-12T10:02:12.820Z,,,,,,,,,,,,,,,,2,,,,,,,,,,,,,,303.3259999642323,,response,,,1,A,,,,,Space,keypress(Space),,,,silence,--- ---- ------ --- ------- ---------- ------- ----------<br>--- --------- --- ----------- ------- ----- ------- ---<br>--------- ---- -- saw ---- -- --------- -- ---- -------<br>-- --------- ------ --- ----- ------ ---- --- --------- --<br>------ - ---- -- --- ----------- ------- ---- ----- -----<br>--- -------- - ------ ---- -- ----- ---- --- --- -----------<br>-- -------,174007.39999997616,174006.59999996424,173686.603,173687.89999997616,173703.274,174019.983,,19,saw
screen,html.Screen,0_4_1_0_1_20,2021-11-12T10:02:13.148Z,,,,,,,,,,,,,,,,2,,,,,,,,,,,,,,314.61699996422976,,response,,,1,A,,,,,Space,keypress(Space),,,,silence,--- ---- ------ --- ------- ---------- ------- ----------<br>--- --------- --- ----------- ------- ----- ------- ---<br>--------- ---- -- --- what -- --------- -- ---- -------<br>-- --------- ------ --- ----- ------ ---- --- --------- --<br>------ - ---- -- --- ----------- ------- ---- ----- -----<br>--- -------- - ------ ---- -- ----- ---- --- --- -----------<br>-- -------,174335.5,174334.59999996424,174003.313,174007.69999998808,174019.983,174336.676,,20,what
screen,html.Screen,0_4_1_0_1_21,2021-11-12T10:02:13.492Z,,,,,,,,,,,,,,,,2,,,,,,,,,,,,,,341.82399999999325,,response,,,1,A,,,,,Space,keypress(Space),,,,silence,--- ---- ------ --- ------- ---------- ------- ----------<br>--- --------- --- ----------- ------- ----- ------- ---<br>--------- ---- -- --- ---- he --------- -- ---- -------<br>-- --------- ------ --- ----- ------ ---- --- --------- --<br>------ - ---- -- --- ----------- ------- ---- ----- -----<br>--- -------- - ------ ---- -- ----- ---- --- --- -----------<br>-- -------,174679.39999997616,174678.5,174320.007,174335.69999998808,174336.676,174686.903,,21,he
screen,html.Screen,0_4_1_0_1_22,2021-11-12T10:02:13.804Z,,,,,,,,,,,,,,,,2,,,,,,,,,,,,,,303.59700000000885,,response,,,1,A,,,,,Space,keypress(Space),,,,silence,--- ---- ------ --- ------- ---------- ------- ----------<br>--- --------- --- ----------- ------- ----- ------- ---<br>--------- ---- -- --- ---- -- described -- ---- -------<br>-- --------- ------ --- ----- ------ ---- --- --------- --<br>------ - ---- -- --- ----------- ------- ---- ----- -----<br>--- -------- - ------ ---- -- ----- ---- --- --- -----------<br>-- -------,174991.39999997616,174990.5,174670.231,174679.69999998808,174686.903,175003.574,,22,described
screen,html.Screen,0_4_1_0_1_23,2021-11-12T10:02:14.236Z,,,,,,,,,,,,,,,,2,,,,,,,,,,,,,,418.8259999761649,,response,,,1,A,,,,,Space,keypress(Space),,,,silence,--- ---- ------ --- ------- ---------- ------- ----------<br>--- --------- --- ----------- ------- ----- ------- ---<br>--------- ---- -- --- ---- -- --------- as ---- -------<br>-- --------- ------ --- ----- ------ ---- --- --------- --<br>------ - ---- -- --- ----------- ------- ---- ----- -----<br>--- -------- - ------ ---- -- ----- ---- --- --- -----------<br>-- -------,175423.29999995232,175422.39999997616,174986.904,174991.59999996424,175003.574,175437.021,,23,as
screen,html.Screen,0_4_1_0_1_24,2021-11-12T10:02:14.540Z,,,,,,,,,,,,,,,,2,,,,,,,,,,,,,,289.3789999761502,,response,,,1,A,,,,,Space,keypress(Space),,,,silence,"--- ---- ------ --- ------- ---------- ------- ----------<br>--- --------- --- ----------- ------- ----- ------- ---<br>--------- ---- -- --- ---- -- --------- -- ""two -------<br>-- --------- ------ --- ----- ------ ---- --- --------- --<br>------ - ---- -- --- ----------- ------- ---- ----- -----<br>--- -------- - ------ ---- -- ----- ---- --- --- -----------<br>-- -------",175727.39999997616,175726.39999997616,175420.351,175423.5,175437.021,175737.091,,24,"""two"
screen,html.Screen,0_4_1_0_1_25,2021-11-12T10:02:15.188Z,,,,,,,,,,,,,,,,2,,,,,,,,,,,,,,637.9090000000142,,response,,,1,A,,,,,Space,keypress(Space),,,,silence,--- ---- ------ --- ------- ---------- ------- ----------<br>--- --------- --- ----------- ------- ----- ------- ---<br>--------- ---- -- --- ---- -- --------- -- ---- patches<br>-- --------- ------ --- ----- ------ ---- --- --------- --<br>------ - ---- -- --- ----------- ------- ---- ----- -----<br>--- -------- - ------ ---- -- ----- ---- --- --- -----------<br>-- -------,176375.79999995232,176375,175720.421,175727.69999998808,175737.091,176387.248,,25,patches
screen,html.Screen,0_4_1_0_1_26,2021-11-12T10:02:15.660Z,,,,,,,,,,,,,,,,2,,,,,,,,,,,,,,459.2520000000077,,response,,,1,A,,,,,Space,keypress(Space),,,,silence,--- ---- ------ --- ------- ---------- ------- ----------<br>--- --------- --- ----------- ------- ----- ------- ---<br>--------- ---- -- --- ---- -- --------- -- ---- -------<br>of --------- ------ --- ----- ------ ---- --- --------- --<br>------ - ---- -- --- ----------- ------- ---- ----- -----<br>--- -------- - ------ ---- -- ----- ---- --- --- -----------<br>-- -------,176847.5,176846.5,176370.578,176376,176387.248,176854.107,,26,of
screen,html.Screen,0_4_1_0_1_27,2021-11-12T10:02:16.124Z,,,,,,,,,,,,,,,,2,,,,,,,,,,,,,,456.39300000001094,,response,,,1,A,,,,,Space,keypress(Space),,,,silence,--- ---- ------ --- ------- ---------- ------- ----------<br>--- --------- --- ----------- ------- ----- ------- ---<br>--------- ---- -- --- ---- -- --------- -- ---- -------<br>-- intensely ------ --- ----- ------ ---- --- --------- --<br>------ - ---- -- --- ----------- ------- ---- ----- -----<br>--- -------- - ------ ---- -- ----- ---- --- --- -----------<br>-- -------,177311.29999995232,177310.5,176837.436,176847.69999998808,176854.107,177320.809,,27,intensely
screen,html.Screen,0_4_1_0_1_28,2021-11-12T10:02:16.492Z,,,,,,,,,,,,,,,,2,,,,,,,,,,,,,,357.59099997614976,,response,,,1,A,,,,,Space,keypress(Space),,,,silence,--- ---- ------ --- ------- ---------- ------- ----------<br>--- --------- --- ----------- ------- ----- ------- ---<br>--------- ---- -- --- ---- -- --------- -- ---- -------<br>-- --------- bright --- ----- ------ ---- --- --------- --<br>------ - ---- -- --- ----------- ------- ---- ----- -----<br>--- -------- - ------ ---- -- ----- ---- --- --- -----------<br>-- -------,177679.19999998808,177678.39999997616,177304.139,177311.5,177320.809,177687.634,,28,bright
screen,html.Screen,0_4_1_0_1_29,2021-11-12T10:02:16.860Z,,,,,,,,,,,,,,,,2,,,,,,,,,,,,,,358.7659999761672,,response,,,1,A,,,,,Space,keypress(Space),,,,silence,--- ---- ------ --- ------- ---------- ------- ----------<br>--- --------- --- ----------- ------- ----- ------- ---<br>--------- ---- -- --- ---- -- --------- -- ---- -------<br>-- --------- ------ and ----- ------ ---- --- --------- --<br>------ - ---- -- --- ----------- ------- ---- ----- -----<br>--- -------- - ------ ---- -- ----- ---- --- --- -----------<br>-- -------,178047.29999995232,178046.39999997616,177670.963,177679.5,177687.634,178054.352,,29,and
screen,html.Screen,0_4_1_0_1_30,2021-11-12T10:02:17.180Z,,,,,,,,,,,,,,,,2,,,,,,,,,,,,,,311.9479999523028,,response,,,1,A,,,,,Space,keypress(Space),,,,silence,--- ---- ------ --- ------- ---------- ------- ----------<br>--- --------- --- ----------- ------- ----- ------- ---<br>--------- ---- -- --- ---- -- --------- -- ---- -------<br>-- --------- ------ --- white ------ ---- --- --------- --<br>------ - ---- -- --- ----------- ------- ---- ----- -----<br>--- -------- - ------ ---- -- ----- ---- --- --- -----------<br>-- -------,178367.19999998808,178366.29999995232,178037.682,178047.5,178054.352,178371.099,,30,white
screen,html.Screen,0_4_1_0_1_31,2021-11-12T10:02:17.460Z,,,,,,,,,,,,,,,,2,,,,,,,,,,,,,,275.20099995232886,,response,,,1,A,,,,,Space,keypress(Space),,,,silence,"--- ---- ------ --- ------- ---------- ------- ----------<br>--- --------- --- ----------- ------- ----- ------- ---<br>--------- ---- -- --- ---- -- --------- -- ---- -------<br>-- --------- ------ --- ----- light"" ---- --- --------- --<br>------ - ---- -- --- ----------- ------- ---- ----- -----<br>--- -------- - ------ ---- -- ----- ---- --- --- -----------<br>-- -------",178647.19999998808,178646.29999995232,178354.429,178367.5,178371.099,178654.59,,31,"light"""
screen,html.Screen,0_4_1_0_1_32,2021-11-12T10:02:18.036Z,,,,,,,,,,,,,,,,2,,,,,,,,,,,,,,567.7099999523198,,response,,,1,A,,,,,Space,keypress(Space),,,,silence,--- ---- ------ --- ------- ---------- ------- ----------<br>--- --------- --- ----------- ------- ----- ------- ---<br>--------- ---- -- --- ---- -- --------- -- ---- -------<br>-- --------- ------ --- ----- ------ over --- --------- --<br>------ - ---- -- --- ----------- ------- ---- ----- -----<br>--- -------- - ------ ---- -- ----- ---- --- --- -----------<br>-- -------,179223.29999995232,179222.29999995232,178637.918,178647.5,178654.59,179237.983,,32,over
screen,html.Screen,0_4_1_0_1_33,2021-11-12T10:02:18.276Z,,,,,,,,,,,,,,,,2,,,,,,,,,,,,,,224.31699995230883,,response,,,1,A,,,,,Space,keypress(Space),,,,silence,--- ---- ------ --- ------- ---------- ------- ----------<br>--- --------- --- ----------- ------- ----- ------- ---<br>--------- ---- -- --- ---- -- --------- -- ---- -------<br>-- --------- ------ --- ----- ------ ---- the --------- --<br>------ - ---- -- --- ----------- ------- ---- ----- -----<br>--- -------- - ------ ---- -- ----- ---- --- --- -----------<br>-- -------,179463.19999998808,179462.29999995232,179221.313,179223.5,179237.983,179471.259,,33,the
screen,html.Screen,0_4_1_0_1_34,2021-11-12T10:02:18.692Z,,,,,,,,,,,,,,,,2,,,,,,,,,,,,,,407.1409999761672,,response,,,1,A,,,,,Space,keypress(Space),,,,silence,--- ---- ------ --- ------- ---------- ------- ----------<br>--- --------- --- ----------- ------- ----- ------- ---<br>--------- ---- -- --- ---- -- --------- -- ---- -------<br>-- --------- ------ --- ----- ------ ---- --- sunspots. --<br>------ - ---- -- --- ----------- ------- ---- ----- -----<br>--- -------- - ------ ---- -- ----- ---- --- --- -----------<br>-- -------,179879.09999996424,179878.39999997616,179454.591,179463.39999997616,179471.259,179888.202,,34,sunspots.
screen,html.Screen,0_4_1_0_1_35,2021-11-12T10:02:19.488Z,,,,,,,,,,,,,,,,2,,,,,,,,,,,,,,781.9979999880888,,response,,,1,A,,,,,Space,keypress(Space),,,,silence,--- ---- ------ --- ------- ---------- ------- ----------<br>--- --------- --- ----------- ------- ----- ------- ---<br>--------- ---- -- --- ---- -- --------- -- ---- -------<br>-- --------- ------ --- ----- ------ ---- --- --------- He<br>------ - ---- -- --- ----------- ------- ---- ----- -----<br>--- -------- - ------ ---- -- ----- ---- --- --- -----------<br>-- -------,180671.09999996424,180670.19999998808,179871.531,179879.39999997616,179888.202,180688.407,,35,He
screen,html.Screen,0_4_1_0_1_36,2021-11-12T10:02:20.047Z,,,,,,,,,,,,,,,,2,,,,,,,,,,,,,,541.8929999523098,,response,,,1,A,,,,,Space,keypress(Space),,,,silence,--- ---- ------ --- ------- ---------- ------- ----------<br>--- --------- --- ----------- ------- ----- ------- ---<br>--------- ---- -- --- ---- -- --------- -- ---- -------<br>-- --------- ------ --- ----- ------ ---- --- --------- --<br>jotted - ---- -- --- ----------- ------- ---- ----- -----<br>--- -------- - ------ ---- -- ----- ---- --- --- -----------<br>-- -------,181231.09999996424,181230.29999995232,180671.736,180671.39999997616,180688.407,181238.506,,36,jotted
screen,html.Screen,0_4_1_0_1_37,2021-11-12T10:02:20.599Z,,,,,,,,,,,,,,,,2,,,,,,,,,,,,,,543.6939999880851,,response,,,1,A,,,,,Space,keypress(Space),,,,silence,--- ---- ------ --- ------- ---------- ------- ----------<br>--- --------- --- ----------- ------- ----- ------- ---<br>--------- ---- -- --- ---- -- --------- -- ---- -------<br>-- --------- ------ --- ----- ------ ---- --- --------- --<br>------ a ---- -- --- ----------- ------- ---- ----- -----<br>--- -------- - ------ ---- -- ----- ---- --- --- -----------<br>-- -------,181783,181782.19999998808,181221.836,181231.29999995232,181238.506,181788.53,,37,a
screen,html.Screen,0_4_1_0_1_38,2021-11-12T10:02:20.943Z,,,,,,,,,,,,,,,,2,,,,,,,,,,,,,,337.66999998808024,,response,,,1,A,,,,,Space,keypress(Space),,,,silence,--- ---- ------ --- ------- ---------- ------- ----------<br>--- --------- --- ----------- ------- ----- ------- ---<br>--------- ---- -- --- ---- -- --------- -- ---- -------<br>-- --------- ------ --- ----- ------ ---- --- --------- --<br>------ - note -- --- ----------- ------- ---- ----- -----<br>--- -------- - ------ ---- -- ----- ---- --- --- -----------<br>-- -------,182127,182126.19999998808,181771.861,181783.19999998808,181788.53,182138.702,,38,note
screen,html.Screen,0_4_1_0_1_39,2021-11-12T10:02:21.207Z,,,,,,,,,,,,,,,,2,,,,,,,,,,,,,,251.397999964247,,response,,,1,A,,,,,Space,keypress(Space),,,,silence,--- ---- ------ --- ------- ---------- ------- ----------<br>--- --------- --- ----------- ------- ----- ------- ---<br>--------- ---- -- --- ---- -- --------- -- ---- -------<br>-- --------- ------ --- ----- ------ ---- --- --------- --<br>------ - ---- in --- ----------- ------- ---- ----- -----<br>--- -------- - ------ ---- -- ----- ---- --- --- -----------<br>-- -------,182391,182390.09999996424,182122.032,182127.19999998808,182138.702,182405.548,,39,in
screen,html.Screen,0_4_1_0_1_40,2021-11-12T10:02:21.481Z,,,,,,,,,,,,,,,,2,,,,,,,,,,,,,,256.6519999880693,,response,,,1,A,,,,,Space,keypress(Space),,,,silence,--- ---- ------ --- ------- ---------- ------- ----------<br>--- --------- --- ----------- ------- ----- ------- ---<br>--------- ---- -- --- ---- -- --------- -- ---- -------<br>-- --------- ------ --- ----- ------ ---- --- --------- --<br>------ - ---- -- his ----------- ------- ---- ----- -----<br>--- -------- - ------ ---- -- ----- ---- --- --- -----------<br>-- -------,182664.09999996424,182662.19999998808,182388.876,182391.29999995232,182405.548,182672.25,,40,his
screen,html.Screen,0_4_1_0_1_41,2021-11-12T10:02:21.735Z,,,,,,,,,,,,,,,,2,,,,,,,,,,,,,,245.94999998807907,,response,,,1,A,,,,,Space,keypress(Space),,,,silence,--- ---- ------ --- ------- ---------- ------- ----------<br>--- --------- --- ----------- ------- ----- ------- ---<br>--------- ---- -- --- ---- -- --------- -- ---- -------<br>-- --------- ------ --- ----- ------ ---- --- --------- --<br>------ - ---- -- --- painstaking ------- ---- ----- -----<br>--- -------- - ------ ---- -- ----- ---- --- --- -----------<br>-- -------,182919,182918.19999998808,182655.579,182664.29999995232,182672.25,182922.288,,41,painstaking
screen,html.Screen,0_4_1_0_1_42,2021-11-12T10:02:22.079Z,,,,,,,,,,,,,,,,2,,,,,,,,,,,,,,339.81199996423675,,response,,,1,A,,,,,Space,keypress(Space),,,,silence,--- ---- ------ --- ------- ---------- ------- ----------<br>--- --------- --- ----------- ------- ----- ------- ---<br>--------- ---- -- --- ---- -- --------- -- ---- -------<br>-- --------- ------ --- ----- ------ ---- --- --------- --<br>------ - ---- -- --- ----------- record. ---- ----- -----<br>--- -------- - ------ ---- -- ----- ---- --- --- -----------<br>-- -------,183262.89999997616,183262.09999996424,182905.618,182919.19999998808,182922.288,183272.377,,42,record.
screen,html.Screen,0_4_1_0_1_43,2021-11-12T10:02:22.519Z,,,,,,,,,,,,,,,,2,,,,,,,,,,,,,,429.72299996422953,,response,,,1,A,,,,,Space,keypress(Space),,,,silence,--- ---- ------ --- ------- ---------- ------- ----------<br>--- --------- --- ----------- ------- ----- ------- ---<br>--------- ---- -- --- ---- -- --------- -- ---- -------<br>-- --------- ------ --- ----- ------ ---- --- --------- --<br>------ - ---- -- --- ----------- ------- That ----- -----<br>--- -------- - ------ ---- -- ----- ---- --- --- -----------<br>-- -------,183702.89999997616,183702.09999996424,183255.707,183263.19999998808,183272.377,183705.805,,43,That
screen,html.Screen,0_4_1_0_1_44,2021-11-12T10:02:22.871Z,,,,,,,,,,,,,,,,2,,,,,,,,,,,,,,348.195000000007,,response,,,1,A,,,,,Space,keypress(Space),,,,silence,--- ---- ------ --- ------- ---------- ------- ----------<br>--- --------- --- ----------- ------- ----- ------- ---<br>--------- ---- -- --- ---- -- --------- -- ---- -------<br>-- --------- ------ --- ----- ------ ---- --- --------- --<br>------ - ---- -- --- ----------- ------- ---- night -----<br>--- -------- - ------ ---- -- ----- ---- --- --- -----------<br>-- -------,184055,184054,183689.135,183703.19999998808,183705.805,184055.895,,44,night
screen,html.Screen,0_4_1_0_1_45,2021-11-12T10:02:23.119Z,,,,,,,,,,,,,,,,2,,,,,,,,,,,,,,246.10500000001048,,response,,,1,A,,,,,Space,keypress(Space),,,,silence,--- ---- ------ --- ------- ---------- ------- ----------<br>--- --------- --- ----------- ------- ----- ------- ---<br>--------- ---- -- --- ---- -- --------- -- ---- -------<br>-- --------- ------ --- ----- ------ ---- --- --------- --<br>------ - ---- -- --- ----------- ------- ---- ----- there<br>--- -------- - ------ ---- -- ----- ---- --- --- -----------<br>-- -------,184302.89999997616,184302,184039.225,184055.19999998808,184055.895,184305.974,,45,there
screen,html.Screen,0_4_1_0_1_46,2021-11-12T10:02:23.471Z,,,,,,,,,,,,,,,,2,,,,,,,,,,,,,,348.1259999642498,,response,,,1,A,,,,,Space,keypress(Space),,,,silence,--- ---- ------ --- ------- ---------- ------- ----------<br>--- --------- --- ----------- ------- ----- ------- ---<br>--------- ---- -- --- ---- -- --------- -- ---- -------<br>-- --------- ------ --- ----- ------ ---- --- --------- --<br>------ - ---- -- --- ----------- ------- ---- ----- -----<br>was -------- - ------ ---- -- ----- ---- --- --- -----------<br>-- -------,184654.89999997616,184654.09999996424,184289.304,184303.09999996424,184305.974,184656.092,,46,was
screen,html.Screen,0_4_1_0_1_47,2021-11-12T10:02:23.727Z,,,,,,,,,,,,,,,,2,,,,,,,,,,,,,,254.00799996423302,,response,,,1,A,,,,,Space,keypress(Space),,,,silence,--- ---- ------ --- ------- ---------- ------- ----------<br>--- --------- --- ----------- ------- ----- ------- ---<br>--------- ---- -- --- ---- -- --------- -- ---- -------<br>-- --------- ------ --- ----- ------ ---- --- --------- --<br>------ - ---- -- --- ----------- ------- ---- ----- -----<br>--- scarcely - ------ ---- -- ----- ---- --- --- -----------<br>-- -------,184910.89999997616,184910.09999996424,184639.421,184655.09999996424,184656.092,184922.809,,47,scarcely
screen,html.Screen,0_4_1_0_1_48,2021-11-12T10:02:24.015Z,,,,,,,,,,,,,,,,2,,,,,,,,,,,,,,275.1909999999916,,response,,,1,A,,,,,Space,keypress(Space),,,,silence,--- ---- ------ --- ------- ---------- ------- ----------<br>--- --------- --- ----------- ------- ----- ------- ---<br>--------- ---- -- --- ---- -- --------- -- ---- -------<br>-- --------- ------ --- ----- ------ ---- --- --------- --<br>------ - ---- -- --- ----------- ------- ---- ----- -----<br>--- -------- a ------ ---- -- ----- ---- --- --- -----------<br>-- -------,185198.79999995232,185198,184906.139,184911.09999996424,184922.809,185206.197,,48,a
screen,html.Screen,0_4_1_0_1_49,2021-11-12T10:02:24.359Z,,,,,,,,,,,,,,,,2,,,,,,,,,,,,,,335.80300000001444,,response,,,1,A,,,,,Space,keypress(Space),,,,silence,--- ---- ------ --- ------- ---------- ------- ----------<br>--- --------- --- ----------- ------- ----- ------- ---<br>--------- ---- -- --- ---- -- --------- -- ---- -------<br>-- --------- ------ --- ----- ------ ---- --- --------- --<br>------ - ---- -- --- ----------- ------- ---- ----- -----<br>--- -------- - square ---- -- ----- ---- --- --- -----------<br>-- -------,185542.79999995232,185542,185189.527,185199.09999996424,185206.197,185556.322,,49,square
