sender,sender_type,sender_id,timestamp,meta,,Blues,Classical,Country,Dance,Electronic,Folk,Gospel,Hip-Hop,Jazz,Latin,Musical/Film,New-age,Pop,Provo_ID,R&B,Rap,Reggae,Religious,Rock,Soul,Swing,Traditional,age,artist_name,correct,correctResponse,distraction,duration,education,ended_on,familiarity,gender,item,list,music_frequency,offensiveness,pleasantness,preference,response,response_action,snippet_file,song_name,song_rating,sound,text,time_commit,time_end,time_render,time_run,time_show,time_switch,url,word,word_ID
Instructions,html.Page,0_0,2021-11-12T13:48:39.912Z,"{""labjs_version"":""20.2.3"",""labjs_build"":{""flavor"":""production"",""commit"":""7ea907d66ca8aeef8054924ca5d82ffbe11e34e5""},""location"":""https://run.pavlovia.org/mvasilev/lab_music_f/"",""userAgent"":""Mozilla/5.0 (Windows NT 6.1; Win64; x64) AppleWebKit/537.36 (KHTML, like Gecko) Chrome/95.0.4638.69 Safari/537.36"",""platform"":""Win32"",""language"":""en-US"",""locale"":""en-US"",""timeZone"":""Europe/London"",""timezoneOffset"":0,""screen_width"":1920,""screen_height"":1080,""scroll_width"":1920,""scroll_height"":959,""window_innerWidth"":1920,""window_innerHeight"":1007,""devicePixelRatio"":1}",,,,,,,,,,,,,,,,,,,,,,,,,,,,,24649.311999999998,,form submission,,,,,,,,,,,,,,,,39140.69999998808,39140,14457.358,14469.800000011921,14490.688,39139.664,{},,
Headphones,html.Page,0_1,2021-11-12T13:48:49.032Z,,,,,,,,,,,,,,,,,,,,,,,,,,,,,,9121.136000011924,,form submission,,,,,,,,,,,,,,,,48261.19999998808,48260.80000001192,39122.995,39141.30000001192,39139.664,48272.251,,,
Holding screen,html.Screen,0_2_0_0,2021-11-12T13:48:59.029Z,,,,,,,,,,,,,,,,,,,,,,,,,,,,,,9999.468,,timeout,,,,,,,,,,,,,,,,58258.30000001192,58255.054,48255.586,48261.60000002384,48272.251,58271.719,,,
screen,html.Screen,0_2_0_1_0,2021-11-12T13:48:59.730Z,,,,,,,,,,,,,,,,53,,,,,,,,,,,,,,686.3810000238445,,response,,,99,,,,,,Space,keypress(Space),,,,,When -- ----- -- ------ - ------- --- ----------<br>------------- ------ ------ ---- ---- ------- ----- -- ----<br>-------- ------- -- ---------- --- - --- ----- ----- ----<br>---- --- --- ----- --- ---- ---- ------- ----- ---- -------<br>--- --- -- ----- -- --- ---- -- --- ---- -- ------ ------<br>--- ----- -- ----,58959.19999998808,58958.10000002384,58255.054,58258.69999998808,58271.719,58971.672,,0,When
screen,html.Screen,0_2_0_1_1,2021-11-12T13:49:00.346Z,,,,,,,,,,,,,,,,53,,,,,,,,,,,,,,602.4280000238432,,response,,,99,,,,,,Space,keypress(Space),,,,,---- it ----- -- ------ - ------- --- ----------<br>------------- ------ ------ ---- ---- ------- ----- -- ----<br>-------- ------- -- ---------- --- - --- ----- ----- ----<br>---- --- --- ----- --- ---- ---- ------- ----- ---- -------<br>--- --- -- ----- -- --- ---- -- --- ---- -- ------ ------<br>--- ----- -- ----,59574.69999998808,59574.10000002384,58955.007,58959.5,58971.672,59588.329,,1,it
screen,html.Screen,0_2_0_1_2,2021-11-12T13:49:00.941Z,,,,,,,,,,,,,,,,53,,,,,,,,,,,,,,577.6710000000021,,response,,,99,,,,,,Space,keypress(Space),,,,,---- -- comes -- ------ - ------- --- ----------<br>------------- ------ ------ ---- ---- ------- ----- -- ----<br>-------- ------- -- ---------- --- - --- ----- ----- ----<br>---- --- --- ----- --- ---- ---- ------- ----- ---- -------<br>--- --- -- ----- -- --- ---- -- --- ---- -- ------ ------<br>--- ----- -- ----,60166.60000002384,60166,59571.664,59574.80000001192,59588.329,60171.608,,2,comes
screen,html.Screen,0_2_0_1_3,2021-11-12T13:49:01.389Z,,,,,,,,,,,,,,,,53,,,,,,,,,,,,,,442.5919999880789,,response,,,99,,,,,,Space,keypress(Space),,,,,---- -- ----- to ------ - ------- --- ----------<br>------------- ------ ------ ---- ---- ------- ----- -- ----<br>-------- ------- -- ---------- --- - --- ----- ----- ----<br>---- --- --- ----- --- ---- ---- ------- ----- ---- -------<br>--- --- -- ----- -- --- ---- -- --- ---- -- ------ ------<br>--- ----- -- ----,60614.90000003576,60614.19999998808,60154.943,60166.90000003576,60171.608,60621.521,,3,to
screen,html.Screen,0_2_0_1_4,2021-11-12T13:49:01.909Z,,,,,,,,,,,,,,,,53,,,,,,,,,,,,,,512.4789999999994,,response,,,99,,,,,,Space,keypress(Space),,,,,---- -- ----- -- having - ------- --- ----------<br>------------- ------ ------ ---- ---- ------- ----- -- ----<br>-------- ------- -- ---------- --- - --- ----- ----- ----<br>---- --- --- ----- --- ---- ---- ------- ----- ---- -------<br>--- --- -- ----- -- --- ---- -- --- ---- -- ------ ------<br>--- ----- -- ----,61134.80000001192,61134,60604.857,60615.10000002384,60621.521,61138.288,,4,having
screen,html.Screen,0_2_0_1_5,2021-11-12T13:49:02.381Z,,,,,,,,,,,,,,,,53,,,,,,,,,,,,,,467.51200001192046,,response,,,99,,,,,,Space,keypress(Space),,,,,---- -- ----- -- ------ a ------- --- ----------<br>------------- ------ ------ ---- ---- ------- ----- -- ----<br>-------- ------- -- ---------- --- - --- ----- ----- ----<br>---- --- --- ----- --- ---- ---- ------- ----- ---- -------<br>--- --- -- ----- -- --- ---- -- --- ---- -- ------ ------<br>--- ----- -- ----,61606.5,61605.80000001192,61121.622,61135.10000002384,61138.288,61621.548,,5,a
screen,html.Screen,0_2_0_1_6,2021-11-12T13:49:02.877Z,,,,,,,,,,,,,,,,53,,,,,,,,,,,,,,480.2520000119184,,response,,,99,,,,,,Space,keypress(Space),,,,,---- -- ----- -- ------ - lasting --- ----------<br>------------- ------ ------ ---- ---- ------- ----- -- ----<br>-------- ------- -- ---------- --- - --- ----- ----- ----<br>---- --- --- ----- --- ---- ---- ------- ----- ---- -------<br>--- --- -- ----- -- --- ---- -- --- ---- -- ------ ------<br>--- ----- -- ----,62102.5,62101.80000001192,61604.883,61606.90000003576,61621.548,62104.777,,6,lasting
screen,html.Screen,0_2_0_1_7,2021-11-12T13:49:03.389Z,,,,,,,,,,,,,,,,53,,,,,,,,,,,,,,509.02300001191907,,response,,,99,,,,,,Space,keypress(Space),,,,,---- -- ----- -- ------ - ------- and ----------<br>------------- ------ ------ ---- ---- ------- ----- -- ----<br>-------- ------- -- ---------- --- - --- ----- ----- ----<br>---- --- --- ----- --- ---- ---- ------- ----- ---- -------<br>--- --- -- ----- -- --- ---- -- --- ---- -- ------ ------<br>--- ----- -- ----,62614.60000002384,62613.80000001192,62088.113,62102.69999998808,62104.777,62621.523,,7,and
screen,html.Screen,0_2_0_1_8,2021-11-12T13:49:04.045Z,,,,,,,,,,,,,,,,53,,,,,,,,,,,,,,648.2770000119199,,response,,,99,,,,,,Space,keypress(Space),,,,,---- -- ----- -- ------ - ------- --- fulfilling<br>------------- ------ ------ ---- ---- ------- ----- -- ----<br>-------- ------- -- ---------- --- - --- ----- ----- ----<br>---- --- --- ----- --- ---- ---- ------- ----- ---- -------<br>--- --- -- ----- -- --- ---- -- --- ---- -- ------ ------<br>--- ----- -- ----,63270.69999998808,63269.80000001192,62604.857,62614.69999998808,62621.523,63271.408,,8,fulfilling
screen,html.Screen,0_2_0_1_9,2021-11-12T13:49:04.837Z,,,,,,,,,,,,,,,,53,,,,,,,,,,,,,,790.3920000119178,,response,,,99,,,,,,Space,keypress(Space),,,,,"---- -- ----- -- ------ - ------- --- ----------<br>relationship, ------ ------ ---- ---- ------- ----- -- ----<br>-------- ------- -- ---------- --- - --- ----- ----- ----<br>---- --- --- ----- --- ---- ---- ------- ----- ---- -------<br>--- --- -- ----- -- --- ---- -- --- ---- -- ------ ------<br>--- ----- -- ----",64062.5,64061.80000001192,63254.743,63270.90000003576,63271.408,64071.38,,9,"relationship,"
screen,html.Screen,0_2_0_1_10,2021-11-12T13:49:05.517Z,,,,,,,,,,,,,,,,53,,,,,,,,,,,,,,670.3199999880817,,response,,,99,,,,,,Space,keypress(Space),,,,,---- -- ----- -- ------ - ------- --- ----------<br>------------- common ------ ---- ---- ------- ----- -- ----<br>-------- ------- -- ---------- --- - --- ----- ----- ----<br>---- --- --- ----- --- ---- ---- ------- ----- ---- -------<br>--- --- -- ----- -- --- ---- -- --- ---- -- ------ ------<br>--- ----- -- ----,64742.5,64741.69999998808,64054.715,64062.69999998808,64071.38,64754.683,,10,common
screen,html.Screen,0_2_0_1_11,2021-11-12T13:49:06.149Z,,,,,,,,,,,,,,,,53,,,,,,,,,,,,,,618.9170000238446,,response,,,99,,,,,,Space,keypress(Space),,,,,---- -- ----- -- ------ - ------- --- ----------<br>------------- ------ wisdom ---- ---- ------- ----- -- ----<br>-------- ------- -- ---------- --- - --- ----- ----- ----<br>---- --- --- ----- --- ---- ---- ------- ----- ---- -------<br>--- --- -- ----- -- --- ---- -- --- ---- -- ------ ------<br>--- ----- -- ----,65374.40000003576,65373.60000002384,64738.018,64742.60000002384,64754.683,65387.964,,11,wisdom
screen,html.Screen,0_2_0_1_12,2021-11-12T13:49:07.141Z,,,,,,,,,,,,,,,,53,,,,,,,,,,,,,,977.7359999880791,,response,,,99,,,,,,Space,keypress(Space),,,,,---- -- ----- -- ------ - ------- --- ----------<br>------------- ------ ------ says ---- ------- ----- -- ----<br>-------- ------- -- ---------- --- - --- ----- ----- ----<br>---- --- --- ----- --- ---- ---- ------- ----- ---- -------<br>--- --- -- ----- -- --- ---- -- --- ---- -- ------ ------<br>--- ----- -- ----,66366.30000001192,66365.69999998808,65371.299,65374.5,65387.964,66371.239,,12,says
screen,html.Screen,0_2_0_1_13,2021-11-12T13:49:07.669Z,,,,,,,,,,,,,,,,53,,,,,,,,,,,,,,522.3610000238405,,response,,,99,,,,,,Space,keypress(Space),,,,,---- -- ----- -- ------ - ------- --- ----------<br>------------- ------ ------ ---- that ------- ----- -- ----<br>-------- ------- -- ---------- --- - --- ----- ----- ----<br>---- --- --- ----- --- ---- ---- ------- ----- ---- -------<br>--- --- -- ----- -- --- ---- -- --- ---- -- ------ ------<br>--- ----- -- ----,66894.19999998808,66893.60000002384,66354.574,66366.40000003576,66371.239,66904.389,,13,that
screen,html.Screen,0_2_0_1_14,2021-11-12T13:49:08.340Z,,,,,,,,,,,,,,,,53,,,,,,,,,,,,,,661.2110000238463,,response,,,99,,,,,,Space,keypress(Space),,,,,---- -- ----- -- ------ - ------- --- ----------<br>------------- ------ ------ ---- ---- feeling ----- -- ----<br>-------- ------- -- ---------- --- - --- ----- ----- ----<br>---- --- --- ----- --- ---- ---- ------- ----- ---- -------<br>--- --- -- ----- -- --- ---- -- --- ---- -- ------ ------<br>--- ----- -- ----,67566.19999998808,67565.60000002384,66887.725,66894.40000003576,66904.389,67571.207,,14,feeling
screen,html.Screen,0_2_0_1_15,2021-11-12T13:49:08.908Z,,,,,,,,,,,,,,,,53,,,,,,,,,,,,,,562.2930000000051,,response,,,99,,,,,,Space,keypress(Space),,,,,---- -- ----- -- ------ - ------- --- ----------<br>------------- ------ ------ ---- ---- ------- close -- ----<br>-------- ------- -- ---------- --- - --- ----- ----- ----<br>---- --- --- ----- --- ---- ---- ------- ----- ---- -------<br>--- --- -- ----- -- --- ---- -- --- ---- -- ------ ------<br>--- ----- -- ----,68134.19999998808,68133.5,67554.541,67566.30000001192,67571.207,68137.859,,15,close
screen,html.Screen,0_2_0_1_16,2021-11-12T13:49:09.372Z,,,,,,,,,,,,,,,,53,,,,,,,,,,,,,,459.64100000000326,,response,,,99,,,,,,Space,keypress(Space),,,,,---- -- ----- -- ------ - ------- --- ----------<br>------------- ------ ------ ---- ---- ------- ----- to ----<br>-------- ------- -- ---------- --- - --- ----- ----- ----<br>---- --- --- ----- --- ---- ---- ------- ----- ---- -------<br>--- --- -- ----- -- --- ---- -- --- ---- -- ------ ------<br>--- ----- -- ----,68598.10000002384,68597.5,68121.193,68134.30000001192,68137.859,68604.439,,16,to
screen,html.Screen,0_2_0_1_17,2021-11-12T13:49:10.028Z,,,,,,,,,,,,,,,,53,,,,,,,,,,,,,,649.0610000000015,,response,,,99,,,,,,Space,keypress(Space),,,,,---- -- ----- -- ------ - ------- --- ----------<br>------------- ------ ------ ---- ---- ------- ----- -- your<br>-------- ------- -- ---------- --- - --- ----- ----- ----<br>---- --- --- ----- --- ---- ---- ------- ----- ---- -------<br>--- --- -- ----- -- --- ---- -- --- ---- -- ------ ------<br>--- ----- -- ----,69254.10000002384,69253.5,68587.774,68598.30000001192,68604.439,69271.113,,17,your
screen,html.Screen,0_2_0_1_18,2021-11-12T13:49:10.764Z,,,,,,,,,,,,,,,,53,,,,,,,,,,,,,,718.2870000357652,,response,,,99,,,,,,Space,keypress(Space),,,,,---- -- ----- -- ------ - ------- --- ----------<br>------------- ------ ------ ---- ---- ------- ----- -- ----<br>romantic ------- -- ---------- --- - --- ----- ----- ----<br>---- --- --- ----- --- ---- ---- ------- ----- ---- -------<br>--- --- -- ----- -- --- ---- -- --- ---- -- ------ ------<br>--- ----- -- ----,69990,69989.40000003576,69254.447,69254.30000001192,69271.113,70004.263,,18,romantic
screen,html.Screen,0_2_0_1_19,2021-11-12T13:49:11.605Z,,,,,,,,,,,,,,,,53,,,,,,,,,,,,,,825.2369999999937,,response,,,99,,,,,,Space,keypress(Space),,,,,---- -- ----- -- ------ - ------- --- ----------<br>------------- ------ ------ ---- ---- ------- ----- -- ----<br>-------- partner -- ---------- --- - --- ----- ----- ----<br>---- --- --- ----- --- ---- ---- ------- ----- ---- -------<br>--- --- -- ----- -- --- ---- -- --- ---- -- ------ ------<br>--- ----- -- ----,70830.19999998808,70829.5,69987.599,69990.19999998808,70004.263,70837.608,,19,partner
screen,html.Screen,0_2_0_1_20,2021-11-12T13:49:12.252Z,,,,,,,,,,,,,,,,53,,,,,,,,,,,,,,639.692000011928,,response,,,99,,,,,,Space,keypress(Space),,,,,---- -- ----- -- ------ - ------- --- ----------<br>------------- ------ ------ ---- ---- ------- ----- -- ----<br>-------- ------- is ---------- --- - --- ----- ----- ----<br>---- --- --- ----- --- ---- ---- ------- ----- ---- -------<br>--- --- -- ----- -- --- ---- -- --- ---- -- ------ ------<br>--- ----- -- ----,71477.90000003576,71477.30000001192,70820.943,70830.40000003576,70837.608,71487.654,,20,is
screen,html.Screen,0_2_0_1_21,2021-11-12T13:49:13.516Z,,,,,,,,,,,,,,,,53,,,,,,,,,,,,,,1253.646000011926,,response,,,99,,,,,,Space,keypress(Space),,,,,---- -- ----- -- ------ - ------- --- ----------<br>------------- ------ ------ ---- ---- ------- ----- -- ----<br>-------- ------- -- paramount. --- - --- ----- ----- ----<br>---- --- --- ----- --- ---- ---- ------- ----- ---- -------<br>--- --- -- ----- -- --- ---- -- --- ---- -- ------ ------<br>--- ----- -- ----,72741.90000003576,72741.30000001192,71470.988,71478.10000002384,71487.654,72754.145,,21,paramount.
screen,html.Screen,0_2_0_1_22,2021-11-12T13:49:14.108Z,,,,,,,,,,,,,,,,53,,,,,,,,,,,,,,579.054999988075,,response,,,99,,,,,,Space,keypress(Space),,,,,---- -- ----- -- ------ - ------- --- ----------<br>------------- ------ ------ ---- ---- ------- ----- -- ----<br>-------- ------- -- ---------- But - --- ----- ----- ----<br>---- --- --- ----- --- ---- ---- ------- ----- ---- -------<br>--- --- -- ----- -- --- ---- -- --- ---- -- ------ ------<br>--- ----- -- ----,73333.80000001192,73333.19999998808,72737.48,72742.19999998808,72754.145,73337.499,,22,But
screen,html.Screen,0_2_0_1_23,2021-11-12T13:49:14.684Z,,,,,,,,,,,,,,,,53,,,,,,,,,,,,,,571.6010000238457,,response,,,99,,,,,,Space,keypress(Space),,,,,---- -- ----- -- ------ - ------- --- ----------<br>------------- ------ ------ ---- ---- ------- ----- -- ----<br>-------- ------- -- ---------- --- a --- ----- ----- ----<br>---- --- --- ----- --- ---- ---- ------- ----- ---- -------<br>--- --- -- ----- -- --- ---- -- --- ---- -- ------ ------<br>--- ----- -- ----,73909.80000001192,73909.10000002384,73320.834,73334,73337.499,73920.776,,23,a
screen,html.Screen,0_2_0_1_24,2021-11-12T13:49:15.132Z,,,,,,,,,,,,,,,,53,,,,,,,,,,,,,,436.32400002384384,,response,,,99,,,,,,Space,keypress(Space),,,,,---- -- ----- -- ------ - ------- --- ----------<br>------------- ------ ------ ---- ---- ------- ----- -- ----<br>-------- ------- -- ---------- --- - new ----- ----- ----<br>---- --- --- ----- --- ---- ---- ------- ----- ---- -------<br>--- --- -- ----- -- --- ---- -- --- ---- -- ------ ------<br>--- ----- -- ----,74357.69999998808,74357.10000002384,73904.111,73910,73920.776,74370.776,,24,new
screen,html.Screen,0_2_0_1_25,2021-11-12T13:49:15.708Z,,,,,,,,,,,,,,,,53,,,,,,,,,,,,,,562.3240000238438,,response,,,99,,,,,,Space,keypress(Space),,,,,---- -- ----- -- ------ - ------- --- ----------<br>------------- ------ ------ ---- ---- ------- ----- -- ----<br>-------- ------- -- ---------- --- - --- study ----- ----<br>---- --- --- ----- --- ---- ---- ------- ----- ---- -------<br>--- --- -- ----- -- --- ---- -- --- ---- -- ------ ------<br>--- ----- -- ----,74933.60000002384,74933.10000002384,74354.111,74357.90000003576,74370.776,74937.374,,25,study
screen,html.Screen,0_2_0_1_26,2021-11-12T13:49:16.284Z,,,,,,,,,,,,,,,,53,,,,,,,,,,,,,,571.6260000000038,,response,,,99,,,,,,Space,keypress(Space),,,,,---- -- ----- -- ------ - ------- --- ----------<br>------------- ------ ------ ---- ---- ------- ----- -- ----<br>-------- ------- -- ---------- --- - --- ----- finds ----<br>---- --- --- ----- --- ---- ---- ------- ----- ---- -------<br>--- --- -- ----- -- --- ---- -- --- ---- -- ------ ------<br>--- ----- -- ----,75509.60000002384,75509,74920.709,74933.90000003576,74937.374,75520.689,,26,finds
screen,html.Screen,0_2_0_1_27,2021-11-12T13:49:16.772Z,,,,,,,,,,,,,,,,53,,,,,,,,,,,,,,476.3110000000015,,response,,,99,,,,,,Space,keypress(Space),,,,,---- -- ----- -- ------ - ------- --- ----------<br>------------- ------ ------ ---- ---- ------- ----- -- ----<br>-------- ------- -- ---------- --- - --- ----- ----- that<br>---- --- --- ----- --- ---- ---- ------- ----- ---- -------<br>--- --- -- ----- -- --- ---- -- --- ---- -- ------ ------<br>--- ----- -- ----,75997.69999998808,75997,75504.024,75509.80000001192,75520.689,76003.996,,27,that
screen,html.Screen,0_2_0_1_28,2021-11-12T13:49:17.356Z,,,,,,,,,,,,,,,,53,,,,,,,,,,,,,,577.0040000000008,,response,,,99,,,,,,Space,keypress(Space),,,,,---- -- ----- -- ------ - ------- --- ----------<br>------------- ------ ------ ---- ---- ------- ----- -- ----<br>-------- ------- -- ---------- --- - --- ----- ----- ----<br>it's --- --- ----- --- ---- ---- ------- ----- ---- -------<br>--- --- -- ----- -- --- ---- -- --- ---- -- ------ ------<br>--- ----- -- ----,76581.60000002384,76581,75987.331,75997.90000003576,76003.996,76587.284,,28,it's
screen,html.Screen,0_2_0_1_29,2021-11-12T13:49:17.900Z,,,,,,,,,,,,,,,,53,,,,,,,,,,,,,,537.6160000357631,,response,,,99,,,,,,Space,keypress(Space),,,,,---- -- ----- -- ------ - ------- --- ----------<br>------------- ------ ------ ---- ---- ------- ----- -- ----<br>-------- ------- -- ---------- --- - --- ----- ----- ----<br>---- not --- ----- --- ---- ---- ------- ----- ---- -------<br>--- --- -- ----- -- --- ---- -- --- ---- -- ------ ------<br>--- ----- -- ----,77125.5,77124.90000003576,76570.619,76581.80000001192,76587.284,77137.152,,29,not
screen,html.Screen,0_2_0_1_30,2021-11-12T13:49:18.468Z,,,,,,,,,,,,,,,,53,,,,,,,,,,,,,,555.7480000357609,,response,,,99,,,,,,Space,keypress(Space),,,,,---- -- ----- -- ------ - ------- --- ----------<br>------------- ------ ------ ---- ---- ------- ----- -- ----<br>-------- ------- -- ---------- --- - --- ----- ----- ----<br>---- --- how ----- --- ---- ---- ------- ----- ---- -------<br>--- --- -- ----- -- --- ---- -- --- ---- -- ------ ------<br>--- ----- -- ----,77693.40000003576,77692.90000003576,77120.488,77125.69999998808,77137.152,77703.847,,30,how
screen,html.Screen,0_2_0_1_31,2021-11-12T13:49:18.996Z,,,,,,,,,,,,,,,,53,,,,,,,,,,,,,,516.9530000119266,,response,,,99,,,,,,Space,keypress(Space),,,,,---- -- ----- -- ------ - ------- --- ----------<br>------------- ------ ------ ---- ---- ------- ----- -- ----<br>-------- ------- -- ---------- --- - --- ----- ----- ----<br>---- --- --- close --- ---- ---- ------- ----- ---- -------<br>--- --- -- ----- -- --- ---- -- --- ---- -- ------ ------<br>--- ----- -- ----,78221.40000003576,78220.80000001192,77687.182,77693.60000002384,77703.847,78237.211,,31,close
screen,html.Screen,0_2_0_1_32,2021-11-12T13:49:19.492Z,,,,,,,,,,,,,,,,53,,,,,,,,,,,,,,479.6890000357671,,response,,,99,,,,,,Space,keypress(Space),,,,,---- -- ----- -- ------ - ------- --- ----------<br>------------- ------ ------ ---- ---- ------- ----- -- ----<br>-------- ------- -- ---------- --- - --- ----- ----- ----<br>---- --- --- ----- you ---- ---- ------- ----- ---- -------<br>--- --- -- ----- -- --- ---- -- --- ---- -- ------ ------<br>--- ----- -- ----,78717.5,78716.90000003576,78220.545,78221.5,78237.211,78720.528,,32,you
screen,html.Screen,0_2_0_1_33,2021-11-12T13:49:21.900Z,,,,,,,,,,,,,,,,53,,,,,,,,,,,,,,2404.4719999999943,,response,,,99,,,,,,Space,keypress(Space),,,,,---- -- ----- -- ------ - ------- --- ----------<br>------------- ------ ------ ---- ---- ------- ----- -- ----<br>-------- ------- -- ---------- --- - --- ----- ----- ----<br>---- --- --- ----- --- feel ---- ------- ----- ---- -------<br>--- --- -- ----- -- --- ---- -- --- ---- -- ------ ------<br>--- ----- -- ----,81125.60000002384,81125,78703.862,78717.60000002384,78720.528,81136.753,,33,feel
screen,html.Screen,0_2_0_1_34,2021-11-12T13:49:22.612Z,,,,,,,,,,,,,,,,53,,,,,,,,,,,,,,699.8470000238449,,response,,,99,,,,,,Space,keypress(Space),,,,,---- -- ----- -- ------ - ------- --- ----------<br>------------- ------ ------ ---- ---- ------- ----- -- ----<br>-------- ------- -- ---------- --- - --- ----- ----- ----<br>---- --- --- ----- --- ---- that ------- ----- ---- -------<br>--- --- -- ----- -- --- ---- -- --- ---- -- ------ ------<br>--- ----- -- ----,81837.30000001192,81836.60000002384,81120.089,81125.80000001192,81136.753,81853.68,,34,that
screen,html.Screen,0_2_0_1_35,2021-11-12T13:49:23.893Z,,,,,,,,,,,,,,,,53,,,,,,,,,,,,,,1262.9200000238488,,response,,,99,,,,,,Space,keypress(Space),,,,,---- -- ----- -- ------ - ------- --- ----------<br>------------- ------ ------ ---- ---- ------- ----- -- ----<br>-------- ------- -- ---------- --- - --- ----- ----- ----<br>---- --- --- ----- --- ---- ---- matters ----- ---- -------<br>--- --- -- ----- -- --- ---- -- --- ---- -- ------ ------<br>--- ----- -- ----,83118.90000003576,83116.60000002384,81837.014,81837.40000003576,81853.68,83120.161,,35,matters
screen,html.Screen,0_2_0_1_36,2021-11-12T13:49:24.396Z,,,,,,,,,,,,,,,,53,,,,,,,,,,,,,,500.4390000238491,,response,,,99,,,,,,Space,keypress(Space),,,,,"---- -- ----- -- ------ - ------- --- ----------<br>------------- ------ ------ ---- ---- ------- ----- -- ----<br>-------- ------- -- ---------- --- - --- ----- ----- ----<br>---- --- --- ----- --- ---- ---- ------- most, ---- -------<br>--- --- -- ----- -- --- ---- -- --- ---- -- ------ ------<br>--- ----- -- ----",83621.30000001192,83620.60000002384,83103.496,83119.10000002384,83120.161,83636.894,,36,"most,"
screen,html.Screen,0_2_0_1_37,2021-11-12T13:49:25.099Z,,,,,,,,,,,,,,,,53,,,,,,,,,,,,,,687.6059999999998,,response,,,99,,,,,,Space,keypress(Space),,,,,---- -- ----- -- ------ - ------- --- ----------<br>------------- ------ ------ ---- ---- ------- ----- -- ----<br>-------- ------- -- ---------- --- - --- ----- ----- ----<br>---- --- --- ----- --- ---- ---- ------- ----- it's -------<br>--- --- -- ----- -- --- ---- -- --- ---- -- ------ ------<br>--- ----- -- ----,84325.10000002384,84324.5,83620.228,83621.5,83636.894,84336.82,,37,it's
screen,html.Screen,0_2_0_1_38,2021-11-12T13:49:25.757Z,,,,,,,,,,,,,,,,53,,,,,,,,,,,,,,643.679999999993,,response,,,99,,,,,,Space,keypress(Space),,,,,---- -- ----- -- ------ - ------- --- ----------<br>------------- ------ ------ ---- ---- ------- ----- -- ----<br>-------- ------- -- ---------- --- - --- ----- ----- ----<br>---- --- --- ----- --- ---- ---- ------- ----- ---- whether<br>--- --- -- ----- -- --- ---- -- --- ---- -- ------ ------<br>--- ----- -- ----,84982.40000003576,84980.5,84320.155,84325.30000001192,84336.82,84986.761,,38,whether
screen,html.Screen,0_2_0_1_39,2021-11-12T13:49:26.203Z,,,,,,,,,,,,,,,,53,,,,,,,,,,,,,,441.6390000357642,,response,,,99,,,,,,Space,keypress(Space),,,,,---- -- ----- -- ------ - ------- --- ----------<br>------------- ------ ------ ---- ---- ------- ----- -- ----<br>-------- ------- -- ---------- --- - --- ----- ----- ----<br>---- --- --- ----- --- ---- ---- ------- ----- ---- -------<br>you --- -- ----- -- --- ---- -- --- ---- -- ------ ------<br>--- ----- -- ----,85429.10000002384,85428.40000003576,84970.096,84982.5,84986.761,85436.678,,39,you
screen,html.Screen,0_2_0_1_40,2021-11-12T13:49:26.627Z,,,,,,,,,,,,,,,,53,,,,,,,,,,,,,,415.7220000357629,,response,,,99,,,,,,Space,keypress(Space),,,,,---- -- ----- -- ------ - ------- --- ----------<br>------------- ------ ------ ---- ---- ------- ----- -- ----<br>-------- ------- -- ---------- --- - --- ----- ----- ----<br>---- --- --- ----- --- ---- ---- ------- ----- ---- -------<br>--- are -- ----- -- --- ---- -- --- ---- -- ------ ------<br>--- ----- -- ----,85853.10000002384,85852.40000003576,85420.014,85429.30000001192,85436.678,85870.013,,40,are
screen,html.Screen,0_2_0_1_41,2021-11-12T13:49:27.011Z,,,,,,,,,,,,,,,,53,,,,,,,,,,,,,,366.3870000357565,,response,,,99,,,,,,Space,keypress(Space),,,,,---- -- ----- -- ------ - ------- --- ----------<br>------------- ------ ------ ---- ---- ------- ----- -- ----<br>-------- ------- -- ---------- --- - --- ----- ----- ----<br>---- --- --- ----- --- ---- ---- ------- ----- ---- -------<br>--- --- as ----- -- --- ---- -- --- ---- -- ------ ------<br>--- ----- -- ----,86237,86236.40000003576,85853.348,85853.19999998808,85870.013,86253.394,,41,as
screen,html.Screen,0_2_0_1_42,2021-11-12T13:49:27.427Z,,,,,,,,,,,,,,,,53,,,,,,,,,,,,,,398.9060000119207,,response,,,99,,,,,,Space,keypress(Space),,,,,---- -- ----- -- ------ - ------- --- ----------<br>------------- ------ ------ ---- ---- ------- ----- -- ----<br>-------- ------- -- ---------- --- - --- ----- ----- ----<br>---- --- --- ----- --- ---- ---- ------- ----- ---- -------<br>--- --- -- close -- --- ---- -- --- ---- -- ------ ------<br>--- ----- -- ----,86652.90000003576,86652.30000001192,86236.728,86237.30000001192,86253.394,86669.93,,42,close
screen,html.Screen,0_2_0_1_43,2021-11-12T13:49:27.851Z,,,,,,,,,,,,,,,,53,,,,,,,,,,,,,,406.3700000119279,,response,,,99,,,,,,Space,keypress(Space),,,,,---- -- ----- -- ------ - ------- --- ----------<br>------------- ------ ------ ---- ---- ------- ----- -- ----<br>-------- ------- -- ---------- --- - --- ----- ----- ----<br>---- --- --- ----- --- ---- ---- ------- ----- ---- -------<br>--- --- -- ----- as --- ---- -- --- ---- -- ------ ------<br>--- ----- -- ----,87076.80000001192,87076.30000001192,86653.266,86653.10000002384,86669.93,87086.68,,43,as
screen,html.Screen,0_2_0_1_44,2021-11-12T13:49:28.267Z,,,,,,,,,,,,,,,,53,,,,,,,,,,,,,,405.51999998808606,,response,,,99,,,,,,Space,keypress(Space),,,,,---- -- ----- -- ------ - ------- --- ----------<br>------------- ------ ------ ---- ---- ------- ----- -- ----<br>-------- ------- -- ---------- --- - --- ----- ----- ----<br>---- --- --- ----- --- ---- ---- ------- ----- ---- -------<br>--- --- -- ----- -- you ---- -- --- ---- -- ------ ------<br>--- ----- -- ----,87492.80000001192,87492.19999998808,87070.014,87077,87086.68,87503.265,,44,you
screen,html.Screen,0_2_0_1_45,2021-11-12T13:49:28.771Z,,,,,,,,,,,,,,,,53,,,,,,,,,,,,,,492.93499998807965,,response,,,99,,,,,,Space,keypress(Space),,,,,---- -- ----- -- ------ - ------- --- ----------<br>------------- ------ ------ ---- ---- ------- ----- -- ----<br>-------- ------- -- ---------- --- - --- ----- ----- ----<br>---- --- --- ----- --- ---- ---- ------- ----- ---- -------<br>--- --- -- ----- -- --- want -- --- ---- -- ------ ------<br>--- ----- -- ----,87996.90000003576,87996.19999998808,87486.6,87493,87503.265,88003.234,,45,want
screen,html.Screen,0_2_0_1_46,2021-11-12T13:49:29.467Z,,,,,,,,,,,,,,,,53,,,,,,,,,,,,,,689.0660000119242,,response,,,99,,,,,,Space,keypress(Space),,,,,---- -- ----- -- ------ - ------- --- ----------<br>------------- ------ ------ ---- ---- ------- ----- -- ----<br>-------- ------- -- ---------- --- - --- ----- ----- ----<br>---- --- --- ----- --- ---- ---- ------- ----- ---- -------<br>--- --- -- ----- -- --- ---- to --- ---- -- ------ ------<br>--- ----- -- ----,88692.80000001192,88692.30000001192,87986.569,87997,88003.234,88703.249,,46,to
screen,html.Screen,0_2_0_1_47,2021-11-12T13:49:30.331Z,,,,,,,,,,,,,,,,53,,,,,,,,,,,,,,852.8510000238457,,response,,,99,,,,,,Space,keypress(Space),,,,,"---- -- ----- -- ------ - ------- --- ----------<br>------------- ------ ------ ---- ---- ------- ----- -- ----<br>-------- ------- -- ---------- --- - --- ----- ----- ----<br>---- --- --- ----- --- ---- ---- ------- ----- ---- -------<br>--- --- -- ----- -- --- ---- -- be, ---- -- ------ ------<br>--- ----- -- ----",89556.80000001192,89556.10000002384,88686.583,88693,88703.249,89569.818,,47,"be,"
screen,html.Screen,0_2_0_1_48,2021-11-12T13:49:30.915Z,,,,,,,,,,,,,,,,53,,,,,,,,,,,,,,570.3819999880798,,response,,,99,,,,,,Space,keypress(Space),,,,,---- -- ----- -- ------ - ------- --- ----------<br>------------- ------ ------ ---- ---- ------- ----- -- ----<br>-------- ------- -- ---------- --- - --- ----- ----- ----<br>---- --- --- ----- --- ---- ---- ------- ----- ---- -------<br>--- --- -- ----- -- --- ---- -- --- even -- ------ ------<br>--- ----- -- ----,90140.69999998808,90140.19999998808,89553.153,89557,89569.818,90153.081,,48,even
screen,html.Screen,0_2_0_1_49,2021-11-12T13:49:31.387Z,,,,,,,,,,,,,,,,53,,,,,,,,,,,,,,459.01900002383627,,response,,,99,,,,,,Space,keypress(Space),,,,,---- -- ----- -- ------ - ------- --- ----------<br>------------- ------ ------ ---- ---- ------- ----- -- ----<br>-------- ------- -- ---------- --- - --- ----- ----- ----<br>---- --- --- ----- --- ---- ---- ------- ----- ---- -------<br>--- --- -- ----- -- --- ---- -- --- ---- if ------ ------<br>--- ----- -- ----,90612.69999998808,90612.10000002384,90136.416,90140.90000003576,90153.081,90619.768,,49,if
screen,html.Screen,0_2_0_1_50,2021-11-12T13:49:31.779Z,,,,,,,,,,,,,,,,53,,,,,,,,,,,,,,384.33200002384547,,response,,,99,,,,,,Space,keypress(Space),,,,,---- -- ----- -- ------ - ------- --- ----------<br>------------- ------ ------ ---- ---- ------- ----- -- ----<br>-------- ------- -- ---------- --- - --- ----- ----- ----<br>---- --- --- ----- --- ---- ---- ------- ----- ---- -------<br>--- --- -- ----- -- --- ---- -- --- ---- -- that's ------<br>--- ----- -- ----,91004.80000001192,91004.10000002384,90603.103,90612.80000001192,90619.768,91019.734,,50,that's
screen,html.Screen,0_2_0_1_51,2021-11-12T13:49:32.251Z,,,,,,,,,,,,,,,,53,,,,,,,,,,,,,,456.46599998808233,,response,,,99,,,,,,Space,keypress(Space),,,,,---- -- ----- -- ------ - ------- --- ----------<br>------------- ------ ------ ---- ---- ------- ----- -- ----<br>-------- ------- -- ---------- --- - --- ----- ----- ----<br>---- --- --- ----- --- ---- ---- ------- ----- ---- -------<br>--- --- -- ----- -- --- ---- -- --- ---- -- ------ really<br>--- ----- -- ----,91476.90000003576,91476.19999998808,91003.069,91005,91019.734,91486.38,,51,really
screen,html.Screen,0_2_0_1_52,2021-11-12T13:49:32.715Z,,,,,,,,,,,,,,,,53,,,,,,,,,,,,,,453.61999999999534,,response,,,99,,,,,,Space,keypress(Space),,,,,---- -- ----- -- ------ - ------- --- ----------<br>------------- ------ ------ ---- ---- ------- ----- -- ----<br>-------- ------- -- ---------- --- - --- ----- ----- ----<br>---- --- --- ----- --- ---- ---- ------- ----- ---- -------<br>--- --- -- ----- -- --- ---- -- --- ---- -- ------ ------<br>not ----- -- ----,91940.60000002384,91940,91469.715,91477,91486.38,91953.011,,52,not
screen,html.Screen,0_2_0_1_53,2021-11-12T13:49:33.147Z,,,,,,,,,,,,,,,,53,,,,,,,,,,,,,,418.9890000000014,,response,,,99,,,,,,Space,keypress(Space),,,,,---- -- ----- -- ------ - ------- --- ----------<br>------------- ------ ------ ---- ---- ------- ----- -- ----<br>-------- ------- -- ---------- --- - --- ----- ----- ----<br>---- --- --- ----- --- ---- ---- ------- ----- ---- -------<br>--- --- -- ----- -- --- ---- -- --- ---- -- ------ ------<br>--- close -- ----,92372.60000002384,92372,91936.346,91940.80000001192,91953.011,92386.257,,53,close
screen,html.Screen,0_2_0_1_54,2021-11-12T13:49:33.595Z,,,,,,,,,,,,,,,,53,,,,,,,,,,,,,,433.7430000000022,,response,,,99,,,,,,Space,keypress(Space),,,,,---- -- ----- -- ------ - ------- --- ----------<br>------------- ------ ------ ---- ---- ------- ----- -- ----<br>-------- ------- -- ---------- --- - --- ----- ----- ----<br>---- --- --- ----- --- ---- ---- ------- ----- ---- -------<br>--- --- -- ----- -- --- ---- -- --- ---- -- ------ ------<br>--- ----- at ----,92820.5,92820,92369.593,92372.69999998808,92386.257,92836.325,,54,at
screen,html.Screen,0_2_0_1_55,2021-11-12T13:49:34.195Z,,,,,,,,,,,,,,,,53,,,,,,,,,,,,,,583.6750000000029,,response,,,99,,,,,,Space,keypress(Space),,,,,---- -- ----- -- ------ - ------- --- ----------<br>------------- ------ ------ ---- ---- ------- ----- -- ----<br>-------- ------- -- ---------- --- - --- ----- ----- ----<br>---- --- --- ----- --- ---- ---- ------- ----- ---- -------<br>--- --- -- ----- -- --- ---- -- --- ---- -- ------ ------<br>--- ----- -- all.,93420.60000002384,93420,92819.659,92820.69999998808,92836.325,93436.299,,55,all.
Item 99,flow.Loop,0_2_0_1,2021-11-12T13:49:34.198Z,,,,,,,,,,,,,,,,,,,,,,,,,,,,,,35148.281,,completion,,,,F,,,,,,,,,,silence,,93423.40000003576,93420,58255.054,58258.60000002384,58271.719,93436.299,,,
Question 1,html.Screen,0_2_0_2,2021-11-12T13:49:43.140Z,,,,,,,,,,,,,,,,,,,,,,,,,,,false,FALSE,,8928.601000035764,,response,,,99,F,,,,,TRUE,click #choice-1,,,,silence,,102366,102364.90000003576,93419.633,93423.60000002384,93436.299,102368.965,,,
Question 2,html.Screen,0_2_0_3,2021-11-12T13:49:49.506Z,,,,,,,,,,,,,,,,,,,,,,,,,,,true,TRUE,,6361.435000035766,,response,,,99,F,,,,,TRUE,click #choice-1,,,,silence,,108731.19999998808,108730.40000003576,102352.3,102366.10000002384,102368.965,108735.164,,,
Item 99,flow.Sequence,0_2_0,2021-11-12T13:49:49.506Z,,,,,,,,,,,,,,,,,,,,,,,,,,,,,,60458.149000035766,,completion,,,,,,,,,,,,,,,,108731.5,108730.40000003576,48255.586,48261.5,48272.251,108735.164,,,
Holding screen,html.Screen,0_2_1_0,2021-11-12T13:49:59.493Z,,,,,,,,,,,,,,,,,,,,,,,,,,,,,,9999.568,,timeout,,,,,,,,,,,,,,,,118719,118718.066,108718.504,108731.80000001192,108735.164,118734.732,,,
screen,html.Screen,0_2_1_1_0,2021-11-12T13:50:00.281Z,,,,,,,,,,,,,,,,54,,,,,,,,,,,,,,771.6680000357592,,response,,,100,,,,,,Space,keypress(Space),,,,,At --- ---- --- ------ ----- ------- ---- -- --- ------- --<br>------- ---------- ------ -- ----- -- ----- -- ---- ------<br>--- ----- --- --- ------ -------- ----- --- ------ ----- --<br>----- ----- ---------- --- --- ------ ------ ---- -- ------<br>------- --- ------ ----- --- ---- ------- -- ---- --- --<br>------- ------,119507.10000002384,119506.40000003576,118718.066,118719.30000001192,118734.732,119517.973,,0,At
screen,html.Screen,0_2_1_1_1,2021-11-12T13:50:00.681Z,,,,,,,,,,,,,,,,54,,,,,,,,,,,,,,388.3270000119228,,response,,,100,,,,,,Space,keypress(Space),,,,,-- the ---- --- ------ ----- ------- ---- -- --- ------- --<br>------- ---------- ------ -- ----- -- ----- -- ---- ------<br>--- ----- --- --- ------ -------- ----- --- ------ ----- --<br>----- ----- ---------- --- --- ------ ------ ---- -- ------<br>------- --- ------ ----- --- ---- ------- -- ---- --- --<br>------- ------,119906.90000003576,119906.30000001192,119501.308,119507.19999998808,119517.973,119917.965,,1,the
screen,html.Screen,0_2_1_1_2,2021-11-12T13:50:01.100Z,,,,,,,,,,,,,,,,54,,,,,,,,,,,,,,404.23499998808256,,response,,,100,,,,,,Space,keypress(Space),,,,,-- --- time --- ------ ----- ------- ---- -- --- ------- --<br>------- ---------- ------ -- ----- -- ----- -- ---- ------<br>--- ----- --- --- ------ -------- ----- --- ------ ----- --<br>----- ----- ---------- --- --- ------ ------ ---- -- ------<br>------- --- ------ ----- --- ---- ------- -- ---- --- --<br>------- ------,120322.90000003576,120322.19999998808,119901.3,119907,119917.965,120334.611,,2,time
screen,html.Screen,0_2_1_1_3,2021-11-12T13:50:01.500Z,,,,,,,,,,,,,,,,54,,,,,,,,,,,,,,387.6890000119165,,response,,,100,,,,,,Space,keypress(Space),,,,,-- --- ---- the ------ ----- ------- ---- -- --- ------- --<br>------- ---------- ------ -- ----- -- ----- -- ---- ------<br>--- ----- --- --- ------ -------- ----- --- ------ ----- --<br>----- ----- ---------- --- --- ------ ------ ---- -- ------<br>------- --- ------ ----- --- ---- ------- -- ---- --- --<br>------- ------,120722.90000003576,120722.30000001192,120317.946,120323,120334.611,120734.573,,3,the
screen,html.Screen,0_2_1_1_4,2021-11-12T13:50:01.972Z,,,,,,,,,,,,,,,,54,,,,,,,,,,,,,,459.6269999880751,,response,,,100,,,,,,Space,keypress(Space),,,,,-- --- ---- --- French ----- ------- ---- -- --- ------- --<br>------- ---------- ------ -- ----- -- ----- -- ---- ------<br>--- ----- --- --- ------ -------- ----- --- ------ ----- --<br>----- ----- ---------- --- --- ------ ------ ---- -- ------<br>------- --- ------ ----- --- ---- ------- -- ---- --- --<br>------- ------,121194.80000001192,121194.19999998808,120717.908,120723.80000001192,120734.573,121201.214,,4,French
screen,html.Screen,0_2_1_1_5,2021-11-12T13:50:02.412Z,,,,,,,,,,,,,,,,54,,,,,,,,,,,,,,432.98599998807185,,response,,,100,,,,,,Space,keypress(Space),,,,,-- --- ---- --- ------ crown ------- ---- -- --- ------- --<br>------- ---------- ------ -- ----- -- ----- -- ---- ------<br>--- ----- --- --- ------ -------- ----- --- ------ ----- --<br>----- ----- ---------- --- --- ------ ------ ---- -- ------<br>------- --- ------ ----- --- ---- ------- -- ---- --- --<br>------- ------,121634.80000001192,121634.19999998808,121184.549,121194.90000003576,121201.214,121651.127,,5,crown
screen,html.Screen,0_2_1_1_6,2021-11-12T13:50:02.828Z,,,,,,,,,,,,,,,,54,,,,,,,,,,,,,,398.9730000238487,,response,,,100,,,,,,Space,keypress(Space),,,,,-- --- ---- --- ------ ----- secured ---- -- --- ------- --<br>------- ---------- ------ -- ----- -- ----- -- ---- ------<br>--- ----- --- --- ------ -------- ----- --- ------ ----- --<br>----- ----- ---------- --- --- ------ ------ ---- -- ------<br>------- --- ------ ----- --- ---- ------- -- ---- --- --<br>------- ------,122050.69999998808,122050.10000002384,121634.463,121635,121651.127,122067.825,,6,secured
screen,html.Screen,0_2_1_1_7,2021-11-12T13:50:03.244Z,,,,,,,,,,,,,,,,54,,,,,,,,,,,,,,398.374999988082,,response,,,100,,,,,,Space,keypress(Space),,,,,-- --- ---- --- ------ ----- ------- much -- --- ------- --<br>------- ---------- ------ -- ----- -- ----- -- ---- ------<br>--- ----- --- --- ------ -------- ----- --- ------ ----- --<br>----- ----- ---------- --- --- ------ ------ ---- -- ------<br>------- --- ------ ----- --- ---- ------- -- ---- --- --<br>------- ------,122466.90000003576,122466.19999998808,122051.16,122050.80000001192,122067.825,122467.705,,7,much
screen,html.Screen,0_2_1_1_8,2021-11-12T13:50:03.677Z,,,,,,,,,,,,,,,,54,,,,,,,,,,,,,,430.5950000119192,,response,,,100,,,,,,Space,keypress(Space),,,,,-- --- ---- --- ------ ----- ------- ---- of --- ------- --<br>------- ---------- ------ -- ----- -- ----- -- ---- ------<br>--- ----- --- --- ------ -------- ----- --- ------ ----- --<br>----- ----- ---------- --- --- ------ ------ ---- -- ------<br>------- --- ------ ----- --- ---- ------- -- ---- --- --<br>------- ------,122899.10000002384,122898.30000001192,122451.041,122467.10000002384,122467.705,122901.148,,8,of
screen,html.Screen,0_2_1_1_9,2021-11-12T13:50:04.164Z,,,,,,,,,,,,,,,,54,,,,,,,,,,,,,,484.9520000238408,,response,,,100,,,,,,Space,keypress(Space),,,,,-- --- ---- --- ------ ----- ------- ---- -- its ------- --<br>------- ---------- ------ -- ----- -- ----- -- ---- ------<br>--- ----- --- --- ------ -------- ----- --- ------ ----- --<br>----- ----- ---------- --- --- ------ ------ ---- -- ------<br>------- --- ------ ----- --- ---- ------- -- ---- --- --<br>------- ------,123386.60000002384,123386.10000002384,122884.482,122899.30000001192,122901.148,123401.113,,9,its
screen,html.Screen,0_2_1_1_10,2021-11-12T13:50:05.092Z,,,,,,,,,,,,,,,,54,,,,,,,,,,,,,,912.9870000238443,,response,,,100,,,,,,Space,keypress(Space),,,,,-- --- ---- --- ------ ----- ------- ---- -- --- revenue --<br>------- ---------- ------ -- ----- -- ----- -- ---- ------<br>--- ----- --- --- ------ -------- ----- --- ------ ----- --<br>----- ----- ---------- --- --- ------ ------ ---- -- ------<br>------- --- ------ ----- --- ---- ------- -- ---- --- --<br>------- ------,124314.69999998808,124314.10000002384,123384.447,123386.90000003576,123401.113,124317.47,,10,revenue
screen,html.Screen,0_2_1_1_11,2021-11-12T13:50:05.868Z,,,,,,,,,,,,,,,,54,,,,,,,,,,,,,,772.4300000357616,,response,,,100,,,,,,Space,keypress(Space),,,,,-- --- ---- --- ------ ----- ------- ---- -- --- ------- by<br>------- ---------- ------ -- ----- -- ----- -- ---- ------<br>--- ----- --- --- ------ -------- ----- --- ------ ----- --<br>----- ----- ---------- --- --- ------ ------ ---- -- ------<br>------- --- ------ ----- --- ---- ------- -- ---- --- --<br>------- ------,125090.60000002384,125089.90000003576,124300.807,124315,124317.47,125101.032,,11,by
screen,html.Screen,0_2_1_1_12,2021-11-12T13:50:06.596Z,,,,,,,,,,,,,,,,54,,,,,,,,,,,,,,716.9679999999935,,response,,,100,,,,,,Space,keypress(Space),,,,,-- --- ---- --- ------ ----- ------- ---- -- --- ------- --<br>issuing ---------- ------ -- ----- -- ----- -- ---- ------<br>--- ----- --- --- ------ -------- ----- --- ------ ----- --<br>----- ----- ---------- --- --- ------ ------ ---- -- ------<br>------- --- ------ ----- --- ---- ------- -- ---- --- --<br>------- ------,125818.5,125818,125084.366,125090.80000001192,125101.032,125834.313,,12,issuing
screen,html.Screen,0_2_1_1_13,2021-11-12T13:50:07.140Z,,,,,,,,,,,,,,,,54,,,,,,,,,,,,,,527.5870000357681,,response,,,100,,,,,,Space,keypress(Space),,,,,-- --- ---- --- ------ ----- ------- ---- -- --- ------- --<br>------- government ------ -- ----- -- ----- -- ---- ------<br>--- ----- --- --- ------ -------- ----- --- ------ ----- --<br>----- ----- ---------- --- --- ------ ------ ---- -- ------<br>------- --- ------ ----- --- ---- ------- -- ---- --- --<br>------- ------,126362.5,126361.90000003576,125817.647,125818.69999998808,125834.313,126367.568,,13,government
screen,html.Screen,0_2_1_1_14,2021-11-12T13:50:07.868Z,,,,,,,,,,,,,,,,54,,,,,,,,,,,,,,722.2320000119216,,response,,,100,,,,,,Space,keypress(Space),,,,,-- --- ---- --- ------ ----- ------- ---- -- --- ------- --<br>------- ---------- bonds. -- ----- -- ----- -- ---- ------<br>--- ----- --- --- ------ -------- ----- --- ------ ----- --<br>----- ----- ---------- --- --- ------ ------ ---- -- ------<br>------- --- ------ ----- --- ---- ------- -- ---- --- --<br>------- ------,127090.40000003576,127089.80000001192,126350.903,126362.69999998808,126367.568,127100.844,,14,bonds.
screen,html.Screen,0_2_1_1_15,2021-11-12T13:50:08.308Z,,,,,,,,,,,,,,,,54,,,,,,,,,,,,,,428.9560000119236,,response,,,100,,,,,,Space,keypress(Space),,,,,-- --- ---- --- ------ ----- ------- ---- -- --- ------- --<br>------- ---------- ------ In ----- -- ----- -- ---- ------<br>--- ----- --- --- ------ -------- ----- --- ------ ----- --<br>----- ----- ---------- --- --- ------ ------ ---- -- ------<br>------- --- ------ ----- --- ---- ------- -- ---- --- --<br>------- ------,127530.40000003576,127529.80000001192,127084.179,127090.60000002384,127100.844,127534.129,,15,In
screen,html.Screen,0_2_1_1_16,2021-11-12T13:50:08.756Z,,,,,,,,,,,,,,,,54,,,,,,,,,,,,,,443.771000035762,,response,,,100,,,,,,Space,keypress(Space),,,,,"-- --- ---- --- ------ ----- ------- ---- -- --- ------- --<br>------- ---------- ------ -- 1727, -- ----- -- ---- ------<br>--- ----- --- --- ------ -------- ----- --- ------ ----- --<br>----- ----- ---------- --- --- ------ ------ ---- -- ------<br>------- --- ------ ----- --- ---- ------- -- ---- --- --<br>------- ------",127978.5,127977.90000003576,127517.464,127530.5,127534.129,127984.176,,16,"1727,"
screen,html.Screen,0_2_1_1_17,2021-11-12T13:50:09.348Z,,,,,,,,,,,,,,,,54,,,,,,,,,,,,,,585.6240000119142,,response,,,100,,,,,,Space,keypress(Space),,,,,-- --- ---- --- ------ ----- ------- ---- -- --- ------- --<br>------- ---------- ------ -- ----- in ----- -- ---- ------<br>--- ----- --- --- ------ -------- ----- --- ------ ----- --<br>----- ----- ---------- --- --- ------ ------ ---- -- ------<br>------- --- ------ ----- --- ---- ------- -- ---- --- --<br>------- ------,128570.40000003576,128569.80000001192,127967.51,127978.69999998808,127984.176,128583.924,,17,in
screen,html.Screen,0_2_1_1_18,2021-11-12T13:50:10.740Z,,,,,,,,,,,,,,,,54,,,,,,,,,,,,,,1377.8760000119219,,response,,,100,,,,,,Space,keypress(Space),,,,,-- --- ---- --- ------ ----- ------- ---- -- --- ------- --<br>------- ---------- ------ -- ----- -- order -- ---- ------<br>--- ----- --- --- ------ -------- ----- --- ------ ----- --<br>----- ----- ---------- --- --- ------ ------ ---- -- ------<br>------- --- ------ ----- --- ---- ------- -- ---- --- --<br>------- ------,129962.40000003576,129961.80000001192,128567.261,128570.5,128583.924,129967.412,,18,order
screen,html.Screen,0_2_1_1_19,2021-11-12T13:50:11.180Z,,,,,,,,,,,,,,,,54,,,,,,,,,,,,,,434.18800002384523,,response,,,100,,,,,,Space,keypress(Space),,,,,-- --- ---- --- ------ ----- ------- ---- -- --- ------- --<br>------- ---------- ------ -- ----- -- ----- to ---- ------<br>--- ----- --- --- ------ -------- ----- --- ------ ----- --<br>----- ----- ---------- --- --- ------ ------ ---- -- ------<br>------- --- ------ ----- --- ---- ------- -- ---- --- --<br>------- ------,130402.19999998808,130401.60000002384,129950.746,129962.5,129967.412,130417.176,,19,to
screen,html.Screen,0_2_1_1_20,2021-11-12T13:50:11.556Z,,,,,,,,,,,,,,,,54,,,,,,,,,,,,,,360.4240000238351,,response,,,100,,,,,,Space,keypress(Space),,,,,-- --- ---- --- ------ ----- ------- ---- -- --- ------- --<br>------- ---------- ------ -- ----- -- ----- -- save ------<br>--- ----- --- --- ------ -------- ----- --- ------ ----- --<br>----- ----- ---------- --- --- ------ ------ ---- -- ------<br>------- --- ------ ----- --- ---- ------- -- ---- --- --<br>------- ------,130778.19999998808,130777.60000002384,130400.512,130402.40000003576,130417.176,130783.998,,20,save
screen,html.Screen,0_2_1_1_21,2021-11-12T13:50:12.028Z,,,,,,,,,,,,,,,,54,,,,,,,,,,,,,,465.602000023835,,response,,,100,,,,,,Space,keypress(Space),,,,,"-- --- ---- --- ------ ----- ------- ---- -- --- ------- --<br>------- ---------- ------ -- ----- -- ----- -- ---- money,<br>--- ----- --- --- ------ -------- ----- --- ------ ----- --<br>----- ----- ---------- --- --- ------ ------ ---- -- ------<br>------- --- ------ ----- --- ---- ------- -- ---- --- --<br>------- ------",131250.19999998808,131249.60000002384,130767.332,130778.30000001192,130783.998,131267.272,,21,"money,"
screen,html.Screen,0_2_1_1_22,2021-11-12T13:50:12.420Z,,,,,,,,,,,,,,,,54,,,,,,,,,,,,,,374.2280000000028,,response,,,100,,,,,,Space,keypress(Space),,,,,-- --- ---- --- ------ ----- ------- ---- -- --- ------- --<br>------- ---------- ------ -- ----- -- ----- -- ---- ------<br>the ----- --- --- ------ -------- ----- --- ------ ----- --<br>----- ----- ---------- --- --- ------ ------ ---- -- ------<br>------- --- ------ ----- --- ---- ------- -- ---- --- --<br>------- ------,131642.10000002384,131641.5,131250.607,131250.40000003576,131267.272,131650.523,,22,the
screen,html.Screen,0_2_1_1_23,2021-11-12T13:50:12.804Z,,,,,,,,,,,,,,,,54,,,,,,,,,,,,,,374.9770000000135,,response,,,100,,,,,,Space,keypress(Space),,,,,-- --- ---- --- ------ ----- ------- ---- -- --- ------- --<br>------- ---------- ------ -- ----- -- ----- -- ---- ------<br>--- state --- --- ------ -------- ----- --- ------ ----- --<br>----- ----- ---------- --- --- ------ ------ ---- -- ------<br>------- --- ------ ----- --- ---- ------- -- ---- --- --<br>------- ------,132026.10000002384,132025.5,131633.859,131642.30000001192,131650.523,132033.869,,23,state
screen,html.Screen,0_2_1_1_24,2021-11-12T13:50:13.148Z,,,,,,,,,,,,,,,,54,,,,,,,,,,,,,,335.63099999999395,,response,,,100,,,,,,Space,keypress(Space),,,,,-- --- ---- --- ------ ----- ------- ---- -- --- ------- --<br>------- ---------- ------ -- ----- -- ----- -- ---- ------<br>--- ----- cut --- ------ -------- ----- --- ------ ----- --<br>----- ----- ---------- --- --- ------ ------ ---- -- ------<br>------- --- ------ ----- --- ---- ------- -- ---- --- --<br>------- ------,132370.10000002384,132369.5,132017.204,132026.30000001192,132033.869,132383.886,,24,cut
screen,html.Screen,0_2_1_1_25,2021-11-12T13:50:13.580Z,,,,,,,,,,,,,,,,54,,,,,,,,,,,,,,417.6140000000014,,response,,,100,,,,,,Space,keypress(Space),,,,,-- --- ---- --- ------ ----- ------- ---- -- --- ------- --<br>------- ---------- ------ -- ----- -- ----- -- ---- ------<br>--- ----- --- the ------ -------- ----- --- ------ ----- --<br>----- ----- ---------- --- --- ------ ------ ---- -- ------<br>------- --- ------ ----- --- ---- ------- -- ---- --- --<br>------- ------,132802.19999998808,132801.5,132367.22,132370.19999998808,132383.886,132817.227,,25,the
screen,html.Screen,0_2_1_1_26,2021-11-12T13:50:13.948Z,,,,,,,,,,,,,,,,54,,,,,,,,,,,,,,352.47299998806557,,response,,,100,,,,,,Space,keypress(Space),,,,,-- --- ---- --- ------ ----- ------- ---- -- --- ------- --<br>------- ---------- ------ -- ----- -- ----- -- ---- ------<br>--- ----- --- --- bonds' -------- ----- --- ------ ----- --<br>----- ----- ---------- --- --- ------ ------ ---- -- ------<br>------- --- ------ ----- --- ---- ------- -- ---- --- --<br>------- ------,133170.19999998808,133169.69999998808,132800.561,132802.30000001192,132817.227,133183.827,,26,bonds'
screen,html.Screen,0_2_1_1_27,2021-11-12T13:50:14.332Z,,,,,,,,,,,,,,,,54,,,,,,,,,,,,,,369.57300003577257,,response,,,100,,,,,,Space,keypress(Space),,,,,-- --- ---- --- ------ ----- ------- ---- -- --- ------- --<br>------- ---------- ------ -- ----- -- ----- -- ---- ------<br>--- ----- --- --- ------ interest ----- --- ------ ----- --<br>----- ----- ---------- --- --- ------ ------ ---- -- ------<br>------- --- ------ ----- --- ---- ------- -- ---- --- --<br>------- ------,133554,133553.40000003576,133167.162,133170.40000003576,133183.827,133567.057,,27,interest
screen,html.Screen,0_2_1_1_28,2021-11-12T13:50:14.676Z,,,,,,,,,,,,,,,,54,,,,,,,,,,,,,,330.4429999999993,,response,,,100,,,,,,Space,keypress(Space),,,,,-- --- ---- --- ------ ----- ------- ---- -- --- ------- --<br>------- ---------- ------ -- ----- -- ----- -- ---- ------<br>--- ----- --- --- ------ -------- rate. --- ------ ----- --<br>----- ----- ---------- --- --- ------ ------ ---- -- ------<br>------- --- ------ ----- --- ---- ------- -- ---- --- --<br>------- ------,133898.10000002384,133897.5,133550.393,133554.19999998808,133567.057,133900.431,,28,rate.
screen,html.Screen,0_2_1_1_29,2021-11-12T13:50:15.468Z,,,,,,,,,,,,,,,,54,,,,,,,,,,,,,,788.9690000357514,,response,,,100,,,,,,Space,keypress(Space),,,,,-- --- ---- --- ------ ----- ------- ---- -- --- ------- --<br>------- ---------- ------ -- ----- -- ----- -- ---- ------<br>--- ----- --- --- ------ -------- ----- The ------ ----- --<br>----- ----- ---------- --- --- ------ ------ ---- -- ------<br>------- --- ------ ----- --- ---- ------- -- ---- --- --<br>------- ------,134690,134689.40000003576,133883.766,133898.19999998808,133900.431,134700.255,,29,The
screen,html.Screen,0_2_1_1_30,2021-11-12T13:50:15.891Z,,,,,,,,,,,,,,,,54,,,,,,,,,,,,,,413.0450000119163,,response,,,100,,,,,,Space,keypress(Space),,,,,-- --- ---- --- ------ ----- ------- ---- -- --- ------- --<br>------- ---------- ------ -- ----- -- ----- -- ---- ------<br>--- ----- --- --- ------ -------- ----- --- market ----- --<br>----- ----- ---------- --- --- ------ ------ ---- -- ------<br>------- --- ------ ----- --- ---- ------- -- ---- --- --<br>------- ------,135113.90000003576,135113.30000001192,134683.591,134690.19999998808,134700.255,135117.099,,30,market
screen,html.Screen,0_2_1_1_31,2021-11-12T13:50:16.323Z,,,,,,,,,,,,,,,,54,,,,,,,,,,,,,,428.2010000119335,,response,,,100,,,,,,Space,keypress(Space),,,,,-- --- ---- --- ------ ----- ------- ---- -- --- ------- --<br>------- ---------- ------ -- ----- -- ----- -- ---- ------<br>--- ----- --- --- ------ -------- ----- --- ------ value --<br>----- ----- ---------- --- --- ------ ------ ---- -- ------<br>------- --- ------ ----- --- ---- ------- -- ---- --- --<br>------- ------,135545.90000003576,135545.30000001192,135100.431,135114.10000002384,135117.099,135550.34,,31,value
screen,html.Screen,0_2_1_1_32,2021-11-12T13:50:16.756Z,,,,,,,,,,,,,,,,54,,,,,,,,,,,,,,426.9600000119244,,response,,,100,,,,,,Space,keypress(Space),,,,,-- --- ---- --- ------ ----- ------- ---- -- --- ------- --<br>------- ---------- ------ -- ----- -- ----- -- ---- ------<br>--- ----- --- --- ------ -------- ----- --- ------ ----- of<br>----- ----- ---------- --- --- ------ ------ ---- -- ------<br>------- --- ------ ----- --- ---- ------- -- ---- --- --<br>------- ------,135978,135977.30000001192,135533.675,135546.10000002384,135550.34,135983.589,,32,of
screen,html.Screen,0_2_1_1_33,2021-11-12T13:50:17.219Z,,,,,,,,,,,,,,,,54,,,,,,,,,,,,,,457.61099998807185,,response,,,100,,,,,,Space,keypress(Space),,,,,-- --- ---- --- ------ ----- ------- ---- -- --- ------- --<br>------- ---------- ------ -- ----- -- ----- -- ---- ------<br>--- ----- --- --- ------ -------- ----- --- ------ ----- --<br>these ----- ---------- --- --- ------ ------ ---- -- ------<br>------- --- ------ ----- --- ---- ------- -- ---- --- --<br>------- ------,136441.90000003576,136441.19999998808,135966.925,135978.10000002384,135983.589,136450.324,,33,these
screen,html.Screen,0_2_1_1_34,2021-11-12T13:50:17.612Z,,,,,,,,,,,,,,,,54,,,,,,,,,,,,,,382.9760000119277,,response,,,100,,,,,,Space,keypress(Space),,,,,-- --- ---- --- ------ ----- ------- ---- -- --- ------- --<br>------- ---------- ------ -- ----- -- ----- -- ---- ------<br>--- ----- --- --- ------ -------- ----- --- ------ ----- --<br>----- bonds ---------- --- --- ------ ------ ---- -- ------<br>------- --- ------ ----- --- ---- ------- -- ---- --- --<br>------- ------,136834,136833.30000001192,136433.658,136442,136450.324,136850.169,,34,bonds
screen,html.Screen,0_2_1_1_35,2021-11-12T13:50:18.011Z,,,,,,,,,,,,,,,,54,,,,,,,,,,,,,,383.03099998808466,,response,,,100,,,,,,Space,keypress(Space),,,,,"-- --- ---- --- ------ ----- ------- ---- -- --- ------- --<br>------- ---------- ------ -- ----- -- ----- -- ---- ------<br>--- ----- --- --- ------ -------- ----- --- ------ ----- --<br>----- ----- plummeted, --- --- ------ ------ ---- -- ------<br>------- --- ------ ----- --- ---- ------- -- ---- --- --<br>------- ------",137233.80000001192,137233.19999998808,136833.505,136834.19999998808,136850.169,137250.266,,35,"plummeted,"
screen,html.Screen,0_2_1_1_36,2021-11-12T13:50:18.515Z,,,,,,,,,,,,,,,,54,,,,,,,,,,,,,,486.9339999880758,,response,,,100,,,,,,Space,keypress(Space),,,,,-- --- ---- --- ------ ----- ------- ---- -- --- ------- --<br>------- ---------- ------ -- ----- -- ----- -- ---- ------<br>--- ----- --- --- ------ -------- ----- --- ------ ----- --<br>----- ----- ---------- and --- ------ ------ ---- -- ------<br>------- --- ------ ----- --- ---- ------- -- ---- --- --<br>------- ------,137737.80000001192,137737.19999998808,137233.6,137233.90000003576,137250.266,137750.183,,36,and
screen,html.Screen,0_2_1_1_37,2021-11-12T13:50:18.955Z,,,,,,,,,,,,,,,,54,,,,,,,,,,,,,,426.91700002385187,,response,,,100,,,,,,Space,keypress(Space),,,,,-- --- ---- --- ------ ----- ------- ---- -- --- ------- --<br>------- ---------- ------ -- ----- -- ----- -- ---- ------<br>--- ----- --- --- ------ -------- ----- --- ------ ----- --<br>----- ----- ---------- --- the ------ ------ ---- -- ------<br>------- --- ------ ----- --- ---- ------- -- ---- --- --<br>------- ------,138177.69999998808,138177.10000002384,137733.518,137737.90000003576,137750.183,138183.479,,37,the
screen,html.Screen,0_2_1_1_38,2021-11-12T13:50:19.411Z,,,,,,,,,,,,,,,,54,,,,,,,,,,,,,,449.720999988087,,response,,,100,,,,,,Space,keypress(Space),,,,,-- --- ---- --- ------ ----- ------- ---- -- --- ------- --<br>------- ---------- ------ -- ----- -- ----- -- ---- ------<br>--- ----- --- --- ------ -------- ----- --- ------ ----- --<br>----- ----- ---------- --- --- market ------ ---- -- ------<br>------- --- ------ ----- --- ---- ------- -- ---- --- --<br>------- ------,138633.80000001192,138633.19999998808,138166.814,138178,138183.479,138650.108,,38,market
screen,html.Screen,0_2_1_1_39,2021-11-12T13:50:19.851Z,,,,,,,,,,,,,,,,54,,,,,,,,,,,,,,422.9920000238344,,response,,,100,,,,,,Space,keypress(Space),,,,,-- --- ---- --- ------ ----- ------- ---- -- --- ------- --<br>------- ---------- ------ -- ----- -- ----- -- ---- ------<br>--- ----- --- --- ------ -------- ----- --- ------ ----- --<br>----- ----- ---------- --- --- ------ became ---- -- ------<br>------- --- ------ ----- --- ---- ------- -- ---- --- --<br>------- ------,139073.69999998808,139073.10000002384,138633.443,138634,138650.108,139083.475,,39,became
screen,html.Screen,0_2_1_1_40,2021-11-12T13:50:21.307Z,,,,,,,,,,,,,,,,54,,,,,,,,,,,,,,1445.625000023836,,response,,,100,,,,,,Space,keypress(Space),,,,,-- --- ---- --- ------ ----- ------- ---- -- --- ------- --<br>------- ---------- ------ -- ----- -- ----- -- ---- ------<br>--- ----- --- --- ------ -------- ----- --- ------ ----- --<br>----- ----- ---------- --- --- ------ ------ wary -- ------<br>------- --- ------ ----- --- ---- ------- -- ---- --- --<br>------- ------,140529.69999998808,140529.10000002384,139066.809,139073.90000003576,139083.475,140533.425,,40,wary
screen,html.Screen,0_2_1_1_41,2021-11-12T13:50:22.123Z,,,,,,,,,,,,,,,,54,,,,,,,,,,,,,,811.5750000000116,,response,,,100,,,,,,Space,keypress(Space),,,,,-- --- ---- --- ------ ----- ------- ---- -- --- ------- --<br>------- ---------- ------ -- ----- -- ----- -- ---- ------<br>--- ----- --- --- ------ -------- ----- --- ------ ----- --<br>----- ----- ---------- --- --- ------ ------ ---- of ------<br>------- --- ------ ----- --- ---- ------- -- ---- --- --<br>------- ------,141345.60000002384,141345,140516.759,140529.80000001192,140533.425,141349.834,,41,of
screen,html.Screen,0_2_1_1_42,2021-11-12T13:50:22.731Z,,,,,,,,,,,,,,,,54,,,,,,,,,,,,,,603.1659999999974,,response,,,100,,,,,,Space,keypress(Space),,,,,-- --- ---- --- ------ ----- ------- ---- -- --- ------- --<br>------- ---------- ------ -- ----- -- ----- -- ---- ------<br>--- ----- --- --- ------ -------- ----- --- ------ ----- --<br>----- ----- ---------- --- --- ------ ------ ---- -- French<br>------- --- ------ ----- --- ---- ------- -- ---- --- --<br>------- ------,141953.60000002384,141953,141333.17,141345.80000001192,141349.834,141966.565,,42,French
screen,html.Screen,0_2_1_1_43,2021-11-12T13:50:23.387Z,,,,,,,,,,,,,,,,54,,,,,,,,,,,,,,642.3350000357605,,response,,,100,,,,,,Space,keypress(Space),,,,,-- --- ---- --- ------ ----- ------- ---- -- --- ------- --<br>------- ---------- ------ -- ----- -- ----- -- ---- ------<br>--- ----- --- --- ------ -------- ----- --- ------ ----- --<br>----- ----- ---------- --- --- ------ ------ ---- -- ------<br>credit. --- ------ ----- --- ---- ------- -- ---- --- --<br>------- ------,142609.5,142608.90000003576,141949.9,141953.80000001192,141966.565,142616.613,,43,credit.
screen,html.Screen,0_2_1_1_44,2021-11-12T13:50:24.155Z,,,,,,,,,,,,,,,,54,,,,,,,,,,,,,,760.4870000238298,,response,,,100,,,,,,Space,keypress(Space),,,,,-- --- ---- --- ------ ----- ------- ---- -- --- ------- --<br>------- ---------- ------ -- ----- -- ----- -- ---- ------<br>--- ----- --- --- ------ -------- ----- --- ------ ----- --<br>----- ----- ---------- --- --- ------ ------ ---- -- ------<br>------- The ------ ----- --- ---- ------- -- ---- --- --<br>------- ------,143377.69999998808,143377.10000002384,142599.947,142609.69999998808,142616.613,143383.17,,44,The
screen,html.Screen,0_2_1_1_45,2021-11-12T13:50:24.843Z,,,,,,,,,,,,,,,,54,,,,,,,,,,,,,,681.6300000119081,,response,,,100,,,,,,Space,keypress(Space),,,,,-- --- ---- --- ------ ----- ------- ---- -- --- ------- --<br>------- ---------- ------ -- ----- -- ----- -- ---- ------<br>--- ----- --- --- ------ -------- ----- --- ------ ----- --<br>----- ----- ---------- --- --- ------ ------ ---- -- ------<br>------- --- French ----- --- ---- ------- -- ---- --- --<br>------- ------,144065.60000002384,144064.80000001192,143366.505,143377.90000003576,143383.17,144066.479,,45,French
screen,html.Screen,0_2_1_1_46,2021-11-12T13:50:25.363Z,,,,,,,,,,,,,,,,54,,,,,,,,,,,,,,518.3210000119288,,response,,,100,,,,,,Space,keypress(Space),,,,,-- --- ---- --- ------ ----- ------- ---- -- --- ------- --<br>------- ---------- ------ -- ----- -- ----- -- ---- ------<br>--- ----- --- --- ------ -------- ----- --- ------ ----- --<br>----- ----- ---------- --- --- ------ ------ ---- -- ------<br>------- --- ------ state --- ---- ------- -- ---- --- --<br>------- ------,144585.30000001192,144584.80000001192,144049.814,144065.69999998808,144066.479,144599.663,,46,state
screen,html.Screen,0_2_1_1_47,2021-11-12T13:50:25.827Z,,,,,,,,,,,,,,,,54,,,,,,,,,,,,,,449.0369999880786,,response,,,100,,,,,,Space,keypress(Space),,,,,-- --- ---- --- ------ ----- ------- ---- -- --- ------- --<br>------- ---------- ------ -- ----- -- ----- -- ---- ------<br>--- ----- --- --- ------ -------- ----- --- ------ ----- --<br>----- ----- ---------- --- --- ------ ------ ---- -- ------<br>------- --- ------ ----- was ---- ------- -- ---- --- --<br>------- ------,145049.30000001192,145048.69999998808,144582.999,144585.60000002384,144599.663,145066.462,,47,was
screen,html.Screen,0_2_1_1_48,2021-11-12T13:50:26.315Z,,,,,,,,,,,,,,,,54,,,,,,,,,,,,,,470.3380000119214,,response,,,100,,,,,,Space,keypress(Space),,,,,-- --- ---- --- ------ ----- ------- ---- -- --- ------- --<br>------- ---------- ------ -- ----- -- ----- -- ---- ------<br>--- ----- --- --- ------ -------- ----- --- ------ ----- --<br>----- ----- ---------- --- --- ------ ------ ---- -- ------<br>------- --- ------ ----- --- left ------- -- ---- --- --<br>------- ------,145537.30000001192,145536.80000001192,145049.796,145049.5,145066.462,145549.697,,48,left
screen,html.Screen,0_2_1_1_49,2021-11-12T13:50:27.339Z,,,,,,,,,,,,,,,,54,,,,,,,,,,,,,,1011.0029999880935,,response,,,100,,,,,,Space,keypress(Space),,,,,-- --- ---- --- ------ ----- ------- ---- -- --- ------- --<br>------- ---------- ------ -- ----- -- ----- -- ---- ------<br>--- ----- --- --- ------ -------- ----- --- ------ ----- --<br>----- ----- ---------- --- --- ------ ------ ---- -- ------<br>------- --- ------ ----- --- ---- without -- ---- --- --<br>------- ------,146561.30000001192,146560.69999998808,145533.032,145537.5,145549.697,146566.29,,49,without
screen,html.Screen,0_2_1_1_50,2021-11-12T13:50:27.859Z,,,,,,,,,,,,,,,,54,,,,,,,,,,,,,,514.3100000238337,,response,,,100,,,,,,Space,keypress(Space),,,,,-- --- ---- --- ------ ----- ------- ---- -- --- ------- --<br>------- ---------- ------ -- ----- -- ----- -- ---- ------<br>--- ----- --- --- ------ -------- ----- --- ------ ----- --<br>----- ----- ---------- --- --- ------ ------ ---- -- ------<br>------- --- ------ ----- --- ---- ------- an ---- --- --<br>------- ------,147081.30000001192,147080.60000002384,146549.625,146561.60000002384,146566.29,147083.013,,50,an
screen,html.Screen,0_2_1_1_51,2021-11-12T13:50:28.347Z,,,,,,,,,,,,,,,,54,,,,,,,,,,,,,,485.4869999999937,,response,,,100,,,,,,Space,keypress(Space),,,,,-- --- ---- --- ------ ----- ------- ---- -- --- ------- --<br>------- ---------- ------ -- ----- -- ----- -- ---- ------<br>--- ----- --- --- ------ -------- ----- --- ------ ----- --<br>----- ----- ---------- --- --- ------ ------ ---- -- ------<br>------- --- ------ ----- --- ---- ------- -- easy --- --<br>------- ------,147569.19999998808,147568.5,147066.347,147081.5,147083.013,147582.902,,51,easy
screen,html.Screen,0_2_1_1_52,2021-11-12T13:50:28.803Z,,,,,,,,,,,,,,,,54,,,,,,,,,,,,,,441.69800002384,,response,,,100,,,,,,Space,keypress(Space),,,,,-- --- ---- --- ------ ----- ------- ---- -- --- ------- --<br>------- ---------- ------ -- ----- -- ----- -- ---- ------<br>--- ----- --- --- ------ -------- ----- --- ------ ----- --<br>----- ----- ---------- --- --- ------ ------ ---- -- ------<br>------- --- ------ ----- --- ---- ------- -- ---- way --<br>------- ------,148025.10000002384,148024.60000002384,147566.237,147569.30000001192,147582.902,148032.901,,52,way
screen,html.Screen,0_2_1_1_53,2021-11-12T13:50:29.315Z,,,,,,,,,,,,,,,,54,,,,,,,,,,,,,,503.5989999999874,,response,,,100,,,,,,Space,keypress(Space),,,,,-- --- ---- --- ------ ----- ------- ---- -- --- ------- --<br>------- ---------- ------ -- ----- -- ----- -- ---- ------<br>--- ----- --- --- ------ -------- ----- --- ------ ----- --<br>----- ----- ---------- --- --- ------ ------ ---- -- ------<br>------- --- ------ ----- --- ---- ------- -- ---- --- of<br>------- ------,148537.10000002384,148536.5,148016.236,148025.30000001192,148032.901,148549.537,,53,of
screen,html.Screen,0_2_1_1_54,2021-11-12T13:50:29.755Z,,,,,,,,,,,,,,,,54,,,,,,,,,,,,,,426.9629999999888,,response,,,100,,,,,,Space,keypress(Space),,,,,-- --- ---- --- ------ ----- ------- ---- -- --- ------- --<br>------- ---------- ------ -- ----- -- ----- -- ---- ------<br>--- ----- --- --- ------ -------- ----- --- ------ ----- --<br>----- ----- ---------- --- --- ------ ------ ---- -- ------<br>------- --- ------ ----- --- ---- ------- -- ---- --- --<br>raising ------,148977.10000002384,148976.5,148532.872,148537.19999998808,148549.537,148982.822,,54,raising
screen,html.Screen,0_2_1_1_55,2021-11-12T13:50:30.195Z,,,,,,,,,,,,,,,,54,,,,,,,,,,,,,,433.7780000238563,,response,,,100,,,,,,Space,keypress(Space),,,,,-- --- ---- --- ------ ----- ------- ---- -- --- ------- --<br>------- ---------- ------ -- ----- -- ----- -- ---- ------<br>--- ----- --- --- ------ -------- ----- --- ------ ----- --<br>----- ----- ---------- --- --- ------ ------ ---- -- ------<br>------- --- ------ ----- --- ---- ------- -- ---- --- --<br>------- money.,149417.10000002384,149416.60000002384,148966.157,148977.30000001192,148982.822,149432.719,,55,money.
Item 100,flow.Loop,0_2_1_1,2021-11-12T13:50:30.195Z,,,,,,,,,,,,,,,,,,,,,,,,,,,,,,30681.86800002384,,completion,,,,F,,,,,,,,,,silence,,149417.40000003576,149416.60000002384,118718.066,118719.19999998808,118734.732,149432.719,,,
Question 1,html.Screen,0_2_1_2,2021-11-12T13:50:34.213Z,,,,,,,,,,,,,,,,,,,,,,,,,,,true,TRUE,,4001.480999988067,,response,,,100,F,,,,,TRUE,click #choice-1,,,,silence,,153435.19999998808,153434.19999998808,149416.055,149417.5,149432.719,153465.891,,,
Question 2,html.Screen,0_2_1_3,2021-11-12T13:50:36.999Z,,,,,,,,,,,,,,,,,,,,,,,,,,,false,FALSE,,2754.7090000238386,,response,,,100,F,,,,,TRUE,click #choice-1,,,,silence,,156221.30000001192,156220.60000002384,153449.226,153435.40000003576,153465.891,156232.285,,,
Item 100,flow.Sequence,0_2_1,2021-11-12T13:50:36.999Z,,,,,,,,,,,,,,,,,,,,,,,,,,,,,,47485.43600002384,,completion,,,,,,,,,,,,,,,,156221.60000002384,156220.60000002384,108718.504,108731.69999998808,108735.164,156232.285,,,
End of Practice,html.Page,0_2_2,2021-11-12T13:50:42.151Z,,,,,,,,,,,,,,,,,,,,,,,,,,,,,,5140.2149999999965,,form submission,,,,,,,,,,,,,,,,161373,161372.5,156215.623,156221.80000001192,156232.285,161381.92,,,
Practice,flow.Sequence,0_2,2021-11-12T13:50:42.151Z,,,,,,,,,,,,,,,,,,,,,,,,,,,,,,113100.24900000001,,completion,,,,,,,,,,,,,,,,161373.19999998808,161372.5,48255.586,48261.5,48272.251,161381.92,,,
Trap_instruction,html.Page,0_3_0,2021-11-12T13:50:48.369Z,,,,,,,,,,,,,,,,,,,,,,,,,,,,,,6209.279999988066,,form submission,,,,,,,,,,,,,,,,167591.40000003576,167591.19999998808,161365.255,161373.5,161381.92,167614.798,,,
trap_trial,html.Screen,0_3_1,2021-11-12T13:50:51.161Z,,,,,,,,,,,,,,,,,,,,,,,,,,,true,1,,2767.802000023832,,response,,,,,,,,,1,click #choice-1,,,,,,170383.5,170382.60000002384,167581.468,167591.5,167614.798,170398.095,,,
end of trap trial,html.Page,0_3_2,2021-11-12T13:50:54.401Z,,,,,,,,,,,,,,,,,,,,,,,,,,,,,,3224.7050000119198,,form submission,,,,,,,,,,,,,,,,173623.10000002384,173622.80000001192,170381.43,170383.69999998808,170398.095,173631.278,,,
Trap 1,flow.Sequence,0_3,2021-11-12T13:50:54.401Z,,,,,,,,,,,,,,,,,,,,,,,,,,,,,,12240.880000011908,,completion,,,,,,,,,,,,,,,,173623.40000003576,173622.80000001192,161365.255,161373.40000003576,161381.92,173631.278,,,
Standby,html.Page,0_4_0,2021-11-12T13:51:02.396Z,,,,,,,,,,,,,,,,,,,,,,,,,,,,,,7999.241000000009,,timeout,,,,,,,,,,,,,,,,181615.19999998808,181613.854,173614.613,173623.60000002384,173631.278,181630.519,,,
Holding screen,html.Screen,0_4_1_0_0,2021-11-12T13:51:09.396Z,,,,,,,,,,,,,,,,,,,,,,,,,,,,,,6999.8429999999935,,timeout,,,,,,,,,,,,,,,,188615.19999998808,188613.697,181613.854,181615.5,181630.519,188630.362,,,
screen,html.Screen,0_4_1_0_1_0,2021-11-12T13:51:10.612Z,,,,,,,,,,,,,,,,2,,,,,,,,,,,,,,1199.9380000119272,,response,,,1,F,,,,,Space,keypress(Space),,,,instrumental,Two ---- ------ --- ------- ---------- ------- ----------<br>--- --------- --- ----------- ------- ----- ------- ---<br>--------- ---- -- --- ---- -- --------- -- ---- -------<br>-- --------- ------ --- ----- ------ ---- --- --------- --<br>------ - ---- -- --- ----------- ------- ---- ----- -----<br>--- -------- - ------ ---- -- ----- ---- --- --- -----------<br>-- -------,189831,189830.30000001192,188613.697,188615.5,188630.362,189846.946,,0,Two
screen,html.Screen,0_4_1_0_1_1,2021-11-12T13:51:11.219Z,,,,,,,,,,,,,,,,2,,,,,,,,,,,,,,590.9540000357665,,response,,,1,F,,,,,Space,keypress(Space),,,,instrumental,--- days ------ --- ------- ---------- ------- ----------<br>--- --------- --- ----------- ------- ----- ------- ---<br>--------- ---- -- --- ---- -- --------- -- ---- -------<br>-- --------- ------ --- ----- ------ ---- --- --------- --<br>------ - ---- -- --- ----------- ------- ---- ----- -----<br>--- -------- - ------ ---- -- ----- ---- --- --- -----------<br>-- -------,190438.69999998808,190437.90000003576,189830.281,189831.19999998808,189846.946,190446.958,,1,days
screen,html.Screen,0_4_1_0_1_2,2021-11-12T13:51:11.715Z,,,,,,,,,,,,,,,,2,,,,,,,,,,,,,,487.04199999998673,,response,,,1,F,,,,,Space,keypress(Space),,,,instrumental,"--- ---- later, --- ------- ---------- ------- ----------<br>--- --------- --- ----------- ------- ----- ------- ---<br>--------- ---- -- --- ---- -- --------- -- ---- -------<br>-- --------- ------ --- ----- ------ ---- --- --------- --<br>------ - ---- -- --- ----------- ------- ---- ----- -----<br>--- -------- - ------ ---- -- ----- ---- --- --- -----------<br>-- -------",190934.60000002384,190934,190430.293,190438.90000003576,190446.958,190946.939,,2,"later,"
screen,html.Screen,0_4_1_0_1_3,2021-11-12T13:51:12.195Z,,,,,,,,,,,,,,,,2,,,,,,,,,,,,,,466.96100003574975,,response,,,1,F,,,,,Space,keypress(Space),,,,instrumental,--- ---- ------ the ------- ---------- ------- ----------<br>--- --------- --- ----------- ------- ----- ------- ---<br>--------- ---- -- --- ---- -- --------- -- ---- -------<br>-- --------- ------ --- ----- ------ ---- --- --------- --<br>------ - ---- -- --- ----------- ------- ---- ----- -----<br>--- -------- - ------ ---- -- ----- ---- --- --- -----------<br>-- -------,191414.60000002384,191413.90000003576,190930.274,190934.69999998808,190946.939,191430.214,,3,the
screen,html.Screen,0_4_1_0_1_4,2021-11-12T13:51:12.651Z,,,,,,,,,,,,,,,,2,,,,,,,,,,,,,,439.68600003575557,,response,,,1,F,,,,,Space,keypress(Space),,,,instrumental,--- ---- ------ --- British ---------- ------- ----------<br>--- --------- --- ----------- ------- ----- ------- ---<br>--------- ---- -- --- ---- -- --------- -- ---- -------<br>-- --------- ------ --- ----- ------ ---- --- --------- --<br>------ - ---- -- --- ----------- ------- ---- ----- -----<br>--- -------- - ------ ---- -- ----- ---- --- --- -----------<br>-- -------,191870.5,191869.90000003576,191413.549,191414.69999998808,191430.214,191880.208,,4,British
screen,html.Screen,0_4_1_0_1_5,2021-11-12T13:51:13.115Z,,,,,,,,,,,,,,,,2,,,,,,,,,,,,,,453.6920000357495,,response,,,1,F,,,,,Space,keypress(Space),,,,instrumental,--- ---- ------ --- ------- astronomer ------- ----------<br>--- --------- --- ----------- ------- ----- ------- ---<br>--------- ---- -- --- ---- -- --------- -- ---- -------<br>-- --------- ------ --- ----- ------ ---- --- --------- --<br>------ - ---- -- --- ----------- ------- ---- ----- -----<br>--- -------- - ------ ---- -- ----- ---- --- --- -----------<br>-- -------,192334.5,192333.90000003576,191863.543,191870.69999998808,191880.208,192346.833,,5,astronomer
screen,html.Screen,0_4_1_0_1_6,2021-11-12T13:51:13.603Z,,,,,,,,,,,,,,,,2,,,,,,,,,,,,,,475.0670000357495,,response,,,1,F,,,,,Space,keypress(Space),,,,instrumental,--- ---- ------ --- ------- ---------- Richard ----------<br>--- --------- --- ----------- ------- ----- ------- ---<br>--------- ---- -- --- ---- -- --------- -- ---- -------<br>-- --------- ------ --- ----- ------ ---- --- --------- --<br>------ - ---- -- --- ----------- ------- ---- ----- -----<br>--- -------- - ------ ---- -- ----- ---- --- --- -----------<br>-- -------,192822.5,192821.90000003576,192330.168,192334.60000002384,192346.833,192830.149,,6,Richard
screen,html.Screen,0_4_1_0_1_7,2021-11-12T13:51:14.387Z,,,,,,,,,,,,,,,,2,,,,,,,,,,,,,,775.651000011916,,response,,,1,F,,,,,Space,keypress(Space),,,,instrumental,--- ---- ------ --- ------- ---------- ------- Carrington<br>--- --------- --- ----------- ------- ----- ------- ---<br>--------- ---- -- --- ---- -- --------- -- ---- -------<br>-- --------- ------ --- ----- ------ ---- --- --------- --<br>------ - ---- -- --- ----------- ------- ---- ----- -----<br>--- -------- - ------ ---- -- ----- ---- --- --- -----------<br>-- -------,193606.40000003576,193605.80000001192,192813.484,192822.60000002384,192830.149,193613.412,,7,Carrington
screen,html.Screen,0_4_1_0_1_8,2021-11-12T13:51:14.867Z,,,,,,,,,,,,,,,,2,,,,,,,,,,,,,,472.2879999880679,,response,,,1,F,,,,,Space,keypress(Space),,,,instrumental,--- ---- ------ --- ------- ---------- ------- ----------<br>was --------- --- ----------- ------- ----- ------- ---<br>--------- ---- -- --- ---- -- --------- -- ---- -------<br>-- --------- ------ --- ----- ------ ---- --- --------- --<br>------ - ---- -- --- ----------- ------- ---- ----- -----<br>--- -------- - ------ ---- -- ----- ---- --- --- -----------<br>-- -------,194086.30000001192,194085.69999998808,193596.747,193606.60000002384,193613.412,194096.722,,8,was
screen,html.Screen,0_4_1_0_1_9,2021-11-12T13:51:15.307Z,,,,,,,,,,,,,,,,2,,,,,,,,,,,,,,429.0780000119121,,response,,,1,F,,,,,Space,keypress(Space),,,,instrumental,--- ---- ------ --- ------- ---------- ------- ----------<br>--- observing --- ----------- ------- ----- ------- ---<br>--------- ---- -- --- ---- -- --------- -- ---- -------<br>-- --------- ------ --- ----- ------ ---- --- --------- --<br>------ - ---- -- --- ----------- ------- ---- ----- -----<br>--- -------- - ------ ---- -- ----- ---- --- --- -----------<br>-- -------,194526.40000003576,194525.80000001192,194080.057,194086.5,194096.722,194530.037,,9,observing
screen,html.Screen,0_4_1_0_1_10,2021-11-12T13:51:15.739Z,,,,,,,,,,,,,,,,2,,,,,,,,,,,,,,427.6629999880679,,response,,,1,F,,,,,Space,keypress(Space),,,,instrumental,--- ---- ------ --- ------- ---------- ------- ----------<br>--- --------- the ----------- ------- ----- ------- ---<br>--------- ---- -- --- ---- -- --------- -- ---- -------<br>-- --------- ------ --- ----- ------ ---- --- --------- --<br>------ - ---- -- --- ----------- ------- ---- ----- -----<br>--- -------- - ------ ---- -- ----- ---- --- --- -----------<br>-- -------,194958.30000001192,194957.69999998808,194513.372,194526.60000002384,194530.037,194963.283,,10,the
screen,html.Screen,0_4_1_0_1_11,2021-11-12T13:51:16.443Z,,,,,,,,,,,,,,,,2,,,,,,,,,,,,,,698.4169999880833,,response,,,1,F,,,,,Space,keypress(Space),,,,instrumental,--- ---- ------ --- ------- ---------- ------- ----------<br>--- --------- --- interesting ------- ----- ------- ---<br>--------- ---- -- --- ---- -- --------- -- ---- -------<br>-- --------- ------ --- ----- ------ ---- --- --------- --<br>------ - ---- -- --- ----------- ------- ---- ----- -----<br>--- -------- - ------ ---- -- ----- ---- --- --- -----------<br>-- -------,195662.19999998808,195661.69999998808,194946.619,194958.5,194963.283,195663.354,,11,interesting
screen,html.Screen,0_4_1_0_1_12,2021-11-12T13:51:16.955Z,,,,,,,,,,,,,,,,2,,,,,,,,,,,,,,510.2460000238498,,response,,,1,F,,,,,Space,keypress(Space),,,,instrumental,--- ---- ------ --- ------- ---------- ------- ----------<br>--- --------- --- ----------- sunspot ----- ------- ---<br>--------- ---- -- --- ---- -- --------- -- ---- -------<br>-- --------- ------ --- ----- ------ ---- --- --------- --<br>------ - ---- -- --- ----------- ------- ---- ----- -----<br>--- -------- - ------ ---- -- ----- ---- --- --- -----------<br>-- -------,196174.10000002384,196173.60000002384,195646.688,195662.5,195663.354,196179.834,,12,sunspot
screen,html.Screen,0_4_1_0_1_13,2021-11-12T13:51:17.459Z,,,,,,,,,,,,,,,,2,,,,,,,,,,,,,,497.7660000238393,,response,,,1,F,,,,,Space,keypress(Space),,,,instrumental,--- ---- ------ --- ------- ---------- ------- ----------<br>--- --------- --- ----------- ------- group ------- ---<br>--------- ---- -- --- ---- -- --------- -- ---- -------<br>-- --------- ------ --- ----- ------ ---- --- --------- --<br>------ - ---- -- --- ----------- ------- ---- ----- -----<br>--- -------- - ------ ---- -- ----- ---- --- --- -----------<br>-- -------,196678.10000002384,196677.60000002384,196163.17,196174.30000001192,196179.834,196679.89,,13,group
screen,html.Screen,0_4_1_0_1_14,2021-11-12T13:51:17.987Z,,,,,,,,,,,,,,,,2,,,,,,,,,,,,,,525.609999999986,,response,,,1,F,,,,,Space,keypress(Space),,,,instrumental,--- ---- ------ --- ------- ---------- ------- ----------<br>--- --------- --- ----------- ------- ----- through ---<br>--------- ---- -- --- ---- -- --------- -- ---- -------<br>-- --------- ------ --- ----- ------ ---- --- --------- --<br>------ - ---- -- --- ----------- ------- ---- ----- -----<br>--- -------- - ------ ---- -- ----- ---- --- --- -----------<br>-- -------,197206.10000002384,197205.5,196663.225,196678.30000001192,196679.89,197213.247,,14,through
screen,html.Screen,0_4_1_0_1_15,2021-11-12T13:51:18.539Z,,,,,,,,,,,,,,,,2,,,,,,,,,,,,,,544.3530000238388,,response,,,1,F,,,,,Space,keypress(Space),,,,instrumental,--- ---- ------ --- ------- ---------- ------- ----------<br>--- --------- --- ----------- ------- ----- ------- his<br>--------- ---- -- --- ---- -- --------- -- ---- -------<br>-- --------- ------ --- ----- ------ ---- --- --------- --<br>------ - ---- -- --- ----------- ------- ---- ----- -----<br>--- -------- - ------ ---- -- ----- ---- --- --- -----------<br>-- -------,197758.19999998808,197757.60000002384,197196.581,197206.30000001192,197213.247,197763.175,,15,his
screen,html.Screen,0_4_1_0_1_16,2021-11-12T13:51:19.099Z,,,,,,,,,,,,,,,,2,,,,,,,,,,,,,,554.3250000000116,,response,,,1,F,,,,,Space,keypress(Space),,,,instrumental,--- ---- ------ --- ------- ---------- ------- ----------<br>--- --------- --- ----------- ------- ----- ------- ---<br>telescope ---- -- --- ---- -- --------- -- ---- -------<br>-- --------- ------ --- ----- ------ ---- --- --------- --<br>------ - ---- -- --- ----------- ------- ---- ----- -----<br>--- -------- - ------ ---- -- ----- ---- --- --- -----------<br>-- -------,198318.10000002384,198317.5,197746.51,197758.30000001192,197763.175,198329.795,,16,telescope
screen,html.Screen,0_4_1_0_1_17,2021-11-12T13:51:19.731Z,,,,,,,,,,,,,,,,2,,,,,,,,,,,,,,619.7049999999872,,response,,,1,F,,,,,Space,keypress(Space),,,,instrumental,--- ---- ------ --- ------- ---------- ------- ----------<br>--- --------- --- ----------- ------- ----- ------- ---<br>--------- when -- --- ---- -- --------- -- ---- -------<br>-- --------- ------ --- ----- ------ ---- --- --------- --<br>------ - ---- -- --- ----------- ------- ---- ----- -----<br>--- -------- - ------ ---- -- ----- ---- --- --- -----------<br>-- -------,198950.10000002384,198949.5,198313.13,198318.30000001192,198329.795,198963.085,,17,when
screen,html.Screen,0_4_1_0_1_18,2021-11-12T13:51:20.251Z,,,,,,,,,,,,,,,,2,,,,,,,,,,,,,,506.31500003577094,,response,,,1,F,,,,,Space,keypress(Space),,,,instrumental,--- ---- ------ --- ------- ---------- ------- ----------<br>--- --------- --- ----------- ------- ----- ------- ---<br>--------- ---- he --- ---- -- --------- -- ---- -------<br>-- --------- ------ --- ----- ------ ---- --- --------- --<br>------ - ---- -- --- ----------- ------- ---- ----- -----<br>--- -------- - ------ ---- -- ----- ---- --- --- -----------<br>-- -------,199470.10000002384,199469.40000003576,198946.42,198950.30000001192,198963.085,199479.699,,18,he
screen,html.Screen,0_4_1_0_1_19,2021-11-12T13:51:20.979Z,,,,,,,,,,,,,,,,2,,,,,,,,,,,,,,718.0009999880858,,response,,,1,F,,,,,Space,keypress(Space),,,,instrumental,--- ---- ------ --- ------- ---------- ------- ----------<br>--- --------- --- ----------- ------- ----- ------- ---<br>--------- ---- -- saw ---- -- --------- -- ---- -------<br>-- --------- ------ --- ----- ------ ---- --- --------- --<br>------ - ---- -- --- ----------- ------- ---- ----- -----<br>--- -------- - ------ ---- -- ----- ---- --- --- -----------<br>-- -------,200198.19999998808,200197.69999998808,199463.034,199470.19999998808,199479.699,200213.012,,19,saw
screen,html.Screen,0_4_1_0_1_20,2021-11-12T13:51:21.867Z,,,,,,,,,,,,,,,,2,,,,,,,,,,,,,,872.3880000357749,,response,,,1,F,,,,,Space,keypress(Space),,,,instrumental,--- ---- ------ --- ------- ---------- ------- ----------<br>--- --------- --- ----------- ------- ----- ------- ---<br>--------- ---- -- --- what -- --------- -- ---- -------<br>-- --------- ------ --- ----- ------ ---- --- --------- --<br>------ - ---- -- --- ----------- ------- ---- ----- -----<br>--- -------- - ------ ---- -- ----- ---- --- --- -----------<br>-- -------,201086,201085.40000003576,200196.347,200198.40000003576,200213.012,201096.287,,20,what
screen,html.Screen,0_4_1_0_1_21,2021-11-12T13:51:22.387Z,,,,,,,,,,,,,,,,2,,,,,,,,,,,,,,509.01300001190975,,response,,,1,F,,,,,Space,keypress(Space),,,,instrumental,--- ---- ------ --- ------- ---------- ------- ----------<br>--- --------- --- ----------- ------- ----- ------- ---<br>--------- ---- -- --- ---- he --------- -- ---- -------<br>-- --------- ------ --- ----- ------ ---- --- --------- --<br>------ - ---- -- --- ----------- ------- ---- ----- -----<br>--- -------- - ------ ---- -- ----- ---- --- --- -----------<br>-- -------,201605.90000003576,201605.30000001192,201079.622,201086.19999998808,201096.287,201612.921,,21,he
screen,html.Screen,0_4_1_0_1_22,2021-11-12T13:51:22.875Z,,,,,,,,,,,,,,,,2,,,,,,,,,,,,,,480.278999988077,,response,,,1,F,,,,,Space,keypress(Space),,,,instrumental,--- ---- ------ --- ------- ---------- ------- ----------<br>--- --------- --- ----------- ------- ----- ------- ---<br>--------- ---- -- --- ---- -- described -- ---- -------<br>-- --------- ------ --- ----- ------ ---- --- --------- --<br>------ - ---- -- --- ----------- ------- ---- ----- -----<br>--- -------- - ------ ---- -- ----- ---- --- --- -----------<br>-- -------,202093.90000003576,202093.19999998808,201596.256,201606,201612.921,202096.194,,22,described
screen,html.Screen,0_4_1_0_1_23,2021-11-12T13:51:23.427Z,,,,,,,,,,,,,,,,2,,,,,,,,,,,,,,549.1060000119323,,response,,,1,F,,,,,Space,keypress(Space),,,,instrumental,--- ---- ------ --- ------- ---------- ------- ----------<br>--- --------- --- ----------- ------- ----- ------- ---<br>--------- ---- -- --- ---- -- --------- as ---- -------<br>-- --------- ------ --- ----- ------ ---- --- --------- --<br>------ - ---- -- --- ----------- ------- ---- ----- -----<br>--- -------- - ------ ---- -- ----- ---- --- --- -----------<br>-- -------,202645.90000003576,202645.30000001192,202079.529,202094,202096.194,202662.921,,23,as
screen,html.Screen,0_4_1_0_1_24,2021-11-12T13:51:23.970Z,,,,,,,,,,,,,,,,2,,,,,,,,,,,,,,526.1790000238398,,response,,,1,F,,,,,Space,keypress(Space),,,,instrumental,"--- ---- ------ --- ------- ---------- ------- ----------<br>--- --------- --- ----------- ------- ----- ------- ---<br>--------- ---- -- --- ---- -- --------- -- ""two -------<br>-- --------- ------ --- ----- ------ ---- --- --------- --<br>------ - ---- -- --- ----------- ------- ---- ----- -----<br>--- -------- - ------ ---- -- ----- ---- --- --- -----------<br>-- -------",203189.69999998808,203189.10000002384,202646.255,202646.10000002384,202662.921,203196.177,,24,"""two"
screen,html.Screen,0_4_1_0_1_25,2021-11-12T13:51:24.514Z,,,,,,,,,,,,,,,,2,,,,,,,,,,,,,,537.022999988083,,response,,,1,F,,,,,Space,keypress(Space),,,,instrumental,--- ---- ------ --- ------- ---------- ------- ----------<br>--- --------- --- ----------- ------- ----- ------- ---<br>--------- ---- -- --- ---- -- --------- -- ---- patches<br>-- --------- ------ --- ----- ------ ---- --- --------- --<br>------ - ---- -- --- ----------- ------- ---- ----- -----<br>--- -------- - ------ ---- -- ----- ---- --- --- -----------<br>-- -------,203733.80000001192,203733.19999998808,203179.512,203189.90000003576,203196.177,203746.152,,25,patches
screen,html.Screen,0_4_1_0_1_26,2021-11-12T13:51:24.986Z,,,,,,,,,,,,,,,,2,,,,,,,,,,,,,,458.94800002384,,response,,,1,F,,,,,Space,keypress(Space),,,,instrumental,--- ---- ------ --- ------- ---------- ------- ----------<br>--- --------- --- ----------- ------- ----- ------- ---<br>--------- ---- -- --- ---- -- --------- -- ---- -------<br>of --------- ------ --- ----- ------ ---- --- --------- --<br>------ - ---- -- --- ----------- ------- ---- ----- -----<br>--- -------- - ------ ---- -- ----- ---- --- --- -----------<br>-- -------,204205.60000002384,204205.10000002384,203729.487,203733.90000003576,203746.152,204212.776,,26,of
screen,html.Screen,0_4_1_0_1_27,2021-11-12T13:51:25.490Z,,,,,,,,,,,,,,,,2,,,,,,,,,,,,,,496.3240000238293,,response,,,1,F,,,,,Space,keypress(Space),,,,instrumental,--- ---- ------ --- ------- ---------- ------- ----------<br>--- --------- --- ----------- ------- ----- ------- ---<br>--------- ---- -- --- ---- -- --------- -- ---- -------<br>-- intensely ------ --- ----- ------ ---- --- --------- --<br>------ - ---- -- --- ----------- ------- ---- ----- -----<br>--- -------- - ------ ---- -- ----- ---- --- --- -----------<br>-- -------,204709.60000002384,204709.10000002384,204196.111,204205.90000003576,204212.776,204712.742,,27,intensely
screen,html.Screen,0_4_1_0_1_28,2021-11-12T13:51:26.042Z,,,,,,,,,,,,,,,,2,,,,,,,,,,,,,,548.3580000238435,,response,,,1,F,,,,,Space,keypress(Space),,,,instrumental,--- ---- ------ --- ------- ---------- ------- ----------<br>--- --------- --- ----------- ------- ----- ------- ---<br>--------- ---- -- --- ---- -- --------- -- ---- -------<br>-- --------- bright --- ----- ------ ---- --- --------- --<br>------ - ---- -- --- ----------- ------- ---- ----- -----<br>--- -------- - ------ ---- -- ----- ---- --- --- -----------<br>-- -------,205261.60000002384,205261.10000002384,204696.077,204709.80000001192,204712.742,205262.702,,28,bright
screen,html.Screen,0_4_1_0_1_29,2021-11-12T13:51:26.530Z,,,,,,,,,,,,,,,,2,,,,,,,,,,,,,,486.2980000000098,,response,,,1,F,,,,,Space,keypress(Space),,,,instrumental,--- ---- ------ --- ------- ---------- ------- ----------<br>--- --------- --- ----------- ------- ----- ------- ---<br>--------- ---- -- --- ---- -- --------- -- ---- -------<br>-- --------- ------ and ----- ------ ---- --- --------- --<br>------ - ---- -- --- ----------- ------- ---- ----- -----<br>--- -------- - ------ ---- -- ----- ---- --- --- -----------<br>-- -------,205749.60000002384,205749,205246.037,205261.90000003576,205262.702,205762.735,,29,and
screen,html.Screen,0_4_1_0_1_30,2021-11-12T13:51:26.994Z,,,,,,,,,,,,,,,,2,,,,,,,,,,,,,,450.26500000001397,,response,,,1,F,,,,,Space,keypress(Space),,,,instrumental,--- ---- ------ --- ------- ---------- ------- ----------<br>--- --------- --- ----------- ------- ----- ------- ---<br>--------- ---- -- --- ---- -- --------- -- ---- -------<br>-- --------- ------ --- white ------ ---- --- --------- --<br>------ - ---- -- --- ----------- ------- ---- ----- -----<br>--- -------- - ------ ---- -- ----- ---- --- --- -----------<br>-- -------,206213.69999998808,206213,205746.069,205749.80000001192,205762.735,206229.302,,30,white
screen,html.Screen,0_4_1_0_1_31,2021-11-12T13:51:27.418Z,,,,,,,,,,,,,,,,2,,,,,,,,,,,,,,407.59800003576674,,response,,,1,F,,,,,Space,keypress(Space),,,,instrumental,"--- ---- ------ --- ------- ---------- ------- ----------<br>--- --------- --- ----------- ------- ----- ------- ---<br>--------- ---- -- --- ---- -- --------- -- ---- -------<br>-- --------- ------ --- ----- light"" ---- --- --------- --<br>------ - ---- -- --- ----------- ------- ---- ----- -----<br>--- -------- - ------ ---- -- ----- ---- --- --- -----------<br>-- -------",206637.60000002384,206636.90000003576,206212.637,206213.80000001192,206229.302,206645.964,,31,"light"""
screen,html.Screen,0_4_1_0_1_32,2021-11-12T13:51:27.906Z,,,,,,,,,,,,,,,,2,,,,,,,,,,,,,,479.0359999999928,,response,,,1,F,,,,,Space,keypress(Space),,,,instrumental,--- ---- ------ --- ------- ---------- ------- ----------<br>--- --------- --- ----------- ------- ----- ------- ---<br>--------- ---- -- --- ---- -- --------- -- ---- -------<br>-- --------- ------ --- ----- ------ over --- --------- --<br>------ - ---- -- --- ----------- ------- ---- ----- -----<br>--- -------- - ------ ---- -- ----- ---- --- --- -----------<br>-- -------,207125.5,207125,206629.299,206637.80000001192,206645.964,207129.174,,32,over
screen,html.Screen,0_4_1_0_1_33,2021-11-12T13:51:28.346Z,,,,,,,,,,,,,,,,2,,,,,,,,,,,,,,435.7260000357637,,response,,,1,F,,,,,Space,keypress(Space),,,,instrumental,--- ---- ------ --- ------- ---------- ------- ----------<br>--- --------- --- ----------- ------- ----- ------- ---<br>--------- ---- -- --- ---- -- --------- -- ---- -------<br>-- --------- ------ --- ----- ------ ---- the --------- --<br>------ - ---- -- --- ----------- ------- ---- ----- -----<br>--- -------- - ------ ---- -- ----- ---- --- --- -----------<br>-- -------,207565.60000002384,207564.90000003576,207112.51,207125.69999998808,207129.174,207579.277,,33,the
screen,html.Screen,0_4_1_0_1_34,2021-11-12T13:51:29.906Z,,,,,,,,,,,,,,,,2,,,,,,,,,,,,,,1545.623000035761,,response,,,1,F,,,,,Space,keypress(Space),,,,instrumental,--- ---- ------ --- ------- ---------- ------- ----------<br>--- --------- --- ----------- ------- ----- ------- ---<br>--------- ---- -- --- ---- -- --------- -- ---- -------<br>-- --------- ------ --- ----- ------ ---- --- sunspots. --<br>------ - ---- -- --- ----------- ------- ---- ----- -----<br>--- -------- - ------ ---- -- ----- ---- --- --- -----------<br>-- -------,209125.5,209124.90000003576,207562.611,207565.69999998808,207579.277,209129.095,,34,sunspots.
screen,html.Screen,0_4_1_0_1_35,2021-11-12T13:51:30.514Z,,,,,,,,,,,,,,,,2,,,,,,,,,,,,,,603.7050000119198,,response,,,1,F,,,,,Space,keypress(Space),,,,instrumental,--- ---- ------ --- ------- ---------- ------- ----------<br>--- --------- --- ----------- ------- ----- ------- ---<br>--------- ---- -- --- ---- -- --------- -- ---- -------<br>-- --------- ------ --- ----- ------ ---- --- --------- He<br>------ - ---- -- --- ----------- ------- ---- ----- -----<br>--- -------- - ------ ---- -- ----- ---- --- --- -----------<br>-- -------,209733.40000003576,209732.80000001192,209112.43,209125.60000002384,209129.095,209745.632,,35,He
screen,html.Screen,0_4_1_0_1_36,2021-11-12T13:51:31.106Z,,,,,,,,,,,,,,,,2,,,,,,,,,,,,,,579.3679999999877,,response,,,1,F,,,,,Space,keypress(Space),,,,instrumental,--- ---- ------ --- ------- ---------- ------- ----------<br>--- --------- --- ----------- ------- ----- ------- ---<br>--------- ---- -- --- ---- -- --------- -- ---- -------<br>-- --------- ------ --- ----- ------ ---- --- --------- --<br>jotted - ---- -- --- ----------- ------- ---- ----- -----<br>--- -------- - ------ ---- -- ----- ---- --- --- -----------<br>-- -------,210325.60000002384,210325,209728.968,209733.60000002384,209745.632,210329.124,,36,jotted
screen,html.Screen,0_4_1_0_1_37,2021-11-12T13:51:31.554Z,,,,,,,,,,,,,,,,2,,,,,,,,,,,,,,443.57599998806836,,response,,,1,F,,,,,Space,keypress(Space),,,,instrumental,--- ---- ------ --- ------- ---------- ------- ----------<br>--- --------- --- ----------- ------- ----- ------- ---<br>--------- ---- -- --- ---- -- --------- -- ---- -------<br>-- --------- ------ --- ----- ------ ---- --- --------- --<br>------ a ---- -- --- ----------- ------- ---- ----- -----<br>--- -------- - ------ ---- -- ----- ---- --- --- -----------<br>-- -------,210773.30000001192,210772.69999998808,210312.458,210325.90000003576,210329.124,210779.025,,37,a
screen,html.Screen,0_4_1_0_1_38,2021-11-12T13:51:31.978Z,,,,,,,,,,,,,,,,2,,,,,,,,,,,,,,417.6749999880849,,response,,,1,F,,,,,Space,keypress(Space),,,,instrumental,--- ---- ------ --- ------- ---------- ------- ----------<br>--- --------- --- ----------- ------- ----- ------- ---<br>--------- ---- -- --- ---- -- --------- -- ---- -------<br>-- --------- ------ --- ----- ------ ---- --- --------- --<br>------ - note -- --- ----------- ------- ---- ----- -----<br>--- -------- - ------ ---- -- ----- ---- --- --- -----------<br>-- -------,211197.30000001192,211196.69999998808,210762.36,210773.5,210779.025,211212.346,,38,note
screen,html.Screen,0_4_1_0_1_39,2021-11-12T13:51:32.394Z,,,,,,,,,,,,,,,,2,,,,,,,,,,,,,,400.3539999880886,,response,,,1,F,,,,,Space,keypress(Space),,,,instrumental,--- ---- ------ --- ------- ---------- ------- ----------<br>--- --------- --- ----------- ------- ----- ------- ---<br>--------- ---- -- --- ---- -- --------- -- ---- -------<br>-- --------- ------ --- ----- ------ ---- --- --------- --<br>------ - ---- in --- ----------- ------- ---- ----- -----<br>--- -------- - ------ ---- -- ----- ---- --- --- -----------<br>-- -------,211613.30000001192,211612.69999998808,211195.681,211197.5,211212.346,211628.931,,39,in
screen,html.Screen,0_4_1_0_1_40,2021-11-12T13:51:32.882Z,,,,,,,,,,,,,,,,2,,,,,,,,,,,,,,471.66900002383045,,response,,,1,F,,,,,Space,keypress(Space),,,,instrumental,--- ---- ------ --- ------- ---------- ------- ----------<br>--- --------- --- ----------- ------- ----- ------- ---<br>--------- ---- -- --- ---- -- --------- -- ---- -------<br>-- --------- ------ --- ----- ------ ---- --- --------- --<br>------ - ---- -- his ----------- ------- ---- ----- -----<br>--- -------- - ------ ---- -- ----- ---- --- --- -----------<br>-- -------,212101.10000002384,212100.60000002384,211612.267,211613.60000002384,211628.931,212112.21,,40,his
screen,html.Screen,0_4_1_0_1_41,2021-11-12T13:51:33.650Z,,,,,,,,,,,,,,,,2,,,,,,,,,,,,,,756.39000002385,,response,,,1,F,,,,,Space,keypress(Space),,,,instrumental,--- ---- ------ --- ------- ---------- ------- ----------<br>--- --------- --- ----------- ------- ----- ------- ---<br>--------- ---- -- --- ---- -- --------- -- ---- -------<br>-- --------- ------ --- ----- ------ ---- --- --------- --<br>------ - ---- -- --- painstaking ------- ---- ----- -----<br>--- -------- - ------ ---- -- ----- ---- --- --- -----------<br>-- -------,212869.19999998808,212868.60000002384,212095.546,212101.30000001192,212112.21,212878.95,,41,painstaking
screen,html.Screen,0_4_1_0_1_42,2021-11-12T13:51:34.210Z,,,,,,,,,,,,,,,,2,,,,,,,,,,,,,,549.6500000238302,,response,,,1,F,,,,,Space,keypress(Space),,,,instrumental,--- ---- ------ --- ------- ---------- ------- ----------<br>--- --------- --- ----------- ------- ----- ------- ---<br>--------- ---- -- --- ---- -- --------- -- ---- -------<br>-- --------- ------ --- ----- ------ ---- --- --------- --<br>------ - ---- -- --- ----------- record. ---- ----- -----<br>--- -------- - ------ ---- -- ----- ---- --- --- -----------<br>-- -------,213429.19999998808,213428.60000002384,212862.284,212869.5,212878.95,213445.501,,42,record.
screen,html.Screen,0_4_1_0_1_43,2021-11-12T13:51:35.018Z,,,,,,,,,,,,,,,,2,,,,,,,,,,,,,,791.0990000238526,,response,,,1,F,,,,,Space,keypress(Space),,,,instrumental,--- ---- ------ --- ------- ---------- ------- ----------<br>--- --------- --- ----------- ------- ----- ------- ---<br>--------- ---- -- --- ---- -- --------- -- ---- -------<br>-- --------- ------ --- ----- ------ ---- --- --------- --<br>------ - ---- -- --- ----------- ------- That ----- -----<br>--- -------- - ------ ---- -- ----- ---- --- --- -----------<br>-- -------,214237.19999998808,214236.60000002384,213428.836,213429.40000003576,213445.501,214245.481,,43,That
screen,html.Screen,0_4_1_0_1_44,2021-11-12T13:51:35.522Z,,,,,,,,,,,,,,,,2,,,,,,,,,,,,,,494.919000035763,,response,,,1,F,,,,,Space,keypress(Space),,,,instrumental,--- ---- ------ --- ------- ---------- ------- ----------<br>--- --------- --- ----------- ------- ----- ------- ---<br>--------- ---- -- --- ---- -- --------- -- ---- -------<br>-- --------- ------ --- ----- ------ ---- --- --------- --<br>------ - ---- -- --- ----------- ------- ---- night -----<br>--- -------- - ------ ---- -- ----- ---- --- --- -----------<br>-- -------,214741.10000002384,214740.40000003576,214228.816,214237.40000003576,214245.481,214745.467,,44,night
screen,html.Screen,0_4_1_0_1_45,2021-11-12T13:51:36.042Z,,,,,,,,,,,,,,,,2,,,,,,,,,,,,,,514.9330000357586,,response,,,1,F,,,,,Space,keypress(Space),,,,instrumental,--- ---- ------ --- ------- ---------- ------- ----------<br>--- --------- --- ----------- ------- ----- ------- ---<br>--------- ---- -- --- ---- -- --------- -- ---- -------<br>-- --------- ------ --- ----- ------ ---- --- --------- --<br>------ - ---- -- --- ----------- ------- ---- ----- there<br>--- -------- - ------ ---- -- ----- ---- --- --- -----------<br>-- -------,215261.19999998808,215260.40000003576,214728.802,214741.30000001192,214745.467,215262.162,,45,there
screen,html.Screen,0_4_1_0_1_46,2021-11-12T13:51:36.538Z,,,,,,,,,,,,,,,,2,,,,,,,,,,,,,,494.2380000357516,,response,,,1,F,,,,,Space,keypress(Space),,,,instrumental,--- ---- ------ --- ------- ---------- ------- ----------<br>--- --------- --- ----------- ------- ----- ------- ---<br>--------- ---- -- --- ---- -- --------- -- ---- -------<br>-- --------- ------ --- ----- ------ ---- --- --------- --<br>------ - ---- -- --- ----------- ------- ---- ----- -----<br>was -------- - ------ ---- -- ----- ---- --- --- -----------<br>-- -------,215757,215756.40000003576,215245.496,215261.30000001192,215262.162,215762.015,,46,was
screen,html.Screen,0_4_1_0_1_47,2021-11-12T13:51:37.394Z,,,,,,,,,,,,,,,,2,,,,,,,,,,,,,,850.3850000357488,,response,,,1,F,,,,,Space,keypress(Space),,,,instrumental,--- ---- ------ --- ------- ---------- ------- ----------<br>--- --------- --- ----------- ------- ----- ------- ---<br>--------- ---- -- --- ---- -- --------- -- ---- -------<br>-- --------- ------ --- ----- ------ ---- --- --------- --<br>------ - ---- -- --- ----------- ------- ---- ----- -----<br>--- scarcely - ------ ---- -- ----- ---- --- --- -----------<br>-- -------,216613.10000002384,216612.40000003576,215745.351,215757.30000001192,215762.015,216628.659,,47,scarcely
screen,html.Screen,0_4_1_0_1_48,2021-11-12T13:51:37.962Z,,,,,,,,,,,,,,,,2,,,,,,,,,,,,,,551.6410000119067,,response,,,1,F,,,,,Space,keypress(Space),,,,instrumental,--- ---- ------ --- ------- ---------- ------- ----------<br>--- --------- --- ----------- ------- ----- ------- ---<br>--------- ---- -- --- ---- -- --------- -- ---- -------<br>-- --------- ------ --- ----- ------ ---- --- --------- --<br>------ - ---- -- --- ----------- ------- ---- ----- -----<br>--- -------- a ------ ---- -- ----- ---- --- --- -----------<br>-- -------,217180.90000003576,217180.30000001192,216611.994,216613.40000003576,216628.659,217195.314,,48,a
