sender,sender_type,sender_id,timestamp,meta,,Blues,Classical,Country,Dance,Electronic,Folk,Gospel,Hip-Hop,Jazz,Latin,Musical/Film,New-age,Pop,Provo_ID,R&B,Rap,Reggae,Religious,Rock,Soul,Swing,Traditional,age,artist_name,correct,correctResponse,distraction,duration,education,ended_on,familiarity,gender,item,list,music_frequency,offensiveness,pleasantness,preference,response,response_action,snippet_file,song_name,song_rating,sound,text,time_commit,time_end,time_render,time_run,time_show,time_switch,url,word,word_ID
Instructions,html.Page,0_0,2021-11-05T13:04:16.766Z,"{""labjs_version"":""20.2.3"",""labjs_build"":{""flavor"":""production"",""commit"":""7ea907d66ca8aeef8054924ca5d82ffbe11e34e5""},""location"":""https://run.pavlovia.org/mvasilev/lab_music_f/"",""userAgent"":""Mozilla/5.0 (Windows NT 6.1; Win64; x64) AppleWebKit/537.36 (KHTML, like Gecko) Chrome/95.0.4638.69 Safari/537.36"",""platform"":""Win32"",""language"":""en-US"",""locale"":""en-US"",""timeZone"":""Europe/London"",""timezoneOffset"":0,""screen_width"":1920,""screen_height"":1080,""scroll_width"":1920,""scroll_height"":959,""window_innerWidth"":1920,""window_innerHeight"":1007,""devicePixelRatio"":1}",,,,,,,,,,,,,,,,,,,,,,,,,,,,,25276.95599999404,,form submission,,,,,,,,,,,,,,,,35542.79999999702,35541.59999999404,10247.974,10256,10264.644,35551.618,{},,
Headphones,html.Page,0_1,2021-11-05T13:04:20.256Z,,,,,,,,,,,,,,,,,,,,,,,,,,,,,,3480.6819999970176,,form submission,,,,,,,,,,,,,,,,39032.79999999702,39032.29999999702,35534.963,35543.5,35551.618,39035.355,,,
Holding screen,html.Screen,0_2_0_0,2021-11-05T13:04:30.254Z,,,,,,,,,,,,,,,,,,,,,,,,,,,,,,10005.697,,timeout,,,,,,,,,,,,,,,,49030.79999999702,49024.383,39018.699,39033.39999999106,39035.355,49041.052,,,
screen,html.Screen,0_2_0_1_0,2021-11-05T13:04:31.087Z,,,,,,,,,,,,,,,,53,,,,,,,,,,,,,,821.6480000029769,,response,,,99,,,,,,Space,keypress(Space),,,,,When -- ----- -- ------ - ------- --- ----------<br>------------- ------ ------ ---- ---- ------- ----- -- ----<br>-------- ------- -- ---------- --- - --- ----- ----- ----<br>---- --- --- ----- --- ---- ---- ------- ----- ---- -------<br>--- --- -- ----- -- --- ---- -- --- ---- -- ------ ------<br>--- ----- -- ----,49864,49862.70000000298,49024.383,49031.20000000298,49041.052,49874.902,,0,When
screen,html.Screen,0_2_0_1_1,2021-11-05T13:04:31.542Z,,,,,,,,,,,,,,,,53,,,,,,,,,,,,,,443.6979999940377,,response,,,99,,,,,,Space,keypress(Space),,,,,---- it ----- -- ------ - ------- --- ----------<br>------------- ------ ------ ---- ---- ------- ----- -- ----<br>-------- ------- -- ---------- --- - --- ----- ----- ----<br>---- --- --- ----- --- ---- ---- ------- ----- ---- -------<br>--- --- -- ----- -- --- ---- -- --- ---- -- ------ ------<br>--- ----- -- ----,50319.39999999106,50318.59999999404,49858.231,49864.29999999702,49874.902,50324.906,,1,it
screen,html.Screen,0_2_0_1_2,2021-11-05T13:04:31.958Z,,,,,,,,,,,,,,,,53,,,,,,,,,,,,,,409.5939999999973,,response,,,99,,,,,,Space,keypress(Space),,,,,---- -- comes -- ------ - ------- --- ----------<br>------------- ------ ------ ---- ---- ------- ----- -- ----<br>-------- ------- -- ---------- --- - --- ----- ----- ----<br>---- --- --- ----- --- ---- ---- ------- ----- ---- -------<br>--- --- -- ----- -- --- ---- -- --- ---- -- ------ ------<br>--- ----- -- ----,50735.39999999106,50734.5,50308.236,50319.70000000298,50324.906,50741.761,,2,comes
screen,html.Screen,0_2_0_1_3,2021-11-05T13:04:32.390Z,,,,,,,,,,,,,,,,53,,,,,,,,,,,,,,424.7390000000014,,response,,,99,,,,,,Space,keypress(Space),,,,,---- -- ----- to ------ - ------- --- ----------<br>------------- ------ ------ ---- ---- ------- ----- -- ----<br>-------- ------- -- ---------- --- - --- ----- ----- ----<br>---- --- --- ----- --- ---- ---- ------- ----- ---- -------<br>--- --- -- ----- -- --- ---- -- --- ---- -- ------ ------<br>--- ----- -- ----,51167.5,51166.5,50725.09,50735.70000000298,50741.761,51175.169,,3,to
screen,html.Screen,0_2_0_1_4,2021-11-05T13:04:32.734Z,,,,,,,,,,,,,,,,53,,,,,,,,,,,,,,335.3309999999983,,response,,,99,,,,,,Space,keypress(Space),,,,,---- -- ----- -- having - ------- --- ----------<br>------------- ------ ------ ---- ---- ------- ----- -- ----<br>-------- ------- -- ---------- --- - --- ----- ----- ----<br>---- --- --- ----- --- ---- ---- ------- ----- ---- -------<br>--- --- -- ----- -- --- ---- -- --- ---- -- ------ ------<br>--- ----- -- ----,51511.59999999404,51510.5,51158.499,51168,51175.169,51525.122,,4,having
screen,html.Screen,0_2_0_1_5,2021-11-05T13:04:33.222Z,,,,,,,,,,,,,,,,53,,,,,,,,,,,,,,473.2779999910563,,response,,,99,,,,,,Space,keypress(Space),,,,,---- -- ----- -- ------ a ------- --- ----------<br>------------- ------ ------ ---- ---- ------- ----- -- ----<br>-------- ------- -- ---------- --- - --- ----- ----- ----<br>---- --- --- ----- --- ---- ---- ------- ----- ---- -------<br>--- --- -- ----- -- --- ---- -- --- ---- -- ------ ------<br>--- ----- -- ----,51999.39999999106,51998.39999999106,51508.454,51512,51525.122,52008.811,,5,a
screen,html.Screen,0_2_0_1_6,2021-11-05T13:04:33.670Z,,,,,,,,,,,,,,,,53,,,,,,,,,,,,,,437.5889999910578,,response,,,99,,,,,,Space,keypress(Space),,,,,---- -- ----- -- ------ - lasting --- ----------<br>------------- ------ ------ ---- ---- ------- ----- -- ----<br>-------- ------- -- ---------- --- - --- ----- ----- ----<br>---- --- --- ----- --- ---- ---- ------- ----- ---- -------<br>--- --- -- ----- -- --- ---- -- --- ---- -- ------ ------<br>--- ----- -- ----,52447.29999999702,52446.39999999106,51992.139,51999.79999999702,52008.811,52458.738,,6,lasting
screen,html.Screen,0_2_0_1_7,2021-11-05T13:04:34.142Z,,,,,,,,,,,,,,,,53,,,,,,,,,,,,,,459.66199999106175,,response,,,99,,,,,,Space,keypress(Space),,,,,---- -- ----- -- ------ - ------- and ----------<br>------------- ------ ------ ---- ---- ------- ----- -- ----<br>-------- ------- -- ---------- --- - --- ----- ----- ----<br>---- --- --- ----- --- ---- ---- ------- ----- ---- -------<br>--- --- -- ----- -- --- ---- -- --- ---- -- ------ ------<br>--- ----- -- ----,52919.29999999702,52918.39999999106,52442.069,52447.70000000298,52458.738,52925.64,,7,and
screen,html.Screen,0_2_0_1_8,2021-11-05T13:04:34.622Z,,,,,,,,,,,,,,,,53,,,,,,,,,,,,,,472.65999999702035,,response,,,99,,,,,,Space,keypress(Space),,,,,---- -- ----- -- ------ - ------- --- fulfilling<br>------------- ------ ------ ---- ---- ------- ----- -- ----<br>-------- ------- -- ---------- --- - --- ----- ----- ----<br>---- --- --- ----- --- ---- ---- ------- ----- ---- -------<br>--- --- -- ----- -- --- ---- -- --- ---- -- ------ ------<br>--- ----- -- ----,53399.39999999106,53398.29999999702,52908.969,52919.59999999404,52925.64,53409.058,,8,fulfilling
screen,html.Screen,0_2_0_1_9,2021-11-05T13:04:35.102Z,,,,,,,,,,,,,,,,53,,,,,,,,,,,,,,469.2419999970225,,response,,,99,,,,,,Space,keypress(Space),,,,,"---- -- ----- -- ------ - ------- --- ----------<br>relationship, ------ ------ ---- ---- ------- ----- -- ----<br>-------- ------- -- ---------- --- - --- ----- ----- ----<br>---- --- --- ----- --- ---- ---- ------- ----- ---- -------<br>--- --- -- ----- -- --- ---- -- --- ---- -- ------ ------<br>--- ----- -- ----",53879.20000000298,53878.29999999702,53392.388,53399.79999999702,53409.058,53892.491,,9,"relationship,"
screen,html.Screen,0_2_0_1_10,2021-11-05T13:04:35.598Z,,,,,,,,,,,,,,,,53,,,,,,,,,,,,,,481.7090000029784,,response,,,99,,,,,,Space,keypress(Space),,,,,---- -- ----- -- ------ - ------- --- ----------<br>------------- common ------ ---- ---- ------- ----- -- ----<br>-------- ------- -- ---------- --- - --- ----- ----- ----<br>---- --- --- ----- --- ---- ---- ------- ----- ---- -------<br>--- --- -- ----- -- --- ---- -- --- ---- -- ------ ------<br>--- ----- -- ----,54375.09999999404,54374.20000000298,53875.821,53879.5,53892.491,54392.633,,10,common
screen,html.Screen,0_2_0_1_11,2021-11-05T13:04:36.094Z,,,,,,,,,,,,,,,,53,,,,,,,,,,,,,,477.86699999999837,,response,,,99,,,,,,Space,keypress(Space),,,,,---- -- ----- -- ------ - ------- --- ----------<br>------------- ------ wisdom ---- ---- ------- ----- -- ----<br>-------- ------- -- ---------- --- - --- ----- ----- ----<br>---- --- --- ----- --- ---- ---- ------- ----- ---- -------<br>--- --- -- ----- -- --- ---- -- --- ---- -- ------ ------<br>--- ----- -- ----,54871.39999999106,54870.5,54375.963,54375.39999999106,54392.633,54876.089,,11,wisdom
screen,html.Screen,0_2_0_1_12,2021-11-05T13:04:36.574Z,,,,,,,,,,,,,,,,53,,,,,,,,,,,,,,474.0109999940396,,response,,,99,,,,,,Space,keypress(Space),,,,,---- -- ----- -- ------ - ------- --- ----------<br>------------- ------ ------ says ---- ------- ----- -- ----<br>-------- ------- -- ---------- --- - --- ----- ----- ----<br>---- --- --- ----- --- ---- ---- ------- ----- ---- -------<br>--- --- -- ----- -- --- ---- -- --- ---- -- ------ ------<br>--- ----- -- ----,55350.89999999106,55350.09999999404,54859.419,54871.70000000298,54876.089,55359.541,,12,says
screen,html.Screen,0_2_0_1_13,2021-11-05T13:04:37.030Z,,,,,,,,,,,,,,,,53,,,,,,,,,,,,,,446.6590000029828,,response,,,99,,,,,,Space,keypress(Space),,,,,---- -- ----- -- ------ - ------- --- ----------<br>------------- ------ ------ ---- that ------- ----- -- ----<br>-------- ------- -- ---------- --- - --- ----- ----- ----<br>---- --- --- ----- --- ---- ---- ------- ----- ---- -------<br>--- --- -- ----- -- --- ---- -- --- ---- -- ------ ------<br>--- ----- -- ----,55807,55806.20000000298,55342.871,55351.20000000298,55359.541,55809.629,,13,that
screen,html.Screen,0_2_0_1_14,2021-11-05T13:04:37.502Z,,,,,,,,,,,,,,,,53,,,,,,,,,,,,,,468.4709999940387,,response,,,99,,,,,,Space,keypress(Space),,,,,---- -- ----- -- ------ - ------- --- ----------<br>------------- ------ ------ ---- ---- feeling ----- -- ----<br>-------- ------- -- ---------- --- - --- ----- ----- ----<br>---- --- --- ----- --- ---- ---- ------- ----- ---- -------<br>--- --- -- ----- -- --- ---- -- --- ---- -- ------ ------<br>--- ----- -- ----,56279,56278.09999999404,55792.959,55807.20000000298,55809.629,56293.146,,14,feeling
screen,html.Screen,0_2_0_1_15,2021-11-05T13:04:38.030Z,,,,,,,,,,,,,,,,53,,,,,,,,,,,,,,513.0540000029796,,response,,,99,,,,,,Space,keypress(Space),,,,,---- -- ----- -- ------ - ------- --- ----------<br>------------- ------ ------ ---- ---- ------- close -- ----<br>-------- ------- -- ---------- --- - --- ----- ----- ----<br>---- --- --- ----- --- ---- ---- ------- ----- ---- -------<br>--- --- -- ----- -- --- ---- -- --- ---- -- ------ ------<br>--- ----- -- ----,56806.89999999106,56806.20000000298,56276.475,56279.20000000298,56293.146,56809.901,,15,close
screen,html.Screen,0_2_0_1_16,2021-11-05T13:04:38.486Z,,,,,,,,,,,,,,,,53,,,,,,,,,,,,,,452.1989999940415,,response,,,99,,,,,,Space,keypress(Space),,,,,---- -- ----- -- ------ - ------- --- ----------<br>------------- ------ ------ ---- ---- ------- ----- to ----<br>-------- ------- -- ---------- --- - --- ----- ----- ----<br>---- --- --- ----- --- ---- ---- ------- ----- ---- -------<br>--- --- -- ----- -- --- ---- -- --- ---- -- ------ ------<br>--- ----- -- ----,57262.89999999106,57262.09999999404,56793.231,56807.29999999702,56809.901,57276.668,,16,to
screen,html.Screen,0_2_0_1_17,2021-11-05T13:04:38.974Z,,,,,,,,,,,,,,,,53,,,,,,,,,,,,,,473.4319999940417,,response,,,99,,,,,,Space,keypress(Space),,,,,---- -- ----- -- ------ - ------- --- ----------<br>------------- ------ ------ ---- ---- ------- ----- -- your<br>-------- ------- -- ---------- --- - --- ----- ----- ----<br>---- --- --- ----- --- ---- ---- ------- ----- ---- -------<br>--- --- -- ----- -- --- ---- -- --- ---- -- ------ ------<br>--- ----- -- ----,57750.89999999106,57750.09999999404,57259.998,57263.20000000298,57276.668,57760.176,,17,your
screen,html.Screen,0_2_0_1_18,2021-11-05T13:04:39.430Z,,,,,,,,,,,,,,,,53,,,,,,,,,,,,,,445.92399999404006,,response,,,99,,,,,,Space,keypress(Space),,,,,---- -- ----- -- ------ - ------- --- ----------<br>------------- ------ ------ ---- ---- ------- ----- -- ----<br>romantic ------- -- ---------- --- - --- ----- ----- ----<br>---- --- --- ----- --- ---- ---- ------- ----- ---- -------<br>--- --- -- ----- -- --- ---- -- --- ---- -- ------ ------<br>--- ----- -- ----,58206.89999999106,58206.09999999404,57743.505,57751.09999999404,57760.176,58210.256,,18,romantic
screen,html.Screen,0_2_0_1_19,2021-11-05T13:04:39.918Z,,,,,,,,,,,,,,,,53,,,,,,,,,,,,,,483.7439999999988,,response,,,99,,,,,,Space,keypress(Space),,,,,---- -- ----- -- ------ - ------- --- ----------<br>------------- ------ ------ ---- ---- ------- ----- -- ----<br>-------- partner -- ---------- --- - --- ----- ----- ----<br>---- --- --- ----- --- ---- ---- ------- ----- ---- -------<br>--- --- -- ----- -- --- ---- -- --- ---- -- ------ ------<br>--- ----- -- ----,58694.89999999106,58694,58193.586,58207.09999999404,58210.256,58710.221,,19,partner
screen,html.Screen,0_2_0_1_20,2021-11-05T13:04:40.366Z,,,,,,,,,,,,,,,,53,,,,,,,,,,,,,,431.77900000000227,,response,,,99,,,,,,Space,keypress(Space),,,,,---- -- ----- -- ------ - ------- --- ----------<br>------------- ------ ------ ---- ---- ------- ----- -- ----<br>-------- ------- is ---------- --- - --- ----- ----- ----<br>---- --- --- ----- --- ---- ---- ------- ----- ---- -------<br>--- --- -- ----- -- --- ---- -- --- ---- -- ------ ------<br>--- ----- -- ----,59142.79999999702,59142,58693.553,58695.09999999404,58710.221,59143.842,,20,is
screen,html.Screen,0_2_0_1_21,2021-11-05T13:04:40.861Z,,,,,,,,,,,,,,,,53,,,,,,,,,,,,,,494.1580000000031,,response,,,99,,,,,,Space,keypress(Space),,,,,---- -- ----- -- ------ - ------- --- ----------<br>------------- ------ ------ ---- ---- ------- ----- -- ----<br>-------- ------- -- paramount. --- - --- ----- ----- ----<br>---- --- --- ----- --- ---- ---- ------- ----- ---- -------<br>--- --- -- ----- -- --- ---- -- --- ---- -- ------ ------<br>--- ----- -- ----,59638.79999999702,59638,59127.171,59143.09999999404,59143.842,59643.957,,21,paramount.
screen,html.Screen,0_2_0_1_22,2021-11-05T13:04:41.441Z,,,,,,,,,,,,,,,,53,,,,,,,,,,,,,,569.9429999910571,,response,,,99,,,,,,Space,keypress(Space),,,,,---- -- ----- -- ------ - ------- --- ----------<br>------------- ------ ------ ---- ---- ------- ----- -- ----<br>-------- ------- -- ---------- But - --- ----- ----- ----<br>---- --- --- ----- --- ---- ---- ------- ----- ---- -------<br>--- --- -- ----- -- --- ---- -- --- ---- -- ------ ------<br>--- ----- -- ----,60214.70000000298,60213.89999999106,59627.286,59639.20000000298,59643.957,60227.465,,22,But
screen,html.Screen,0_2_0_1_23,2021-11-05T13:04:41.889Z,,,,,,,,,,,,,,,,53,,,,,,,,,,,,,,434.4349999910628,,response,,,99,,,,,,Space,keypress(Space),,,,,---- -- ----- -- ------ - ------- --- ----------<br>------------- ------ ------ ---- ---- ------- ----- -- ----<br>-------- ------- -- ---------- --- a --- ----- ----- ----<br>---- --- --- ----- --- ---- ---- ------- ----- ---- -------<br>--- --- -- ----- -- --- ---- -- --- ---- -- ------ ------<br>--- ----- -- ----,60662.70000000298,60661.89999999106,60210.794,60215.09999999404,60227.465,60677.514,,23,a
screen,html.Screen,0_2_0_1_24,2021-11-05T13:04:42.345Z,,,,,,,,,,,,,,,,53,,,,,,,,,,,,,,440.38599999105645,,response,,,99,,,,,,Space,keypress(Space),,,,,---- -- ----- -- ------ - ------- --- ----------<br>------------- ------ ------ ---- ---- ------- ----- -- ----<br>-------- ------- -- ---------- --- - new ----- ----- ----<br>---- --- --- ----- --- ---- ---- ------- ----- ---- -------<br>--- --- -- ----- -- --- ---- -- --- ---- -- ------ ------<br>--- ----- -- ----,61118.70000000298,61117.89999999106,60660.844,60662.89999999106,60677.514,61127.679,,24,new
screen,html.Screen,0_2_0_1_25,2021-11-05T13:04:42.761Z,,,,,,,,,,,,,,,,53,,,,,,,,,,,,,,406.1209999970233,,response,,,99,,,,,,Space,keypress(Space),,,,,---- -- ----- -- ------ - ------- --- ----------<br>------------- ------ ------ ---- ---- ------- ----- -- ----<br>-------- ------- -- ---------- --- - --- study ----- ----<br>---- --- --- ----- --- ---- ---- ------- ----- ---- -------<br>--- --- -- ----- -- --- ---- -- --- ---- -- ------ ------<br>--- ----- -- ----,61534.59999999404,61533.79999999702,61111.008,61118.89999999106,61127.679,61544.391,,25,study
screen,html.Screen,0_2_0_1_26,2021-11-05T13:04:43.185Z,,,,,,,,,,,,,,,,53,,,,,,,,,,,,,,413.4089999970165,,response,,,99,,,,,,Space,keypress(Space),,,,,---- -- ----- -- ------ - ------- --- ----------<br>------------- ------ ------ ---- ---- ------- ----- -- ----<br>-------- ------- -- ---------- --- - --- ----- finds ----<br>---- --- --- ----- --- ---- ---- ------- ----- ---- -------<br>--- --- -- ----- -- --- ---- -- --- ---- -- ------ ------<br>--- ----- -- ----,61958.59999999404,61957.79999999702,61527.721,61535,61544.391,61961.18,,26,finds
screen,html.Screen,0_2_0_1_27,2021-11-05T13:04:43.681Z,,,,,,,,,,,,,,,,53,,,,,,,,,,,,,,492.6199999970195,,response,,,99,,,,,,Space,keypress(Space),,,,,---- -- ----- -- ------ - ------- --- ----------<br>------------- ------ ------ ---- ---- ------- ----- -- ----<br>-------- ------- -- ---------- --- - --- ----- ----- that<br>---- --- --- ----- --- ---- ---- ------- ----- ---- -------<br>--- --- -- ----- -- --- ---- -- --- ---- -- ------ ------<br>--- ----- -- ----,62454.59999999404,62453.79999999702,61944.51,61958.89999999106,61961.18,62461.301,,27,that
screen,html.Screen,0_2_0_1_28,2021-11-05T13:04:44.137Z,,,,,,,,,,,,,,,,53,,,,,,,,,,,,,,448.4989999970203,,response,,,99,,,,,,Space,keypress(Space),,,,,---- -- ----- -- ------ - ------- --- ----------<br>------------- ------ ------ ---- ---- ------- ----- -- ----<br>-------- ------- -- ---------- --- - --- ----- ----- ----<br>it's --- --- ----- --- ---- ---- ------- ----- ---- -------<br>--- --- -- ----- -- --- ---- -- --- ---- -- ------ ------<br>--- ----- -- ----,62910.59999999404,62909.79999999702,62444.631,62454.89999999106,62461.301,62928.083,,28,it's
screen,html.Screen,0_2_0_1_29,2021-11-05T13:04:44.601Z,,,,,,,,,,,,,,,,53,,,,,,,,,,,,,,445.6170000029815,,response,,,99,,,,,,Space,keypress(Space),,,,,---- -- ----- -- ------ - ------- --- ----------<br>------------- ------ ------ ---- ---- ------- ----- -- ----<br>-------- ------- -- ---------- --- - --- ----- ----- ----<br>---- not --- ----- --- ---- ---- ------- ----- ---- -------<br>--- --- -- ----- -- --- ---- -- --- ---- -- ------ ------<br>--- ----- -- ----,63374.5,63373.70000000298,62911.413,62910.79999999702,62928.083,63378.184,,29,not
screen,html.Screen,0_2_0_1_30,2021-11-05T13:04:45.041Z,,,,,,,,,,,,,,,,53,,,,,,,,,,,,,,435.5160000029791,,response,,,99,,,,,,Space,keypress(Space),,,,,---- -- ----- -- ------ - ------- --- ----------<br>------------- ------ ------ ---- ---- ------- ----- -- ----<br>-------- ------- -- ---------- --- - --- ----- ----- ----<br>---- --- how ----- --- ---- ---- ------- ----- ---- -------<br>--- --- -- ----- -- --- ---- -- --- ---- -- ------ ------<br>--- ----- -- ----,63814.5,63813.70000000298,63361.514,63374.70000000298,63378.184,63828.309,,30,how
screen,html.Screen,0_2_0_1_31,2021-11-05T13:04:45.513Z,,,,,,,,,,,,,,,,53,,,,,,,,,,,,,,457.29099999403843,,response,,,99,,,,,,Space,keypress(Space),,,,,---- -- ----- -- ------ - ------- --- ----------<br>------------- ------ ------ ---- ---- ------- ----- -- ----<br>-------- ------- -- ---------- --- - --- ----- ----- ----<br>---- --- --- close --- ---- ---- ------- ----- ---- -------<br>--- --- -- ----- -- --- ---- -- --- ---- -- ------ ------<br>--- ----- -- ----,64286.5,64285.59999999404,63811.639,63814.79999999702,63828.309,64294.99,,31,close
screen,html.Screen,0_2_0_1_32,2021-11-05T13:04:45.995Z,,,,,,,,,,,,,,,,53,,,,,,,,,,,,,,470.71000000298227,,response,,,99,,,,,,Space,keypress(Space),,,,,---- -- ----- -- ------ - ------- --- ----------<br>------------- ------ ------ ---- ---- ------- ----- -- ----<br>-------- ------- -- ---------- --- - --- ----- ----- ----<br>---- --- --- ----- you ---- ---- ------- ----- ---- -------<br>--- --- -- ----- -- --- ---- -- --- ---- -- ------ ------<br>--- ----- -- ----,64768.70000000298,64765.70000000298,64278.321,64286.70000000298,64294.99,64778.645,,32,you
screen,html.Screen,0_2_0_1_33,2021-11-05T13:04:46.497Z,,,,,,,,,,,,,,,,53,,,,,,,,,,,,,,491.3550000000032,,response,,,99,,,,,,Space,keypress(Space),,,,,---- -- ----- -- ------ - ------- --- ----------<br>------------- ------ ------ ---- ---- ------- ----- -- ----<br>-------- ------- -- ---------- --- - --- ----- ----- ----<br>---- --- --- ----- --- feel ---- ------- ----- ---- -------<br>--- --- -- ----- -- --- ---- -- --- ---- -- ------ ------<br>--- ----- -- ----,65270.89999999106,65270,64761.973,64768.89999999106,64778.645,65278.7,,33,feel
screen,html.Screen,0_2_0_1_34,2021-11-05T13:04:46.961Z,,,,,,,,,,,,,,,,53,,,,,,,,,,,,,,454.89999999404245,,response,,,99,,,,,,Space,keypress(Space),,,,,---- -- ----- -- ------ - ------- --- ----------<br>------------- ------ ------ ---- ---- ------- ----- -- ----<br>-------- ------- -- ---------- --- - --- ----- ----- ----<br>---- --- --- ----- --- ---- that ------- ----- ---- -------<br>--- --- -- ----- -- --- ---- -- --- ---- -- ------ ------<br>--- ----- -- ----,65734.39999999106,65733.59999999404,65262.029,65271.89999999106,65278.7,65745.446,,34,that
screen,html.Screen,0_2_0_1_35,2021-11-05T13:04:47.465Z,,,,,,,,,,,,,,,,53,,,,,,,,,,,,,,492.15399999404326,,response,,,99,,,,,,Space,keypress(Space),,,,,---- -- ----- -- ------ - ------- --- ----------<br>------------- ------ ------ ---- ---- ------- ----- -- ----<br>-------- ------- -- ---------- --- - --- ----- ----- ----<br>---- --- --- ----- --- ---- ---- matters ----- ---- -------<br>--- --- -- ----- -- --- ---- -- --- ---- -- ------ ------<br>--- ----- -- ----,66238.29999999702,66237.59999999404,65728.776,65734.59999999404,65745.446,66245.576,,35,matters
screen,html.Screen,0_2_0_1_36,2021-11-05T13:04:48.001Z,,,,,,,,,,,,,,,,53,,,,,,,,,,,,,,527.7239999970188,,response,,,99,,,,,,Space,keypress(Space),,,,,"---- -- ----- -- ------ - ------- --- ----------<br>------------- ------ ------ ---- ---- ------- ----- -- ----<br>-------- ------- -- ---------- --- - --- ----- ----- ----<br>---- --- --- ----- --- ---- ---- ------- most, ---- -------<br>--- --- -- ----- -- --- ---- -- --- ---- -- ------ ------<br>--- ----- -- ----",66774.39999999106,66773.29999999702,66228.906,66238.59999999404,66245.576,66779.03,,36,"most,"
screen,html.Screen,0_2_0_1_37,2021-11-05T13:04:48.473Z,,,,,,,,,,,,,,,,53,,,,,,,,,,,,,,466.36999999106047,,response,,,99,,,,,,Space,keypress(Space),,,,,---- -- ----- -- ------ - ------- --- ----------<br>------------- ------ ------ ---- ---- ------- ----- -- ----<br>-------- ------- -- ---------- --- - --- ----- ----- ----<br>---- --- --- ----- --- ---- ---- ------- ----- it's -------<br>--- --- -- ----- -- --- ---- -- --- ---- -- ------ ------<br>--- ----- -- ----,67246.20000000298,67245.39999999106,66762.36,66774.70000000298,66779.03,67262.542,,37,it's
screen,html.Screen,0_2_0_1_38,2021-11-05T13:04:48.937Z,,,,,,,,,,,,,,,,53,,,,,,,,,,,,,,446.857999991058,,response,,,99,,,,,,Space,keypress(Space),,,,,---- -- ----- -- ------ - ------- --- ----------<br>------------- ------ ------ ---- ---- ------- ----- -- ----<br>-------- ------- -- ---------- --- - --- ----- ----- ----<br>---- --- --- ----- --- ---- ---- ------- ----- ---- whether<br>--- --- -- ----- -- --- ---- -- --- ---- -- ------ ------<br>--- ----- -- ----,67710.20000000298,67709.39999999106,67245.871,67246.5,67262.542,67712.616,,38,whether
screen,html.Screen,0_2_0_1_39,2021-11-05T13:04:49.401Z,,,,,,,,,,,,,,,,53,,,,,,,,,,,,,,460.7839999910648,,response,,,99,,,,,,Space,keypress(Space),,,,,---- -- ----- -- ------ - ------- --- ----------<br>------------- ------ ------ ---- ---- ------- ----- -- ----<br>-------- ------- -- ---------- --- - --- ----- ----- ----<br>---- --- --- ----- --- ---- ---- ------- ----- ---- -------<br>you --- -- ----- -- --- ---- -- --- ---- -- ------ ------<br>--- ----- -- ----,68174.20000000298,68173.39999999106,67695.946,67710.5,67712.616,68179.397,,39,you
screen,html.Screen,0_2_0_1_40,2021-11-05T13:04:49.969Z,,,,,,,,,,,,,,,,53,,,,,,,,,,,,,,561.9029999970226,,response,,,99,,,,,,Space,keypress(Space),,,,,---- -- ----- -- ------ - ------- --- ----------<br>------------- ------ ------ ---- ---- ------- ----- -- ----<br>-------- ------- -- ---------- --- - --- ----- ----- ----<br>---- --- --- ----- --- ---- ---- ------- ----- ---- -------<br>--- are -- ----- -- --- ---- -- --- ---- -- ------ ------<br>--- ----- -- ----,68742.20000000298,68741.29999999702,68162.727,68174.39999999106,68179.397,68746.186,,40,are
screen,html.Screen,0_2_0_1_41,2021-11-05T13:04:50.433Z,,,,,,,,,,,,,,,,53,,,,,,,,,,,,,,459.2139999910578,,response,,,99,,,,,,Space,keypress(Space),,,,,---- -- ----- -- ------ - ------- --- ----------<br>------------- ------ ------ ---- ---- ------- ----- -- ----<br>-------- ------- -- ---------- --- - --- ----- ----- ----<br>---- --- --- ----- --- ---- ---- ------- ----- ---- -------<br>--- --- as ----- -- --- ---- -- --- ---- -- ------ ------<br>--- ----- -- ----,69206.09999999404,69205.39999999106,68729.516,68742.39999999106,68746.186,69213.028,,41,as
screen,html.Screen,0_2_0_1_42,2021-11-05T13:04:50.889Z,,,,,,,,,,,,,,,,53,,,,,,,,,,,,,,448.27199999701406,,response,,,99,,,,,,Space,keypress(Space),,,,,---- -- ----- -- ------ - ------- --- ----------<br>------------- ------ ------ ---- ---- ------- ----- -- ----<br>-------- ------- -- ---------- --- - --- ----- ----- ----<br>---- --- --- ----- --- ---- ---- ------- ----- ---- -------<br>--- --- -- close -- --- ---- -- --- ---- -- ------ ------<br>--- ----- -- ----,69662,69661.29999999702,69196.357,69206.29999999702,69213.028,69662.989,,42,close
screen,html.Screen,0_2_0_1_43,2021-11-05T13:04:51.385Z,,,,,,,,,,,,,,,,53,,,,,,,,,,,,,,494.21100000297884,,response,,,99,,,,,,Space,keypress(Space),,,,,---- -- ----- -- ------ - ------- --- ----------<br>------------- ------ ------ ---- ---- ------- ----- -- ----<br>-------- ------- -- ---------- --- - --- ----- ----- ----<br>---- --- --- ----- --- ---- ---- ------- ----- ---- -------<br>--- --- -- ----- as --- ---- -- --- ---- -- ------ ------<br>--- ----- -- ----,70158.09999999404,70157.20000000298,69646.32,69662.29999999702,69662.989,70163.329,,43,as
screen,html.Screen,0_2_0_1_44,2021-11-05T13:04:51.825Z,,,,,,,,,,,,,,,,53,,,,,,,,,,,,,,433.97099999702186,,response,,,99,,,,,,Space,keypress(Space),,,,,---- -- ----- -- ------ - ------- --- ----------<br>------------- ------ ------ ---- ---- ------- ----- -- ----<br>-------- ------- -- ---------- --- - --- ----- ----- ----<br>---- --- --- ----- --- ---- ---- ------- ----- ---- -------<br>--- --- -- ----- -- you ---- -- --- ---- -- ------ ------<br>--- ----- -- ----,70598.09999999404,70597.29999999702,70146.657,70158.29999999702,70163.329,70613.38,,44,you
screen,html.Screen,0_2_0_1_45,2021-11-05T13:04:52.289Z,,,,,,,,,,,,,,,,53,,,,,,,,,,,,,,447.8200000029756,,response,,,99,,,,,,Space,keypress(Space),,,,,---- -- ----- -- ------ - ------- --- ----------<br>------------- ------ ------ ---- ---- ------- ----- -- ----<br>-------- ------- -- ---------- --- - --- ----- ----- ----<br>---- --- --- ----- --- ---- ---- ------- ----- ---- -------<br>--- --- -- ----- -- --- want -- --- ---- -- ------ ------<br>--- ----- -- ----,71062.09999999404,71061.20000000298,70596.709,70598.39999999106,70613.38,71063.381,,45,want
screen,html.Screen,0_2_0_1_46,2021-11-05T13:04:52.736Z,,,,,,,,,,,,,,,,53,,,,,,,,,,,,,,445.8190000029863,,response,,,99,,,,,,Space,keypress(Space),,,,,---- -- ----- -- ------ - ------- --- ----------<br>------------- ------ ------ ---- ---- ------- ----- -- ----<br>-------- ------- -- ---------- --- - --- ----- ----- ----<br>---- --- --- ----- --- ---- ---- ------- ----- ---- -------<br>--- --- -- ----- -- --- ---- to --- ---- -- ------ ------<br>--- ----- -- ----,71509.89999999106,71509.20000000298,71046.712,71062.29999999702,71063.381,71513.618,,46,to
screen,html.Screen,0_2_0_1_47,2021-11-05T13:04:53.192Z,,,,,,,,,,,,,,,,53,,,,,,,,,,,,,,451.582000002978,,response,,,99,,,,,,Space,keypress(Space),,,,,"---- -- ----- -- ------ - ------- --- ----------<br>------------- ------ ------ ---- ---- ------- ----- -- ----<br>-------- ------- -- ---------- --- - --- ----- ----- ----<br>---- --- --- ----- --- ---- ---- ------- ----- ---- -------<br>--- --- -- ----- -- --- ---- -- be, ---- -- ------ ------<br>--- ----- -- ----",71965.89999999106,71965.20000000298,71496.947,71510.20000000298,71513.618,71980.321,,47,"be,"
screen,html.Screen,0_2_0_1_48,2021-11-05T13:04:53.872Z,,,,,,,,,,,,,,,,53,,,,,,,,,,,,,,664.7789999940433,,response,,,99,,,,,,Space,keypress(Space),,,,,---- -- ----- -- ------ - ------- --- ----------<br>------------- ------ ------ ---- ---- ------- ----- -- ----<br>-------- ------- -- ---------- --- - --- ----- ----- ----<br>---- --- --- ----- --- ---- ---- ------- ----- ---- -------<br>--- --- -- ----- -- --- ---- -- --- even -- ------ ------<br>--- ----- -- ----,72645.89999999106,72645.09999999404,71963.651,71966.20000000298,71980.321,72647.218,,48,even
screen,html.Screen,0_2_0_1_49,2021-11-05T13:04:54.336Z,,,,,,,,,,,,,,,,53,,,,,,,,,,,,,,461.7820000000065,,response,,,99,,,,,,Space,keypress(Space),,,,,---- -- ----- -- ------ - ------- --- ----------<br>------------- ------ ------ ---- ---- ------- ----- -- ----<br>-------- ------- -- ---------- --- - --- ----- ----- ----<br>---- --- --- ----- --- ---- ---- ------- ----- ---- -------<br>--- --- -- ----- -- --- ---- -- --- ---- if ------ ------<br>--- ----- -- ----,73109.79999999702,73109,72630.547,72646.09999999404,72647.218,73113.944,,49,if
screen,html.Screen,0_2_0_1_50,2021-11-05T13:04:54.840Z,,,,,,,,,,,,,,,,53,,,,,,,,,,,,,,499.05599999999686,,response,,,99,,,,,,Space,keypress(Space),,,,,---- -- ----- -- ------ - ------- --- ----------<br>------------- ------ ------ ---- ---- ------- ----- -- ----<br>-------- ------- -- ---------- --- - --- ----- ----- ----<br>---- --- --- ----- --- ---- ---- ------- ----- ---- -------<br>--- --- -- ----- -- --- ---- -- --- ---- -- that's ------<br>--- ----- -- ----,73613.79999999702,73613,73097.274,73110,73113.944,73630.709,,50,that's
screen,html.Screen,0_2_0_1_51,2021-11-05T13:04:55.432Z,,,,,,,,,,,,,,,,53,,,,,,,,,,,,,,574.2909999999974,,response,,,99,,,,,,Space,keypress(Space),,,,,---- -- ----- -- ------ - ------- --- ----------<br>------------- ------ ------ ---- ---- ------- ----- -- ----<br>-------- ------- -- ---------- --- - --- ----- ----- ----<br>---- --- --- ----- --- ---- ---- ------- ----- ---- -------<br>--- --- -- ----- -- --- ---- -- --- ---- -- ------ really<br>--- ----- -- ----,74205.79999999702,74205,73614.039,73614.09999999404,73630.709,74214.287,,51,really
screen,html.Screen,0_2_0_1_52,2021-11-05T13:04:55.928Z,,,,,,,,,,,,,,,,53,,,,,,,,,,,,,,486.6129999910627,,response,,,99,,,,,,Space,keypress(Space),,,,,---- -- ----- -- ------ - ------- --- ----------<br>------------- ------ ------ ---- ---- ------- ----- -- ----<br>-------- ------- -- ---------- --- - --- ----- ----- ----<br>---- --- --- ----- --- ---- ---- ------- ----- ---- -------<br>--- --- -- ----- -- --- ---- -- --- ---- -- ------ ------<br>not ----- -- ----,74701.79999999702,74700.89999999106,74197.616,74206.09999999404,74214.287,74714.331,,52,not
screen,html.Screen,0_2_0_1_53,2021-11-05T13:04:56.432Z,,,,,,,,,,,,,,,,53,,,,,,,,,,,,,,490.5689999910537,,response,,,99,,,,,,Space,keypress(Space),,,,,---- -- ----- -- ------ - ------- --- ----------<br>------------- ------ ------ ---- ---- ------- ----- -- ----<br>-------- ------- -- ---------- --- - --- ----- ----- ----<br>---- --- --- ----- --- ---- ---- ------- ----- ---- -------<br>--- --- -- ----- -- --- ---- -- --- ---- -- ------ ------<br>--- close -- ----,75205.70000000298,75204.89999999106,74697.661,74702,74714.331,75214.443,,53,close
screen,html.Screen,0_2_0_1_54,2021-11-05T13:04:56.921Z,,,,,,,,,,,,,,,,53,,,,,,,,,,,,,,478.85699999702047,,response,,,99,,,,,,Space,keypress(Space),,,,,---- -- ----- -- ------ - ------- --- ----------<br>------------- ------ ------ ---- ---- ------- ----- -- ----<br>-------- ------- -- ---------- --- - --- ----- ----- ----<br>---- --- --- ----- --- ---- ---- ------- ----- ---- -------<br>--- --- -- ----- -- --- ---- -- --- ---- -- ------ ------<br>--- ----- at ----,75694.09999999404,75693.29999999702,75197.773,75206,75214.443,75697.977,,54,at
screen,html.Screen,0_2_0_1_55,2021-11-05T13:04:57.472Z,,,,,,,,,,,,,,,,53,,,,,,,,,,,,,,546.9229999910604,,response,,,99,,,,,,Space,keypress(Space),,,,,---- -- ----- -- ------ - ------- --- ----------<br>------------- ------ ------ ---- ---- ------- ----- -- ----<br>-------- ------- -- ---------- --- - --- ----- ----- ----<br>---- --- --- ----- --- ---- ---- ------- ----- ---- -------<br>--- --- -- ----- -- --- ---- -- --- ---- -- ------ ------<br>--- ----- -- all.,76245.79999999702,76244.89999999106,75681.306,75694.29999999702,75697.977,76264.785,,55,all.
Item 99,flow.Loop,0_2_0_1,2021-11-05T13:04:57.477Z,,,,,,,,,,,,,,,,,,,,,,,,,,,,,,27203.847999991056,,completion,,,,F,,,,,,,,,,silence,,76250,76244.89999999106,49024.383,49031.09999999404,49041.052,76264.785,,,
Question 1,html.Screen,0_2_0_2,2021-11-05T13:05:03.768Z,,,,,,,,,,,,,,,,,,,,,,,,,,,true,FALSE,,6275.415000002977,,response,,,99,F,,,,,FALSE,click #choice-2,,,,silence,,82541.59999999404,82540.20000000298,76248.114,76250.29999999702,76264.785,82549.319,,,
Question 2,html.Screen,0_2_0_3,2021-11-05T13:05:08.240Z,,,,,,,,,,,,,,,,,,,,,,,,,,,true,TRUE,,4462.680999999997,,response,,,99,F,,,,,TRUE,click #choice-1,,,,silence,,87013.20000000298,87012,82532.653,82542,82549.319,87017.451,,,
Item 99,flow.Sequence,0_2_0,2021-11-05T13:05:08.240Z,,,,,,,,,,,,,,,,,,,,,,,,,,,,,,47976.645,,completion,,,,,,,,,,,,,,,,87013.59999999404,87012,39018.699,39033.29999999702,39035.355,87017.451,,,
Holding screen,html.Screen,0_2_1_0,2021-11-05T13:05:18.231Z,,,,,,,,,,,,,,,,,,,,,,,,,,,,,,10002.316999999995,,timeout,,,,,,,,,,,,,,,,97004.70000000298,97003.098,87000.78,87013.89999999106,87017.451,97019.768,,,
screen,html.Screen,0_2_1_1_0,2021-11-05T13:05:19.129Z,,,,,,,,,,,,,,,,54,,,,,,,,,,,,,,880.1319999910629,,response,,,100,,,,,,Space,keypress(Space),,,,,At --- ---- --- ------ ----- ------- ---- -- --- ------- --<br>------- ---------- ------ -- ----- -- ----- -- ---- ------<br>--- ----- --- --- ------ -------- ----- --- ------ ----- --<br>----- ----- ---------- --- --- ------ ------ ---- -- ------<br>------- --- ------ ----- --- ---- ------- -- ---- --- --<br>------- ------,97902.39999999106,97899.89999999106,97003.098,97005.09999999404,97019.768,97903.459,,0,At
screen,html.Screen,0_2_1_1_1,2021-11-05T13:05:19.511Z,,,,,,,,,,,,,,,,54,,,,,,,,,,,,,,380.04099999999744,,response,,,100,,,,,,Space,keypress(Space),,,,,-- the ---- --- ------ ----- ------- ---- -- --- ------- --<br>------- ---------- ------ -- ----- -- ----- -- ---- ------<br>--- ----- --- --- ------ -------- ----- --- ------ ----- --<br>----- ----- ---------- --- --- ------ ------ ---- -- ------<br>------- --- ------ ----- --- ---- ------- -- ---- --- --<br>------- ------,98284.29999999702,98283.5,97886.788,97902.59999999404,97903.459,98286.909,,1,the
screen,html.Screen,0_2_1_1_2,2021-11-05T13:05:19.903Z,,,,,,,,,,,,,,,,54,,,,,,,,,,,,,,388.49099999105965,,response,,,100,,,,,,Space,keypress(Space),,,,,-- --- time --- ------ ----- ------- ---- -- --- ------- --<br>------- ---------- ------ -- ----- -- ----- -- ---- ------<br>--- ----- --- --- ------ -------- ----- --- ------ ----- --<br>----- ----- ---------- --- --- ------ ------ ---- -- ------<br>------- --- ------ ----- --- ---- ------- -- ---- --- --<br>------- ------,98676.20000000298,98675.39999999106,98270.238,98284.5,98286.909,98687.036,,2,time
screen,html.Screen,0_2_1_1_3,2021-11-05T13:05:20.327Z,,,,,,,,,,,,,,,,54,,,,,,,,,,,,,,412.3639999910665,,response,,,100,,,,,,Space,keypress(Space),,,,,-- --- ---- the ------ ----- ------- ---- -- --- ------- --<br>------- ---------- ------ -- ----- -- ----- -- ---- ------<br>--- ----- --- --- ------ -------- ----- --- ------ ----- --<br>----- ----- ---------- --- --- ------ ------ ---- -- ------<br>------- --- ------ ----- --- ---- ------- -- ---- --- --<br>------- ------,99100.20000000298,99099.39999999106,98670.365,98676.5,98687.036,99103.743,,3,the
screen,html.Screen,0_2_1_1_4,2021-11-05T13:05:20.727Z,,,,,,,,,,,,,,,,54,,,,,,,,,,,,,,396.05699999701756,,response,,,100,,,,,,Space,keypress(Space),,,,,-- --- ---- --- French ----- ------- ---- -- --- ------- --<br>------- ---------- ------ -- ----- -- ----- -- ---- ------<br>--- ----- --- --- ------ -------- ----- --- ------ ----- --<br>----- ----- ---------- --- --- ------ ------ ---- -- ------<br>------- --- ------ ----- --- ---- ------- -- ---- --- --<br>------- ------,99500.70000000298,99499.79999999702,99087.073,99100.39999999106,99103.743,99503.861,,4,French
screen,html.Screen,0_2_1_1_5,2021-11-05T13:05:21.110Z,,,,,,,,,,,,,,,,54,,,,,,,,,,,,,,379.1389999999956,,response,,,100,,,,,,Space,keypress(Space),,,,,-- --- ---- --- ------ crown ------- ---- -- --- ------- --<br>------- ---------- ------ -- ----- -- ----- -- ---- ------<br>--- ----- --- --- ------ -------- ----- --- ------ ----- --<br>----- ----- ---------- --- --- ------ ------ ---- -- ------<br>------- --- ------ ----- --- ---- ------- -- ---- --- --<br>------- ------,99883.39999999106,99883,99487.191,99500.89999999106,99503.861,99887.279,,5,crown
screen,html.Screen,0_2_1_1_6,2021-11-05T13:05:21.519Z,,,,,,,,,,,,,,,,54,,,,,,,,,,,,,,404.0209999970248,,response,,,100,,,,,,Space,keypress(Space),,,,,-- --- ---- --- ------ ----- secured ---- -- --- ------- --<br>------- ---------- ------ -- ----- -- ----- -- ---- ------<br>--- ----- --- --- ------ -------- ----- --- ------ ----- --<br>----- ----- ---------- --- --- ------ ------ ---- -- ------<br>------- --- ------ ----- --- ---- ------- -- ---- --- --<br>------- ------,100292.09999999404,100291.29999999702,99870.609,99883.39999999106,99887.279,100303.899,,6,secured
screen,html.Screen,0_2_1_1_7,2021-11-05T13:05:21.927Z,,,,,,,,,,,,,,,,54,,,,,,,,,,,,,,395.4009999970149,,response,,,100,,,,,,Space,keypress(Space),,,,,-- --- ---- --- ------ ----- ------- much -- --- ------- --<br>------- ---------- ------ -- ----- -- ----- -- ---- ------<br>--- ----- --- --- ------ -------- ----- --- ------ ----- --<br>----- ----- ---------- --- --- ------ ------ ---- -- ------<br>------- --- ------ ----- --- ---- ------- -- ---- --- --<br>------- ------,100700.09999999404,100699.29999999702,100287.231,100292.39999999106,100303.899,100704.079,,7,much
screen,html.Screen,0_2_1_1_8,2021-11-05T13:05:22.335Z,,,,,,,,,,,,,,,,54,,,,,,,,,,,,,,403.22099999702186,,response,,,100,,,,,,Space,keypress(Space),,,,,-- --- ---- --- ------ ----- ------- ---- of --- ------- --<br>------- ---------- ------ -- ----- -- ----- -- ---- ------<br>--- ----- --- --- ------ -------- ----- --- ------ ----- --<br>----- ----- ---------- --- --- ------ ------ ---- -- ------<br>------- --- ------ ----- --- ---- ------- -- ---- --- --<br>------- ------,101108.20000000298,101107.29999999702,100687.409,100700.29999999702,100704.079,101121.065,,8,of
screen,html.Screen,0_2_1_1_9,2021-11-05T13:05:22.703Z,,,,,,,,,,,,,,,,54,,,,,,,,,,,,,,354.23499999701744,,response,,,100,,,,,,Space,keypress(Space),,,,,-- --- ---- --- ------ ----- ------- ---- -- its ------- --<br>------- ---------- ------ -- ----- -- ----- -- ---- ------<br>--- ----- --- --- ------ -------- ----- --- ------ ----- --<br>----- ----- ---------- --- --- ------ ------ ---- -- ------<br>------- --- ------ ----- --- ---- ------- -- ---- --- --<br>------- ------,101476.09999999404,101475.29999999702,101104.392,101108.29999999702,101121.065,101487.688,,9,its
screen,html.Screen,0_2_1_1_10,2021-11-05T13:05:23.087Z,,,,,,,,,,,,,,,,54,,,,,,,,,,,,,,371.6119999970251,,response,,,100,,,,,,Space,keypress(Space),,,,,-- --- ---- --- ------ ----- ------- ---- -- --- revenue --<br>------- ---------- ------ -- ----- -- ----- -- ---- ------<br>--- ----- --- --- ------ -------- ----- --- ------ ----- --<br>----- ----- ---------- --- --- ------ ------ ---- -- ------<br>------- --- ------ ----- --- ---- ------- -- ---- --- --<br>------- ------,101860,101859.29999999702,101471.018,101476.29999999702,101487.688,101871.108,,10,revenue
screen,html.Screen,0_2_1_1_11,2021-11-05T13:05:23.487Z,,,,,,,,,,,,,,,,54,,,,,,,,,,,,,,388.09200000298733,,response,,,100,,,,,,Space,keypress(Space),,,,,-- --- ---- --- ------ ----- ------- ---- -- --- ------- by<br>------- ---------- ------ -- ----- -- ----- -- ---- ------<br>--- ----- --- --- ------ -------- ----- --- ------ ----- --<br>----- ----- ---------- --- --- ------ ------ ---- -- ------<br>------- --- ------ ----- --- ---- ------- -- ---- --- --<br>------- ------,102260,102259.20000000298,101854.438,101860.29999999702,101871.108,102271.212,,11,by
screen,html.Screen,0_2_1_1_12,2021-11-05T13:05:23.910Z,,,,,,,,,,,,,,,,54,,,,,,,,,,,,,,411.9880000029807,,response,,,100,,,,,,Space,keypress(Space),,,,,-- --- ---- --- ------ ----- ------- ---- -- --- ------- --<br>issuing ---------- ------ -- ----- -- ----- -- ---- ------<br>--- ----- --- --- ------ -------- ----- --- ------ ----- --<br>----- ----- ---------- --- --- ------ ------ ---- -- ------<br>------- --- ------ ----- --- ---- ------- -- ---- --- --<br>------- ------,102684,102683.20000000298,102254.542,102260.29999999702,102271.212,102688.022,,12,issuing
screen,html.Screen,0_2_1_1_13,2021-11-05T13:05:24.334Z,,,,,,,,,,,,,,,,54,,,,,,,,,,,,,,419.07799999404233,,response,,,100,,,,,,Space,keypress(Space),,,,,-- --- ---- --- ------ ----- ------- ---- -- --- ------- --<br>------- government ------ -- ----- -- ----- -- ---- ------<br>--- ----- --- --- ------ -------- ----- --- ------ ----- --<br>----- ----- ---------- --- --- ------ ------ ---- -- ------<br>------- --- ------ ----- --- ---- ------- -- ---- --- --<br>------- ------,103107.89999999106,103107.09999999404,102671.351,102684.29999999702,102688.022,103121.296,,13,government
screen,html.Screen,0_2_1_1_14,2021-11-05T13:05:24.726Z,,,,,,,,,,,,,,,,54,,,,,,,,,,,,,,377.90400000297814,,response,,,100,,,,,,Space,keypress(Space),,,,,-- --- ---- --- ------ ----- ------- ---- -- --- ------- --<br>------- ---------- bonds. -- ----- -- ----- -- ---- ------<br>--- ----- --- --- ------ -------- ----- --- ------ ----- --<br>----- ----- ---------- --- --- ------ ------ ---- -- ------<br>------- --- ------ ----- --- ---- ------- -- ---- --- --<br>------- ------,103500,103499.20000000298,103104.628,103108.20000000298,103121.296,103504.903,,14,bonds.
screen,html.Screen,0_2_1_1_15,2021-11-05T13:05:25.118Z,,,,,,,,,,,,,,,,54,,,,,,,,,,,,,,386.2970000029745,,response,,,100,,,,,,Space,keypress(Space),,,,,-- --- ---- --- ------ ----- ------- ---- -- --- ------- --<br>------- ---------- ------ In ----- -- ----- -- ---- ------<br>--- ----- --- --- ------ -------- ----- --- ------ ----- --<br>----- ----- ---------- --- --- ------ ------ ---- -- ------<br>------- --- ------ ----- --- ---- ------- -- ---- --- --<br>------- ------,103891.89999999106,103891.20000000298,103488.232,103500.20000000298,103504.903,103904.956,,15,In
screen,html.Screen,0_2_1_1_16,2021-11-05T13:05:25.582Z,,,,,,,,,,,,,,,,54,,,,,,,,,,,,,,450.14399999403395,,response,,,100,,,,,,Space,keypress(Space),,,,,"-- --- ---- --- ------ ----- ------- ---- -- --- ------- --<br>------- ---------- ------ -- 1727, -- ----- -- ---- ------<br>--- ----- --- --- ------ -------- ----- --- ------ ----- --<br>----- ----- ---------- --- --- ------ ------ ---- -- ------<br>------- --- ------ ----- --- ---- ------- -- ---- --- --<br>------- ------",104355.89999999106,104355.09999999404,103888.286,103892.20000000298,103904.956,104371.738,,16,"1727,"
screen,html.Screen,0_2_1_1_17,2021-11-05T13:05:25.998Z,,,,,,,,,,,,,,,,54,,,,,,,,,,,,,,399.361999994042,,response,,,100,,,,,,Space,keypress(Space),,,,,-- --- ---- --- ------ ----- ------- ---- -- --- ------- --<br>------- ---------- ------ -- ----- in ----- -- ---- ------<br>--- ----- --- --- ------ -------- ----- --- ------ ----- --<br>----- ----- ---------- --- --- ------ ------ ---- -- ------<br>------- --- ------ ----- --- ---- ------- -- ---- --- --<br>------- ------,104771.89999999106,104771.09999999404,104355.068,104356.09999999404,104371.738,104788.511,,17,in
screen,html.Screen,0_2_1_1_18,2021-11-05T13:05:26.470Z,,,,,,,,,,,,,,,,54,,,,,,,,,,,,,,454.4890000000014,,response,,,100,,,,,,Space,keypress(Space),,,,,-- --- ---- --- ------ ----- ------- ---- -- --- ------- --<br>------- ---------- ------ -- ----- -- order -- ---- ------<br>--- ----- --- --- ------ -------- ----- --- ------ ----- --<br>----- ----- ---------- --- --- ------ ------ ---- -- ------<br>------- --- ------ ----- --- ---- ------- -- ---- --- --<br>------- ------,105243.79999999702,105243,104771.841,104772.20000000298,104788.511,105255.29,,18,order
screen,html.Screen,0_2_1_1_19,2021-11-05T13:05:26.854Z,,,,,,,,,,,,,,,,54,,,,,,,,,,,,,,371.7100000000064,,response,,,100,,,,,,Space,keypress(Space),,,,,-- --- ---- --- ------ ----- ------- ---- -- --- ------- --<br>------- ---------- ------ -- ----- -- ----- to ---- ------<br>--- ----- --- --- ------ -------- ----- --- ------ ----- --<br>----- ----- ---------- --- --- ------ ------ ---- -- ------<br>------- --- ------ ----- --- ---- ------- -- ---- --- --<br>------- ------,105627.79999999702,105627,105238.62,105244.09999999404,105255.29,105638.707,,19,to
screen,html.Screen,0_2_1_1_20,2021-11-05T13:05:27.278Z,,,,,,,,,,,,,,,,54,,,,,,,,,,,,,,412.2930000000051,,response,,,100,,,,,,Space,keypress(Space),,,,,-- --- ---- --- ------ ----- ------- ---- -- --- ------- --<br>------- ---------- ------ -- ----- -- ----- -- save ------<br>--- ----- --- --- ------ -------- ----- --- ------ ----- --<br>----- ----- ---------- --- --- ------ ------ ---- -- ------<br>------- --- ------ ----- --- ---- ------- -- ---- --- --<br>------- ------,106051.79999999702,106051,105622.037,105628.09999999404,105638.707,106055.474,,20,save
screen,html.Screen,0_2_1_1_21,2021-11-05T13:05:27.694Z,,,,,,,,,,,,,,,,54,,,,,,,,,,,,,,411.4259999910573,,response,,,100,,,,,,Space,keypress(Space),,,,,"-- --- ---- --- ------ ----- ------- ---- -- --- ------- --<br>------- ---------- ------ -- ----- -- ----- -- ---- money,<br>--- ----- --- --- ------ -------- ----- --- ------ ----- --<br>----- ----- ---------- --- --- ------ ------ ---- -- ------<br>------- --- ------ ----- --- ---- ------- -- ---- --- --<br>------- ------",106467.79999999702,106466.89999999106,106038.804,106052,106055.474,106472.292,,21,"money,"
screen,html.Screen,0_2_1_1_22,2021-11-05T13:05:28.126Z,,,,,,,,,,,,,,,,54,,,,,,,,,,,,,,426.7079999999987,,response,,,100,,,,,,Space,keypress(Space),,,,,-- --- ---- --- ------ ----- ------- ---- -- --- ------- --<br>------- ---------- ------ -- ----- -- ----- -- ---- ------<br>the ----- --- --- ------ -------- ----- --- ------ ----- --<br>----- ----- ---------- --- --- ------ ------ ---- -- ------<br>------- --- ------ ----- --- ---- ------- -- ---- --- --<br>------- ------,106899.70000000298,106899,106455.621,106468,106472.292,106905.618,,22,the
screen,html.Screen,0_2_1_1_23,2021-11-05T13:05:28.542Z,,,,,,,,,,,,,,,,54,,,,,,,,,,,,,,409.3819999999978,,response,,,100,,,,,,Space,keypress(Space),,,,,-- --- ---- --- ------ ----- ------- ---- -- --- ------- --<br>------- ---------- ------ -- ----- -- ----- -- ---- ------<br>--- state --- --- ------ -------- ----- --- ------ ----- --<br>----- ----- ---------- --- --- ------ ------ ---- -- ------<br>------- --- ------ ----- --- ---- ------- -- ---- --- --<br>------- ------,107315.70000000298,107315,106888.949,106900,106905.618,107322.523,,23,state
screen,html.Screen,0_2_1_1_24,2021-11-05T13:05:28.990Z,,,,,,,,,,,,,,,,54,,,,,,,,,,,,,,440.37699999105826,,response,,,100,,,,,,Space,keypress(Space),,,,,-- --- ---- --- ------ ----- ------- ---- -- --- ------- --<br>------- ---------- ------ -- ----- -- ----- -- ---- ------<br>--- ----- cut --- ------ -------- ----- --- ------ ----- --<br>----- ----- ---------- --- --- ------ ------ ---- -- ------<br>------- --- ------ ----- --- ---- ------- -- ---- --- --<br>------- ------,107763.59999999404,107762.89999999106,107305.852,107315.89999999106,107322.523,107772.57,,24,cut
screen,html.Screen,0_2_1_1_25,2021-11-05T13:05:29.414Z,,,,,,,,,,,,,,,,54,,,,,,,,,,,,,,414.7299999970128,,response,,,100,,,,,,Space,keypress(Space),,,,,-- --- ---- --- ------ ----- ------- ---- -- --- ------- --<br>------- ---------- ------ -- ----- -- ----- -- ---- ------<br>--- ----- --- the ------ -------- ----- --- ------ ----- --<br>----- ----- ---------- --- --- ------ ------ ---- -- ------<br>------- --- ------ ----- --- ---- ------- -- ---- --- --<br>------- ------,108188,108187.29999999702,107755.9,107764,107772.57,108189.265,,25,the
screen,html.Screen,0_2_1_1_26,2021-11-05T13:05:29.854Z,,,,,,,,,,,,,,,,54,,,,,,,,,,,,,,437.6349999910599,,response,,,100,,,,,,Space,keypress(Space),,,,,-- --- ---- --- ------ ----- ------- ---- -- --- ------- --<br>------- ---------- ------ -- ----- -- ----- -- ---- ------<br>--- ----- --- --- bonds' -------- ----- --- ------ ----- --<br>----- ----- ---------- --- --- ------ ------ ---- -- ------<br>------- --- ------ ----- --- ---- ------- -- ---- --- --<br>------- ------,108627.70000000298,108626.89999999106,108172.596,108188.29999999702,108189.265,108639.555,,26,bonds'
screen,html.Screen,0_2_1_1_27,2021-11-05T13:05:30.286Z,,,,,,,,,,,,,,,,54,,,,,,,,,,,,,,419.3449999910663,,response,,,100,,,,,,Space,keypress(Space),,,,,-- --- ---- --- ------ ----- ------- ---- -- --- ------- --<br>------- ---------- ------ -- ----- -- ----- -- ---- ------<br>--- ----- --- --- ------ interest ----- --- ------ ----- --<br>----- ----- ---------- --- --- ------ ------ ---- -- ------<br>------- --- ------ ----- --- ---- ------- -- ---- --- --<br>------- ------,109059.59999999404,109058.89999999106,108622.883,108628,108639.555,109072.894,,27,interest
screen,html.Screen,0_2_1_1_28,2021-11-05T13:05:30.758Z,,,,,,,,,,,,,,,,54,,,,,,,,,,,,,,457.90599999701953,,response,,,100,,,,,,Space,keypress(Space),,,,,-- --- ---- --- ------ ----- ------- ---- -- --- ------- --<br>------- ---------- ------ -- ----- -- ----- -- ---- ------<br>--- ----- --- --- ------ -------- rate. --- ------ ----- --<br>----- ----- ---------- --- --- ------ ------ ---- -- ------<br>------- --- ------ ----- --- ---- ------- -- ---- --- --<br>------- ------,109531.5,109530.79999999702,109056.224,109059.89999999106,109072.894,109539.684,,28,rate.
screen,html.Screen,0_2_1_1_29,2021-11-05T13:05:31.206Z,,,,,,,,,,,,,,,,54,,,,,,,,,,,,,,439.0160000029864,,response,,,100,,,,,,Space,keypress(Space),,,,,-- --- ---- --- ------ ----- ------- ---- -- --- ------- --<br>------- ---------- ------ -- ----- -- ----- -- ---- ------<br>--- ----- --- --- ------ -------- ----- The ------ ----- --<br>----- ----- ---------- --- --- ------ ------ ---- -- ------<br>------- --- ------ ----- --- ---- ------- -- ---- --- --<br>------- ------,109979.5,109978.70000000298,109523.014,109531.79999999702,109539.684,109989.78,,29,The
screen,html.Screen,0_2_1_1_30,2021-11-05T13:05:31.710Z,,,,,,,,,,,,,,,,54,,,,,,,,,,,,,,492.9200000029814,,response,,,100,,,,,,Space,keypress(Space),,,,,-- --- ---- --- ------ ----- ------- ---- -- --- ------- --<br>------- ---------- ------ -- ----- -- ----- -- ---- ------<br>--- ----- --- --- ------ -------- ----- --- market ----- --<br>----- ----- ---------- --- --- ------ ------ ---- -- ------<br>------- --- ------ ----- --- ---- ------- -- ---- --- --<br>------- ------,110483.5,110482.70000000298,109973.11,109979.79999999702,109989.78,110489.923,,30,market
screen,html.Screen,0_2_1_1_31,2021-11-05T13:05:32.118Z,,,,,,,,,,,,,,,,54,,,,,,,,,,,,,,400.777000002985,,response,,,100,,,,,,Space,keypress(Space),,,,,-- --- ---- --- ------ ----- ------- ---- -- --- ------- --<br>------- ---------- ------ -- ----- -- ----- -- ---- ------<br>--- ----- --- --- ------ -------- ----- --- ------ value --<br>----- ----- ---------- --- --- ------ ------ ---- -- ------<br>------- --- ------ ----- --- ---- ------- -- ---- --- --<br>------- ------,110891.5,110890.70000000298,110473.253,110483.70000000298,110489.923,110906.685,,31,value
screen,html.Screen,0_2_1_1_32,2021-11-05T13:05:32.558Z,,,,,,,,,,,,,,,,54,,,,,,,,,,,,,,424.01500000298256,,response,,,100,,,,,,Space,keypress(Space),,,,,-- --- ---- --- ------ ----- ------- ---- -- --- ------- --<br>------- ---------- ------ -- ----- -- ----- -- ---- ------<br>--- ----- --- --- ------ -------- ----- --- ------ ----- of<br>----- ----- ---------- --- --- ------ ------ ---- -- ------<br>------- --- ------ ----- --- ---- ------- -- ---- --- --<br>------- ------,111331.39999999106,111330.70000000298,110890.015,110891.79999999702,110906.685,111340.14,,32,of
screen,html.Screen,0_2_1_1_33,2021-11-05T13:05:32.950Z,,,,,,,,,,,,,,,,54,,,,,,,,,,,,,,382.4599999940401,,response,,,100,,,,,,Space,keypress(Space),,,,,-- --- ---- --- ------ ----- ------- ---- -- --- ------- --<br>------- ---------- ------ -- ----- -- ----- -- ---- ------<br>--- ----- --- --- ------ -------- ----- --- ------ ----- --<br>these ----- ---------- --- --- ------ ------ ---- -- ------<br>------- --- ------ ----- --- ---- ------- -- ---- --- --<br>------- ------,111723.39999999106,111722.59999999404,111323.47,111331.59999999404,111340.14,111740.217,,33,these
screen,html.Screen,0_2_1_1_34,2021-11-05T13:05:33.366Z,,,,,,,,,,,,,,,,54,,,,,,,,,,,,,,398.38299999403534,,response,,,100,,,,,,Space,keypress(Space),,,,,-- --- ---- --- ------ ----- ------- ---- -- --- ------- --<br>------- ---------- ------ -- ----- -- ----- -- ---- ------<br>--- ----- --- --- ------ -------- ----- --- ------ ----- --<br>----- bonds ---------- --- --- ------ ------ ---- -- ------<br>------- --- ------ ----- --- ---- ------- -- ---- --- --<br>------- ------,112139.39999999106,112138.59999999404,111723.547,111723.59999999404,111740.217,112157.002,,34,bonds
screen,html.Screen,0_2_1_1_35,2021-11-05T13:05:33.822Z,,,,,,,,,,,,,,,,54,,,,,,,,,,,,,,437.5979999940464,,response,,,100,,,,,,Space,keypress(Space),,,,,"-- --- ---- --- ------ ----- ------- ---- -- --- ------- --<br>------- ---------- ------ -- ----- -- ----- -- ---- ------<br>--- ----- --- --- ------ -------- ----- --- ------ ----- --<br>----- ----- plummeted, --- --- ------ ------ ---- -- ------<br>------- --- ------ ----- --- ---- ------- -- ---- --- --<br>------- ------",112595.29999999702,112594.59999999404,112140.332,112139.59999999404,112157.002,112607.102,,35,"plummeted,"
screen,html.Screen,0_2_1_1_36,2021-11-05T13:05:34.254Z,,,,,,,,,,,,,,,,54,,,,,,,,,,,,,,419.39800000000105,,response,,,100,,,,,,Space,keypress(Space),,,,,-- --- ---- --- ------ ----- ------- ---- -- --- ------- --<br>------- ---------- ------ -- ----- -- ----- -- ---- ------<br>--- ----- --- --- ------ -------- ----- --- ------ ----- --<br>----- ----- ---------- and --- ------ ------ ---- -- ------<br>------- --- ------ ----- --- ---- ------- -- ---- --- --<br>------- ------,113027.29999999702,113026.5,112590.432,112595.59999999404,112607.102,113040.605,,36,and
screen,html.Screen,0_2_1_1_37,2021-11-05T13:05:34.670Z,,,,,,,,,,,,,,,,54,,,,,,,,,,,,,,401.8950000000041,,response,,,100,,,,,,Space,keypress(Space),,,,,-- --- ---- --- ------ ----- ------- ---- -- --- ------- --<br>------- ---------- ------ -- ----- -- ----- -- ---- ------<br>--- ----- --- --- ------ -------- ----- --- ------ ----- --<br>----- ----- ---------- --- the ------ ------ ---- -- ------<br>------- --- ------ ----- --- ---- ------- -- ---- --- --<br>------- ------,113443.29999999702,113442.5,113023.934,113027.59999999404,113040.605,113457.253,,37,the
screen,html.Screen,0_2_1_1_38,2021-11-05T13:05:35.134Z,,,,,,,,,,,,,,,,54,,,,,,,,,,,,,,449.247000000003,,response,,,100,,,,,,Space,keypress(Space),,,,,-- --- ---- --- ------ ----- ------- ---- -- --- ------- --<br>------- ---------- ------ -- ----- -- ----- -- ---- ------<br>--- ----- --- --- ------ -------- ----- --- ------ ----- --<br>----- ----- ---------- --- --- market ------ ---- -- ------<br>------- --- ------ ----- --- ---- ------- -- ---- --- --<br>------- ------,113907.29999999702,113906.5,113440.584,113443.5,113457.253,113924.163,,38,market
screen,html.Screen,0_2_1_1_39,2021-11-05T13:05:35.550Z,,,,,,,,,,,,,,,,54,,,,,,,,,,,,,,398.33699999999953,,response,,,100,,,,,,Space,keypress(Space),,,,,-- --- ---- --- ------ ----- ------- ---- -- --- ------- --<br>------- ---------- ------ -- ----- -- ----- -- ---- ------<br>--- ----- --- --- ------ -------- ----- --- ------ ----- --<br>----- ----- ---------- --- --- ------ became ---- -- ------<br>------- --- ------ ----- --- ---- ------- -- ---- --- --<br>------- ------,114323.20000000298,114322.5,113907.492,113907.5,113924.163,114340.87,,39,became
screen,html.Screen,0_2_1_1_40,2021-11-05T13:05:36.013Z,,,,,,,,,,,,,,,,54,,,,,,,,,,,,,,445.13000000000466,,response,,,100,,,,,,Space,keypress(Space),,,,,-- --- ---- --- ------ ----- ------- ---- -- --- ------- --<br>------- ---------- ------ -- ----- -- ----- -- ---- ------<br>--- ----- --- --- ------ -------- ----- --- ------ ----- --<br>----- ----- ---------- --- --- ------ ------ wary -- ------<br>------- --- ------ ----- --- ---- ------- -- ---- --- --<br>------- ------,114786.29999999702,114786,114324.2,114323.5,114340.87,114790.902,,40,wary
screen,html.Screen,0_2_1_1_41,2021-11-05T13:05:36.421Z,,,,,,,,,,,,,,,,54,,,,,,,,,,,,,,403.09799999999814,,response,,,100,,,,,,Space,keypress(Space),,,,,-- --- ---- --- ------ ----- ------- ---- -- --- ------- --<br>------- ---------- ------ -- ----- -- ----- -- ---- ------<br>--- ----- --- --- ------ -------- ----- --- ------ ----- --<br>----- ----- ---------- --- --- ------ ------ ---- of ------<br>------- --- ------ ----- --- ---- ------- -- ---- --- --<br>------- ------,115194.29999999702,115194,114774.233,114786.59999999404,114790.902,115207.852,,41,of
screen,html.Screen,0_2_1_1_42,2021-11-05T13:05:36.870Z,,,,,,,,,,,,,,,,54,,,,,,,,,,,,,,434.54799999106035,,response,,,100,,,,,,Space,keypress(Space),,,,,-- --- ---- --- ------ ----- ------- ---- -- --- ------- --<br>------- ---------- ------ -- ----- -- ----- -- ---- ------<br>--- ----- --- --- ------ -------- ----- --- ------ ----- --<br>----- ----- ---------- --- --- ------ ------ ---- -- French<br>------- --- ------ ----- --- ---- ------- -- ---- --- --<br>------- ------,115643.20000000298,115642.39999999106,115191.18,115194.39999999106,115207.852,115657.699,,42,French
screen,html.Screen,0_2_1_1_43,2021-11-05T13:05:37.286Z,,,,,,,,,,,,,,,,54,,,,,,,,,,,,,,400.6009999970265,,response,,,100,,,,,,Space,keypress(Space),,,,,-- --- ---- --- ------ ----- ------- ---- -- --- ------- --<br>------- ---------- ------ -- ----- -- ----- -- ---- ------<br>--- ----- --- --- ------ -------- ----- --- ------ ----- --<br>----- ----- ---------- --- --- ------ ------ ---- -- ------<br>credit. --- ------ ----- --- ---- ------- -- ---- --- --<br>------- ------,116059.09999999404,116058.29999999702,115641.031,115643.39999999106,115657.699,116074.576,,43,credit.
screen,html.Screen,0_2_1_1_44,2021-11-05T13:05:37.710Z,,,,,,,,,,,,,,,,54,,,,,,,,,,,,,,407.72399999701884,,response,,,100,,,,,,Space,keypress(Space),,,,,-- --- ---- --- ------ ----- ------- ---- -- --- ------- --<br>------- ---------- ------ -- ----- -- ----- -- ---- ------<br>--- ----- --- --- ------ -------- ----- --- ------ ----- --<br>----- ----- ---------- --- --- ------ ------ ---- -- ------<br>------- The ------ ----- --- ---- ------- -- ---- --- --<br>------- ------,116483,116482.29999999702,116057.906,116059.29999999702,116074.576,116491.549,,44,The
screen,html.Screen,0_2_1_1_45,2021-11-05T13:05:38.142Z,,,,,,,,,,,,,,,,54,,,,,,,,,,,,,,422.7509999970207,,response,,,100,,,,,,Space,keypress(Space),,,,,-- --- ---- --- ------ ----- ------- ---- -- --- ------- --<br>------- ---------- ------ -- ----- -- ----- -- ---- ------<br>--- ----- --- --- ------ -------- ----- --- ------ ----- --<br>----- ----- ---------- --- --- ------ ------ ---- -- ------<br>------- --- French ----- --- ---- ------- -- ---- --- --<br>------- ------,116915,116914.29999999702,116474.876,116483.29999999702,116491.549,116924.838,,45,French
screen,html.Screen,0_2_1_1_46,2021-11-05T13:05:38.598Z,,,,,,,,,,,,,,,,54,,,,,,,,,,,,,,445.4619999970164,,response,,,100,,,,,,Space,keypress(Space),,,,,-- --- ---- --- ------ ----- ------- ---- -- --- ------- --<br>------- ---------- ------ -- ----- -- ----- -- ---- ------<br>--- ----- --- --- ------ -------- ----- --- ------ ----- --<br>----- ----- ---------- --- --- ------ ------ ---- -- ------<br>------- --- ------ state --- ---- ------- -- ---- --- --<br>------- ------,117371.09999999404,117370.29999999702,116908.168,116915.29999999702,116924.838,117374.866,,46,state
screen,html.Screen,0_2_1_1_47,2021-11-05T13:05:39.038Z,,,,,,,,,,,,,,,,54,,,,,,,,,,,,,,435.3340000029857,,response,,,100,,,,,,Space,keypress(Space),,,,,-- --- ---- --- ------ ----- ------- ---- -- --- ------- --<br>------- ---------- ------ -- ----- -- ----- -- ---- ------<br>--- ----- --- --- ------ -------- ----- --- ------ ----- --<br>----- ----- ---------- --- --- ------ ------ ---- -- ------<br>------- --- ------ ----- was ---- ------- -- ---- --- --<br>------- ------,117811,117810.20000000298,117358.197,117371.29999999702,117374.866,117825.172,,47,was
screen,html.Screen,0_2_1_1_48,2021-11-05T13:05:39.470Z,,,,,,,,,,,,,,,,54,,,,,,,,,,,,,,417.4279999940336,,response,,,100,,,,,,Space,keypress(Space),,,,,-- --- ---- --- ------ ----- ------- ---- -- --- ------- --<br>------- ---------- ------ -- ----- -- ----- -- ---- ------<br>--- ----- --- --- ------ -------- ----- --- ------ ----- --<br>----- ----- ---------- --- --- ------ ------ ---- -- ------<br>------- --- ------ ----- --- left ------- -- ---- --- --<br>------- ------,118243.39999999106,118242.59999999404,117808.5,117811.20000000298,117825.172,118258.519,,48,left
screen,html.Screen,0_2_1_1_49,2021-11-05T13:05:39.893Z,,,,,,,,,,,,,,,,54,,,,,,,,,,,,,,407.68100000298,,response,,,100,,,,,,Space,keypress(Space),,,,,-- --- ---- --- ------ ----- ------- ---- -- --- ------- --<br>------- ---------- ------ -- ----- -- ----- -- ---- ------<br>--- ----- --- --- ------ -------- ----- --- ------ ----- --<br>----- ----- ---------- --- --- ------ ------ ---- -- ------<br>------- --- ------ ----- --- ---- without -- ---- --- --<br>------- ------,118667,118666.20000000298,118241.849,118243.70000000298,118258.519,118675.188,,49,without
screen,html.Screen,0_2_1_1_50,2021-11-05T13:05:40.349Z,,,,,,,,,,,,,,,,54,,,,,,,,,,,,,,446.9119999940449,,response,,,100,,,,,,Space,keypress(Space),,,,,-- --- ---- --- ------ ----- ------- ---- -- --- ------- --<br>------- ---------- ------ -- ----- -- ----- -- ---- ------<br>--- ----- --- --- ------ -------- ----- --- ------ ----- --<br>----- ----- ---------- --- --- ------ ------ ---- -- ------<br>------- --- ------ ----- --- ---- ------- an ---- --- --<br>------- ------,119123,119122.09999999404,118658.519,118667.20000000298,118675.188,119125.498,,50,an
screen,html.Screen,0_2_1_1_51,2021-11-05T13:05:40.773Z,,,,,,,,,,,,,,,,54,,,,,,,,,,,,,,420.60199999403267,,response,,,100,,,,,,Space,keypress(Space),,,,,-- --- ---- --- ------ ----- ------- ---- -- --- ------- --<br>------- ---------- ------ -- ----- -- ----- -- ---- ------<br>--- ----- --- --- ------ -------- ----- --- ------ ----- --<br>----- ----- ---------- --- --- ------ ------ ---- -- ------<br>------- --- ------ ----- --- ---- ------- -- easy --- --<br>------- ------,119546.89999999106,119546.09999999404,119108.826,119123.20000000298,119125.498,119558.843,,51,easy
screen,html.Screen,0_2_1_1_52,2021-11-05T13:05:41.165Z,,,,,,,,,,,,,,,,54,,,,,,,,,,,,,,379.25699999404605,,response,,,100,,,,,,Space,keypress(Space),,,,,-- --- ---- --- ------ ----- ------- ---- -- --- ------- --<br>------- ---------- ------ -- ----- -- ----- -- ---- ------<br>--- ----- --- --- ------ -------- ----- --- ------ ----- --<br>----- ----- ---------- --- --- ------ ------ ---- -- ------<br>------- --- ------ ----- --- ---- ------- -- ---- way --<br>------- ------,119938.89999999106,119938.09999999404,119542.173,119547.20000000298,119558.843,119942.184,,52,way
screen,html.Screen,0_2_1_1_53,2021-11-05T13:05:41.625Z,,,,,,,,,,,,,,,,54,,,,,,,,,,,,,,451.9159999940457,,response,,,100,,,,,,Space,keypress(Space),,,,,-- --- ---- --- ------ ----- ------- ---- -- --- ------- --<br>------- ---------- ------ -- ----- -- ----- -- ---- ------<br>--- ----- --- --- ------ -------- ----- --- ------ ----- --<br>----- ----- ---------- --- --- ------ ------ ---- -- ------<br>------- --- ------ ----- --- ---- ------- -- ---- --- of<br>------- ------,120394.79999999702,120394.09999999404,119925.515,119939.20000000298,119942.184,120409.161,,53,of
screen,html.Screen,0_2_1_1_54,2021-11-05T13:05:42.065Z,,,,,,,,,,,,,,,,54,,,,,,,,,,,,,,424.93899999404675,,response,,,100,,,,,,Space,keypress(Space),,,,,-- --- ---- --- ------ ----- ------- ---- -- --- ------- --<br>------- ---------- ------ -- ----- -- ----- -- ---- ------<br>--- ----- --- --- ------ -------- ----- --- ------ ----- --<br>----- ----- ---------- --- --- ------ ------ ---- -- ------<br>------- --- ------ ----- --- ---- ------- -- ---- --- --<br>raising ------,120834.89999999106,120834.09999999404,120392.489,120395.09999999404,120409.161,120842.496,,54,raising
screen,html.Screen,0_2_1_1_55,2021-11-05T13:05:42.497Z,,,,,,,,,,,,,,,,54,,,,,,,,,,,,,,423.60399999404035,,response,,,100,,,,,,Space,keypress(Space),,,,,-- --- ---- --- ------ ----- ------- ---- -- --- ------- --<br>------- ---------- ------ -- ----- -- ----- -- ---- ------<br>--- ----- --- --- ------ -------- ----- --- ------ ----- --<br>----- ----- ---------- --- --- ------ ------ ---- -- ------<br>------- --- ------ ----- --- ---- ------- -- ---- --- --<br>------- money.,121266.79999999702,121266.09999999404,120825.826,120835.09999999404,120842.496,121275.84,,55,money.
Item 100,flow.Loop,0_2_1_1,2021-11-05T13:05:42.498Z,,,,,,,,,,,,,,,,,,,,,,,,,,,,,,24246.331999994043,,completion,,,,F,,,,,,,,,,silence,,121267.20000000298,121266.09999999404,97003.098,97005,97019.768,121275.84,,,
Question 1,html.Screen,0_2_1_2,2021-11-05T13:05:46.569Z,,,,,,,,,,,,,,,,,,,,,,,,,,,true,TRUE,,4061.6600000000035,,response,,,100,F,,,,,TRUE,click #choice-1,,,,silence,,125338.70000000298,125337.5,121259.171,121267.39999999106,121275.84,125343.652,,,
Question 2,html.Screen,0_2_1_3,2021-11-05T13:05:50.865Z,,,,,,,,,,,,,,,,,,,,,,,,,,,false,FALSE,,4289.647999997018,,response,,,100,F,,,,,TRUE,click #choice-1,,,,silence,,129634.59999999404,129633.29999999702,125326.981,125338.89999999106,125343.652,129644.53,,,
Item 100,flow.Sequence,0_2_1,2021-11-05T13:05:50.865Z,,,,,,,,,,,,,,,,,,,,,,,,,,,,,,42615.84899999702,,completion,,,,,,,,,,,,,,,,129635,129633.29999999702,87000.78,87013.79999999702,87017.451,129644.53,,,
End of Practice,html.Page,0_2_2,2021-11-05T13:05:57.626Z,,,,,,,,,,,,,,,,,,,,,,,,,,,,,,6750.069999994041,,form submission,,,,,,,,,,,,,,,,136395.20000000298,136394.59999999404,129627.861,129635.09999999404,129644.53,136396.061,,,
Practice,flow.Sequence,0_2,2021-11-05T13:05:57.626Z,,,,,,,,,,,,,,,,,,,,,,,,,,,,,,97359.24499999403,,completion,,,,,,,,,,,,,,,,136395.79999999702,136394.59999999404,39018.699,39033.20000000298,39035.355,136396.061,,,
Trap_instruction,html.Page,0_3_0,2021-11-05T13:06:02.953Z,,,,,,,,,,,,,,,,,,,,,,,,,,,,,,5325.939000000013,,form submission,,,,,,,,,,,,,,,,141722.59999999404,141722,136379.391,136396.20000000298,136396.061,141747.388,,,
trap_trial,html.Screen,0_3_1,2021-11-05T13:06:06.624Z,,,,,,,,,,,,,,,,,,,,,,,,,,,true,1,,3644.9119999970135,,response,,,,,,,,,1,click #choice-1,,,,,,145393.59999999404,145392.29999999702,141714.048,141722.79999999702,141747.388,145398.397,,,
end of trap trial,html.Page,0_3_2,2021-11-05T13:06:09.913Z,,,,,,,,,,,,,,,,,,,,,,,,,,,,,,3283.2029999940423,,form submission,,,,,,,,,,,,,,,,148682.09999999404,148681.59999999404,145381.727,145393.79999999702,145398.397,148682.665,,,
Trap 1,flow.Sequence,0_3,2021-11-05T13:06:09.913Z,,,,,,,,,,,,,,,,,,,,,,,,,,,,,,12285.538999994053,,completion,,,,,,,,,,,,,,,,148682.59999999404,148681.59999999404,136379.391,136396,136396.061,148682.665,,,
Standby,html.Page,0_4_0,2021-11-05T13:06:17.899Z,,,,,,,,,,,,,,,,,,,,,,,,,,,,,,8001.669999999984,,timeout,,,,,,,,,,,,,,,,156668.89999999106,156667.665,148665.995,148682.89999999106,148682.665,156684.335,,,
Holding screen,html.Screen,0_4_1_0_0,2021-11-05T13:06:24.902Z,,,,,,,,,,,,,,,,,,,,,,,,,,,,,,7002.092000000004,,timeout,,,,,,,,,,,,,,,,163671.5,163669.757,156667.665,156669.29999999702,156684.335,163686.427,,,
screen,html.Screen,0_4_1_0_1_0,2021-11-05T13:06:25.679Z,,,,,,,,,,,,,,,,2,,,,,,,,,,,,,,761.073000000004,,response,,,1,F,,,,,Space,keypress(Space),,,,instrumental,Two ---- ------ --- ------- ---------- ------- ----------<br>--- --------- --- ----------- ------- ----- ------- ---<br>--------- ---- -- --- ---- -- --------- -- ---- -------<br>-- --------- ------ --- ----- ------ ---- --- --------- --<br>------ - ---- -- --- ----------- ------- ---- ----- -----<br>--- -------- - ------ ---- -- ----- ---- --- --- -----------<br>-- -------,164448.59999999404,164447.5,163669.757,163671.89999999106,163686.427,164453.184,,0,Two
screen,html.Screen,0_4_1_0_1_1,2021-11-05T13:06:26.110Z,,,,,,,,,,,,,,,,2,,,,,,,,,,,,,,425.91599999403115,,response,,,1,F,,,,,Space,keypress(Space),,,,instrumental,--- days ------ --- ------- ---------- ------- ----------<br>--- --------- --- ----------- ------- ----- ------- ---<br>--------- ---- -- --- ---- -- --------- -- ---- -------<br>-- --------- ------ --- ----- ------ ---- --- --------- --<br>------ - ---- -- --- ----------- ------- ---- ----- -----<br>--- -------- - ------ ---- -- ----- ---- --- --- -----------<br>-- -------,164880,164879.09999999404,164436.515,164449,164453.184,164886.828,,1,days
screen,html.Screen,0_4_1_0_1_2,2021-11-05T13:06:26.495Z,,,,,,,,,,,,,,,,2,,,,,,,,,,,,,,376.3720000029716,,response,,,1,F,,,,,Space,keypress(Space),,,,instrumental,"--- ---- later, --- ------- ---------- ------- ----------<br>--- --------- --- ----------- ------- ----- ------- ---<br>--------- ---- -- --- ---- -- --------- -- ---- -------<br>-- --------- ------ --- ----- ------ ---- --- --------- --<br>------ - ---- -- --- ----------- ------- ---- ----- -----<br>--- -------- - ------ ---- -- ----- ---- --- --- -----------<br>-- -------",165264.09999999404,165263.20000000298,164870.157,164880.20000000298,164886.828,165270.161,,2,"later,"
screen,html.Screen,0_4_1_0_1_3,2021-11-05T13:06:26.870Z,,,,,,,,,,,,,,,,2,,,,,,,,,,,,,,369.03900000298745,,response,,,1,F,,,,,Space,keypress(Space),,,,instrumental,--- ---- ------ the ------- ---------- ------- ----------<br>--- --------- --- ----------- ------- ----- ------- ---<br>--------- ---- -- --- ---- -- --------- -- ---- -------<br>-- --------- ------ --- ----- ------ ---- --- --------- --<br>------ - ---- -- --- ----------- ------- ---- ----- -----<br>--- -------- - ------ ---- -- ----- ---- --- --- -----------<br>-- -------,165640,165639.20000000298,165253.491,165264.39999999106,165270.161,165653.737,,3,the
screen,html.Screen,0_4_1_0_1_4,2021-11-05T13:06:27.214Z,,,,,,,,,,,,,,,,2,,,,,,,,,,,,,,329.4630000029865,,response,,,1,F,,,,,Space,keypress(Space),,,,instrumental,--- ---- ------ --- British ---------- ------- ----------<br>--- --------- --- ----------- ------- ----- ------- ---<br>--------- ---- -- --- ---- -- --------- -- ---- -------<br>-- --------- ------ --- ----- ------ ---- --- --------- --<br>------ - ---- -- --- ----------- ------- ---- ----- -----<br>--- -------- - ------ ---- -- ----- ---- --- --- -----------<br>-- -------,165984,165983.20000000298,165637.065,165640.29999999702,165653.737,165987.079,,4,British
screen,html.Screen,0_4_1_0_1_5,2021-11-05T13:06:27.606Z,,,,,,,,,,,,,,,,2,,,,,,,,,,,,,,388.1210000029823,,response,,,1,F,,,,,Space,keypress(Space),,,,instrumental,--- ---- ------ --- ------- astronomer ------- ----------<br>--- --------- --- ----------- ------- ----- ------- ---<br>--------- ---- -- --- ---- -- --------- -- ---- -------<br>-- --------- ------ --- ----- ------ ---- --- --------- --<br>------ - ---- -- --- ----------- ------- ---- ----- -----<br>--- -------- - ------ ---- -- ----- ---- --- --- -----------<br>-- -------,166375.89999999106,166375.20000000298,165970.409,165984.29999999702,165987.079,166387.153,,5,astronomer
screen,html.Screen,0_4_1_0_1_6,2021-11-05T13:06:28.054Z,,,,,,,,,,,,,,,,2,,,,,,,,,,,,,,435.9469999940484,,response,,,1,F,,,,,Space,keypress(Space),,,,instrumental,--- ---- ------ --- ------- ---------- Richard ----------<br>--- --------- --- ----------- ------- ----- ------- ---<br>--------- ---- -- --- ---- -- --------- -- ---- -------<br>-- --------- ------ --- ----- ------ ---- --- --------- --<br>------ - ---- -- --- ----------- ------- ---- ----- -----<br>--- -------- - ------ ---- -- ----- ---- --- --- -----------<br>-- -------,166823.89999999106,166823.09999999404,166370.483,166376.09999999404,166387.153,166837.26,,6,Richard
screen,html.Screen,0_4_1_0_1_7,2021-11-05T13:06:28.470Z,,,,,,,,,,,,,,,,2,,,,,,,,,,,,,,401.8399999940302,,response,,,1,F,,,,,Space,keypress(Space),,,,instrumental,--- ---- ------ --- ------- ---------- ------- Carrington<br>--- --------- --- ----------- ------- ----- ------- ---<br>--------- ---- -- --- ---- -- --------- -- ---- -------<br>-- --------- ------ --- ----- ------ ---- --- --------- --<br>------ - ---- -- --- ----------- ------- ---- ----- -----<br>--- -------- - ------ ---- -- ----- ---- --- --- -----------<br>-- -------,167239.89999999106,167239.09999999404,166820.59,166824.09999999404,166837.26,167254.1,,7,Carrington
screen,html.Screen,0_4_1_0_1_8,2021-11-05T13:06:28.926Z,,,,,,,,,,,,,,,,2,,,,,,,,,,,,,,440.9999999940337,,response,,,1,F,,,,,Space,keypress(Space),,,,instrumental,--- ---- ------ --- ------- ---------- ------- ----------<br>was --------- --- ----------- ------- ----- ------- ---<br>--------- ---- -- --- ---- -- --------- -- ---- -------<br>-- --------- ------ --- ----- ------ ---- --- --------- --<br>------ - ---- -- --- ----------- ------- ---- ----- -----<br>--- -------- - ------ ---- -- ----- ---- --- --- -----------<br>-- -------,167696,167695.09999999404,167237.429,167240.20000000298,167254.1,167704.144,,8,was
screen,html.Screen,0_4_1_0_1_9,2021-11-05T13:06:29.334Z,,,,,,,,,,,,,,,,2,,,,,,,,,,,,,,398.85599999999977,,response,,,1,F,,,,,Space,keypress(Space),,,,instrumental,--- ---- ------ --- ------- ---------- ------- ----------<br>--- observing --- ----------- ------- ----- ------- ---<br>--------- ---- -- --- ---- -- --------- -- ---- -------<br>-- --------- ------ --- ----- ------ ---- --- --------- --<br>------ - ---- -- --- ----------- ------- ---- ----- -----<br>--- -------- - ------ ---- -- ----- ---- --- --- -----------<br>-- -------,168103.79999999702,168103,167687.474,167696.29999999702,167704.144,168120.909,,9,observing
screen,html.Screen,0_4_1_0_1_10,2021-11-05T13:06:29.734Z,,,,,,,,,,,,,,,,2,,,,,,,,,,,,,,382.0909999999858,,response,,,1,F,,,,,Space,keypress(Space),,,,instrumental,--- ---- ------ --- ------- ---------- ------- ----------<br>--- --------- the ----------- ------- ----- ------- ---<br>--------- ---- -- --- ---- -- --------- -- ---- -------<br>-- --------- ------ --- ----- ------ ---- --- --------- --<br>------ - ---- -- --- ----------- ------- ---- ----- -----<br>--- -------- - ------ ---- -- ----- ---- --- --- -----------<br>-- -------,168503.79999999702,168503,168104.239,168104.20000000298,168120.909,168520.961,,10,the
screen,html.Screen,0_4_1_0_1_11,2021-11-05T13:06:30.174Z,,,,,,,,,,,,,,,,2,,,,,,,,,,,,,,422.03899999998976,,response,,,1,F,,,,,Space,keypress(Space),,,,instrumental,--- ---- ------ --- ------- ---------- ------- ----------<br>--- --------- --- interesting ------- ----- ------- ---<br>--------- ---- -- --- ---- -- --------- -- ---- -------<br>-- --------- ------ --- ----- ------ ---- --- --------- --<br>------ - ---- -- --- ----------- ------- ---- ----- -----<br>--- -------- - ------ ---- -- ----- ---- --- --- -----------<br>-- -------,168943.79999999702,168943,168504.292,168504.09999999404,168520.961,168954.511,,11,interesting
screen,html.Screen,0_4_1_0_1_12,2021-11-05T13:06:30.622Z,,,,,,,,,,,,,,,,2,,,,,,,,,,,,,,436.3889999910607,,response,,,1,F,,,,,Space,keypress(Space),,,,instrumental,--- ---- ------ --- ------- ---------- ------- ----------<br>--- --------- --- ----------- sunspot ----- ------- ---<br>--------- ---- -- --- ---- -- --------- -- ---- -------<br>-- --------- ------ --- ----- ------ ---- --- --------- --<br>------ - ---- -- --- ----------- ------- ---- ----- -----<br>--- -------- - ------ ---- -- ----- ---- --- --- -----------<br>-- -------,169391.79999999702,169390.89999999106,168937.84,168944,168954.511,169404.576,,12,sunspot
screen,html.Screen,0_4_1_0_1_13,2021-11-05T13:06:31.094Z,,,,,,,,,,,,,,,,2,,,,,,,,,,,,,,458.3239999910584,,response,,,1,F,,,,,Space,keypress(Space),,,,instrumental,--- ---- ------ --- ------- ---------- ------- ----------<br>--- --------- --- ----------- ------- group ------- ---<br>--------- ---- -- --- ---- -- --------- -- ---- -------<br>-- --------- ------ --- ----- ------ ---- --- --------- --<br>------ - ---- -- --- ----------- ------- ---- ----- -----<br>--- -------- - ------ ---- -- ----- ---- --- --- -----------<br>-- -------,169863.79999999702,169862.89999999106,169387.906,169392,169404.576,169871.415,,13,group
screen,html.Screen,0_4_1_0_1_14,2021-11-05T13:06:31.606Z,,,,,,,,,,,,,,,,2,,,,,,,,,,,,,,503.48499999105115,,response,,,1,F,,,,,Space,keypress(Space),,,,instrumental,--- ---- ------ --- ------- ---------- ------- ----------<br>--- --------- --- ----------- ------- ----- through ---<br>--------- ---- -- --- ---- -- --------- -- ---- -------<br>-- --------- ------ --- ----- ------ ---- --- --------- --<br>------ - ---- -- --- ----------- ------- ---- ----- -----<br>--- -------- - ------ ---- -- ----- ---- --- --- -----------<br>-- -------,170375.70000000298,170374.89999999106,169854.744,169864,169871.415,170388.137,,14,through
screen,html.Screen,0_4_1_0_1_15,2021-11-05T13:06:32.014Z,,,,,,,,,,,,,,,,2,,,,,,,,,,,,,,394.7629999910714,,response,,,1,F,,,,,Space,keypress(Space),,,,instrumental,--- ---- ------ --- ------- ---------- ------- ----------<br>--- --------- --- ----------- ------- ----- ------- his<br>--------- ---- -- --- ---- -- --------- -- ---- -------<br>-- --------- ------ --- ----- ------ ---- --- --------- --<br>------ - ---- -- --- ----------- ------- ---- ----- -----<br>--- -------- - ------ ---- -- ----- ---- --- --- -----------<br>-- -------,170783.70000000298,170782.89999999106,170371.467,170375.89999999106,170388.137,170788.169,,15,his
screen,html.Screen,0_4_1_0_1_16,2021-11-05T13:06:32.470Z,,,,,,,,,,,,,,,,2,,,,,,,,,,,,,,450.7309999910649,,response,,,1,F,,,,,Space,keypress(Space),,,,instrumental,--- ---- ------ --- ------- ---------- ------- ----------<br>--- --------- --- ----------- ------- ----- ------- ---<br>telescope ---- -- --- ---- -- --------- -- ---- -------<br>-- --------- ------ --- ----- ------ ---- --- --------- --<br>------ - ---- -- --- ----------- ------- ---- ----- -----<br>--- -------- - ------ ---- -- ----- ---- --- --- -----------<br>-- -------,171239.59999999404,171238.89999999106,170771.5,170783.89999999106,170788.169,171255.009,,16,telescope
screen,html.Screen,0_4_1_0_1_17,2021-11-05T13:06:32.966Z,,,,,,,,,,,,,,,,2,,,,,,,,,,,,,,479.8909999910684,,response,,,1,F,,,,,Space,keypress(Space),,,,instrumental,--- ---- ------ --- ------- ---------- ------- ----------<br>--- --------- --- ----------- ------- ----- ------- ---<br>--------- when -- --- ---- -- --------- -- ---- -------<br>-- --------- ------ --- ----- ------ ---- --- --------- --<br>------ - ---- -- --- ----------- ------- ---- ----- -----<br>--- -------- - ------ ---- -- ----- ---- --- --- -----------<br>-- -------,171735.70000000298,171734.89999999106,171238.339,171239.89999999106,171255.009,171738.593,,17,when
screen,html.Screen,0_4_1_0_1_18,2021-11-05T13:06:33.398Z,,,,,,,,,,,,,,,,2,,,,,,,,,,,,,,428.10700000298675,,response,,,1,F,,,,,Space,keypress(Space),,,,instrumental,--- ---- ------ --- ------- ---------- ------- ----------<br>--- --------- --- ----------- ------- ----- ------- ---<br>--------- ---- he --- ---- -- --------- -- ---- -------<br>-- --------- ------ --- ----- ------ ---- --- --------- --<br>------ - ---- -- --- ----------- ------- ---- ----- -----<br>--- -------- - ------ ---- -- ----- ---- --- --- -----------<br>-- -------,172167.5,172166.70000000298,171721.921,171735.89999999106,171738.593,172171.928,,18,he
screen,html.Screen,0_4_1_0_1_19,2021-11-05T13:06:33.854Z,,,,,,,,,,,,,,,,2,,,,,,,,,,,,,,450.87199999700533,,response,,,1,F,,,,,Space,keypress(Space),,,,instrumental,--- ---- ------ --- ------- ---------- ------- ----------<br>--- --------- --- ----------- ------- ----- ------- ---<br>--------- ---- -- saw ---- -- --------- -- ---- -------<br>-- --------- ------ --- ----- ------ ---- --- --------- --<br>------ - ---- -- --- ----------- ------- ---- ----- -----<br>--- -------- - ------ ---- -- ----- ---- --- --- -----------<br>-- -------,172623.5,172622.79999999702,172155.258,172167.70000000298,172171.928,172638.703,,19,saw
screen,html.Screen,0_4_1_0_1_20,2021-11-05T13:06:34.318Z,,,,,,,,,,,,,,,,2,,,,,,,,,,,,,,447.8969999940309,,response,,,1,F,,,,,Space,keypress(Space),,,,instrumental,--- ---- ------ --- ------- ---------- ------- ----------<br>--- --------- --- ----------- ------- ----- ------- ---<br>--------- ---- -- --- what -- --------- -- ---- -------<br>-- --------- ------ --- ----- ------ ---- --- --------- --<br>------ - ---- -- --- ----------- ------- ---- ----- -----<br>--- -------- - ------ ---- -- ----- ---- --- --- -----------<br>-- -------,173087.39999999106,173086.59999999404,172622.033,172623.79999999702,172638.703,173088.723,,20,what
screen,html.Screen,0_4_1_0_1_21,2021-11-05T13:06:34.766Z,,,,,,,,,,,,,,,,2,,,,,,,,,,,,,,446.07699999702163,,response,,,1,F,,,,,Space,keypress(Space),,,,instrumental,--- ---- ------ --- ------- ---------- ------- ----------<br>--- --------- --- ----------- ------- ----- ------- ---<br>--------- ---- -- --- ---- he --------- -- ---- -------<br>-- --------- ------ --- ----- ------ ---- --- --------- --<br>------ - ---- -- --- ----------- ------- ---- ----- -----<br>--- -------- - ------ ---- -- ----- ---- --- --- -----------<br>-- -------,173535.5,173534.79999999702,173072.054,173087.70000000298,173088.723,173538.898,,21,he
screen,html.Screen,0_4_1_0_1_22,2021-11-05T13:06:35.230Z,,,,,,,,,,,,,,,,2,,,,,,,,,,,,,,459.80200000299374,,response,,,1,F,,,,,Space,keypress(Space),,,,instrumental,--- ---- ------ --- ------- ---------- ------- ----------<br>--- --------- --- ----------- ------- ----- ------- ---<br>--------- ---- -- --- ---- -- described -- ---- -------<br>-- --------- ------ --- ----- ------ ---- --- --------- --<br>------ - ---- -- --- ----------- ------- ---- ----- -----<br>--- -------- - ------ ---- -- ----- ---- --- --- -----------<br>-- -------,173999.5,173998.70000000298,173522.228,173535.79999999702,173538.898,174005.737,,22,described
screen,html.Screen,0_4_1_0_1_23,2021-11-05T13:06:35.702Z,,,,,,,,,,,,,,,,2,,,,,,,,,,,,,,465.3629999940458,,response,,,1,F,,,,,Space,keypress(Space),,,,instrumental,--- ---- ------ --- ------- ---------- ------- ----------<br>--- --------- --- ----------- ------- ----- ------- ---<br>--------- ---- -- --- ---- -- --------- as ---- -------<br>-- --------- ------ --- ----- ------ ---- --- --------- --<br>------ - ---- -- --- ----------- ------- ---- ----- -----<br>--- -------- - ------ ---- -- ----- ---- --- --- -----------<br>-- -------,174471.79999999702,174471.09999999404,173989.066,173999.79999999702,174005.737,174489.223,,23,as
screen,html.Screen,0_4_1_0_1_24,2021-11-05T13:06:36.158Z,,,,,,,,,,,,,,,,2,,,,,,,,,,,,,,437.3769999940414,,response,,,1,F,,,,,Space,keypress(Space),,,,instrumental,"--- ---- ------ --- ------- ---------- ------- ----------<br>--- --------- --- ----------- ------- ----- ------- ---<br>--------- ---- -- --- ---- -- --------- -- ""two -------<br>-- --------- ------ --- ----- ------ ---- --- --------- --<br>------ - ---- -- --- ----------- ------- ---- ----- -----<br>--- -------- - ------ ---- -- ----- ---- --- --- -----------<br>-- -------",174927.5,174926.59999999404,174472.552,174472.09999999404,174489.223,174939.331,,24,"""two"
screen,html.Screen,0_4_1_0_1_25,2021-11-05T13:06:36.606Z,,,,,,,,,,,,,,,,2,,,,,,,,,,,,,,435.26899999403395,,response,,,1,F,,,,,Space,keypress(Space),,,,instrumental,--- ---- ------ --- ------- ---------- ------- ----------<br>--- --------- --- ----------- ------- ----- ------- ---<br>--------- ---- -- --- ---- -- --------- -- ---- patches<br>-- --------- ------ --- ----- ------ ---- --- --------- --<br>------ - ---- -- --- ----------- ------- ---- ----- -----<br>--- -------- - ------ ---- -- ----- ---- --- --- -----------<br>-- -------,175375.5,175374.59999999404,174922.66,174927.59999999404,174939.331,175389.26,,25,patches
screen,html.Screen,0_4_1_0_1_26,2021-11-05T13:06:37.030Z,,,,,,,,,,,,,,,,2,,,,,,,,,,,,,,409.3399999940302,,response,,,1,F,,,,,Space,keypress(Space),,,,instrumental,--- ---- ------ --- ------- ---------- ------- ----------<br>--- --------- --- ----------- ------- ----- ------- ---<br>--------- ---- -- --- ---- -- --------- -- ---- -------<br>of --------- ------ --- ----- ------ ---- --- --------- --<br>------ - ---- -- --- ----------- ------- ---- ----- -----<br>--- -------- - ------ ---- -- ----- ---- --- --- -----------<br>-- -------,175799.39999999106,175798.59999999404,175372.592,175375.59999999404,175389.26,175806.13,,26,of
screen,html.Screen,0_4_1_0_1_27,2021-11-05T13:06:37.550Z,,,,,,,,,,,,,,,,2,,,,,,,,,,,,,,512.4699999940349,,response,,,1,F,,,,,Space,keypress(Space),,,,instrumental,--- ---- ------ --- ------- ---------- ------- ----------<br>--- --------- --- ----------- ------- ----- ------- ---<br>--------- ---- -- --- ---- -- --------- -- ---- -------<br>-- intensely ------ --- ----- ------ ---- --- --------- --<br>------ - ---- -- --- ----------- ------- ---- ----- -----<br>--- -------- - ------ ---- -- ----- ---- --- --- -----------<br>-- -------,176319.29999999702,176318.59999999404,175789.46,175799.59999999404,175806.13,176322.905,,27,intensely
screen,html.Screen,0_4_1_0_1_28,2021-11-05T13:06:38.006Z,,,,,,,,,,,,,,,,2,,,,,,,,,,,,,,451.59500000000116,,response,,,1,F,,,,,Space,keypress(Space),,,,instrumental,--- ---- ------ --- ------- ---------- ------- ----------<br>--- --------- --- ----------- ------- ----- ------- ---<br>--------- ---- -- --- ---- -- --------- -- ---- -------<br>-- --------- bright --- ----- ------ ---- --- --------- --<br>------ - ---- -- --- ----------- ------- ---- ----- -----<br>--- -------- - ------ ---- -- ----- ---- --- --- -----------<br>-- -------,176775.29999999702,176774.5,176306.235,176319.5,176322.905,176789.858,,28,bright
screen,html.Screen,0_4_1_0_1_29,2021-11-05T13:06:38.430Z,,,,,,,,,,,,,,,,2,,,,,,,,,,,,,,408.54199999105185,,response,,,1,F,,,,,Space,keypress(Space),,,,instrumental,--- ---- ------ --- ------- ---------- ------- ----------<br>--- --------- --- ----------- ------- ----- ------- ---<br>--------- ---- -- --- ---- -- --------- -- ---- -------<br>-- --------- ------ and ----- ------ ---- --- --------- --<br>------ - ---- -- --- ----------- ------- ---- ----- -----<br>--- -------- - ------ ---- -- ----- ---- --- --- -----------<br>-- -------,177199.29999999702,177198.39999999106,176773.186,176775.59999999404,176789.858,177206.521,,29,and
screen,html.Screen,0_4_1_0_1_30,2021-11-05T13:06:38.878Z,,,,,,,,,,,,,,,,2,,,,,,,,,,,,,,439.77899999701185,,response,,,1,F,,,,,Space,keypress(Space),,,,instrumental,--- ---- ------ --- ------- ---------- ------- ----------<br>--- --------- --- ----------- ------- ----- ------- ---<br>--------- ---- -- --- ---- -- --------- -- ---- -------<br>-- --------- ------ --- white ------ ---- --- --------- --<br>------ - ---- -- --- ----------- ------- ---- ----- -----<br>--- -------- - ------ ---- -- ----- ---- --- --- -----------<br>-- -------,177647.09999999404,177646.29999999702,177189.851,177199.70000000298,177206.521,177656.619,,30,white
screen,html.Screen,0_4_1_0_1_31,2021-11-05T13:06:39.326Z,,,,,,,,,,,,,,,,2,,,,,,,,,,,,,,437.6809999970137,,response,,,1,F,,,,,Space,keypress(Space),,,,instrumental,"--- ---- ------ --- ------- ---------- ------- ----------<br>--- --------- --- ----------- ------- ----- ------- ---<br>--------- ---- -- --- ---- -- --------- -- ---- -------<br>-- --------- ------ --- ----- light"" ---- --- --------- --<br>------ - ---- -- --- ----------- ------- ---- ----- -----<br>--- -------- - ------ ---- -- ----- ---- --- --- -----------<br>-- -------",178095.09999999404,178094.29999999702,177639.949,177647.29999999702,177656.619,178106.788,,31,"light"""
screen,html.Screen,0_4_1_0_1_32,2021-11-05T13:06:39.750Z,,,,,,,,,,,,,,,,2,,,,,,,,,,,,,,411.61199999105884,,response,,,1,F,,,,,Space,keypress(Space),,,,instrumental,--- ---- ------ --- ------- ---------- ------- ----------<br>--- --------- --- ----------- ------- ----- ------- ---<br>--------- ---- -- --- ---- -- --------- -- ---- -------<br>-- --------- ------ --- ----- ------ over --- --------- --<br>------ - ---- -- --- ----------- ------- ---- ----- -----<br>--- -------- - ------ ---- -- ----- ---- --- --- -----------<br>-- -------,178519.09999999404,178518.39999999106,178090.117,178095.39999999106,178106.788,178523.372,,32,over
screen,html.Screen,0_4_1_0_1_33,2021-11-05T13:06:40.206Z,,,,,,,,,,,,,,,,2,,,,,,,,,,,,,,450.92799999701674,,response,,,1,F,,,,,Space,keypress(Space),,,,instrumental,--- ---- ------ --- ------- ---------- ------- ----------<br>--- --------- --- ----------- ------- ----- ------- ---<br>--------- ---- -- --- ---- -- --------- -- ---- -------<br>-- --------- ------ --- ----- ------ ---- the --------- --<br>------ - ---- -- --- ----------- ------- ---- ----- -----<br>--- -------- - ------ ---- -- ----- ---- --- --- -----------<br>-- -------,178975.20000000298,178974.29999999702,178506.704,178519.39999999106,178523.372,178990.386,,33,the
screen,html.Screen,0_4_1_0_1_34,2021-11-05T13:06:40.694Z,,,,,,,,,,,,,,,,2,,,,,,,,,,,,,,472.0139999910607,,response,,,1,F,,,,,Space,keypress(Space),,,,instrumental,--- ---- ------ --- ------- ---------- ------- ----------<br>--- --------- --- ----------- ------- ----- ------- ---<br>--------- ---- -- --- ---- -- --------- -- ---- -------<br>-- --------- ------ --- ----- ------ ---- --- sunspots. --<br>------ - ---- -- --- ----------- ------- ---- ----- -----<br>--- -------- - ------ ---- -- ----- ---- --- --- -----------<br>-- -------,179463.39999999106,179462.39999999106,178973.714,178975.39999999106,178990.386,179473.662,,34,sunspots.
screen,html.Screen,0_4_1_0_1_35,2021-11-05T13:06:41.166Z,,,,,,,,,,,,,,,,2,,,,,,,,,,,,,,460.6379999970086,,response,,,1,F,,,,,Space,keypress(Space),,,,instrumental,--- ---- ------ --- ------- ---------- ------- ----------<br>--- --------- --- ----------- ------- ----- ------- ---<br>--------- ---- -- --- ---- -- --------- -- ---- -------<br>-- --------- ------ --- ----- ------ ---- --- --------- He<br>------ - ---- -- --- ----------- ------- ---- ----- -----<br>--- -------- - ------ ---- -- ----- ---- --- --- -----------<br>-- -------,179935.09999999404,179934.29999999702,179456.993,179463.59999999404,179473.662,179940.583,,35,He
screen,html.Screen,0_4_1_0_1_36,2021-11-05T13:06:41.622Z,,,,,,,,,,,,,,,,2,,,,,,,,,,,,,,449.7169999970065,,response,,,1,F,,,,,Space,keypress(Space),,,,instrumental,--- ---- ------ --- ------- ---------- ------- ----------<br>--- --------- --- ----------- ------- ----- ------- ---<br>--------- ---- -- --- ---- -- --------- -- ---- -------<br>-- --------- ------ --- ----- ------ ---- --- --------- --<br>jotted - ---- -- --- ----------- ------- ---- ----- -----<br>--- -------- - ------ ---- -- ----- ---- --- --- -----------<br>-- -------,180391.09999999404,180390.29999999702,179923.912,179935.29999999702,179940.583,180407.36,,36,jotted
screen,html.Screen,0_4_1_0_1_37,2021-11-05T13:06:42.113Z,,,,,,,,,,,,,,,,2,,,,,,,,,,,,,,470.93999999703374,,response,,,1,F,,,,,Space,keypress(Space),,,,instrumental,--- ---- ------ --- ------- ---------- ------- ----------<br>--- --------- --- ----------- ------- ----- ------- ---<br>--------- ---- -- --- ---- -- --------- -- ---- -------<br>-- --------- ------ --- ----- ------ ---- --- --------- --<br>------ a ---- -- --- ----------- ------- ---- ----- -----<br>--- -------- - ------ ---- -- ----- ---- --- --- -----------<br>-- -------,180879,180878.29999999702,180390.689,180391.29999999702,180407.36,180890.743,,37,a
screen,html.Screen,0_4_1_0_1_38,2021-11-05T13:06:42.537Z,,,,,,,,,,,,,,,,2,,,,,,,,,,,,,,411.4570000029926,,response,,,1,F,,,,,Space,keypress(Space),,,,instrumental,--- ---- ------ --- ------- ---------- ------- ----------<br>--- --------- --- ----------- ------- ----- ------- ---<br>--------- ---- -- --- ---- -- --------- -- ---- -------<br>-- --------- ------ --- ----- ------ ---- --- --------- --<br>------ - note -- --- ----------- ------- ---- ----- -----<br>--- -------- - ------ ---- -- ----- ---- --- --- -----------<br>-- -------,181303.09999999404,181302.20000000298,180874.073,180879.29999999702,180890.743,181307.518,,38,note
screen,html.Screen,0_4_1_0_1_39,2021-11-05T13:06:42.969Z,,,,,,,,,,,,,,,,2,,,,,,,,,,,,,,426.5819999940286,,response,,,1,F,,,,,Space,keypress(Space),,,,instrumental,--- ---- ------ --- ------- ---------- ------- ----------<br>--- --------- --- ----------- ------- ----- ------- ---<br>--------- ---- -- --- ---- -- --------- -- ---- -------<br>-- --------- ------ --- ----- ------ ---- --- --------- --<br>------ - ---- in --- ----------- ------- ---- ----- -----<br>--- -------- - ------ ---- -- ----- ---- --- --- -----------<br>-- -------,181734.89999999106,181734.09999999404,181290.848,181303.39999999106,181307.518,181741.021,,39,in
screen,html.Screen,0_4_1_0_1_40,2021-11-05T13:06:43.385Z,,,,,,,,,,,,,,,,2,,,,,,,,,,,,,,409.1790000029723,,response,,,1,F,,,,,Space,keypress(Space),,,,instrumental,--- ---- ------ --- ------- ---------- ------- ----------<br>--- --------- --- ----------- ------- ----- ------- ---<br>--------- ---- -- --- ---- -- --------- -- ---- -------<br>-- --------- ------ --- ----- ------ ---- --- --------- --<br>------ - ---- -- his ----------- ------- ---- ----- -----<br>--- -------- - ------ ---- -- ----- ---- --- --- -----------<br>-- -------,182151,182150.20000000298,181724.35,181735.09999999404,181741.021,182157.756,,40,his
screen,html.Screen,0_4_1_0_1_41,2021-11-05T13:06:44.137Z,,,,,,,,,,,,,,,,2,,,,,,,,,,,,,,744.3439999940456,,response,,,1,F,,,,,Space,keypress(Space),,,,instrumental,--- ---- ------ --- ------- ---------- ------- ----------<br>--- --------- --- ----------- ------- ----- ------- ---<br>--------- ---- -- --- ---- -- --------- -- ---- -------<br>-- --------- ------ --- ----- ------ ---- --- --------- --<br>------ - ---- -- --- painstaking ------- ---- ----- -----<br>--- -------- - ------ ---- -- ----- ---- --- --- -----------<br>-- -------,182902.89999999106,182902.09999999404,182141.086,182151.20000000298,182157.756,182907.73,,41,painstaking
screen,html.Screen,0_4_1_0_1_42,2021-11-05T13:06:44.705Z,,,,,,,,,,,,,,,,2,,,,,,,,,,,,,,562.3699999940291,,response,,,1,F,,,,,Space,keypress(Space),,,,instrumental,--- ---- ------ --- ------- ---------- ------- ----------<br>--- --------- --- ----------- ------- ----- ------- ---<br>--------- ---- -- --- ---- -- --------- -- ---- -------<br>-- --------- ------ --- ----- ------ ---- --- --------- --<br>------ - ---- -- --- ----------- record. ---- ----- -----<br>--- -------- - ------ ---- -- ----- ---- --- --- -----------<br>-- -------,183471,183470.09999999404,182891.062,182903.20000000298,182907.73,183474.851,,42,record.
screen,html.Screen,0_4_1_0_1_43,2021-11-05T13:06:45.201Z,,,,,,,,,,,,,,,,2,,,,,,,,,,,,,,491.1490000000049,,response,,,1,F,,,,,Space,keypress(Space),,,,instrumental,--- ---- ------ --- ------- ---------- ------- ----------<br>--- --------- --- ----------- ------- ----- ------- ---<br>--------- ---- -- --- ---- -- --------- -- ---- -------<br>-- --------- ------ --- ----- ------ ---- --- --------- --<br>------ - ---- -- --- ----------- ------- That ----- -----<br>--- -------- - ------ ---- -- ----- ---- --- --- -----------<br>-- -------,183966.79999999702,183966,183458.179,183471.20000000298,183474.851,183974.916,,43,That
screen,html.Screen,0_4_1_0_1_44,2021-11-05T13:06:45.705Z,,,,,,,,,,,,,,,,2,,,,,,,,,,,,,,495.08400000000256,,response,,,1,F,,,,,Space,keypress(Space),,,,instrumental,--- ---- ------ --- ------- ---------- ------- ----------<br>--- --------- --- ----------- ------- ----- ------- ---<br>--------- ---- -- --- ---- -- --------- -- ---- -------<br>-- --------- ------ --- ----- ------ ---- --- --------- --<br>------ - ---- -- --- ----------- ------- ---- night -----<br>--- -------- - ------ ---- -- ----- ---- --- --- -----------<br>-- -------,184470.79999999702,184470,183958.245,183967,183974.916,184474.97,,44,night
screen,html.Screen,0_4_1_0_1_45,2021-11-05T13:06:46.241Z,,,,,,,,,,,,,,,,2,,,,,,,,,,,,,,531.2300000029791,,response,,,1,F,,,,,Space,keypress(Space),,,,instrumental,--- ---- ------ --- ------- ---------- ------- ----------<br>--- --------- --- ----------- ------- ----- ------- ---<br>--------- ---- -- --- ---- -- --------- -- ---- -------<br>-- --------- ------ --- ----- ------ ---- --- --------- --<br>------ - ---- -- --- ----------- ------- ---- ----- there<br>--- -------- - ------ ---- -- ----- ---- --- --- -----------<br>-- -------,185007,185006.20000000298,184458.3,184471.09999999404,184474.97,185008.501,,45,there
screen,html.Screen,0_4_1_0_1_46,2021-11-05T13:06:46.729Z,,,,,,,,,,,,,,,,2,,,,,,,,,,,,,,485.4990000000107,,response,,,1,F,,,,,Space,keypress(Space),,,,instrumental,--- ---- ------ --- ------- ---------- ------- ----------<br>--- --------- --- ----------- ------- ----- ------- ---<br>--------- ---- -- --- ---- -- --------- -- ---- -------<br>-- --------- ------ --- ----- ------ ---- --- --------- --<br>------ - ---- -- --- ----------- ------- ---- ----- -----<br>was -------- - ------ ---- -- ----- ---- --- --- -----------<br>-- -------,185494.79999999702,185494,184991.83,185007.20000000298,185008.501,185508.589,,46,was
screen,html.Screen,0_4_1_0_1_47,2021-11-05T13:06:47.577Z,,,,,,,,,,,,,,,,2,,,,,,,,,,,,,,833.3109999910521,,response,,,1,F,,,,,Space,keypress(Space),,,,instrumental,--- ---- ------ --- ------- ---------- ------- ----------<br>--- --------- --- ----------- ------- ----- ------- ---<br>--------- ---- -- --- ---- -- --------- -- ---- -------<br>-- --------- ------ --- ----- ------ ---- --- --------- --<br>------ - ---- -- --- ----------- ------- ---- ----- -----<br>--- scarcely - ------ ---- -- ----- ---- --- --- -----------<br>-- -------,186342.70000000298,186341.89999999106,185491.919,185495,185508.589,186358.768,,47,scarcely
screen,html.Screen,0_4_1_0_1_48,2021-11-05T13:06:48.009Z,,,,,,,,,,,,,,,,2,,,,,,,,,,,,,,414.8319999940286,,response,,,1,F,,,,,Space,keypress(Space),,,,instrumental,--- ---- ------ --- ------- ---------- ------- ----------<br>--- --------- --- ----------- ------- ----- ------- ---<br>--------- ---- -- --- ---- -- --------- -- ---- -------<br>-- --------- ------ --- ----- ------ ---- --- --------- --<br>------ - ---- -- --- ----------- ------- ---- ----- -----<br>--- -------- a ------ ---- -- ----- ---- --- --- -----------<br>-- -------,186774.59999999404,186773.59999999404,186342.098,186342.89999999106,186358.768,186792.095,,48,a
