sender,sender_type,sender_id,timestamp,meta,,Blues,Classical,Country,Dance,Electronic,Folk,Gospel,Hip-Hop,Jazz,Latin,Musical/Film,New-age,Pop,Provo_ID,R&B,Rap,Reggae,Religious,Rock,Soul,Swing,Traditional,age,artist_name,correct,correctResponse,distraction,duration,education,ended_on,familiarity,gender,item,list,music_frequency,offensiveness,pleasantness,preference,response,response_action,snippet_file,song_name,song_rating,sound,text,time_commit,time_end,time_render,time_run,time_show,time_switch,url,word,word_ID
Instructions,html.Page,0_0,2021-11-19T13:54:19.593Z,"{""labjs_version"":""20.2.3"",""labjs_build"":{""flavor"":""production"",""commit"":""7ea907d66ca8aeef8054924ca5d82ffbe11e34e5""},""location"":""https://run.pavlovia.org/mvasilev/lab_music_c/"",""userAgent"":""Mozilla/5.0 (Windows NT 6.1; Win64; x64) AppleWebKit/537.36 (KHTML, like Gecko) Chrome/96.0.4664.45 Safari/537.36"",""platform"":""Win32"",""language"":""en-US"",""locale"":""en-US"",""timeZone"":""Europe/London"",""timezoneOffset"":0,""screen_width"":1920,""screen_height"":1080,""scroll_width"":1920,""scroll_height"":959,""window_innerWidth"":1920,""window_innerHeight"":1007,""devicePixelRatio"":1}",,,,,,,,,,,,,,,,,,,,,,,,,,,,,37911.604999999996,,form submission,,,,,,,,,,,,,,,,48358.39999985695,48357.5,10412.563,10426.799999952316,10445.895,48360.864,{},,
Headphones,html.Page,0_1,2021-11-19T13:54:25.697Z,,,,,,,,,,,,,,,,,,,,,,,,,,,,,,6100.735999904631,,form submission,,,,,,,,,,,,,,,,54462,54461.59999990463,48344.18,48358.89999985695,48360.864,54476.32,,,
Holding screen,html.Screen,0_2_0_0,2021-11-19T13:54:35.700Z,,,,,,,,,,,,,,,,,,,,,,,,,,,,,,9999.516000000003,,timeout,,,,,,,,,,,,,,,,64463,64459.17,54459.655,54462.299999952316,54476.32,64475.836,,,
screen,html.Screen,0_2_0_1_0,2021-11-19T13:54:37.339Z,,,,,,,,,,,,,,,,53,,,,,,,,,,,,,,1624.8640000476807,,response,,,99,,,,,,Space,keypress(Space),,,,,When -- ----- -- ------ - ------- --- ----------<br>------------- ------ ------ ---- ---- ------- ----- -- ----<br>-------- ------- -- ---------- --- - --- ----- ----- ----<br>---- --- --- ----- --- ---- ---- ------- ----- ---- -------<br>--- --- -- ----- -- --- ---- -- --- ---- -- ------ ------<br>--- ----- -- ----,66101.89999985695,66100.70000004768,64459.17,64463.200000047684,64475.836,66108.983,,0,When
screen,html.Screen,0_2_0_1_1,2021-11-19T13:54:38.410Z,,,,,,,,,,,,,,,,53,,,,,,,,,,,,,,1063.1169999046397,,response,,,99,,,,,,Space,keypress(Space),,,,,---- it ----- -- ------ - ------- --- ----------<br>------------- ------ ------ ---- ---- ------- ----- -- ----<br>-------- ------- -- ---------- --- - --- ----- ----- ----<br>---- --- --- ----- --- ---- ---- ------- ----- ---- -------<br>--- --- -- ----- -- --- ---- -- --- ---- -- ------ ------<br>--- ----- -- ----,67172.89999985695,67172.09999990463,66092.318,66102.20000004768,66108.983,67175.422,,1,it
screen,html.Screen,0_2_0_1_2,2021-11-19T13:54:39.338Z,,,,,,,,,,,,,,,,53,,,,,,,,,,,,,,924.6779999046266,,response,,,99,,,,,,Space,keypress(Space),,,,,---- -- comes -- ------ - ------- --- ----------<br>------------- ------ ------ ---- ---- ------- ----- -- ----<br>-------- ------- -- ---------- --- - --- ----- ----- ----<br>---- --- --- ----- --- ---- ---- ------- ----- ---- -------<br>--- --- -- ----- -- --- ---- -- --- ---- -- ------ ------<br>--- ----- -- ----,68100.79999995232,68100.09999990463,67158.758,67173.09999990463,67175.422,68108.968,,2,comes
screen,html.Screen,0_2_0_1_3,2021-11-19T13:54:40.186Z,,,,,,,,,,,,,,,,53,,,,,,,,,,,,,,839.1319999046391,,response,,,99,,,,,,Space,keypress(Space),,,,,---- -- ----- to ------ - ------- --- ----------<br>------------- ------ ------ ---- ---- ------- ----- -- ----<br>-------- ------- -- ---------- --- - --- ----- ----- ----<br>---- --- --- ----- --- ---- ---- ------- ----- ---- -------<br>--- --- -- ----- -- --- ---- -- --- ---- -- ------ ------<br>--- ----- -- ----,68948.79999995232,68948.09999990463,68092.302,68100.89999985695,68108.968,68958.804,,3,to
screen,html.Screen,0_2_0_1_4,2021-11-19T13:54:40.978Z,,,,,,,,,,,,,,,,53,,,,,,,,,,,,,,781.1959999999963,,response,,,99,,,,,,Space,keypress(Space),,,,,---- -- ----- -- having - ------- --- ----------<br>------------- ------ ------ ---- ---- ------- ----- -- ----<br>-------- ------- -- ---------- --- - --- ----- ----- ----<br>---- --- --- ----- --- ---- ---- ------- ----- ---- -------<br>--- --- -- ----- -- --- ---- -- --- ---- -- ------ ------<br>--- ----- -- ----,69740.79999995232,69740,68942.139,68949.09999990463,68958.804,69742.143,,4,having
screen,html.Screen,0_2_0_1_5,2021-11-19T13:54:41.562Z,,,,,,,,,,,,,,,,53,,,,,,,,,,,,,,581.7569998569525,,response,,,99,,,,,,Space,keypress(Space),,,,,---- -- ----- -- ------ a ------- --- ----------<br>------------- ------ ------ ---- ---- ------- ----- -- ----<br>-------- ------- -- ---------- --- - --- ----- ----- ----<br>---- --- --- ----- --- ---- ---- ------- ----- ---- -------<br>--- --- -- ----- -- --- ---- -- --- ---- -- ------ ------<br>--- ----- -- ----,70324.59999990463,70323.89999985695,69725.478,69741.09999990463,69742.143,70325.434,,5,a
screen,html.Screen,0_2_0_1_6,2021-11-19T13:54:43.298Z,,,,,,,,,,,,,,,,53,,,,,,,,,,,,,,1734.465999856955,,response,,,99,,,,,,Space,keypress(Space),,,,,---- -- ----- -- ------ - lasting --- ----------<br>------------- ------ ------ ---- ---- ------- ----- -- ----<br>-------- ------- -- ---------- --- - --- ----- ----- ----<br>---- --- --- ----- --- ---- ---- ------- ----- ---- -------<br>--- --- -- ----- -- --- ---- -- --- ---- -- ------ ------<br>--- ----- -- ----,72060.59999990463,72059.89999985695,70308.769,70324.89999985695,70325.434,72075.285,,6,lasting
screen,html.Screen,0_2_0_1_7,2021-11-19T13:54:44.114Z,,,,,,,,,,,,,,,,53,,,,,,,,,,,,,,800.5149999523128,,response,,,99,,,,,,Space,keypress(Space),,,,,---- -- ----- -- ------ - ------- and ----------<br>------------- ------ ------ ---- ---- ------- ----- -- ----<br>-------- ------- -- ---------- --- - --- ----- ----- ----<br>---- --- --- ----- --- ---- ---- ------- ----- ---- -------<br>--- --- -- ----- -- --- ---- -- --- ---- -- ------ ------<br>--- ----- -- ----,72876.5,72875.79999995232,72058.62,72060.79999995232,72075.285,72891.949,,7,and
screen,html.Screen,0_2_0_1_8,2021-11-19T13:54:45.186Z,,,,,,,,,,,,,,,,53,,,,,,,,,,,,,,1055.850999952323,,response,,,99,,,,,,Space,keypress(Space),,,,,---- -- ----- -- ------ - ------- --- fulfilling<br>------------- ------ ------ ---- ---- ------- ----- -- ----<br>-------- ------- -- ---------- --- - --- ----- ----- ----<br>---- --- --- ----- --- ---- ---- ------- ----- ---- -------<br>--- --- -- ----- -- --- ---- -- --- ---- -- ------ ------<br>--- ----- -- ----,73948.59999990463,73947.79999995232,72875.284,72876.59999990463,72891.949,73958.549,,8,fulfilling
screen,html.Screen,0_2_0_1_9,2021-11-19T13:54:47.426Z,,,,,,,,,,,,,,,,53,,,,,,,,,,,,,,2229.250999952317,,response,,,99,,,,,,Space,keypress(Space),,,,,"---- -- ----- -- ------ - ------- --- ----------<br>relationship, ------ ------ ---- ---- ------- ----- -- ----<br>-------- ------- -- ---------- --- - --- ----- ----- ----<br>---- --- --- ----- --- ---- ---- ------- ----- ---- -------<br>--- --- -- ----- -- --- ---- -- --- ---- -- ------ ------<br>--- ----- -- ----",76188.59999990463,76187.79999995232,73941.884,73948.79999995232,73958.549,76191.669,,9,"relationship,"
screen,html.Screen,0_2_0_1_10,2021-11-19T13:54:48.122Z,,,,,,,,,,,,,,,,53,,,,,,,,,,,,,,691.9309999046382,,response,,,99,,,,,,Space,keypress(Space),,,,,---- -- ----- -- ------ - ------- --- ----------<br>------------- common ------ ---- ---- ------- ----- -- ----<br>-------- ------- -- ---------- --- - --- ----- ----- ----<br>---- --- --- ----- --- ---- ---- ------- ----- ---- -------<br>--- --- -- ----- -- --- ---- -- --- ---- -- ------ ------<br>--- ----- -- ----,76884.29999995232,76883.59999990463,76175.004,76188.70000004768,76191.669,76891.608,,10,common
screen,html.Screen,0_2_0_1_11,2021-11-19T13:54:49.546Z,,,,,,,,,,,,,,,,53,,,,,,,,,,,,,,1415.892000000007,,response,,,99,,,,,,Space,keypress(Space),,,,,---- -- ----- -- ------ - ------- --- ----------<br>------------- ------ wisdom ---- ---- ------- ----- -- ----<br>-------- ------- -- ---------- --- - --- ----- ----- ----<br>---- --- --- ----- --- ---- ---- ------- ----- ---- -------<br>--- --- -- ----- -- --- ---- -- --- ---- -- ------ ------<br>--- ----- -- ----,78308.20000004768,78307.5,76874.943,76884.5,76891.608,78324.891,,11,wisdom
screen,html.Screen,0_2_0_1_12,2021-11-19T13:54:50.617Z,,,,,,,,,,,,,,,,53,,,,,,,,,,,,,,1054.5089998569456,,response,,,99,,,,,,Space,keypress(Space),,,,,---- -- ----- -- ------ - ------- --- ----------<br>------------- ------ ------ says ---- ------- ----- -- ----<br>-------- ------- -- ---------- --- - --- ----- ----- ----<br>---- --- --- ----- --- ---- ---- ------- ----- ---- -------<br>--- --- -- ----- -- --- ---- -- --- ---- -- ------ ------<br>--- ----- -- ----,79380,79379.39999985695,78308.226,78308.39999985695,78324.891,79391.536,,12,says
screen,html.Screen,0_2_0_1_13,2021-11-19T13:54:51.633Z,,,,,,,,,,,,,,,,53,,,,,,,,,,,,,,1003.7639999523235,,response,,,99,,,,,,Space,keypress(Space),,,,,---- -- ----- -- ------ - ------- --- ----------<br>------------- ------ ------ ---- that ------- ----- -- ----<br>-------- ------- -- ---------- --- - --- ----- ----- ----<br>---- --- --- ----- --- ---- ---- ------- ----- ---- -------<br>--- --- -- ----- -- --- ---- -- --- ---- -- ------ ------<br>--- ----- -- ----,80396,80395.29999995232,79374.871,79380.09999990463,79391.536,80408.105,,13,that
screen,html.Screen,0_2_0_1_14,2021-11-19T13:54:52.505Z,,,,,,,,,,,,,,,,53,,,,,,,,,,,,,,859.0950000476878,,response,,,99,,,,,,Space,keypress(Space),,,,,---- -- ----- -- ------ - ------- --- ----------<br>------------- ------ ------ ---- ---- feeling ----- -- ----<br>-------- ------- -- ---------- --- - --- ----- ----- ----<br>---- --- --- ----- --- ---- ---- ------- ----- ---- -------<br>--- --- -- ----- -- --- ---- -- --- ---- -- ------ ------<br>--- ----- -- ----,81267.89999985695,81267.20000004768,80391.44,80396.09999990463,80408.105,81274.72,,14,feeling
screen,html.Screen,0_2_0_1_15,2021-11-19T13:54:53.137Z,,,,,,,,,,,,,,,,53,,,,,,,,,,,,,,624.5799999523151,,response,,,99,,,,,,Space,keypress(Space),,,,,---- -- ----- -- ------ - ------- --- ----------<br>------------- ------ ------ ---- ---- ------- close -- ----<br>-------- ------- -- ---------- --- - --- ----- ----- ----<br>---- --- --- ----- --- ---- ---- ------- ----- ---- -------<br>--- --- -- ----- -- --- ---- -- --- ---- -- ------ ------<br>--- ----- -- ----,81899.89999985695,81899.29999995232,81258.055,81268.09999990463,81274.72,81908.123,,15,close
screen,html.Screen,0_2_0_1_16,2021-11-19T13:54:53.577Z,,,,,,,,,,,,,,,,53,,,,,,,,,,,,,,431.07700004767685,,response,,,99,,,,,,Space,keypress(Space),,,,,---- -- ----- -- ------ - ------- --- ----------<br>------------- ------ ------ ---- ---- ------- ----- to ----<br>-------- ------- -- ---------- --- - --- ----- ----- ----<br>---- --- --- ----- --- ---- ---- ------- ----- ---- -------<br>--- --- -- ----- -- --- ---- -- --- ---- -- ------ ------<br>--- ----- -- ----,82339.70000004768,82339.20000004768,81891.457,81900.09999990463,81908.123,82341.388,,16,to
screen,html.Screen,0_2_0_1_17,2021-11-19T13:54:54.065Z,,,,,,,,,,,,,,,,53,,,,,,,,,,,,,,485.7119999046263,,response,,,99,,,,,,Space,keypress(Space),,,,,---- -- ----- -- ------ - ------- --- ----------<br>------------- ------ ------ ---- ---- ------- ----- -- your<br>-------- ------- -- ---------- --- - --- ----- ----- ----<br>---- --- --- ----- --- ---- ---- ------- ----- ---- -------<br>--- --- -- ----- -- --- ---- -- --- ---- -- ------ ------<br>--- ----- -- ----,82827.70000004768,82827.09999990463,82324.723,82339.89999985695,82341.388,82841.344,,17,your
screen,html.Screen,0_2_0_1_18,2021-11-19T13:54:54.793Z,,,,,,,,,,,,,,,,53,,,,,,,,,,,,,,713.8560000476864,,response,,,99,,,,,,Space,keypress(Space),,,,,---- -- ----- -- ------ - ------- --- ----------<br>------------- ------ ------ ---- ---- ------- ----- -- ----<br>romantic ------- -- ---------- --- - --- ----- ----- ----<br>---- --- --- ----- --- ---- ---- ------- ----- ---- -------<br>--- --- -- ----- -- --- ---- -- --- ---- -- ------ ------<br>--- ----- -- ----,83555.79999995232,83555.20000004768,82824.679,82827.89999985695,82841.344,83557.955,,18,romantic
screen,html.Screen,0_2_0_1_19,2021-11-19T13:54:55.521Z,,,,,,,,,,,,,,,,53,,,,,,,,,,,,,,725.1449999046308,,response,,,99,,,,,,Space,keypress(Space),,,,,---- -- ----- -- ------ - ------- --- ----------<br>------------- ------ ------ ---- ---- ------- ----- -- ----<br>-------- partner -- ---------- --- - --- ----- ----- ----<br>---- --- --- ----- --- ---- ---- ------- ----- ---- -------<br>--- --- -- ----- -- --- ---- -- --- ---- -- ------ ------<br>--- ----- -- ----,84283.70000004768,84283.09999990463,83541.29,83556,83557.955,84291.233,,19,partner
screen,html.Screen,0_2_0_1_20,2021-11-19T13:54:56.113Z,,,,,,,,,,,,,,,,53,,,,,,,,,,,,,,583.8669999046397,,response,,,99,,,,,,Space,keypress(Space),,,,,---- -- ----- -- ------ - ------- --- ----------<br>------------- ------ ------ ---- ---- ------- ----- -- ----<br>-------- ------- is ---------- --- - --- ----- ----- ----<br>---- --- --- ----- --- ---- ---- ------- ----- ---- -------<br>--- --- -- ----- -- --- ---- -- --- ---- -- ------ ------<br>--- ----- -- ----,84875.70000004768,84875.09999990463,84274.568,84283.89999985695,84291.233,84891.213,,20,is
screen,html.Screen,0_2_0_1_21,2021-11-19T13:54:58.409Z,,,,,,,,,,,,,,,,53,,,,,,,,,,,,,,2279.9870000476803,,response,,,99,,,,,,Space,keypress(Space),,,,,---- -- ----- -- ------ - ------- --- ----------<br>------------- ------ ------ ---- ---- ------- ----- -- ----<br>-------- ------- -- paramount. --- - --- ----- ----- ----<br>---- --- --- ----- --- ---- ---- ------- ----- ---- -------<br>--- --- -- ----- -- --- ---- -- --- ---- -- ------ ------<br>--- ----- -- ----,87171.79999995232,87171.20000004768,84874.548,84875.89999985695,84891.213,87174.356,,21,paramount.
screen,html.Screen,0_2_0_1_22,2021-11-19T13:54:59.049Z,,,,,,,,,,,,,,,,53,,,,,,,,,,,,,,636.4439999523165,,response,,,99,,,,,,Space,keypress(Space),,,,,---- -- ----- -- ------ - ------- --- ----------<br>------------- ------ ------ ---- ---- ------- ----- -- ----<br>-------- ------- -- ---------- But - --- ----- ----- ----<br>---- --- --- ----- --- ---- ---- ------- ----- ---- -------<br>--- --- -- ----- -- --- ---- -- --- ---- -- ------ ------<br>--- ----- -- ----,87811.39999985695,87810.79999995232,87157.691,87172.20000004768,87174.356,87824.34,,22,But
screen,html.Screen,0_2_0_1_23,2021-11-19T13:54:59.545Z,,,,,,,,,,,,,,,,53,,,,,,,,,,,,,,482.4599999523198,,response,,,99,,,,,,Space,keypress(Space),,,,,---- -- ----- -- ------ - ------- --- ----------<br>------------- ------ ------ ---- ---- ------- ----- -- ----<br>-------- ------- -- ---------- --- a --- ----- ----- ----<br>---- --- --- ----- --- ---- ---- ------- ----- ---- -------<br>--- --- -- ----- -- --- ---- -- --- ---- -- ------ ------<br>--- ----- -- ----,88307.39999985695,88306.79999995232,87807.675,87811.59999990463,87824.34,88324.34,,23,a
screen,html.Screen,0_2_0_1_24,2021-11-19T13:55:00.049Z,,,,,,,,,,,,,,,,53,,,,,,,,,,,,,,486.4599999523198,,response,,,99,,,,,,Space,keypress(Space),,,,,---- -- ----- -- ------ - ------- --- ----------<br>------------- ------ ------ ---- ---- ------- ----- -- ----<br>-------- ------- -- ---------- --- - new ----- ----- ----<br>---- --- --- ----- --- ---- ---- ------- ----- ---- -------<br>--- --- -- ----- -- --- ---- -- --- ---- -- ------ ------<br>--- ----- -- ----,88811.39999985695,88810.79999995232,88307.675,88307.59999990463,88324.34,88824.312,,24,new
screen,html.Screen,0_2_0_1_25,2021-11-19T13:55:00.609Z,,,,,,,,,,,,,,,,53,,,,,,,,,,,,,,546.4879999523109,,response,,,99,,,,,,Space,keypress(Space),,,,,---- -- ----- -- ------ - ------- --- ----------<br>------------- ------ ------ ---- ---- ------- ----- -- ----<br>-------- ------- -- ---------- --- - --- study ----- ----<br>---- --- --- ----- --- ---- ---- ------- ----- ---- -------<br>--- --- -- ----- -- --- ---- -- --- ---- -- ------ ------<br>--- ----- -- ----,89371.39999985695,89370.79999995232,88807.647,88811.59999990463,88824.312,89374.19,,25,study
screen,html.Screen,0_2_0_1_26,2021-11-19T13:55:01.113Z,,,,,,,,,,,,,,,,53,,,,,,,,,,,,,,500.60999995231396,,response,,,99,,,,,,Space,keypress(Space),,,,,---- -- ----- -- ------ - ------- --- ----------<br>------------- ------ ------ ---- ---- ------- ----- -- ----<br>-------- ------- -- ---------- --- - --- ----- finds ----<br>---- --- --- ----- --- ---- ---- ------- ----- ---- -------<br>--- --- -- ----- -- --- ---- -- --- ---- -- ------ ------<br>--- ----- -- ----,89875.39999985695,89874.79999995232,89357.526,89371.5,89374.19,89890.95,,26,finds
screen,html.Screen,0_2_0_1_27,2021-11-19T13:55:01.577Z,,,,,,,,,,,,,,,,53,,,,,,,,,,,,,,447.6499999046355,,response,,,99,,,,,,Space,keypress(Space),,,,,---- -- ----- -- ------ - ------- --- ----------<br>------------- ------ ------ ---- ---- ------- ----- -- ----<br>-------- ------- -- ---------- --- - --- ----- ----- that<br>---- --- --- ----- --- ---- ---- ------- ----- ---- -------<br>--- --- -- ----- -- --- ---- -- --- ---- -- ------ ------<br>--- ----- -- ----,90339.20000004768,90338.59999990463,89874.284,89875.59999990463,89890.95,90340.851,,27,that
screen,html.Screen,0_2_0_1_28,2021-11-19T13:55:02.145Z,,,,,,,,,,,,,,,,53,,,,,,,,,,,,,,565.8490000476886,,response,,,99,,,,,,Space,keypress(Space),,,,,---- -- ----- -- ------ - ------- --- ----------<br>------------- ------ ------ ---- ---- ------- ----- -- ----<br>-------- ------- -- ---------- --- - --- ----- ----- ----<br>it's --- --- ----- --- ---- ---- ------- ----- ---- -------<br>--- --- -- ----- -- --- ---- -- --- ---- -- ------ ------<br>--- ----- -- ----,90907.20000004768,90906.70000004768,90324.186,90339.39999985695,90340.851,90924.22,,28,it's
screen,html.Screen,0_2_0_1_29,2021-11-19T13:55:02.633Z,,,,,,,,,,,,,,,,53,,,,,,,,,,,,,,470.48000004768255,,response,,,99,,,,,,Space,keypress(Space),,,,,---- -- ----- -- ------ - ------- --- ----------<br>------------- ------ ------ ---- ---- ------- ----- -- ----<br>-------- ------- -- ---------- --- - --- ----- ----- ----<br>---- not --- ----- --- ---- ---- ------- ----- ---- -------<br>--- --- -- ----- -- --- ---- -- --- ---- -- ------ ------<br>--- ----- -- ----,91395.20000004768,91394.70000004768,90907.554,90907.39999985695,90924.22,91407.475,,29,not
screen,html.Screen,0_2_0_1_30,2021-11-19T13:55:03.409Z,,,,,,,,,,,,,,,,53,,,,,,,,,,,,,,763.1249999046267,,response,,,99,,,,,,Space,keypress(Space),,,,,---- -- ----- -- ------ - ------- --- ----------<br>------------- ------ ------ ---- ---- ------- ----- -- ----<br>-------- ------- -- ---------- --- - --- ----- ----- ----<br>---- --- how ----- --- ---- ---- ------- ----- ---- -------<br>--- --- -- ----- -- --- ---- -- --- ---- -- ------ ------<br>--- ----- -- ----,92171.20000004768,92170.59999990463,91390.81,91395.29999995232,91407.475,92173.981,,30,how
screen,html.Screen,0_2_0_1_31,2021-11-19T13:55:04.153Z,,,,,,,,,,,,,,,,53,,,,,,,,,,,,,,740.6189999046328,,response,,,99,,,,,,Space,keypress(Space),,,,,---- -- ----- -- ------ - ------- --- ----------<br>------------- ------ ------ ---- ---- ------- ----- -- ----<br>-------- ------- -- ---------- --- - --- ----- ----- ----<br>---- --- --- close --- ---- ---- ------- ----- ---- -------<br>--- --- -- ----- -- --- ---- -- --- ---- -- ------ ------<br>--- ----- -- ----,92915.09999990463,92914.59999990463,92157.317,92171.29999995232,92173.981,92924.133,,31,close
screen,html.Screen,0_2_0_1_32,2021-11-19T13:55:04.536Z,,,,,,,,,,,,,,,,53,,,,,,,,,,,,,,374.36699999999837,,response,,,99,,,,,,Space,keypress(Space),,,,,---- -- ----- -- ------ - ------- --- ----------<br>------------- ------ ------ ---- ---- ------- ----- -- ----<br>-------- ------- -- ---------- --- - --- ----- ----- ----<br>---- --- --- ----- you ---- ---- ------- ----- ---- -------<br>--- --- -- ----- -- --- ---- -- --- ---- -- ------ ------<br>--- ----- -- ----,93299.09999990463,93298.5,92907.467,92915.39999985695,92924.133,93307.33,,32,you
screen,html.Screen,0_2_0_1_33,2021-11-19T13:55:05.033Z,,,,,,,,,,,,,,,,53,,,,,,,,,,,,,,487.16999999999825,,response,,,99,,,,,,Space,keypress(Space),,,,,---- -- ----- -- ------ - ------- --- ----------<br>------------- ------ ------ ---- ---- ------- ----- -- ----<br>-------- ------- -- ---------- --- - --- ----- ----- ----<br>---- --- --- ----- --- feel ---- ------- ----- ---- -------<br>--- --- -- ----- -- --- ---- -- --- ---- -- ------ ------<br>--- ----- -- ----,93795.09999990463,93794.5,93290.665,93299.20000004768,93307.33,93807.314,,33,feel
screen,html.Screen,0_2_0_1_34,2021-11-19T13:55:05.496Z,,,,,,,,,,,,,,,,53,,,,,,,,,,,,,,451.1860000000015,,response,,,99,,,,,,Space,keypress(Space),,,,,---- -- ----- -- ------ - ------- --- ----------<br>------------- ------ ------ ---- ---- ------- ----- -- ----<br>-------- ------- -- ---------- --- - --- ----- ----- ----<br>---- --- --- ----- --- ---- that ------- ----- ---- -------<br>--- --- -- ----- -- --- ---- -- --- ---- -- ------ ------<br>--- ----- -- ----,94259,94258.5,93790.649,93795.29999995232,93807.314,94274.028,,34,that
screen,html.Screen,0_2_0_1_35,2021-11-19T13:55:06.169Z,,,,,,,,,,,,,,,,53,,,,,,,,,,,,,,656.3719998569431,,response,,,99,,,,,,Space,keypress(Space),,,,,---- -- ----- -- ------ - ------- --- ----------<br>------------- ------ ------ ---- ---- ------- ----- -- ----<br>-------- ------- -- ---------- --- - --- ----- ----- ----<br>---- --- --- ----- --- ---- ---- matters ----- ---- -------<br>--- --- -- ----- -- --- ---- -- --- ---- -- ------ ------<br>--- ----- -- ----,94931.09999990463,94930.39999985695,94257.362,94259.20000004768,94274.028,94940.591,,35,matters
screen,html.Screen,0_2_0_1_36,2021-11-19T13:55:07.297Z,,,,,,,,,,,,,,,,53,,,,,,,,,,,,,,1117.8089998569485,,response,,,99,,,,,,Space,keypress(Space),,,,,"---- -- ----- -- ------ - ------- --- ----------<br>------------- ------ ------ ---- ---- ------- ----- -- ----<br>-------- ------- -- ---------- --- - --- ----- ----- ----<br>---- --- --- ----- --- ---- ---- ------- most, ---- -------<br>--- --- -- ----- -- --- ---- -- --- ---- -- ------ ------<br>--- ----- -- ----",96059.20000004768,96058.39999985695,94923.926,94931.29999995232,94940.591,96073.829,,36,"most,"
screen,html.Screen,0_2_0_1_37,2021-11-19T13:55:07.880Z,,,,,,,,,,,,,,,,53,,,,,,,,,,,,,,568.570999856951,,response,,,99,,,,,,Space,keypress(Space),,,,,---- -- ----- -- ------ - ------- --- ----------<br>------------- ------ ------ ---- ---- ------- ----- -- ----<br>-------- ------- -- ---------- --- - --- ----- ----- ----<br>---- --- --- ----- --- ---- ---- ------- ----- it's -------<br>--- --- -- ----- -- --- ---- -- --- ---- -- ------ ------<br>--- ----- -- ----,96643,96642.39999985695,96057.164,96059.29999995232,96073.829,96657.038,,37,it's
screen,html.Screen,0_2_0_1_38,2021-11-19T13:55:08.849Z,,,,,,,,,,,,,,,,53,,,,,,,,,,,,,,953.4619999999995,,response,,,99,,,,,,Space,keypress(Space),,,,,---- -- ----- -- ------ - ------- --- ----------<br>------------- ------ ------ ---- ---- ------- ----- -- ----<br>-------- ------- -- ---------- --- - --- ----- ----- ----<br>---- --- --- ----- --- ---- ---- ------- ----- ---- whether<br>--- --- -- ----- -- --- ---- -- --- ---- -- ------ ------<br>--- ----- -- ----,97611.09999990463,97610.5,96640.374,96643.09999990463,96657.038,97623.712,,38,whether
screen,html.Screen,0_2_0_1_39,2021-11-19T13:55:09.512Z,,,,,,,,,,,,,,,,53,,,,,,,,,,,,,,650.4880000476842,,response,,,99,,,,,,Space,keypress(Space),,,,,---- -- ----- -- ------ - ------- --- ----------<br>------------- ------ ------ ---- ---- ------- ----- -- ----<br>-------- ------- -- ---------- --- - --- ----- ----- ----<br>---- --- --- ----- --- ---- ---- ------- ----- ---- -------<br>you --- -- ----- -- --- ---- -- --- ---- -- ------ ------<br>--- ----- -- ----,98274.89999985695,98274.20000004768,97607.047,97611.29999995232,97623.712,98290.488,,39,you
screen,html.Screen,0_2_0_1_40,2021-11-19T13:55:10.088Z,,,,,,,,,,,,,,,,53,,,,,,,,,,,,,,559.7120000476862,,response,,,99,,,,,,Space,keypress(Space),,,,,---- -- ----- -- ------ - ------- --- ----------<br>------------- ------ ------ ---- ---- ------- ----- -- ----<br>-------- ------- -- ---------- --- - --- ----- ----- ----<br>---- --- --- ----- --- ---- ---- ------- ----- ---- -------<br>--- are -- ----- -- --- ---- -- --- ---- -- ------ ------<br>--- ----- -- ----,98850.79999995232,98850.20000004768,98273.822,98275.09999990463,98290.488,98856.985,,40,are
screen,html.Screen,0_2_0_1_41,2021-11-19T13:55:10.632Z,,,,,,,,,,,,,,,,53,,,,,,,,,,,,,,537.114999904632,,response,,,99,,,,,,Space,keypress(Space),,,,,---- -- ----- -- ------ - ------- --- ----------<br>------------- ------ ------ ---- ---- ------- ----- -- ----<br>-------- ------- -- ---------- --- - --- ----- ----- ----<br>---- --- --- ----- --- ---- ---- ------- ----- ---- -------<br>--- --- as ----- -- --- ---- -- --- ---- -- ------ ------<br>--- ----- -- ----,99394.70000004768,99394.09999990463,98840.32,98851,98856.985,99407.056,,41,as
screen,html.Screen,0_2_0_1_42,2021-11-19T13:55:11.184Z,,,,,,,,,,,,,,,,53,,,,,,,,,,,,,,539.0439999046357,,response,,,99,,,,,,Space,keypress(Space),,,,,---- -- ----- -- ------ - ------- --- ----------<br>------------- ------ ------ ---- ---- ------- ----- -- ----<br>-------- ------- -- ---------- --- - --- ----- ----- ----<br>---- --- --- ----- --- ---- ---- ------- ----- ---- -------<br>--- --- -- close -- --- ---- -- --- ---- -- ------ ------<br>--- ----- -- ----,99946.59999990463,99946.09999990463,99390.39,99394.89999985695,99407.056,99956.954,,42,close
screen,html.Screen,0_2_0_1_43,2021-11-19T13:55:11.640Z,,,,,,,,,,,,,,,,53,,,,,,,,,,,,,,445.0460000000021,,response,,,99,,,,,,Space,keypress(Space),,,,,---- -- ----- -- ------ - ------- --- ----------<br>------------- ------ ------ ---- ---- ------- ----- -- ----<br>-------- ------- -- ---------- --- - --- ----- ----- ----<br>---- --- --- ----- --- ---- ---- ------- ----- ---- -------<br>--- --- -- ----- as --- ---- -- --- ---- -- ------ ------<br>--- ----- -- ----,100402.59999990463,100402,99940.289,99946.89999985695,99956.954,100406.929,,43,as
screen,html.Screen,0_2_0_1_44,2021-11-19T13:55:12.264Z,,,,,,,,,,,,,,,,53,,,,,,,,,,,,,,619.0709999999963,,response,,,99,,,,,,Space,keypress(Space),,,,,---- -- ----- -- ------ - ------- --- ----------<br>------------- ------ ------ ---- ---- ------- ----- -- ----<br>-------- ------- -- ---------- --- - --- ----- ----- ----<br>---- --- --- ----- --- ---- ---- ------- ----- ---- -------<br>--- --- -- ----- -- you ---- -- --- ---- -- ------ ------<br>--- ----- -- ----,101026.59999990463,101026,100390.264,100402.79999995232,100406.929,101040.219,,44,you
screen,html.Screen,0_2_0_1_45,2021-11-19T13:55:12.920Z,,,,,,,,,,,,,,,,53,,,,,,,,,,,,,,641.7810000000027,,response,,,99,,,,,,Space,keypress(Space),,,,,---- -- ----- -- ------ - ------- --- ----------<br>------------- ------ ------ ---- ---- ------- ----- -- ----<br>-------- ------- -- ---------- --- - --- ----- ----- ----<br>---- --- --- ----- --- ---- ---- ------- ----- ---- -------<br>--- --- -- ----- -- --- want -- --- ---- -- ------ ------<br>--- ----- -- ----,101682.59999990463,101682,101023.554,101026.79999995232,101040.219,101690.077,,45,want
screen,html.Screen,0_2_0_1_46,2021-11-19T13:55:13.424Z,,,,,,,,,,,,,,,,53,,,,,,,,,,,,,,495.9229999999952,,response,,,99,,,,,,Space,keypress(Space),,,,,---- -- ----- -- ------ - ------- --- ----------<br>------------- ------ ------ ---- ---- ------- ----- -- ----<br>-------- ------- -- ---------- --- - --- ----- ----- ----<br>---- --- --- ----- --- ---- ---- ------- ----- ---- -------<br>--- --- -- ----- -- --- ---- to --- ---- -- ------ ------<br>--- ----- -- ----,102186.5,102186,101673.413,101682.79999995232,101690.077,102190.19,,46,to
screen,html.Screen,0_2_0_1_47,2021-11-19T13:55:14.072Z,,,,,,,,,,,,,,,,53,,,,,,,,,,,,,,643.7099998569465,,response,,,99,,,,,,Space,keypress(Space),,,,,"---- -- ----- -- ------ - ------- --- ----------<br>------------- ------ ------ ---- ---- ------- ----- -- ----<br>-------- ------- -- ---------- --- - --- ----- ----- ----<br>---- --- --- ----- --- ---- ---- ------- ----- ---- -------<br>--- --- -- ----- -- --- ---- -- be, ---- -- ------ ------<br>--- ----- -- ----",102834.59999990463,102833.89999985695,102173.524,102186.59999990463,102190.19,102840.08,,47,"be,"
screen,html.Screen,0_2_0_1_48,2021-11-19T13:55:14.800Z,,,,,,,,,,,,,,,,53,,,,,,,,,,,,,,721.8199998569471,,response,,,99,,,,,,Space,keypress(Space),,,,,---- -- ----- -- ------ - ------- --- ----------<br>------------- ------ ------ ---- ---- ------- ----- -- ----<br>-------- ------- -- ---------- --- - --- ----- ----- ----<br>---- --- --- ----- --- ---- ---- ------- ----- ---- -------<br>--- --- -- ----- -- --- ---- -- --- even -- ------ ------<br>--- ----- -- ----,103562.5,103561.89999985695,102823.415,102834.70000004768,102840.08,103573.372,,48,even
screen,html.Screen,0_2_0_1_49,2021-11-19T13:55:15.384Z,,,,,,,,,,,,,,,,53,,,,,,,,,,,,,,572.5279998569458,,response,,,99,,,,,,Space,keypress(Space),,,,,---- -- ----- -- ------ - ------- --- ----------<br>------------- ------ ------ ---- ---- ------- ----- -- ----<br>-------- ------- -- ---------- --- - --- ----- ----- ----<br>---- --- --- ----- --- ---- ---- ------- ----- ---- -------<br>--- --- -- ----- -- --- ---- -- --- ---- if ------ ------<br>--- ----- -- ----,104146.39999985695,104145.89999985695,103556.707,103562.70000004768,103573.372,104156.7,,49,if
screen,html.Screen,0_2_0_1_50,2021-11-19T13:55:15.984Z,,,,,,,,,,,,,,,,53,,,,,,,,,,,,,,589.1999998569518,,response,,,99,,,,,,Space,keypress(Space),,,,,---- -- ----- -- ------ - ------- --- ----------<br>------------- ------ ------ ---- ---- ------- ----- -- ----<br>-------- ------- -- ---------- --- - --- ----- ----- ----<br>---- --- --- ----- --- ---- ---- ------- ----- ---- -------<br>--- --- -- ----- -- --- ---- -- --- ---- -- that's ------<br>--- ----- -- ----,104746.39999985695,104745.89999985695,104140.035,104146.5,104156.7,104756.672,,50,that's
screen,html.Screen,0_2_0_1_51,2021-11-19T13:55:16.664Z,,,,,,,,,,,,,,,,53,,,,,,,,,,,,,,669.1279999523103,,response,,,99,,,,,,Space,keypress(Space),,,,,---- -- ----- -- ------ - ------- --- ----------<br>------------- ------ ------ ---- ---- ------- ----- -- ----<br>-------- ------- -- ---------- --- - --- ----- ----- ----<br>---- --- --- ----- --- ---- ---- ------- ----- ---- -------<br>--- --- -- ----- -- --- ---- -- --- ---- -- ------ really<br>--- ----- -- ----,105426.39999985695,105425.79999995232,104740.007,104746.59999990463,104756.672,105439.839,,51,really
screen,html.Screen,0_2_0_1_52,2021-11-19T13:55:17.272Z,,,,,,,,,,,,,,,,53,,,,,,,,,,,,,,593.8610000476765,,response,,,99,,,,,,Space,keypress(Space),,,,,---- -- ----- -- ------ - ------- --- ----------<br>------------- ------ ------ ---- ---- ------- ----- -- ----<br>-------- ------- -- ---------- --- - --- ----- ----- ----<br>---- --- --- ----- --- ---- ---- ------- ----- ---- -------<br>--- --- -- ----- -- --- ---- -- --- ---- -- ------ ------<br>not ----- -- ----,106034.29999995232,106033.70000004768,105423.175,105426.59999990463,105439.839,106039.955,,52,not
screen,html.Screen,0_2_0_1_53,2021-11-19T13:55:17.856Z,,,,,,,,,,,,,,,,53,,,,,,,,,,,,,,577.745000047682,,response,,,99,,,,,,Space,keypress(Space),,,,,---- -- ----- -- ------ - ------- --- ----------<br>------------- ------ ------ ---- ---- ------- ----- -- ----<br>-------- ------- -- ---------- --- - --- ----- ----- ----<br>---- --- --- ----- --- ---- ---- ------- ----- ---- -------<br>--- --- -- ----- -- --- ---- -- --- ---- -- ------ ------<br>--- close -- ----,106618.29999995232,106617.70000004768,106023.289,106034.5,106039.955,106623.215,,53,close
screen,html.Screen,0_2_0_1_54,2021-11-19T13:55:18.352Z,,,,,,,,,,,,,,,,53,,,,,,,,,,,,,,490.38499990463606,,response,,,99,,,,,,Space,keypress(Space),,,,,---- -- ----- -- ------ - ------- --- ----------<br>------------- ------ ------ ---- ---- ------- ----- -- ----<br>-------- ------- -- ---------- --- - --- ----- ----- ----<br>---- --- --- ----- --- ---- ---- ------- ----- ---- -------<br>--- --- -- ----- -- --- ---- -- --- ---- -- ------ ------<br>--- ----- at ----,107114.20000004768,107113.59999990463,106606.55,106618.5,106623.215,107123.176,,54,at
screen,html.Screen,0_2_0_1_55,2021-11-19T13:55:19.896Z,,,,,,,,,,,,,,,,53,,,,,,,,,,,,,,1534.6239999523095,,response,,,99,,,,,,Space,keypress(Space),,,,,---- -- ----- -- ------ - ------- --- ----------<br>------------- ------ ------ ---- ---- ------- ----- -- ----<br>-------- ------- -- ---------- --- - --- ----- ----- ----<br>---- --- --- ----- --- ---- ---- ------- ----- ---- -------<br>--- --- -- ----- -- --- ---- -- --- ---- -- ------ ------<br>--- ----- -- all.,108658.5,108657.79999995232,107106.511,107114.39999985695,107123.176,108673.015,,55,all.
Item 99,flow.Loop,0_2_0_1,2021-11-19T13:55:19.899Z,,,,,,,,,,,,,,,,,,,,,,,,,,,,,,44181.96399995231,,completion,,,,C,,,,,,,,,,silence,,108661.20000004768,108657.79999995232,64459.17,64463.200000047684,64475.836,108673.015,,,
Question 1,html.Screen,0_2_0_2,2021-11-19T13:55:25.460Z,,,,,,,,,,,,,,,,,,,,,,,,,,,true,FALSE,,5548.784999952317,,response,,,99,C,,,,,FALSE,click #choice-2,,,,silence,,114222.89999985695,114221.79999995232,108656.35,108661.5,108673.015,114222.718,,,
Question 2,html.Screen,0_2_0_3,2021-11-19T13:55:30.599Z,,,,,,,,,,,,,,,,,,,,,,,,,,,true,TRUE,,5138.48200004769,,response,,,99,C,,,,,TRUE,click #choice-1,,,,silence,,119362,119361.20000004768,114206.053,114223.09999990463,114222.718,119372.551,,,
Item 99,flow.Sequence,0_2_0,2021-11-19T13:55:30.600Z,,,,,,,,,,,,,,,,,,,,,,,,,,,,,,64884.880000047684,,completion,,,,,,,,,,,,,,,,119362.29999995232,119361.20000004768,54459.655,54462.200000047684,54476.32,119372.551,,,
Holding screen,html.Screen,0_2_1_0,2021-11-19T13:55:40.598Z,,,,,,,,,,,,,,,,,,,,,,,,,,,,,,9999.200999999986,,timeout,,,,,,,,,,,,,,,,129356.59999990463,129355.087,119355.875,119362.5,119372.551,129371.752,,,
screen,html.Screen,0_2_1_1_0,2021-11-19T13:55:41.522Z,,,,,,,,,,,,,,,,54,,,,,,,,,,,,,,908.7480000000069,,response,,,100,,,,,,Space,keypress(Space),,,,,At --- ---- --- ------ ----- ------- ---- -- --- ------- --<br>------- ---------- ------ -- ----- -- ----- -- ---- ------<br>--- ----- --- --- ------ -------- ----- --- ------ ----- --<br>----- ----- ---------- --- --- ------ ------ ---- -- ------<br>------- --- ------ ----- --- ---- ------- -- ---- --- --<br>------- ------,130281.20000004768,130280.5,129355.087,129356.79999995232,129371.752,130288.495,,0,At
screen,html.Screen,0_2_1_1_1,2021-11-19T13:55:43.026Z,,,,,,,,,,,,,,,,54,,,,,,,,,,,,,,1495.7050000476884,,response,,,100,,,,,,Space,keypress(Space),,,,,-- the ---- --- ------ ----- ------- ---- -- --- ------- --<br>------- ---------- ------ -- ----- -- ----- -- ---- ------<br>--- ----- --- --- ------ -------- ----- --- ------ ----- --<br>----- ----- ---------- --- --- ------ ------ ---- -- ------<br>------- --- ------ ----- --- ---- ------- -- ---- --- --<br>------- ------,131784.79999995232,131784.20000004768,130271.829,130281.39999985695,130288.495,131788.256,,1,the
screen,html.Screen,0_2_1_1_2,2021-11-19T13:55:43.914Z,,,,,,,,,,,,,,,,54,,,,,,,,,,,,,,883.8439999046386,,response,,,100,,,,,,Space,keypress(Space),,,,,-- --- time --- ------ ----- ------- ---- -- --- ------- --<br>------- ---------- ------ -- ----- -- ----- -- ---- ------<br>--- ----- --- --- ------ -------- ----- --- ------ ----- --<br>----- ----- ---------- --- --- ------ ------ ---- -- ------<br>------- --- ------ ----- --- ---- ------- -- ---- --- --<br>------- ------,132672.79999995232,132672.09999990463,131771.591,131785,131788.256,132688.352,,2,time
screen,html.Screen,0_2_1_1_3,2021-11-19T13:55:44.866Z,,,,,,,,,,,,,,,,54,,,,,,,,,,,,,,935.7479999046191,,response,,,100,,,,,,Space,keypress(Space),,,,,-- --- ---- the ------ ----- ------- ---- -- --- ------- --<br>------- ---------- ------ -- ----- -- ----- -- ---- ------<br>--- ----- --- --- ------ -------- ----- --- ------ ----- --<br>----- ----- ---------- --- --- ------ ------ ---- -- ------<br>------- --- ------ ----- --- ---- ------- -- ---- --- --<br>------- ------,133624.70000004768,133624.09999990463,132671.686,132672.89999985695,132688.352,133638.205,,3,the
screen,html.Screen,0_2_1_1_4,2021-11-19T13:55:45.706Z,,,,,,,,,,,,,,,,54,,,,,,,,,,,,,,825.7950000000128,,response,,,100,,,,,,Space,keypress(Space),,,,,-- --- ---- --- French ----- ------- ---- -- --- ------- --<br>------- ---------- ------ -- ----- -- ----- -- ---- ------<br>--- ----- --- --- ------ -------- ----- --- ------ ----- --<br>----- ----- ---------- --- --- ------ ------ ---- -- ------<br>------- --- ------ ----- --- ---- ------- -- ---- --- --<br>------- ------,134464.59999990463,134464,133621.54,133624.89999985695,133638.205,134471.45,,4,French
screen,html.Screen,0_2_1_1_5,2021-11-19T13:55:46.690Z,,,,,,,,,,,,,,,,54,,,,,,,,,,,,,,976.5499999999884,,response,,,100,,,,,,Space,keypress(Space),,,,,-- --- ---- --- ------ crown ------- ---- -- --- ------- --<br>------- ---------- ------ -- ----- -- ----- -- ---- ------<br>--- ----- --- --- ------ -------- ----- --- ------ ----- --<br>----- ----- ---------- --- --- ------ ------ ---- -- ------<br>------- --- ------ ----- --- ---- ------- -- ---- --- --<br>------- ------,135448.70000004768,135448,134454.785,134464.79999995232,134471.45,135454.763,,5,crown
screen,html.Screen,0_2_1_1_6,2021-11-19T13:55:47.489Z,,,,,,,,,,,,,,,,54,,,,,,,,,,,,,,793.1369998569426,,response,,,100,,,,,,Space,keypress(Space),,,,,-- --- ---- --- ------ ----- secured ---- -- --- ------- --<br>------- ---------- ------ -- ----- -- ----- -- ---- ------<br>--- ----- --- --- ------ -------- ----- --- ------ ----- --<br>----- ----- ---------- --- --- ------ ------ ---- -- ------<br>------- --- ------ ----- --- ---- ------- -- ---- --- --<br>------- ------,136248.39999985695,136247.89999985695,135438.098,135448.79999995232,135454.763,136254.733,,6,secured
screen,html.Screen,0_2_1_1_7,2021-11-19T13:55:48.298Z,,,,,,,,,,,,,,,,54,,,,,,,,,,,,,,801.1669998569414,,response,,,100,,,,,,Space,keypress(Space),,,,,-- --- ---- --- ------ ----- ------- much -- --- ------- --<br>------- ---------- ------ -- ----- -- ----- -- ---- ------<br>--- ----- --- --- ------ -------- ----- --- ------ ----- --<br>----- ----- ---------- --- --- ------ ------ ---- -- ------<br>------- --- ------ ----- --- ---- ------- -- ---- --- --<br>------- ------,137056.59999990463,137055.89999985695,136238.068,136248.59999990463,136254.733,137071.222,,7,much
screen,html.Screen,0_2_1_1_8,2021-11-19T13:55:49.001Z,,,,,,,,,,,,,,,,54,,,,,,,,,,,,,,688.5779999523074,,response,,,100,,,,,,Space,keypress(Space),,,,,-- --- ---- --- ------ ----- ------- ---- of --- ------- --<br>------- ---------- ------ -- ----- -- ----- -- ---- ------<br>--- ----- --- --- ------ -------- ----- --- ------ ----- --<br>----- ----- ---------- --- --- ------ ------ ---- -- ------<br>------- --- ------ ----- --- ---- ------- -- ---- --- --<br>------- ------,137760.5,137759.79999995232,137054.558,137056.70000004768,137071.222,137771.277,,8,of
screen,html.Screen,0_2_1_1_9,2021-11-19T13:55:49.657Z,,,,,,,,,,,,,,,,54,,,,,,,,,,,,,,644.4230000476819,,response,,,100,,,,,,Space,keypress(Space),,,,,-- --- ---- --- ------ ----- ------- ---- -- its ------- --<br>------- ---------- ------ -- ----- -- ----- -- ---- ------<br>--- ----- --- --- ------ -------- ----- --- ------ ----- --<br>----- ----- ---------- --- --- ------ ------ ---- -- ------<br>------- --- ------ ----- --- ---- ------- -- ---- --- --<br>------- ------,138416.39999985695,138415.70000004768,137754.612,137760.59999990463,137771.277,138421.316,,9,its
screen,html.Screen,0_2_1_1_10,2021-11-19T13:55:50.609Z,,,,,,,,,,,,,,,,54,,,,,,,,,,,,,,946.3840000476921,,response,,,100,,,,,,Space,keypress(Space),,,,,-- --- ---- --- ------ ----- ------- ---- -- --- revenue --<br>------- ---------- ------ -- ----- -- ----- -- ---- ------<br>--- ----- --- --- ------ -------- ----- --- ------ ----- --<br>----- ----- ---------- --- --- ------ ------ ---- -- ------<br>------- --- ------ ----- --- ---- ------- -- ---- --- --<br>------- ------,139368.20000004768,139367.70000004768,138404.65,138416.5,138421.316,139371.167,,10,revenue
screen,html.Screen,0_2_1_1_11,2021-11-19T13:55:51.289Z,,,,,,,,,,,,,,,,54,,,,,,,,,,,,,,676.533000047697,,response,,,100,,,,,,Space,keypress(Space),,,,,-- --- ---- --- ------ ----- ------- ---- -- --- ------- by<br>------- ---------- ------ -- ----- -- ----- -- ---- ------<br>--- ----- --- --- ------ -------- ----- --- ------ ----- --<br>----- ----- ---------- --- --- ------ ------ ---- -- ------<br>------- --- ------ ----- --- ---- ------- -- ---- --- --<br>------- ------,140048.39999985695,140047.70000004768,139354.502,139368.39999985695,139371.167,140054.475,,11,by
screen,html.Screen,0_2_1_1_12,2021-11-19T13:55:51.985Z,,,,,,,,,,,,,,,,54,,,,,,,,,,,,,,689.424999856943,,response,,,100,,,,,,Space,keypress(Space),,,,,-- --- ---- --- ------ ----- ------- ---- -- --- ------- --<br>issuing ---------- ------ -- ----- -- ----- -- ---- ------<br>--- ----- --- --- ------ -------- ----- --- ------ ----- --<br>----- ----- ---------- --- --- ------ ------ ---- -- ------<br>------- --- ------ ----- --- ---- ------- -- ---- --- --<br>------- ------,140744.39999985695,140743.89999985695,140037.81,140048.59999990463,140054.475,140754.408,,12,issuing
screen,html.Screen,0_2_1_1_13,2021-11-19T13:55:52.625Z,,,,,,,,,,,,,,,,54,,,,,,,,,,,,,,629.0920000000042,,response,,,100,,,,,,Space,keypress(Space),,,,,-- --- ---- --- ------ ----- ------- ---- -- --- ------- --<br>------- government ------ -- ----- -- ----- -- ---- ------<br>--- ----- --- --- ------ -------- ----- --- ------ ----- --<br>----- ----- ---------- --- --- ------ ------ ---- -- ------<br>------- --- ------ ----- --- ---- ------- -- ---- --- --<br>------- ------,141384.09999990463,141383.5,140737.743,140744.59999990463,140754.408,141387.802,,13,government
screen,html.Screen,0_2_1_1_14,2021-11-19T13:55:54.465Z,,,,,,,,,,,,,,,,54,,,,,,,,,,,,,,1835.698000000004,,response,,,100,,,,,,Space,keypress(Space),,,,,-- --- ---- --- ------ ----- ------- ---- -- --- ------- --<br>------- ---------- bonds. -- ----- -- ----- -- ---- ------<br>--- ----- --- --- ------ -------- ----- --- ------ ----- --<br>----- ----- ---------- --- --- ------ ------ ---- -- ------<br>------- --- ------ ----- --- ---- ------- -- ---- --- --<br>------- ------,143224.09999990463,143223.5,141371.136,141384.29999995232,141387.802,143237.58,,14,bonds.
screen,html.Screen,0_2_1_1_15,2021-11-19T13:55:55.497Z,,,,,,,,,,,,,,,,54,,,,,,,,,,,,,,1017.9200000000128,,response,,,100,,,,,,Space,keypress(Space),,,,,-- --- ---- --- ------ ----- ------- ---- -- --- ------- --<br>------- ---------- ------ In ----- -- ----- -- ---- ------<br>--- ----- --- --- ------ -------- ----- --- ------ ----- --<br>----- ----- ---------- --- --- ------ ------ ---- -- ------<br>------- --- ------ ----- --- ---- ------- -- ---- --- --<br>------- ------,144256,144255.5,143220.915,143224.29999995232,143237.58,144270.708,,15,In
screen,html.Screen,0_2_1_1_16,2021-11-19T13:55:58.505Z,,,,,,,,,,,,,,,,54,,,,,,,,,,,,,,2992.591999952303,,response,,,100,,,,,,Space,keypress(Space),,,,,"-- --- ---- --- ------ ----- ------- ---- -- --- ------- --<br>------- ---------- ------ -- 1727, -- ----- -- ---- ------<br>--- ----- --- --- ------ -------- ----- --- ------ ----- --<br>----- ----- ---------- --- --- ------ ------ ---- -- ------<br>------- --- ------ ----- --- ---- ------- -- ---- --- --<br>------- ------",147263.79999995232,147263.29999995232,144254.044,144256.20000004768,144270.708,147270.625,,16,"1727,"
screen,html.Screen,0_2_1_1_17,2021-11-19T13:55:59.065Z,,,,,,,,,,,,,,,,54,,,,,,,,,,,,,,552.5750000476837,,response,,,100,,,,,,Space,keypress(Space),,,,,-- --- ---- --- ------ ----- ------- ---- -- --- ------- --<br>------- ---------- ------ -- ----- in ----- -- ---- ------<br>--- ----- --- --- ------ -------- ----- --- ------ ----- --<br>----- ----- ---------- --- --- ------ ------ ---- -- ------<br>------- --- ------ ----- --- ---- ------- -- ---- --- --<br>------- ------,147823.79999995232,147823.20000004768,147253.96,147264,147270.625,147837.287,,17,in
screen,html.Screen,0_2_1_1_18,2021-11-19T13:55:59.537Z,,,,,,,,,,,,,,,,54,,,,,,,,,,,,,,457.91300004767254,,response,,,100,,,,,,Space,keypress(Space),,,,,-- --- ---- --- ------ ----- ------- ---- -- --- ------- --<br>------- ---------- ------ -- ----- -- order -- ---- ------<br>--- ----- --- --- ------ -------- ----- --- ------ ----- --<br>----- ----- ---------- --- --- ------ ------ ---- -- ------<br>------- --- ------ ----- --- ---- ------- -- ---- --- --<br>------- ------,148295.70000004768,148295.20000004768,147820.622,147823.89999985695,147837.287,148303.967,,18,order
screen,html.Screen,0_2_1_1_19,2021-11-19T13:56:00.153Z,,,,,,,,,,,,,,,,54,,,,,,,,,,,,,,607.1329999046284,,response,,,100,,,,,,Space,keypress(Space),,,,,-- --- ---- --- ------ ----- ------- ---- -- --- ------- --<br>------- ---------- ------ -- ----- -- ----- to ---- ------<br>--- ----- --- --- ------ -------- ----- --- ------ ----- --<br>----- ----- ---------- --- --- ------ ------ ---- -- ------<br>------- --- ------ ----- --- ---- ------- -- ---- --- --<br>------- ------,148911.70000004768,148911.09999990463,148287.302,148295.79999995232,148303.967,148920.663,,19,to
screen,html.Screen,0_2_1_1_20,2021-11-19T13:56:00.705Z,,,,,,,,,,,,,,,,54,,,,,,,,,,,,,,542.4369999046321,,response,,,100,,,,,,Space,keypress(Space),,,,,-- --- ---- --- ------ ----- ------- ---- -- --- ------- --<br>------- ---------- ------ -- ----- -- ----- -- save ------<br>--- ----- --- --- ------ -------- ----- --- ------ ----- --<br>----- ----- ---------- --- --- ------ ------ ---- -- ------<br>------- --- ------ ----- --- ---- ------- -- ---- --- --<br>------- ------,149463.70000004768,149463.09999990463,148903.997,148911.79999995232,148920.663,149470.592,,20,save
screen,html.Screen,0_2_1_1_21,2021-11-19T13:56:01.433Z,,,,,,,,,,,,,,,,54,,,,,,,,,,,,,,720.4079999999958,,response,,,100,,,,,,Space,keypress(Space),,,,,"-- --- ---- --- ------ ----- ------- ---- -- --- ------- --<br>------- ---------- ------ -- ----- -- ----- -- ---- money,<br>--- ----- --- --- ------ -------- ----- --- ------ ----- --<br>----- ----- ---------- --- --- ------ ------ ---- -- ------<br>------- --- ------ ----- --- ---- ------- -- ---- --- --<br>------- ------",150191.59999990463,150191,149453.927,149463.89999985695,149470.592,150203.86,,21,"money,"
screen,html.Screen,0_2_1_1_22,2021-11-19T13:56:02.201Z,,,,,,,,,,,,,,,,54,,,,,,,,,,,,,,755.3400000476977,,response,,,100,,,,,,Space,keypress(Space),,,,,-- --- ---- --- ------ ----- ------- ---- -- --- ------- --<br>------- ---------- ------ -- ----- -- ----- -- ---- ------<br>the ----- --- --- ------ -------- ----- --- ------ ----- --<br>----- ----- ---------- --- --- ------ ------ ---- -- ------<br>------- --- ------ ----- --- ---- ------- -- ---- --- --<br>------- ------,150959.79999995232,150959.20000004768,150187.195,150191.79999995232,150203.86,150970.492,,22,the
screen,html.Screen,0_2_1_1_23,2021-11-19T13:56:02.873Z,,,,,,,,,,,,,,,,54,,,,,,,,,,,,,,660.5080000000016,,response,,,100,,,,,,Space,keypress(Space),,,,,-- --- ---- --- ------ ----- ------- ---- -- --- ------- --<br>------- ---------- ------ -- ----- -- ----- -- ---- ------<br>--- state --- --- ------ -------- ----- --- ------ ----- --<br>----- ----- ---------- --- --- ------ ------ ---- -- ------<br>------- --- ------ ----- --- ---- ------- -- ---- --- --<br>------- ------,151631.59999990463,151631,150953.827,150960,150970.492,151637.007,,23,state
screen,html.Screen,0_2_1_1_24,2021-11-19T13:56:03.441Z,,,,,,,,,,,,,,,,54,,,,,,,,,,,,,,561.8929998569365,,response,,,100,,,,,,Space,keypress(Space),,,,,-- --- ---- --- ------ ----- ------- ---- -- --- ------- --<br>------- ---------- ------ -- ----- -- ----- -- ---- ------<br>--- ----- cut --- ------ -------- ----- --- ------ ----- --<br>----- ----- ---------- --- --- ------ ------ ---- -- ------<br>------- --- ------ ----- --- ---- ------- -- ---- --- --<br>------- ------,152199.59999990463,152198.89999985695,151620.343,151631.79999995232,151637.007,152203.817,,24,cut
screen,html.Screen,0_2_1_1_25,2021-11-19T13:56:04.361Z,,,,,,,,,,,,,,,,54,,,,,,,,,,,,,,915.0829998569388,,response,,,100,,,,,,Space,keypress(Space),,,,,-- --- ---- --- ------ ----- ------- ---- -- --- ------- --<br>------- ---------- ------ -- ----- -- ----- -- ---- ------<br>--- ----- --- the ------ -------- ----- --- ------ ----- --<br>----- ----- ---------- --- --- ------ ------ ---- -- ------<br>------- --- ------ ----- --- ---- ------- -- ---- --- --<br>------- ------,153119.5,153118.89999985695,152187.151,152199.70000004768,152203.817,153137.002,,25,the
screen,html.Screen,0_2_1_1_26,2021-11-19T13:56:05.064Z,,,,,,,,,,,,,,,,54,,,,,,,,,,,,,,685.7979999523086,,response,,,100,,,,,,Space,keypress(Space),,,,,-- --- ---- --- ------ ----- ------- ---- -- --- ------- --<br>------- ---------- ------ -- ----- -- ----- -- ---- ------<br>--- ----- --- --- bonds' -------- ----- --- ------ ----- --<br>----- ----- ---------- --- --- ------ ------ ---- -- ------<br>------- --- ------ ----- --- ---- ------- -- ---- --- --<br>------- ------,153823.5,153822.79999995232,153120.337,153119.70000004768,153137.002,153836.857,,26,bonds'
screen,html.Screen,0_2_1_1_27,2021-11-19T13:56:05.760Z,,,,,,,,,,,,,,,,54,,,,,,,,,,,,,,682.0429998569598,,response,,,100,,,,,,Space,keypress(Space),,,,,-- --- ---- --- ------ ----- ------- ---- -- --- ------- --<br>------- ---------- ------ -- ----- -- ----- -- ---- ------<br>--- ----- --- --- ------ interest ----- --- ------ ----- --<br>----- ----- ---------- --- --- ------ ------ ---- -- ------<br>------- --- ------ ----- --- ---- ------- -- ---- --- --<br>------- ------,154519.39999985695,154518.89999985695,153820.193,153823.59999990463,153836.857,154520.325,,27,interest
screen,html.Screen,0_2_1_1_28,2021-11-19T13:56:06.552Z,,,,,,,,,,,,,,,,54,,,,,,,,,,,,,,790.4749999523046,,response,,,100,,,,,,Space,keypress(Space),,,,,-- --- ---- --- ------ ----- ------- ---- -- --- ------- --<br>------- ---------- ------ -- ----- -- ----- -- ---- ------<br>--- ----- --- --- ------ -------- rate. --- ------ ----- --<br>----- ----- ---------- --- --- ------ ------ ---- -- ------<br>------- --- ------ ----- --- ---- ------- -- ---- --- --<br>------- ------,155311.39999985695,155310.79999995232,154503.659,154519.59999990463,154520.325,155320.205,,28,rate.
screen,html.Screen,0_2_1_1_29,2021-11-19T13:56:07.392Z,,,,,,,,,,,,,,,,54,,,,,,,,,,,,,,830.3949999046454,,response,,,100,,,,,,Space,keypress(Space),,,,,-- --- ---- --- ------ ----- ------- ---- -- --- ------- --<br>------- ---------- ------ -- ----- -- ----- -- ---- ------<br>--- ----- --- --- ------ -------- ----- The ------ ----- --<br>----- ----- ---------- --- --- ------ ------ ---- -- ------<br>------- --- ------ ----- --- ---- ------- -- ---- --- --<br>------- ------,156151.29999995232,156150.59999990463,155303.54,155311.59999990463,155320.205,156153.452,,29,The
screen,html.Screen,0_2_1_1_30,2021-11-19T13:56:08.120Z,,,,,,,,,,,,,,,,54,,,,,,,,,,,,,,725.1479999046423,,response,,,100,,,,,,Space,keypress(Space),,,,,-- --- ---- --- ------ ----- ------- ---- -- --- ------- --<br>------- ---------- ------ -- ----- -- ----- -- ---- ------<br>--- ----- --- --- ------ -------- ----- --- market ----- --<br>----- ----- ---------- --- --- ------ ------ ---- -- ------<br>------- --- ------ ----- --- ---- ------- -- ---- --- --<br>------- ------,156879.29999995232,156878.59999990463,156136.787,156151.5,156153.452,156886.759,,30,market
screen,html.Screen,0_2_1_1_31,2021-11-19T13:56:08.792Z,,,,,,,,,,,,,,,,54,,,,,,,,,,,,,,663.7410000000091,,response,,,100,,,,,,Space,keypress(Space),,,,,-- --- ---- --- ------ ----- ------- ---- -- --- ------- --<br>------- ---------- ------ -- ----- -- ----- -- ---- ------<br>--- ----- --- --- ------ -------- ----- --- ------ value --<br>----- ----- ---------- --- --- ------ ------ ---- -- ------<br>------- --- ------ ----- --- ---- ------- -- ---- --- --<br>------- ------,157551.20000004768,157550.5,156870.094,156879.39999985695,156886.759,157553.407,,31,value
screen,html.Screen,0_2_1_1_32,2021-11-19T13:56:09.328Z,,,,,,,,,,,,,,,,54,,,,,,,,,,,,,,533.0929999999935,,response,,,100,,,,,,Space,keypress(Space),,,,,-- --- ---- --- ------ ----- ------- ---- -- --- ------- --<br>------- ---------- ------ -- ----- -- ----- -- ---- ------<br>--- ----- --- --- ------ -------- ----- --- ------ ----- of<br>----- ----- ---------- --- --- ------ ------ ---- -- ------<br>------- --- ------ ----- --- ---- ------- -- ---- --- --<br>------- ------,158087.09999990463,158086.5,157536.742,157551.29999995232,157553.407,158103.355,,32,of
screen,html.Screen,0_2_1_1_33,2021-11-19T13:56:09.784Z,,,,,,,,,,,,,,,,54,,,,,,,,,,,,,,439.0449998569384,,response,,,100,,,,,,Space,keypress(Space),,,,,-- --- ---- --- ------ ----- ------- ---- -- --- ------- --<br>------- ---------- ------ -- ----- -- ----- -- ---- ------<br>--- ----- --- --- ------ -------- ----- --- ------ ----- --<br>these ----- ---------- --- --- ------ ------ ---- -- ------<br>------- --- ------ ----- --- ---- ------- -- ---- --- --<br>------- ------,158543.09999990463,158542.39999985695,158086.69,158087.20000004768,158103.355,158553.417,,33,these
screen,html.Screen,0_2_1_1_34,2021-11-19T13:56:10.424Z,,,,,,,,,,,,,,,,54,,,,,,,,,,,,,,629.0830000000133,,response,,,100,,,,,,Space,keypress(Space),,,,,-- --- ---- --- ------ ----- ------- ---- -- --- ------- --<br>------- ---------- ------ -- ----- -- ----- -- ---- ------<br>--- ----- --- --- ------ -------- ----- --- ------ ----- --<br>----- bonds ---------- --- --- ------ ------ ---- -- ------<br>------- --- ------ ----- --- ---- ------- -- ---- --- --<br>------- ------,159183.09999990463,159182.5,158536.751,158543.20000004768,158553.417,159186.65,,34,bonds
screen,html.Screen,0_2_1_1_35,2021-11-19T13:56:11.520Z,,,,,,,,,,,,,,,,54,,,,,,,,,,,,,,1091.8500000000058,,response,,,100,,,,,,Space,keypress(Space),,,,,"-- --- ---- --- ------ ----- ------- ---- -- --- ------- --<br>------- ---------- ------ -- ----- -- ----- -- ---- ------<br>--- ----- --- --- ------ -------- ----- --- ------ ----- --<br>----- ----- plummeted, --- --- ------ ------ ---- -- ------<br>------- --- ------ ----- --- ---- ------- -- ---- --- --<br>------- ------",160279.09999990463,160278.5,159169.985,159183.20000004768,159186.65,160286.562,,35,"plummeted,"
screen,html.Screen,0_2_1_1_36,2021-11-19T13:56:12.424Z,,,,,,,,,,,,,,,,54,,,,,,,,,,,,,,896.0379999046272,,response,,,100,,,,,,Space,keypress(Space),,,,,-- --- ---- --- ------ ----- ------- ---- -- --- ------- --<br>------- ---------- ------ -- ----- -- ----- -- ---- ------<br>--- ----- --- --- ------ -------- ----- --- ------ ----- --<br>----- ----- ---------- and --- ------ ------ ---- -- ------<br>------- --- ------ ----- --- ---- ------- -- ---- --- --<br>------- ------,161183.20000004768,161182.59999990463,160269.897,160279.20000004768,160286.562,161186.536,,36,and
screen,html.Screen,0_2_1_1_37,2021-11-19T13:56:13.248Z,,,,,,,,,,,,,,,,54,,,,,,,,,,,,,,819.8639998569561,,response,,,100,,,,,,Space,keypress(Space),,,,,-- --- ---- --- ------ ----- ------- ---- -- --- ------- --<br>------- ---------- ------ -- ----- -- ----- -- ---- ------<br>--- ----- --- --- ------ -------- ----- --- ------ ----- --<br>----- ----- ---------- --- the ------ ------ ---- -- ------<br>------- --- ------ ----- --- ---- ------- -- ---- --- --<br>------- ------,162006.89999985695,162006.39999985695,161169.871,161183.5,161186.536,162019.8,,37,the
screen,html.Screen,0_2_1_1_38,2021-11-19T13:56:13.952Z,,,,,,,,,,,,,,,,54,,,,,,,,,,,,,,690.4000000476954,,response,,,100,,,,,,Space,keypress(Space),,,,,-- --- ---- --- ------ ----- ------- ---- -- --- ------- --<br>------- ---------- ------ -- ----- -- ----- -- ---- ------<br>--- ----- --- --- ------ -------- ----- --- ------ ----- --<br>----- ----- ---------- --- --- market ------ ---- -- ------<br>------- --- ------ ----- --- ---- ------- -- ---- --- --<br>------- ------,162711,162710.20000004768,162003.135,162007.09999990463,162019.8,162719.726,,38,market
screen,html.Screen,0_2_1_1_39,2021-11-19T13:56:14.592Z,,,,,,,,,,,,,,,,54,,,,,,,,,,,,,,630.5739999523212,,response,,,100,,,,,,Space,keypress(Space),,,,,-- --- ---- --- ------ ----- ------- ---- -- --- ------- --<br>------- ---------- ------ -- ----- -- ----- -- ---- ------<br>--- ----- --- --- ------ -------- ----- --- ------ ----- --<br>----- ----- ---------- --- --- ------ became ---- -- ------<br>------- --- ------ ----- --- ---- ------- -- ---- --- --<br>------- ------,163350.79999995232,163350.29999995232,162703.061,162711.09999990463,162719.726,163353.031,,39,became
screen,html.Screen,0_2_1_1_40,2021-11-19T13:56:15.096Z,,,,,,,,,,,,,,,,54,,,,,,,,,,,,,,501.1690000476956,,response,,,100,,,,,,Space,keypress(Space),,,,,-- --- ---- --- ------ ----- ------- ---- -- --- ------- --<br>------- ---------- ------ -- ----- -- ----- -- ---- ------<br>--- ----- --- --- ------ -------- ----- --- ------ ----- --<br>----- ----- ---------- --- --- ------ ------ wary -- ------<br>------- --- ------ ----- --- ---- ------- -- ---- --- --<br>------- ------,163854.70000004768,163854.20000004768,163336.366,163351.09999990463,163353.031,163869.672,,40,wary
screen,html.Screen,0_2_1_1_41,2021-11-19T13:56:15.616Z,,,,,,,,,,,,,,,,54,,,,,,,,,,,,,,504.52800004769233,,response,,,100,,,,,,Space,keypress(Space),,,,,-- --- ---- --- ------ ----- ------- ---- -- --- ------- --<br>------- ---------- ------ -- ----- -- ----- -- ---- ------<br>--- ----- --- --- ------ -------- ----- --- ------ ----- --<br>----- ----- ---------- --- --- ------ ------ ---- of ------<br>------- --- ------ ----- --- ---- ------- -- ---- --- --<br>------- ------,164374.89999985695,164374.20000004768,163853.007,163854.89999985695,163869.672,164386.329,,41,of
screen,html.Screen,0_2_1_1_42,2021-11-19T13:56:16.120Z,,,,,,,,,,,,,,,,54,,,,,,,,,,,,,,491.77099990463466,,response,,,100,,,,,,Space,keypress(Space),,,,,-- --- ---- --- ------ ----- ------- ---- -- --- ------- --<br>------- ---------- ------ -- ----- -- ----- -- ---- ------<br>--- ----- --- --- ------ -------- ----- --- ------ ----- --<br>----- ----- ---------- --- --- ------ ------ ---- -- French<br>------- --- ------ ----- --- ---- ------- -- ---- --- --<br>------- ------,164878.70000004768,164878.09999990463,164369.664,164375,164386.329,164886.304,,42,French
screen,html.Screen,0_2_1_1_43,2021-11-19T13:56:16.816Z,,,,,,,,,,,,,,,,54,,,,,,,,,,,,,,687.6959999999963,,response,,,100,,,,,,Space,keypress(Space),,,,,-- --- ---- --- ------ ----- ------- ---- -- --- ------- --<br>------- ---------- ------ -- ----- -- ----- -- ---- ------<br>--- ----- --- --- ------ -------- ----- --- ------ ----- --<br>----- ----- ---------- --- --- ------ ------ ---- -- ------<br>credit. --- ------ ----- --- ---- ------- -- ---- --- --<br>------- ------,165574.59999990463,165574,164869.639,164878.79999995232,164886.304,165586.306,,43,credit.
screen,html.Screen,0_2_1_1_44,2021-11-19T13:56:17.312Z,,,,,,,,,,,,,,,,54,,,,,,,,,,,,,,483.6939999999886,,response,,,100,,,,,,Space,keypress(Space),,,,,-- --- ---- --- ------ ----- ------- ---- -- --- ------- --<br>------- ---------- ------ -- ----- -- ----- -- ---- ------<br>--- ----- --- --- ------ -------- ----- --- ------ ----- --<br>----- ----- ---------- --- --- ------ ------ ---- -- ------<br>------- The ------ ----- --- ---- ------- -- ---- --- --<br>------- ------,166070.59999990463,166070,165569.64,165574.79999995232,165586.306,166086.232,,44,The
screen,html.Screen,0_2_1_1_45,2021-11-19T13:56:17.960Z,,,,,,,,,,,,,,,,54,,,,,,,,,,,,,,631.8679999046435,,response,,,100,,,,,,Space,keypress(Space),,,,,-- --- ---- --- ------ ----- ------- ---- -- --- ------- --<br>------- ---------- ------ -- ----- -- ----- -- ---- ------<br>--- ----- --- --- ------ -------- ----- --- ------ ----- --<br>----- ----- ---------- --- --- ------ ------ ---- -- ------<br>------- --- French ----- --- ---- ------- -- ---- --- --<br>------- ------,166718.70000004768,166718.09999990463,166069.567,166070.79999995232,166086.232,166719.515,,45,French
screen,html.Screen,0_2_1_1_46,2021-11-19T13:56:18.592Z,,,,,,,,,,,,,,,,54,,,,,,,,,,,,,,630.3849998569349,,response,,,100,,,,,,Space,keypress(Space),,,,,-- --- ---- --- ------ ----- ------- ---- -- --- ------- --<br>------- ---------- ------ -- ----- -- ----- -- ---- ------<br>--- ----- --- --- ------ -------- ----- --- ------ ----- --<br>----- ----- ---------- --- --- ------ ------ ---- -- ------<br>------- --- ------ state --- ---- ------- -- ---- --- --<br>------- ------,167350.5,167349.89999985695,166702.85,166718.89999985695,166719.515,167352.809,,46,state
screen,html.Screen,0_2_1_1_47,2021-11-19T13:56:19.159Z,,,,,,,,,,,,,,,,54,,,,,,,,,,,,,,565.1909999999916,,response,,,100,,,,,,Space,keypress(Space),,,,,-- --- ---- --- ------ ----- ------- ---- -- --- ------- --<br>------- ---------- ------ -- ----- -- ----- -- ---- ------<br>--- ----- --- --- ------ -------- ----- --- ------ ----- --<br>----- ----- ---------- --- --- ------ ------ ---- -- ------<br>------- --- ------ ----- was ---- ------- -- ---- --- --<br>------- ------,167918.5,167918,167336.144,167350.70000004768,167352.809,167919.414,,47,was
screen,html.Screen,0_2_1_1_48,2021-11-19T13:56:19.815Z,,,,,,,,,,,,,,,,54,,,,,,,,,,,,,,654.4859998569591,,response,,,100,,,,,,Space,keypress(Space),,,,,-- --- ---- --- ------ ----- ------- ---- -- --- ------- --<br>------- ---------- ------ -- ----- -- ----- -- ---- ------<br>--- ----- --- --- ------ -------- ----- --- ------ ----- --<br>----- ----- ---------- --- --- ------ ------ ---- -- ------<br>------- --- ------ ----- --- left ------- -- ---- --- --<br>------- ------,168574.5,168573.89999985695,167902.749,167918.70000004768,167919.414,168586.044,,48,left
screen,html.Screen,0_2_1_1_49,2021-11-19T13:56:20.623Z,,,,,,,,,,,,,,,,54,,,,,,,,,,,,,,795.8559998569544,,response,,,100,,,,,,Space,keypress(Space),,,,,-- --- ---- --- ------ ----- ------- ---- -- --- ------- --<br>------- ---------- ------ -- ----- -- ----- -- ---- ------<br>--- ----- --- --- ------ -------- ----- --- ------ ----- --<br>----- ----- ---------- --- --- ------ ------ ---- -- ------<br>------- --- ------ ----- --- ---- without -- ---- --- --<br>------- ------,169382.5,169381.89999985695,168569.379,168574.70000004768,168586.044,169386.005,,49,without
screen,html.Screen,0_2_1_1_50,2021-11-19T13:56:21.303Z,,,,,,,,,,,,,,,,54,,,,,,,,,,,,,,675.7949999523116,,response,,,100,,,,,,Space,keypress(Space),,,,,-- --- ---- --- ------ ----- ------- ---- -- --- ------- --<br>------- ---------- ------ -- ----- -- ----- -- ---- ------<br>--- ----- --- --- ------ -------- ----- --- ------ ----- --<br>----- ----- ---------- --- --- ------ ------ ---- -- ------<br>------- --- ------ ----- --- ---- ------- an ---- --- --<br>------- ------,170062.5,170061.79999995232,169369.34,169382.59999990463,169386.005,170069.371,,50,an
screen,html.Screen,0_2_1_1_51,2021-11-19T13:56:22.039Z,,,,,,,,,,,,,,,,54,,,,,,,,,,,,,,728.4289999523025,,response,,,100,,,,,,Space,keypress(Space),,,,,-- --- ---- --- ------ ----- ------- ---- -- --- ------- --<br>------- ---------- ------ -- ----- -- ----- -- ---- ------<br>--- ----- --- --- ------ -------- ----- --- ------ ----- --<br>----- ----- ---------- --- --- ------ ------ ---- -- ------<br>------- --- ------ ----- --- ---- ------- -- easy --- --<br>------- ------,170798.39999985695,170797.79999995232,170052.705,170062.70000004768,170069.371,170802.592,,51,easy
screen,html.Screen,0_2_1_1_52,2021-11-19T13:56:22.832Z,,,,,,,,,,,,,,,,54,,,,,,,,,,,,,,787.4079999999958,,response,,,100,,,,,,Space,keypress(Space),,,,,-- --- ---- --- ------ ----- ------- ---- -- --- ------- --<br>------- ---------- ------ -- ----- -- ----- -- ---- ------<br>--- ----- --- --- ------ -------- ----- --- ------ ----- --<br>----- ----- ---------- --- --- ------ ------ ---- -- ------<br>------- --- ------ ----- --- ---- ------- -- ---- way --<br>------- ------,171590.59999990463,171590,170785.927,170798.5,170802.592,171602.538,,52,way
screen,html.Screen,0_2_1_1_53,2021-11-19T13:56:23.559Z,,,,,,,,,,,,,,,,54,,,,,,,,,,,,,,715.1620000476833,,response,,,100,,,,,,Space,keypress(Space),,,,,-- --- ---- --- ------ ----- ------- ---- -- --- ------- --<br>------- ---------- ------ -- ----- -- ----- -- ---- ------<br>--- ----- --- --- ------ -------- ----- --- ------ ----- --<br>----- ----- ---------- --- --- ------ ------ ---- -- ------<br>------- --- ------ ----- --- ---- ------- -- ---- --- of<br>------- ------,172318.20000004768,172317.70000004768,171585.873,171590.70000004768,171602.538,172319.183,,53,of
screen,html.Screen,0_2_1_1_54,2021-11-19T13:56:24.183Z,,,,,,,,,,,,,,,,54,,,,,,,,,,,,,,622.4169999046426,,response,,,100,,,,,,Space,keypress(Space),,,,,-- --- ---- --- ------ ----- ------- ---- -- --- ------- --<br>------- ---------- ------ -- ----- -- ----- -- ---- ------<br>--- ----- --- --- ------ -------- ----- --- ------ ----- --<br>----- ----- ---------- --- --- ------ ------ ---- -- ------<br>------- --- ------ ----- --- ---- ------- -- ---- --- --<br>raising ------,172942.09999990463,172941.59999990463,172302.518,172318.39999985695,172319.183,172952.468,,54,raising
screen,html.Screen,0_2_1_1_55,2021-11-19T13:56:24.671Z,,,,,,,,,,,,,,,,54,,,,,,,,,,,,,,477.1319999046391,,response,,,100,,,,,,Space,keypress(Space),,,,,-- --- ---- --- ------ ----- ------- ---- -- --- ------- --<br>------- ---------- ------ -- ----- -- ----- -- ---- ------<br>--- ----- --- --- ------ -------- ----- --- ------ ----- --<br>----- ----- ---------- --- --- ------ ------ ---- -- ------<br>------- --- ------ ----- --- ---- ------- -- ---- --- --<br>------- money.,173430.09999990463,173429.59999990463,172935.803,172942.39999985695,172952.468,173435.745,,55,money.
Item 100,flow.Loop,0_2_1_1,2021-11-19T13:56:24.671Z,,,,,,,,,,,,,,,,,,,,,,,,,,,,,,44057.84799990464,,completion,,,,C,,,,,,,,,,silence,,173430.39999985695,173429.59999990463,129355.087,129356.70000004768,129371.752,173435.745,,,
Question 1,html.Screen,0_2_1_2,2021-11-19T13:56:28.794Z,,,,,,,,,,,,,,,,,,,,,,,,,,,true,TRUE,,4116.6549998569535,,response,,,100,C,,,,,TRUE,click #choice-1,,,,silence,,177553.20000004768,177552.39999985695,173419.08,173430.59999990463,173435.745,177568.907,,,
Question 2,html.Screen,0_2_1_3,2021-11-19T13:56:39.316Z,,,,,,,,,,,,,,,,,,,,,,,,,,,true,FALSE,,10501.692999904626,,response,,,100,C,,,,,FALSE,click #choice-2,,,,silence,,188071.39999985695,188070.59999990463,177552.241,177553.39999985695,177568.907,188084.87,,,
Item 100,flow.Sequence,0_2_1,2021-11-19T13:56:39.316Z,,,,,,,,,,,,,,,,,,,,,,,,,,,,,,68698.04899990463,,completion,,,,,,,,,,,,,,,,188071.70000004768,188070.59999990463,119355.875,119362.39999985695,119372.551,188084.87,,,
End of Practice,html.Page,0_2_2,2021-11-19T13:56:46.106Z,,,,,,,,,,,,,,,,,,,,,,,,,,,,,,6776.5299998569535,,form submission,,,,,,,,,,,,,,,,194861.79999995232,194861.39999985695,188068.205,188071.79999995232,188084.87,194867.704,,,
Practice,flow.Sequence,0_2,2021-11-19T13:56:46.106Z,,,,,,,,,,,,,,,,,,,,,,,,,,,,,,140385.07999985694,,completion,,,,,,,,,,,,,,,,194862.20000004768,194861.39999985695,54459.655,54462.200000047684,54476.32,194867.704,,,
Trap_instruction,html.Page,0_3_0,2021-11-19T13:56:53.512Z,,,,,,,,,,,,,,,,,,,,,,,,,,,,,,7400.095999952318,,form submission,,,,,,,,,,,,,,,,202268.20000004768,202267.79999995232,194851.039,194862.29999995232,194867.704,202283.786,,,
trap_trial,html.Screen,0_3_1,2021-11-19T13:56:59.549Z,,,,,,,,,,,,,,,,,,,,,,,,,,,true,1,,6020.31399990464,,response,,,,,,,,,1,click #choice-1,,,,,,208304.89999985695,208304.09999990463,202267.121,202268.5,202283.786,208310.656,,,
end of trap trial,html.Page,0_3_2,2021-11-19T13:57:05.953Z,,,,,,,,,,,,,,,,,,,,,,,,,,,,,,6397.844000000012,,form submission,,,,,,,,,,,,,,,,214708.79999995232,214708.5,208294.008,208305.09999990463,208310.656,214716.583,,,
Trap 1,flow.Sequence,0_3,2021-11-19T13:57:05.953Z,,,,,,,,,,,,,,,,,,,,,,,,,,,,,,19840.796000000002,,completion,,,,,,,,,,,,,,,,214708.89999985695,214708.5,194851.039,194862.20000004768,194867.704,214716.583,,,
Standby,html.Page,0_4_0,2021-11-19T13:57:13.944Z,,,,,,,,,,,,,,,,,,,,,,,,,,,,,,7999.192999999999,,timeout,,,,,,,,,,,,,,,,222699.79999995232,222699.111,214699.918,214709,214716.583,222715.776,,,
Holding screen,html.Screen,0_4_1_0_0,2021-11-19T13:57:20.944Z,,,,,,,,,,,,,,,,,,,,,,,,,,,,,,6999.803999999975,,timeout,,,,,,,,,,,,,,,,229699.89999985695,229698.915,222699.111,222700.09999990463,222715.776,229715.58,,,
screen,html.Screen,0_4_1_0_1_0,2021-11-19T13:57:23.495Z,,,,,,,,,,,,,,,,48,,,,,,,,,,,,,,2534.719999952329,,response,,,10,C,,,,,Space,keypress(Space),,,,instrumental,As -- --- ------ ------- --------- ----------- --------<br>--------- -------- --- ------- -- ------- ---- -- ------<br>-- --- -------- -------- ---------- ---- ---- ---- ------<br>-- --------- -- ---- -- --- -- --- ------- -- - -----<br>---------- -- -- -- ---- ----- -- ------ -- --- ------<br>-------,232251.09999990463,232250.29999995232,229698.915,229700.09999990463,229715.58,232265.385,,0,As
screen,html.Screen,0_4_1_0_1_1,2021-11-19T13:57:24.311Z,,,,,,,,,,,,,,,,48,,,,,,,,,,,,,,800.5149998569395,,response,,,10,C,,,,,Space,keypress(Space),,,,instrumental,-- in --- ------ ------- --------- ----------- --------<br>--------- -------- --- ------- -- ------- ---- -- ------<br>-- --- -------- -------- ---------- ---- ---- ---- ------<br>-- --------- -- ---- -- --- -- --- ------- -- - -----<br>---------- -- -- -- ---- ----- -- ------ -- --- ------<br>-------,233066.59999990463,233065.89999985695,232248.72,232251.29999995232,232265.385,233082.101,,1,in
screen,html.Screen,0_4_1_0_1_2,2021-11-19T13:57:25.447Z,,,,,,,,,,,,,,,,48,,,,,,,,,,,,,,1119.7989998569537,,response,,,10,C,,,,,Space,keypress(Space),,,,instrumental,-- -- the ------ ------- --------- ----------- --------<br>--------- -------- --- ------- -- ------- ---- -- ------<br>-- --- -------- -------- ---------- ---- ---- ---- ------<br>-- --------- -- ---- -- --- -- --- ------- -- - -----<br>---------- -- -- -- ---- ----- -- ------ -- --- ------<br>-------,234202.5,234201.89999985695,233065.436,233066.79999995232,233082.101,234215.331,,2,the
screen,html.Screen,0_4_1_0_1_3,2021-11-19T13:57:26.191Z,,,,,,,,,,,,,,,,48,,,,,,,,,,,,,,730.4689999523107,,response,,,10,C,,,,,Space,keypress(Space),,,,instrumental,-- -- --- United ------- --------- ----------- --------<br>--------- -------- --- ------- -- ------- ---- -- ------<br>-- --- -------- -------- ---------- ---- ---- ---- ------<br>-- --------- -- ---- -- --- -- --- ------- -- - -----<br>---------- -- -- -- ---- ----- -- ------ -- --- ------<br>-------,234946.39999985695,234945.79999995232,234198.666,234202.59999990463,234215.331,234948.73,,3,United
screen,html.Screen,0_4_1_0_1_4,2021-11-19T13:57:27.911Z,,,,,,,,,,,,,,,,48,,,,,,,,,,,,,,1716.9700000476732,,response,,,10,C,,,,,Space,keypress(Space),,,,instrumental,"-- -- --- ------ States, --------- ----------- --------<br>--------- -------- --- ------- -- ------- ---- -- ------<br>-- --- -------- -------- ---------- ---- ---- ---- ------<br>-- --------- -- ---- -- --- -- --- ------- -- - -----<br>---------- -- -- -- ---- ----- -- ------ -- --- ------<br>-------",236666.39999985695,236665.70000004768,234932.064,234946.59999990463,234948.73,236681.842,,4,"States,"
screen,html.Screen,0_4_1_0_1_5,2021-11-19T13:57:30.031Z,,,,,,,,,,,,,,,,48,,,,,,,,,,,,,,2103.8580000476795,,response,,,10,C,,,,,Space,keypress(Space),,,,instrumental,-- -- --- ------ ------- Colombian ----------- --------<br>--------- -------- --- ------- -- ------- ---- -- ------<br>-- --- -------- -------- ---------- ---- ---- ---- ------<br>-- --------- -- ---- -- --- -- --- ------- -- - -----<br>---------- -- -- -- ---- ----- -- ------ -- --- ------<br>-------,238786.20000004768,238785.70000004768,236665.177,236666.5,236681.842,238798.3,,5,Colombian
screen,html.Screen,0_4_1_0_1_6,2021-11-19T13:57:31.062Z,,,,,,,,,,,,,,,,48,,,,,,,,,,,,,,1019.2999999046442,,response,,,10,C,,,,,Space,keypress(Space),,,,instrumental,-- -- --- ------ ------- --------- legislation --------<br>--------- -------- --- ------- -- ------- ---- -- ------<br>-- --- -------- -------- ---------- ---- ---- ---- ------<br>-- --------- -- ---- -- --- -- --- ------- -- - -----<br>---------- -- -- -- ---- ----- -- ------ -- --- ------<br>-------,239818.20000004768,239817.59999990463,238781.635,238786.39999985695,238798.3,239831.633,,6,legislation
screen,html.Screen,0_4_1_0_1_7,2021-11-19T13:57:32.406Z,,,,,,,,,,,,,,,,48,,,,,,,,,,,,,,1329.8669999999984,,response,,,10,C,,,,,Space,keypress(Space),,,,instrumental,-- -- --- ------ ------- --------- ----------- requires<br>--------- -------- --- ------- -- ------- ---- -- ------<br>-- --- -------- -------- ---------- ---- ---- ---- ------<br>-- --------- -- ---- -- --- -- --- ------- -- - -----<br>---------- -- -- -- ---- ----- -- ------ -- --- ------<br>-------,241162,241161.5,239814.968,239818.39999985695,239831.633,241164.913,,7,requires
screen,html.Screen,0_4_1_0_1_8,2021-11-19T13:57:33.241Z,,,,,,,,,,,,,,,,48,,,,,,,,,,,,,,828.5869999999995,,response,,,10,C,,,,,Space,keypress(Space),,,,instrumental,-- -- --- ------ ------- --------- ----------- --------<br>travelers -------- --- ------- -- ------- ---- -- ------<br>-- --- -------- -------- ---------- ---- ---- ---- ------<br>-- --------- -- ---- -- --- -- --- ------- -- - -----<br>---------- -- -- -- ---- ----- -- ------ -- --- ------<br>-------,241994.09999990463,241993.5,241148.248,241162.29999995232,241164.913,241998.231,,8,travelers
screen,html.Screen,0_4_1_0_1_9,2021-11-19T13:57:34.114Z,,,,,,,,,,,,,,,,48,,,,,,,,,,,,,,867.3689999046328,,response,,,10,C,,,,,Space,keypress(Space),,,,instrumental,-- -- --- ------ ------- --------- ----------- --------<br>--------- entering --- ------- -- ------- ---- -- ------<br>-- --- -------- -------- ---------- ---- ---- ---- ------<br>-- --------- -- ---- -- --- -- --- ------- -- - -----<br>---------- -- -- -- ---- ----- -- ------ -- --- ------<br>-------,242866.20000004768,242865.59999990463,241981.566,241994.20000004768,241998.231,242881.475,,9,entering
screen,html.Screen,0_4_1_0_1_10,2021-11-19T13:57:34.897Z,,,,,,,,,,,,,,,,48,,,,,,,,,,,,,,767.8249999523105,,response,,,10,C,,,,,Space,keypress(Space),,,,instrumental,-- -- --- ------ ------- --------- ----------- --------<br>--------- -------- the ------- -- ------- ---- -- ------<br>-- --- -------- -------- ---------- ---- ---- ---- ------<br>-- --------- -- ---- -- --- -- --- ------- -- - -----<br>---------- -- -- -- ---- ----- -- ------ -- --- ------<br>-------,243650,243649.29999995232,242864.81,242866.39999985695,242881.475,243664.863,,10,the
screen,html.Screen,0_4_1_0_1_11,2021-11-19T13:57:35.553Z,,,,,,,,,,,,,,,,48,,,,,,,,,,,,,,640.3370000476716,,response,,,10,C,,,,,Space,keypress(Space),,,,instrumental,-- -- --- ------ ------- --------- ----------- --------<br>--------- -------- --- country -- ------- ---- -- ------<br>-- --- -------- -------- ---------- ---- ---- ---- ------<br>-- --------- -- ---- -- --- -- --- ------- -- - -----<br>---------- -- -- -- ---- ----- -- ------ -- --- ------<br>-------,244305.79999995232,244305.20000004768,243648.197,243650.20000004768,243664.863,244314.747,,11,country
screen,html.Screen,0_4_1_0_1_12,2021-11-19T13:57:36.481Z,,,,,,,,,,,,,,,,48,,,,,,,,,,,,,,918.4530000476807,,response,,,10,C,,,,,Space,keypress(Space),,,,instrumental,-- -- --- ------ ------- --------- ----------- --------<br>--------- -------- --- ------- to ------- ---- -- ------<br>-- --- -------- -------- ---------- ---- ---- ---- ------<br>-- --------- -- ---- -- --- -- --- ------- -- - -----<br>---------- -- -- -- ---- ----- -- ------ -- --- ------<br>-------,245233.89999985695,245233.20000004768,244298.082,244305.89999985695,244314.747,245248.038,,12,to
screen,html.Screen,0_4_1_0_1_13,2021-11-19T13:57:37.201Z,,,,,,,,,,,,,,,,48,,,,,,,,,,,,,,705.1620000476833,,response,,,10,C,,,,,Space,keypress(Space),,,,instrumental,-- -- --- ------ ------- --------- ----------- --------<br>--------- -------- --- ------- -- declare ---- -- ------<br>-- --- -------- -------- ---------- ---- ---- ---- ------<br>-- --------- -- ---- -- --- -- --- ------- -- - -----<br>---------- -- -- -- ---- ----- -- ------ -- --- ------<br>-------,245953.79999995232,245953.20000004768,245231.373,245234,245248.038,245964.547,,13,declare
screen,html.Screen,0_4_1_0_1_14,2021-11-19T13:57:37.873Z,,,,,,,,,,,,,,,,48,,,,,,,,,,,,,,660.5529999046412,,response,,,10,C,,,,,Space,keypress(Space),,,,instrumental,-- -- --- ------ ------- --------- ----------- --------<br>--------- -------- --- ------- -- ------- cash -- ------<br>-- --- -------- -------- ---------- ---- ---- ---- ------<br>-- --------- -- ---- -- --- -- --- ------- -- - -----<br>---------- -- -- -- ---- ----- -- ------ -- --- ------<br>-------,246625.79999995232,246625.09999990463,245947.883,245954,245964.547,246631.251,,14,cash
screen,html.Screen,0_4_1_0_1_15,2021-11-19T13:57:38.537Z,,,,,,,,,,,,,,,,48,,,,,,,,,,,,,,657.8489999046433,,response,,,10,C,,,,,Space,keypress(Space),,,,instrumental,-- -- --- ------ ------- --------- ----------- --------<br>--------- -------- --- ------- -- ------- ---- in ------<br>-- --- -------- -------- ---------- ---- ---- ---- ------<br>-- --------- -- ---- -- --- -- --- ------- -- - -----<br>---------- -- -- -- ---- ----- -- ------ -- --- ------<br>-------,247289.70000004768,247289.09999990463,246614.586,246625.89999985695,246631.251,247297.986,,15,in
screen,html.Screen,0_4_1_0_1_16,2021-11-19T13:57:39.769Z,,,,,,,,,,,,,,,,48,,,,,,,,,,,,,,1223.1139999046281,,response,,,10,C,,,,,Space,keypress(Space),,,,instrumental,-- -- --- ------ ------- --------- ----------- --------<br>--------- -------- --- ------- -- ------- ---- -- excess<br>-- --- -------- -------- ---------- ---- ---- ---- ------<br>-- --------- -- ---- -- --- -- --- ------- -- - -----<br>---------- -- -- -- ---- ----- -- ------ -- --- ------<br>-------,248521.59999990463,248521.09999990463,247281.32,247289.79999995232,247297.986,248531.122,,16,excess
screen,html.Screen,0_4_1_0_1_17,2021-11-19T13:57:40.417Z,,,,,,,,,,,,,,,,48,,,,,,,,,,,,,,637.7779998569458,,response,,,10,C,,,,,Space,keypress(Space),,,,instrumental,-- -- --- ------ ------- --------- ----------- --------<br>--------- -------- --- ------- -- ------- ---- -- ------<br>of --- -------- -------- ---------- ---- ---- ---- ------<br>-- --------- -- ---- -- --- -- --- ------- -- - -----<br>---------- -- -- -- ---- ----- -- ------ -- --- ------<br>-------,249169.59999990463,249168.89999985695,248514.457,248521.79999995232,248531.122,249181.138,,17,of
screen,html.Screen,0_4_1_0_1_18,2021-11-19T13:57:41.209Z,,,,,,,,,,,,,,,,48,,,,,,,,,,,,,,779.8619999999937,,response,,,10,C,,,,,Space,keypress(Space),,,,instrumental,-- -- --- ------ ------- --------- ----------- --------<br>--------- -------- --- ------- -- ------- ---- -- ------<br>-- ten -------- -------- ---------- ---- ---- ---- ------<br>-- --------- -- ---- -- --- -- --- ------- -- - -----<br>---------- -- -- -- ---- ----- -- ------ -- --- ------<br>-------,249961.59999990463,249961,249164.473,249169.70000004768,249181.138,249964.397,,18,ten
screen,html.Screen,0_4_1_0_1_19,2021-11-19T13:57:41.953Z,,,,,,,,,,,,,,,,48,,,,,,,,,,,,,,740.4029999523191,,response,,,10,C,,,,,Space,keypress(Space),,,,instrumental,-- -- --- ------ ------- --------- ----------- --------<br>--------- -------- --- ------- -- ------- ---- -- ------<br>-- --- thousand -------- ---------- ---- ---- ---- ------<br>-- --------- -- ---- -- --- -- --- ------- -- - -----<br>---------- -- -- -- ---- ----- -- ------ -- --- ------<br>-------,250705.59999990463,250704.79999995232,249947.732,249961.79999995232,249964.397,250714.322,,19,thousand
screen,html.Screen,0_4_1_0_1_20,2021-11-19T13:57:43.793Z,,,,,,,,,,,,,,,,48,,,,,,,,,,,,,,1830.4779999523307,,response,,,10,C,,,,,Space,keypress(Space),,,,instrumental,-- -- --- ------ ------- --------- ----------- --------<br>--------- -------- --- ------- -- ------- ---- -- ------<br>-- --- -------- dollars. ---------- ---- ---- ---- ------<br>-- --------- -- ---- -- --- -- --- ------- -- - -----<br>---------- -- -- -- ---- ----- -- ------ -- --- ------<br>-------,252545.39999985695,252544.79999995232,250697.657,250705.70000004768,250714.322,252547.484,,20,dollars.
screen,html.Screen,0_4_1_0_1_21,2021-11-19T13:57:44.441Z,,,,,,,,,,,,,,,,48,,,,,,,,,,,,,,645.4159998569521,,response,,,10,C,,,,,Space,keypress(Space),,,,instrumental,-- -- --- ------ ------- --------- ----------- --------<br>--------- -------- --- ------- -- ------- ---- -- ------<br>-- --- -------- -------- Concealing ---- ---- ---- ------<br>-- --------- -- ---- -- --- -- --- ------- -- - -----<br>---------- -- -- -- ---- ----- -- ------ -- --- ------<br>-------,253193.5,253192.89999985695,252530.819,252545.59999990463,252547.484,253197.488,,21,Concealing
screen,html.Screen,0_4_1_0_1_22,2021-11-19T13:57:45.425Z,,,,,,,,,,,,,,,,48,,,,,,,,,,,,,,979.2120000476716,,response,,,10,C,,,,,Space,keypress(Space),,,,instrumental,-- -- --- ------ ------- --------- ----------- --------<br>--------- -------- --- ------- -- ------- ---- -- ------<br>-- --- -------- -------- ---------- more ---- ---- ------<br>-- --------- -- ---- -- --- -- --- ------- -- - -----<br>---------- -- -- -- ---- ----- -- ------ -- --- ------<br>-------,254177.29999995232,254176.70000004768,253180.823,253193.70000004768,253197.488,254180.809,,22,more
screen,html.Screen,0_4_1_0_1_23,2021-11-19T13:57:46.057Z,,,,,,,,,,,,,,,,48,,,,,,,,,,,,,,627.8910000476753,,response,,,10,C,,,,,Space,keypress(Space),,,,instrumental,-- -- --- ------ ------- --------- ----------- --------<br>--------- -------- --- ------- -- ------- ---- -- ------<br>-- --- -------- -------- ---------- ---- than ---- ------<br>-- --------- -- ---- -- --- -- --- ------- -- - -----<br>---------- -- -- -- ---- ----- -- ------ -- --- ------<br>-------,254809.29999995232,254808.70000004768,254164.144,254177.39999985695,254180.809,254814.124,,23,than
screen,html.Screen,0_4_1_0_1_24,2021-11-19T13:57:46.504Z,,,,,,,,,,,,,,,,48,,,,,,,,,,,,,,442.3759999999893,,response,,,10,C,,,,,Space,keypress(Space),,,,instrumental,-- -- --- ------ ------- --------- ----------- --------<br>--------- -------- --- ------- -- ------- ---- -- ------<br>-- --- -------- -------- ---------- ---- ---- that ------<br>-- --------- -- ---- -- --- -- --- ------- -- - -----<br>---------- -- -- -- ---- ----- -- ------ -- --- ------<br>-------,255257.09999990463,255256.5,254797.459,254809.5,254814.124,255264.063,,24,that
screen,html.Screen,0_4_1_0_1_25,2021-11-19T13:57:47.161Z,,,,,,,,,,,,,,,,48,,,,,,,,,,,,,,648.4370000000054,,response,,,10,C,,,,,Space,keypress(Space),,,,instrumental,-- -- --- ------ ------- --------- ----------- --------<br>--------- -------- --- ------- -- ------- ---- -- ------<br>-- --- -------- -------- ---------- ---- ---- ---- amount<br>-- --------- -- ---- -- --- -- --- ------- -- - -----<br>---------- -- -- -- ---- ----- -- ------ -- --- ------<br>-------,255913.20000004768,255912.5,255247.398,255257.29999995232,255264.063,255914.041,,25,amount
screen,html.Screen,0_4_1_0_1_26,2021-11-19T13:57:47.977Z,,,,,,,,,,,,,,,,48,,,,,,,,,,,,,,814.4590000000026,,response,,,10,C,,,,,Space,keypress(Space),,,,instrumental,-- -- --- ------ ------- --------- ----------- --------<br>--------- -------- --- ------- -- ------- ---- -- ------<br>-- --- -------- -------- ---------- ---- ---- ---- ------<br>to --------- -- ---- -- --- -- --- ------- -- - -----<br>---------- -- -- -- ---- ----- -- ------ -- --- ------<br>-------,256729.09999990463,256728.5,255897.376,255913.39999985695,255914.041,256730.637,,26,to
screen,html.Screen,0_4_1_0_1_27,2021-11-19T13:57:51.144Z,,,,,,,,,,,,,,,,48,,,,,,,,,,,,,,3165.6629999523284,,response,,,10,C,,,,,Space,keypress(Space),,,,instrumental,-- -- --- ------ ------- --------- ----------- --------<br>--------- -------- --- ------- -- ------- ---- -- ------<br>-- --- -------- -------- ---------- ---- ---- ---- ------<br>-- transport -- ---- -- --- -- --- ------- -- - -----<br>---------- -- -- -- ---- ----- -- ------ -- --- ------<br>-------,259897,259896.29999995232,256713.972,256729.29999995232,256730.637,259913.647,,27,transport
screen,html.Screen,0_4_1_0_1_28,2021-11-19T13:57:51.976Z,,,,,,,,,,,,,,,,48,,,,,,,,,,,,,,814.6529999523191,,response,,,10,C,,,,,Space,keypress(Space),,,,instrumental,-- -- --- ------ ------- --------- ----------- --------<br>--------- -------- --- ------- -- ------- ---- -- ------<br>-- --- -------- -------- ---------- ---- ---- ---- ------<br>-- --------- it ---- -- --- -- --- ------- -- - -----<br>---------- -- -- -- ---- ----- -- ------ -- --- ------<br>-------,260728.89999985695,260728.29999995232,259896.982,259897.20000004768,259913.647,260730.477,,28,it
screen,html.Screen,0_4_1_0_1_29,2021-11-19T13:57:52.744Z,,,,,,,,,,,,,,,,48,,,,,,,,,,,,,,765.8229999523028,,response,,,10,C,,,,,Space,keypress(Space),,,,instrumental,-- -- --- ------ ------- --------- ----------- --------<br>--------- -------- --- ------- -- ------- ---- -- ------<br>-- --- -------- -------- ---------- ---- ---- ---- ------<br>-- --------- -- into -- --- -- --- ------- -- - -----<br>---------- -- -- -- ---- ----- -- ------ -- --- ------<br>-------,261496.89999985695,261496.29999995232,260713.811,260729.09999990463,260730.477,261513.702,,29,into
screen,html.Screen,0_4_1_0_1_30,2021-11-19T13:57:53.656Z,,,,,,,,,,,,,,,,48,,,,,,,,,,,,,,894.3979999046423,,response,,,10,C,,,,,Space,keypress(Space),,,,instrumental,-- -- --- ------ ------- --------- ----------- --------<br>--------- -------- --- ------- -- ------- ---- -- ------<br>-- --- -------- -------- ---------- ---- ---- ---- ------<br>-- --------- -- ---- or --- -- --- ------- -- - -----<br>---------- -- -- -- ---- ----- -- ------ -- --- ------<br>-------,262408.89999985695,262408.09999990463,261497.037,261497.09999990463,261513.702,262413.514,,30,or
screen,html.Screen,0_4_1_0_1_31,2021-11-19T13:57:54.680Z,,,,,,,,,,,,,,,,48,,,,,,,,,,,,,,1018.8859998569242,,response,,,10,C,,,,,Space,keypress(Space),,,,instrumental,-- -- --- ------ ------- --------- ----------- --------<br>--------- -------- --- ------- -- ------- ---- -- ------<br>-- --- -------- -------- ---------- ---- ---- ---- ------<br>-- --------- -- ---- -- out -- --- ------- -- - -----<br>---------- -- -- -- ---- ----- -- ------ -- --- ------<br>-------,263433,263432.39999985695,262396.85,262409,262413.514,263446.89,,31,out
screen,html.Screen,0_4_1_0_1_32,2021-11-19T13:57:55.376Z,,,,,,,,,,,,,,,,48,,,,,,,,,,,,,,681.109999999986,,response,,,10,C,,,,,Space,keypress(Space),,,,instrumental,-- -- --- ------ ------- --------- ----------- --------<br>--------- -------- --- ------- -- ------- ---- -- ------<br>-- --- -------- -------- ---------- ---- ---- ---- ------<br>-- --------- -- ---- -- --- of --- ------- -- - -----<br>---------- -- -- -- ---- ----- -- ------ -- --- ------<br>-------,264128.7000000477,264128,263430.225,263433.2000000477,263446.89,264130.177,,32,of
screen,html.Screen,0_4_1_0_1_33,2021-11-19T13:57:55.952Z,,,,,,,,,,,,,,,,48,,,,,,,,,,,,,,573.8229999999749,,response,,,10,C,,,,,Space,keypress(Space),,,,instrumental,-- -- --- ------ ------- --------- ----------- --------<br>--------- -------- --- ------- -- ------- ---- -- ------<br>-- --- -------- -------- ---------- ---- ---- ---- ------<br>-- --------- -- ---- -- --- -- the ------- -- - -----<br>---------- -- -- -- ---- ----- -- ------ -- --- ------<br>-------,264704.7000000477,264704,264113.512,264128.89999985695,264130.177,264713.559,,33,the
screen,html.Screen,0_4_1_0_1_34,2021-11-19T13:57:56.616Z,,,,,,,,,,,,,,,,48,,,,,,,,,,,,,,654.4409999999916,,response,,,10,C,,,,,Space,keypress(Space),,,,instrumental,-- -- --- ------ ------- --------- ----------- --------<br>--------- -------- --- ------- -- ------- ---- -- ------<br>-- --- -------- -------- ---------- ---- ---- ---- ------<br>-- --------- -- ---- -- --- -- --- country -- - -----<br>---------- -- -- -- ---- ----- -- ------ -- --- ------<br>-------,265368.5,265368,264696.893,264704.89999985695,264713.559,265380.105,,34,country
screen,html.Screen,0_4_1_0_1_35,2021-11-19T13:57:57.128Z,,,,,,,,,,,,,,,,48,,,,,,,,,,,,,,499.7949998569675,,response,,,10,C,,,,,Space,keypress(Space),,,,instrumental,-- -- --- ------ ------- --------- ----------- --------<br>--------- -------- --- ------- -- ------- ---- -- ------<br>-- --- -------- -------- ---------- ---- ---- ---- ------<br>-- --------- -- ---- -- --- -- --- ------- is - -----<br>---------- -- -- -- ---- ----- -- ------ -- --- ------<br>-------,265880.2999999523,265879.89999985695,265363.44,265368.59999990463,265380.105,265896.676,,35,is
screen,html.Screen,0_4_1_0_1_36,2021-11-19T13:57:57.576Z,,,,,,,,,,,,,,,,48,,,,,,,,,,,,,,431.12399995233864,,response,,,10,C,,,,,Space,keypress(Space),,,,instrumental,-- -- --- ------ ------- --------- ----------- --------<br>--------- -------- --- ------- -- ------- ---- -- ------<br>-- --- -------- -------- ---------- ---- ---- ---- ------<br>-- --------- -- ---- -- --- -- --- ------- -- a -----<br>---------- -- -- -- ---- ----- -- ------ -- --- ------<br>-------,266328.39999985695,266327.7999999523,265880.012,265880.5,265896.676,266330.063,,36,a
screen,html.Screen,0_4_1_0_1_37,2021-11-19T13:57:58.128Z,,,,,,,,,,,,,,,,48,,,,,,,,,,,,,,549.7369999522925,,response,,,10,C,,,,,Space,keypress(Space),,,,instrumental,-- -- --- ------ ------- --------- ----------- --------<br>--------- -------- --- ------- -- ------- ---- -- ------<br>-- --- -------- -------- ---------- ---- ---- ---- ------<br>-- --------- -- ---- -- --- -- --- ------- -- - crime<br>---------- -- -- -- ---- ----- -- ------ -- --- ------<br>-------,266880.39999985695,266879.7999999523,266313.398,266328.59999990463,266330.063,266896.607,,37,crime
screen,html.Screen,0_4_1_0_1_38,2021-11-19T13:57:58.840Z,,,,,,,,,,,,,,,,48,,,,,,,,,,,,,,695.2929998569307,,response,,,10,C,,,,,Space,keypress(Space),,,,instrumental,-- -- --- ------ ------- --------- ----------- --------<br>--------- -------- --- ------- -- ------- ---- -- ------<br>-- --- -------- -------- ---------- ---- ---- ---- ------<br>-- --------- -- ---- -- --- -- --- ------- -- - -----<br>punishable -- -- -- ---- ----- -- ------ -- --- ------<br>-------,267592.39999985695,267591.89999985695,266879.943,266880.7000000477,266896.607,267596.685,,38,punishable
screen,html.Screen,0_4_1_0_1_39,2021-11-19T13:57:59.344Z,,,,,,,,,,,,,,,,48,,,,,,,,,,,,,,499.01500004768604,,response,,,10,C,,,,,Space,keypress(Space),,,,instrumental,-- -- --- ------ ------- --------- ----------- --------<br>--------- -------- --- ------- -- ------- ---- -- ------<br>-- --- -------- -------- ---------- ---- ---- ---- ------<br>-- --------- -- ---- -- --- -- --- ------- -- - -----<br>---------- by -- -- ---- ----- -- ------ -- --- ------<br>-------,268096.2999999523,268095.7000000477,267580.019,267592.59999990463,267596.685,268113.371,,39,by
screen,html.Screen,0_4_1_0_1_40,2021-11-19T13:57:59.768Z,,,,,,,,,,,,,,,,48,,,,,,,,,,,,,,406.42899995233165,,response,,,10,C,,,,,Space,keypress(Space),,,,instrumental,-- -- --- ------ ------- --------- ----------- --------<br>--------- -------- --- ------- -- ------- ---- -- ------<br>-- --- -------- -------- ---------- ---- ---- ---- ------<br>-- --------- -- ---- -- --- -- --- ------- -- - -----<br>---------- -- up -- ---- ----- -- ------ -- --- ------<br>-------,268520.39999985695,268519.7999999523,268096.705,268096.5,268113.371,268529.956,,40,up
screen,html.Screen,0_4_1_0_1_41,2021-11-19T13:58:00.240Z,,,,,,,,,,,,,,,,48,,,,,,,,,,,,,,461.8439999523107,,response,,,10,C,,,,,Space,keypress(Space),,,,instrumental,-- -- --- ------ ------- --------- ----------- --------<br>--------- -------- --- ------- -- ------- ---- -- ------<br>-- --- -------- -------- ---------- ---- ---- ---- ------<br>-- --------- -- ---- -- --- -- --- ------- -- - -----<br>---------- -- -- to ---- ----- -- ------ -- --- ------<br>-------,268992.2999999523,268991.7999999523,268513.291,268520.59999990463,268529.956,268996.582,,41,to
screen,html.Screen,0_4_1_0_1_42,2021-11-19T13:58:00.656Z,,,,,,,,,,,,,,,,48,,,,,,,,,,,,,,411.2179999523214,,response,,,10,C,,,,,Space,keypress(Space),,,,instrumental,-- -- --- ------ ------- --------- ----------- --------<br>--------- -------- --- ------- -- ------- ---- -- ------<br>-- --- -------- -------- ---------- ---- ---- ---- ------<br>-- --------- -- ---- -- --- -- --- ------- -- - -----<br>---------- -- -- -- five ----- -- ------ -- --- ------<br>-------,269408.39999985695,269407.7999999523,268979.917,268992.5,268996.582,269413.202,,42,five
screen,html.Screen,0_4_1_0_1_43,2021-11-19T13:58:01.112Z,,,,,,,,,,,,,,,,48,,,,,,,,,,,,,,450.39799990464235,,response,,,10,C,,,,,Space,keypress(Space),,,,instrumental,-- -- --- ------ ------- --------- ----------- --------<br>--------- -------- --- ------- -- ------- ---- -- ------<br>-- --- -------- -------- ---------- ---- ---- ---- ------<br>-- --------- -- ---- -- --- -- --- ------- -- - -----<br>---------- -- -- -- ---- years -- ------ -- --- ------<br>-------,269864.2999999523,269863.59999990463,269396.537,269408.59999990463,269413.202,269879.904,,43,years
screen,html.Screen,0_4_1_0_1_44,2021-11-19T13:58:01.568Z,,,,,,,,,,,,,,,,48,,,,,,,,,,,,,,439.6959999046521,,response,,,10,C,,,,,Space,keypress(Space),,,,instrumental,-- -- --- ------ ------- --------- ----------- --------<br>--------- -------- --- ------- -- ------- ---- -- ------<br>-- --- -------- -------- ---------- ---- ---- ---- ------<br>-- --------- -- ---- -- --- -- --- ------- -- - -----<br>---------- -- -- -- ---- ----- in ------ -- --- ------<br>-------,270320.2000000477,270319.59999990463,269863.238,269864.5,269879.904,270329.846,,44,in
screen,html.Screen,0_4_1_0_1_45,2021-11-19T13:58:03.232Z,,,,,,,,,,,,,,,,48,,,,,,,,,,,,,,1653.753999904613,,response,,,10,C,,,,,Space,keypress(Space),,,,instrumental,-- -- --- ------ ------- --------- ----------- --------<br>--------- -------- --- ------- -- ------- ---- -- ------<br>-- --- -------- -------- ---------- ---- ---- ---- ------<br>-- --------- -- ---- -- --- -- --- ------- -- - -----<br>---------- -- -- -- ---- ----- -- prison -- --- ------<br>-------,271984.2999999523,271983.59999990463,270313.181,270320.2999999523,270329.846,271996.366,,45,prison
screen,html.Screen,0_4_1_0_1_46,2021-11-19T13:58:03.848Z,,,,,,,,,,,,,,,,48,,,,,,,,,,,,,,603.13400000002,,response,,,10,C,,,,,Space,keypress(Space),,,,instrumental,-- -- --- ------ ------- --------- ----------- --------<br>--------- -------- --- ------- -- ------- ---- -- ------<br>-- --- -------- -------- ---------- ---- ---- ---- ------<br>-- --------- -- ---- -- --- -- --- ------- -- - -----<br>---------- -- -- -- ---- ----- -- ------ in --- ------<br>-------,272600.2000000477,272599.5,271979.701,271984.39999985695,271996.366,272613.007,,46,in
screen,html.Screen,0_4_1_0_1_47,2021-11-19T13:58:04.472Z,,,,,,,,,,,,,,,,48,,,,,,,,,,,,,,610.4930000000168,,response,,,10,C,,,,,Space,keypress(Space),,,,instrumental,-- -- --- ------ ------- --------- ----------- --------<br>--------- -------- --- ------- -- ------- ---- -- ------<br>-- --- -------- -------- ---------- ---- ---- ---- ------<br>-- --------- -- ---- -- --- -- --- ------- -- - -----<br>---------- -- -- -- ---- ----- -- ------ -- the ------<br>-------,273224.2999999523,273223.5,272596.342,272600.39999985695,272613.007,273229.633,,47,the
screen,html.Screen,0_4_1_0_1_48,2021-11-19T13:58:05.072Z,,,,,,,,,,,,,,,,48,,,,,,,,,,,,,,594.0670000477112,,response,,,10,C,,,,,Space,keypress(Space),,,,instrumental,-- -- --- ------ ------- --------- ----------- --------<br>--------- -------- --- ------- -- ------- ---- -- ------<br>-- --- -------- -------- ---------- ---- ---- ---- ------<br>-- --------- -- ---- -- --- -- --- ------- -- - -----<br>---------- -- -- -- ---- ----- -- ------ -- --- United<br>-------,273824.39999985695,273823.7000000477,273212.968,273224.39999985695,273229.633,273829.574,,48,United
screen,html.Screen,0_4_1_0_1_49,2021-11-19T13:58:05.503Z,,,,,,,,,,,,,,,,48,,,,,,,,,,,,,,425.8259998569265,,response,,,10,C,,,,,Space,keypress(Space),,,,instrumental,-- -- --- ------ ------- --------- ----------- --------<br>--------- -------- --- ------- -- ------- ---- -- ------<br>-- --- -------- -------- ---------- ---- ---- ---- ------<br>-- --------- -- ---- -- --- -- --- ------- -- - -----<br>---------- -- -- -- ---- ----- -- ------ -- --- ------<br>States.,274256.09999990463,274255.39999985695,273812.909,273824.5,273829.574,274262.916,,49,States.
Item 10,flow.Loop,0_4_1_0_1,2021-11-19T13:58:05.504Z,,,,,,,,,,,,,,,,,,,,,,,,,,,,,,44539.81999985696,,completion,,,,,,,,,,,,,,,,274256.39999985695,274255.39999985695,229698.915,229700.09999990463,229715.58,274262.916,,,
Question 1,html.Screen,0_4_1_0_2,2021-11-19T13:58:16.681Z,,,,,,,,,,,,,,,,,,,,,,,,,,,true,TRUE,,11170.183999904606,,response,,,10,C,,,,,TRUE,click #choice-1,,,,instrumental,,285434,285433.09999990463,274246.251,274256.5,274262.916,285445.588,,,
Question 2,html.Screen,0_4_1_0_3,2021-11-19T13:58:23.743Z,,,,,,,,,,,,,,,,,,,,,,,,,,,true,TRUE,,7049.511999904644,,response,,,10,C,,,,,TRUE,click #choice-1,,,,instrumental,,292495.7999999523,292495.09999990463,285428.923,285434.2000000477,285445.588,292511.769,,,
Item 10,flow.Sequence,0_4_1_0,2021-11-19T13:58:23.743Z,,,,,,,,,,,,,,,,,,,,,,,,,,,,,,69779.32399990462,,completion,,,,,,,,,,,,,,,,292496.09999990463,292495.09999990463,222699.111,222700.09999990463,222715.776,292511.769,,,
Holding screen,html.Screen,0_4_1_1_0,2021-11-19T13:58:30.743Z,,,,,,,,,,,,,,,,,,,,,,,,,,,,,,6999.579000000027,,timeout,,,,,,,,,,,,,,,,299496.09999990463,299494.683,292495.105,292496.2999999523,292511.769,299511.348,,,
screen,html.Screen,0_4_1_1_1_0,2021-11-19T13:58:37.746Z,,,,,,,,,,,,,,,,2,,,,,,,,,,,,,,6999.3369999999995,,timeout,,,1,C,,,,,,,,,,instrumental,Two ---- ------ --- ------- ---------- ------- ----------<br>--- --------- --- ----------- ------- ----- ------- ---<br>--------- ---- -- --- ---- -- --------- -- ---- -------<br>-- --------- ------ --- ----- ------ ---- --- --------- --<br>------ - ---- -- --- ----------- ------- ---- ----- -----<br>--- -------- - ------ ---- -- ----- ---- --- --- -----------<br>-- -------,306495.09999990463,306494.02,299494.683,299496.2999999523,299511.348,306510.685,,0,Two
screen,html.Screen,0_4_1_1_1_1,2021-11-19T13:58:39.241Z,,,,,,,,,,,,,,,,2,,,,,,,,,,,,,,1479.015000047686,,response,,,1,C,,,,,Space,keypress(Space),,,,instrumental,--- days ------ --- ------- ---------- ------- ----------<br>--- --------- --- ----------- ------- ----- ------- ---<br>--------- ---- -- --- ---- -- --------- -- ---- -------<br>-- --------- ------ --- ----- ------ ---- --- --------- --<br>------ - ---- -- --- ----------- ------- ---- ----- -----<br>--- -------- - ------ ---- -- ----- ---- --- --- -----------<br>-- -------,307990.2999999523,307989.7000000477,306494.02,306495.2999999523,306510.685,307994.173,,1,days
screen,html.Screen,0_4_1_1_1_2,2021-11-19T13:58:40.161Z,,,,,,,,,,,,,,,,2,,,,,,,,,,,,,,915.0270000476739,,response,,,1,C,,,,,Space,keypress(Space),,,,instrumental,"--- ---- later, --- ------- ---------- ------- ----------<br>--- --------- --- ----------- ------- ----- ------- ---<br>--------- ---- -- --- ---- -- --------- -- ---- -------<br>-- --------- ------ --- ----- ------ ---- --- --------- --<br>------ - ---- -- --- ----------- ------- ---- ----- -----<br>--- -------- - ------ ---- -- ----- ---- --- --- -----------<br>-- -------",308909.89999985695,308909.2000000477,307977.508,307990.5,307994.173,308910.73,,2,"later,"
