sender,sender_type,sender_id,timestamp,meta,,Blues,Classical,Country,Dance,Electronic,Folk,Gospel,Hip-Hop,Jazz,Latin,Musical/Film,New-age,Pop,Provo_ID,R&B,Rap,Reggae,Religious,Rock,Soul,Swing,Traditional,age,artist_name,correct,correctResponse,distraction,duration,education,ended_on,familiarity,gender,item,list,music_frequency,offensiveness,pleasantness,preference,response,response_action,snippet_file,song_name,song_rating,sound,text,time_commit,time_end,time_render,time_run,time_show,time_switch,url,word,word_ID
Instructions,html.Page,0_0,2021-11-04T11:59:42.136Z,"{""labjs_version"":""20.2.3"",""labjs_build"":{""flavor"":""production"",""commit"":""7ea907d66ca8aeef8054924ca5d82ffbe11e34e5""},""location"":""https://run.pavlovia.org/mvasilev/lab_music_e/"",""userAgent"":""Mozilla/5.0 (Windows NT 6.1; Win64; x64) AppleWebKit/537.36 (KHTML, like Gecko) Chrome/95.0.4638.54 Safari/537.36"",""platform"":""Win32"",""language"":""en-US"",""locale"":""en-US"",""timeZone"":""Europe/London"",""timezoneOffset"":0,""screen_width"":1920,""screen_height"":1080,""scroll_width"":1920,""scroll_height"":959,""window_innerWidth"":1920,""window_innerHeight"":1007,""devicePixelRatio"":1}",,,,,,,,,,,,,,,,,,,,,,,,,,,,,20658.85599999963,,form submission,,,,,,,,,,,,,,,,31705.400000000373,31704.099999999627,11028.574,11030.199999999255,11045.244,31700.87,{},,
Headphones,html.Page,0_1,2021-11-04T11:59:45.517Z,,,,,,,,,,,,,,,,,,,,,,,,,,,,,,3385.630000000001,,form submission,,,,,,,,,,,,,,,,35086.90000000037,35086.5,31684.2,31706.099999999627,31700.87,35101.647,,,
Holding screen,html.Screen,0_2_0_0,2021-11-04T11:59:55.524Z,,,,,,,,,,,,,,,,,,,,,,,,,,,,,,10052.459000000003,,timeout,,,,,,,,,,,,,,,,45093.40000000037,45087.43,35084.977,35087.5,35101.647,45154.106,,,
screen,html.Screen,0_2_0_1_0,2021-11-04T11:59:56.921Z,,,,,,,,,,,,,,,,53,,,,,,,,,,,,,,1335.2940000003728,,response,,,99,,,,,,Space,keypress(Space),,,,,When -- ----- -- ------ - ------- --- ----------<br>------------- ------ ------ ---- ---- ------- ----- -- ----<br>-------- ------- -- ---------- --- - --- ----- ----- ----<br>---- --- --- ----- --- ---- ---- ------- ----- ---- -------<br>--- --- -- ----- -- --- ---- -- --- ---- -- ------ ------<br>--- ----- -- ----,46490.800000000745,46489.40000000037,45087.43,45093.699999999255,45154.106,46504.784,,0,When
screen,html.Screen,0_2_0_1_1,2021-11-04T11:59:57.848Z,,,,,,,,,,,,,,,,53,,,,,,,,,,,,,,912.0160000007454,,response,,,99,,,,,,Space,keypress(Space),,,,,---- it ----- -- ------ - ------- --- ----------<br>------------- ------ ------ ---- ---- ------- ----- -- ----<br>-------- ------- -- ---------- --- - --- ----- ----- ----<br>---- --- --- ----- --- ---- ---- ------- ----- ---- -------<br>--- --- -- ----- -- --- ---- -- --- ---- -- ------ ------<br>--- ----- -- ----,47417.699999999255,47416.800000000745,46488.113,46491.199999999255,46504.784,47421.561,,1,it
screen,html.Screen,0_2_0_1_2,2021-11-04T11:59:58.720Z,,,,,,,,,,,,,,,,53,,,,,,,,,,,,,,867.2390000007435,,response,,,99,,,,,,Space,keypress(Space),,,,,---- -- comes -- ------ - ------- --- ----------<br>------------- ------ ------ ---- ---- ------- ----- -- ----<br>-------- ------- -- ---------- --- - --- ----- ----- ----<br>---- --- --- ----- --- ---- ---- ------- ----- ---- -------<br>--- --- -- ----- -- --- ---- -- --- ---- -- ------ ------<br>--- ----- -- ----,48289.699999999255,48288.800000000745,47404.891,47418.199999999255,47421.561,48305.061,,2,comes
screen,html.Screen,0_2_0_1_3,2021-11-04T11:59:59.536Z,,,,,,,,,,,,,,,,53,,,,,,,,,,,,,,799.6389999992534,,response,,,99,,,,,,Space,keypress(Space),,,,,---- -- ----- to ------ - ------- --- ----------<br>------------- ------ ------ ---- ---- ------- ----- -- ----<br>-------- ------- -- ---------- --- - --- ----- ----- ----<br>---- --- --- ----- --- ---- ---- ------- ----- ---- -------<br>--- --- -- ----- -- --- ---- -- --- ---- -- ------ ------<br>--- ----- -- ----,49105.800000000745,49104.699999999255,48288.391,48289.90000000037,48305.061,49122.208,,3,to
screen,html.Screen,0_2_0_1_4,2021-11-04T12:00:00.304Z,,,,,,,,,,,,,,,,53,,,,,,,,,,,,,,750.4919999992562,,response,,,99,,,,,,Space,keypress(Space),,,,,---- -- ----- -- having - ------- --- ----------<br>------------- ------ ------ ---- ---- ------- ----- -- ----<br>-------- ------- -- ---------- --- - --- ----- ----- ----<br>---- --- --- ----- --- ---- ---- ------- ----- ---- -------<br>--- --- -- ----- -- --- ---- -- --- ---- -- ------ ------<br>--- ----- -- ----,49874,49872.699999999255,49105.536,49106.300000000745,49122.208,49888.914,,4,having
screen,html.Screen,0_2_0_1_5,2021-11-04T12:00:01.104Z,,,,,,,,,,,,,,,,53,,,,,,,,,,,,,,783.7859999992579,,response,,,99,,,,,,Space,keypress(Space),,,,,---- -- ----- -- ------ a ------- --- ----------<br>------------- ------ ------ ---- ---- ------- ----- -- ----<br>-------- ------- -- ---------- --- - --- ----- ----- ----<br>---- --- --- ----- --- ---- ---- ------- ----- ---- -------<br>--- --- -- ----- -- --- ---- -- --- ---- -- ------ ------<br>--- ----- -- ----,50673.59999999963,50672.699999999255,49872.244,49874.300000000745,49888.914,50689.096,,5,a
screen,html.Screen,0_2_0_1_6,2021-11-04T12:00:02.112Z,,,,,,,,,,,,,,,,53,,,,,,,,,,,,,,991.4040000000023,,response,,,99,,,,,,Space,keypress(Space),,,,,---- -- ----- -- ------ - lasting --- ----------<br>------------- ------ ------ ---- ---- ------- ----- -- ----<br>-------- ------- -- ---------- --- - --- ----- ----- ----<br>---- --- --- ----- --- ---- ---- ------- ----- ---- -------<br>--- --- -- ----- -- --- ---- -- --- ---- -- ------ ------<br>--- ----- -- ----,51681.5,51680.5,50672.426,50674.199999999255,50689.096,51689.217,,6,lasting
screen,html.Screen,0_2_0_1_7,2021-11-04T12:00:02.832Z,,,,,,,,,,,,,,,,53,,,,,,,,,,,,,,711.2830000000031,,response,,,99,,,,,,Space,keypress(Space),,,,,---- -- ----- -- ------ - ------- and ----------<br>------------- ------ ------ ---- ---- ------- ----- -- ----<br>-------- ------- -- ---------- --- - --- ----- ----- ----<br>---- --- --- ----- --- ---- ---- ------- ----- ---- -------<br>--- --- -- ----- -- --- ---- -- --- ---- -- ------ ------<br>--- ----- -- ----,52401.5,52400.5,51672.548,51681.800000000745,51689.217,52406.297,,7,and
screen,html.Screen,0_2_0_1_8,2021-11-04T12:00:03.832Z,,,,,,,,,,,,,,,,53,,,,,,,,,,,,,,994.2030000000013,,response,,,99,,,,,,Space,keypress(Space),,,,,---- -- ----- -- ------ - ------- --- fulfilling<br>------------- ------ ------ ---- ---- ------- ----- -- ----<br>-------- ------- -- ---------- --- - --- ----- ----- ----<br>---- --- --- ----- --- ---- ---- ------- ----- ---- -------<br>--- --- -- ----- -- --- ---- -- --- ---- -- ------ ------<br>--- ----- -- ----,53401.59999999963,53400.5,52389.626,52401.800000000745,52406.297,53406.466,,8,fulfilling
screen,html.Screen,0_2_0_1_9,2021-11-04T12:00:05.080Z,,,,,,,,,,,,,,,,53,,,,,,,,,,,,,,1241.8340000007447,,response,,,99,,,,,,Space,keypress(Space),,,,,"---- -- ----- -- ------ - ------- --- ----------<br>relationship, ------ ------ ---- ---- ------- ----- -- ----<br>-------- ------- -- ---------- --- - --- ----- ----- ----<br>---- --- --- ----- --- ---- ---- ------- ----- ---- -------<br>--- --- -- ----- -- --- ---- -- --- ---- -- ------ ------<br>--- ----- -- ----",54649.300000000745,54648.300000000745,53389.796,53402,53406.466,54656.745,,9,"relationship,"
screen,html.Screen,0_2_0_1_10,2021-11-04T12:00:05.752Z,,,,,,,,,,,,,,,,53,,,,,,,,,,,,,,663.5550000007424,,response,,,99,,,,,,Space,keypress(Space),,,,,---- -- ----- -- ------ - ------- --- ----------<br>------------- common ------ ---- ---- ------- ----- -- ----<br>-------- ------- -- ---------- --- - --- ----- ----- ----<br>---- --- --- ----- --- ---- ---- ------- ----- ---- -------<br>--- --- -- ----- -- --- ---- -- --- ---- -- ------ ------<br>--- ----- -- ----,55321.300000000745,55320.300000000745,54640.075,54649.59999999963,54656.745,55323.636,,10,common
screen,html.Screen,0_2_0_1_11,2021-11-04T12:00:06.576Z,,,,,,,,,,,,,,,,53,,,,,,,,,,,,,,820.6640000007465,,response,,,99,,,,,,Space,keypress(Space),,,,,---- -- ----- -- ------ - ------- --- ----------<br>------------- ------ wisdom ---- ---- ------- ----- -- ----<br>-------- ------- -- ---------- --- - --- ----- ----- ----<br>---- --- --- ----- --- ---- ---- ------- ----- ---- -------<br>--- --- -- ----- -- --- ---- -- --- ---- -- ------ ------<br>--- ----- -- ----,56145.40000000037,56144.300000000745,55306.966,55321.59999999963,55323.636,56157.18,,11,wisdom
screen,html.Screen,0_2_0_1_12,2021-11-04T12:00:07.160Z,,,,,,,,,,,,,,,,53,,,,,,,,,,,,,,571.5199999992547,,response,,,99,,,,,,Space,keypress(Space),,,,,---- -- ----- -- ------ - ------- --- ----------<br>------------- ------ ------ says ---- ------- ----- -- ----<br>-------- ------- -- ---------- --- - --- ----- ----- ----<br>---- --- --- ----- --- ---- ---- ------- ----- ---- -------<br>--- --- -- ----- -- --- ---- -- --- ---- -- ------ ------<br>--- ----- -- ----,56729.59999999963,56728.699999999255,56140.51,56145.699999999255,56157.18,56740.73,,12,says
screen,html.Screen,0_2_0_1_13,2021-11-04T12:00:07.863Z,,,,,,,,,,,,,,,,53,,,,,,,,,,,,,,691.4699999992517,,response,,,99,,,,,,Space,keypress(Space),,,,,---- -- ----- -- ------ - ------- --- ----------<br>------------- ------ ------ ---- that ------- ----- -- ----<br>-------- ------- -- ---------- --- - --- ----- ----- ----<br>---- --- --- ----- --- ---- ---- ------- ----- ---- -------<br>--- --- -- ----- -- --- ---- -- --- ---- -- ------ ------<br>--- ----- -- ----,57433.09999999963,57432.199999999255,56724.059,56729.90000000037,56740.73,57440.845,,13,that
screen,html.Screen,0_2_0_1_14,2021-11-04T12:00:08.559Z,,,,,,,,,,,,,,,,53,,,,,,,,,,,,,,687.3549999992538,,response,,,99,,,,,,Space,keypress(Space),,,,,---- -- ----- -- ------ - ------- --- ----------<br>------------- ------ ------ ---- ---- feeling ----- -- ----<br>-------- ------- -- ---------- --- - --- ----- ----- ----<br>---- --- --- ----- --- ---- ---- ------- ----- ---- -------<br>--- --- -- ----- -- --- ---- -- --- ---- -- ------ ------<br>--- ----- -- ----,58129.09999999963,58128.199999999255,57424.175,57433.40000000037,57440.845,58140.977,,14,feeling
screen,html.Screen,0_2_0_1_15,2021-11-04T12:00:09.247Z,,,,,,,,,,,,,,,,53,,,,,,,,,,,,,,675.1229999996285,,response,,,99,,,,,,Space,keypress(Space),,,,,---- -- ----- -- ------ - ------- --- ----------<br>------------- ------ ------ ---- ---- ------- close -- ----<br>-------- ------- -- ---------- --- - --- ----- ----- ----<br>---- --- --- ----- --- ---- ---- ------- ----- ---- -------<br>--- --- -- ----- -- --- ---- -- --- ---- -- ------ ------<br>--- ----- -- ----,58817,58816.09999999963,58124.307,58129.300000000745,58140.977,58824.613,,15,close
screen,html.Screen,0_2_0_1_16,2021-11-04T12:00:09.751Z,,,,,,,,,,,,,,,,53,,,,,,,,,,,,,,495.5869999992574,,response,,,99,,,,,,Space,keypress(Space),,,,,---- -- ----- -- ------ - ------- --- ----------<br>------------- ------ ------ ---- ---- ------- ----- to ----<br>-------- ------- -- ---------- --- - --- ----- ----- ----<br>---- --- --- ----- --- ---- ---- ------- ----- ---- -------<br>--- --- -- ----- -- --- ---- -- --- ---- -- ------ ------<br>--- ----- -- ----,59320.90000000037,59320.199999999255,58807.942,58817.300000000745,58824.613,59324.645,,16,to
screen,html.Screen,0_2_0_1_17,2021-11-04T12:00:10.279Z,,,,,,,,,,,,,,,,53,,,,,,,,,,,,,,523.3550000000032,,response,,,99,,,,,,Space,keypress(Space),,,,,---- -- ----- -- ------ - ------- --- ----------<br>------------- ------ ------ ---- ---- ------- ----- -- your<br>-------- ------- -- ---------- --- - --- ----- ----- ----<br>---- --- --- ----- --- ---- ---- ------- ----- ---- -------<br>--- --- -- ----- -- --- ---- -- --- ---- -- ------ ------<br>--- ----- -- ----,59848.90000000037,59848,59307.975,59321.199999999255,59324.645,59858.153,,17,your
screen,html.Screen,0_2_0_1_18,2021-11-04T12:00:11.074Z,,,,,,,,,,,,,,,,53,,,,,,,,,,,,,,781.8470000000016,,response,,,99,,,,,,Space,keypress(Space),,,,,---- -- ----- -- ------ - ------- --- ----------<br>------------- ------ ------ ---- ---- ------- ----- -- ----<br>romantic ------- -- ---------- --- - --- ----- ----- ----<br>---- --- --- ----- --- ---- ---- ------- ----- ---- -------<br>--- --- -- ----- -- --- ---- -- --- ---- -- ------ ------<br>--- ----- -- ----,60641,60640,59841.483,59849.09999999963,59858.153,60658.343,,18,romantic
screen,html.Screen,0_2_0_1_19,2021-11-04T12:00:11.674Z,,,,,,,,,,,,,,,,53,,,,,,,,,,,,,,581.6569999999992,,response,,,99,,,,,,Space,keypress(Space),,,,,---- -- ----- -- ------ - ------- --- ----------<br>------------- ------ ------ ---- ---- ------- ----- -- ----<br>-------- partner -- ---------- --- - --- ----- ----- ----<br>---- --- --- ----- --- ---- ---- ------- ----- ---- -------<br>--- --- -- ----- -- --- ---- -- --- ---- -- ------ ------<br>--- ----- -- ----,61240.90000000037,61240,60641.673,60641.199999999255,60658.343,61241.839,,19,partner
screen,html.Screen,0_2_0_1_20,2021-11-04T12:00:12.202Z,,,,,,,,,,,,,,,,53,,,,,,,,,,,,,,526.0610000003726,,response,,,99,,,,,,Space,keypress(Space),,,,,---- -- ----- -- ------ - ------- --- ----------<br>------------- ------ ------ ---- ---- ------- ----- -- ----<br>-------- ------- is ---------- --- - --- ----- ----- ----<br>---- --- --- ----- --- ---- ---- ------- ----- ---- -------<br>--- --- -- ----- -- --- ---- -- --- ---- -- ------ ------<br>--- ----- -- ----,61768.699999999255,61767.90000000037,61225.169,61241.09999999963,61241.839,61775.317,,20,is
screen,html.Screen,0_2_0_1_21,2021-11-04T12:00:12.938Z,,,,,,,,,,,,,,,,53,,,,,,,,,,,,,,728.6829999999973,,response,,,99,,,,,,Space,keypress(Space),,,,,---- -- ----- -- ------ - ------- --- ----------<br>------------- ------ ------ ---- ---- ------- ----- -- ----<br>-------- ------- -- paramount. --- - --- ----- ----- ----<br>---- --- --- ----- --- ---- ---- ------- ----- ---- -------<br>--- --- -- ----- -- --- ---- -- --- ---- -- ------ ------<br>--- ----- -- ----,62504.800000000745,62504,61758.647,61769,61775.317,62508.891,,21,paramount.
screen,html.Screen,0_2_0_1_22,2021-11-04T12:00:13.602Z,,,,,,,,,,,,,,,,53,,,,,,,,,,,,,,658.9090000007418,,response,,,99,,,,,,Space,keypress(Space),,,,,---- -- ----- -- ------ - ------- --- ----------<br>------------- ------ ------ ---- ---- ------- ----- -- ----<br>-------- ------- -- ---------- But - --- ----- ----- ----<br>---- --- --- ----- --- ---- ---- ------- ----- ---- -------<br>--- --- -- ----- -- --- ---- -- --- ---- -- ------ ------<br>--- ----- -- ----,63168.699999999255,63167.800000000745,62492.22,62505.300000000745,62508.891,63175.663,,22,But
screen,html.Screen,0_2_0_1_23,2021-11-04T12:00:14.058Z,,,,,,,,,,,,,,,,53,,,,,,,,,,,,,,448.1370000007446,,response,,,99,,,,,,Space,keypress(Space),,,,,---- -- ----- -- ------ - ------- --- ----------<br>------------- ------ ------ ---- ---- ------- ----- -- ----<br>-------- ------- -- ---------- --- a --- ----- ----- ----<br>---- --- --- ----- --- ---- ---- ------- ----- ---- -------<br>--- --- -- ----- -- --- ---- -- --- ---- -- ------ ------<br>--- ----- -- ----,63624.699999999255,63623.800000000745,63158.993,63168.90000000037,63175.663,63625.807,,23,a
screen,html.Screen,0_2_0_1_24,2021-11-04T12:00:14.714Z,,,,,,,,,,,,,,,,53,,,,,,,,,,,,,,653.9930000007444,,response,,,99,,,,,,Space,keypress(Space),,,,,---- -- ----- -- ------ - ------- --- ----------<br>------------- ------ ------ ---- ---- ------- ----- -- ----<br>-------- ------- -- ---------- --- - new ----- ----- ----<br>---- --- --- ----- --- ---- ---- ------- ----- ---- -------<br>--- --- -- ----- -- --- ---- -- --- ---- -- ------ ------<br>--- ----- -- ----,64280.699999999255,64279.800000000745,63609.137,63624.90000000037,63625.807,64292.631,,24,new
screen,html.Screen,0_2_0_1_25,2021-11-04T12:00:15.434Z,,,,,,,,,,,,,,,,53,,,,,,,,,,,,,,707.1690000007438,,response,,,99,,,,,,Space,keypress(Space),,,,,---- -- ----- -- ------ - ------- --- ----------<br>------------- ------ ------ ---- ---- ------- ----- -- ----<br>-------- ------- -- ---------- --- - --- study ----- ----<br>---- --- --- ----- --- ---- ---- ------- ----- ---- -------<br>--- --- -- ----- -- --- ---- -- --- ---- -- ------ ------<br>--- ----- -- ----,65000.59999999963,64999.800000000745,64275.961,64281,64292.631,65009.474,,25,study
screen,html.Screen,0_2_0_1_26,2021-11-04T12:00:16.074Z,,,,,,,,,,,,,,,,53,,,,,,,,,,,,,,630.225999999253,,response,,,99,,,,,,Space,keypress(Space),,,,,---- -- ----- -- ------ - ------- --- ----------<br>------------- ------ ------ ---- ---- ------- ----- -- ----<br>-------- ------- -- ---------- --- - --- ----- finds ----<br>---- --- --- ----- --- ---- ---- ------- ----- ---- -------<br>--- --- -- ----- -- --- ---- -- --- ---- -- ------ ------<br>--- ----- -- ----,65640.59999999963,65639.69999999925,64992.804,65001,65009.474,65642.816,,26,finds
screen,html.Screen,0_2_0_1_27,2021-11-04T12:00:16.610Z,,,,,,,,,,,,,,,,53,,,,,,,,,,,,,,532.8839999992488,,response,,,99,,,,,,Space,keypress(Space),,,,,---- -- ----- -- ------ - ------- --- ----------<br>------------- ------ ------ ---- ---- ------- ----- -- ----<br>-------- ------- -- ---------- --- - --- ----- ----- that<br>---- --- --- ----- --- ---- ---- ------- ----- ---- -------<br>--- --- -- ----- -- --- ---- -- --- ---- -- ------ ------<br>--- ----- -- ----,66176.5,66175.69999999925,65626.147,65640.90000000037,65642.816,66193.166,,27,that
screen,html.Screen,0_2_0_1_28,2021-11-04T12:00:17.130Z,,,,,,,,,,,,,,,,53,,,,,,,,,,,,,,502.6340000007476,,response,,,99,,,,,,Space,keypress(Space),,,,,---- -- ----- -- ------ - ------- --- ----------<br>------------- ------ ------ ---- ---- ------- ----- -- ----<br>-------- ------- -- ---------- --- - --- ----- ----- ----<br>it's --- --- ----- --- ---- ---- ------- ----- ---- -------<br>--- --- -- ----- -- --- ---- -- --- ---- -- ------ ------<br>--- ----- -- ----,66696.59999999963,66695.80000000075,66176.495,66176.80000000075,66193.166,66709.806,,28,it's
screen,html.Screen,0_2_0_1_29,2021-11-04T12:00:17.530Z,,,,,,,,,,,,,,,,53,,,,,,,,,,,,,,386.3939999992581,,response,,,99,,,,,,Space,keypress(Space),,,,,---- -- ----- -- ------ - ------- --- ----------<br>------------- ------ ------ ---- ---- ------- ----- -- ----<br>-------- ------- -- ---------- --- - --- ----- ----- ----<br>---- not --- ----- --- ---- ---- ------- ----- ---- -------<br>--- --- -- ----- -- --- ---- -- --- ---- -- ------ ------<br>--- ----- -- ----,67097,67096.19999999925,66693.137,66696.90000000037,66709.806,67110.127,,29,not
screen,html.Screen,0_2_0_1_30,2021-11-04T12:00:17.954Z,,,,,,,,,,,,,,,,53,,,,,,,,,,,,,,409.5729999992618,,response,,,99,,,,,,Space,keypress(Space),,,,,---- -- ----- -- ------ - ------- --- ----------<br>------------- ------ ------ ---- ---- ------- ----- -- ----<br>-------- ------- -- ---------- --- - --- ----- ----- ----<br>---- --- how ----- --- ---- ---- ------- ----- ---- -------<br>--- --- -- ----- -- --- ---- -- --- ---- -- ------ ------<br>--- ----- -- ----,67520.5,67519.69999999925,67093.455,67097.30000000075,67110.127,67526.79,,30,how
screen,html.Screen,0_2_0_1_31,2021-11-04T12:00:18.370Z,,,,,,,,,,,,,,,,53,,,,,,,,,,,,,,408.90999999926134,,response,,,99,,,,,,Space,keypress(Space),,,,,---- -- ----- -- ------ - ------- --- ----------<br>------------- ------ ------ ---- ---- ------- ----- -- ----<br>-------- ------- -- ---------- --- - --- ----- ----- ----<br>---- --- --- close --- ---- ---- ------- ----- ---- -------<br>--- --- -- ----- -- --- ---- -- --- ---- -- ------ ------<br>--- ----- -- ----,67936.5,67935.69999999925,67510.12,67520.80000000075,67526.79,67943.609,,31,close
screen,html.Screen,0_2_0_1_32,2021-11-04T12:00:18.788Z,,,,,,,,,,,,,,,,53,,,,,,,,,,,,,,407.99099999963073,,response,,,99,,,,,,Space,keypress(Space),,,,,---- -- ----- -- ------ - ------- --- ----------<br>------------- ------ ------ ---- ---- ------- ----- -- ----<br>-------- ------- -- ---------- --- - --- ----- ----- ----<br>---- --- --- ----- you ---- ---- ------- ----- ---- -------<br>--- --- -- ----- -- --- ---- -- --- ---- -- ------ ------<br>--- ----- -- ----,68354.90000000037,68351.59999999963,67926.938,67936.69999999925,67943.609,68360.331,,32,you
screen,html.Screen,0_2_0_1_33,2021-11-04T12:00:19.170Z,,,,,,,,,,,,,,,,53,,,,,,,,,,,,,,375.2689999996219,,response,,,99,,,,,,Space,keypress(Space),,,,,---- -- ----- -- ------ - ------- --- ----------<br>------------- ------ ------ ---- ---- ------- ----- -- ----<br>-------- ------- -- ---------- --- - --- ----- ----- ----<br>---- --- --- ----- --- feel ---- ------- ----- ---- -------<br>--- --- -- ----- -- --- ---- -- --- ---- -- ------ ------<br>--- ----- -- ----,68736.80000000075,68735.59999999963,68343.661,68355.19999999925,68360.331,68743.785,,33,feel
screen,html.Screen,0_2_0_1_34,2021-11-04T12:00:19.673Z,,,,,,,,,,,,,,,,53,,,,,,,,,,,,,,495.814999999624,,response,,,99,,,,,,Space,keypress(Space),,,,,---- -- ----- -- ------ - ------- --- ----------<br>------------- ------ ------ ---- ---- ------- ----- -- ----<br>-------- ------- -- ---------- --- - --- ----- ----- ----<br>---- --- --- ----- --- ---- that ------- ----- ---- -------<br>--- --- -- ----- -- --- ---- -- --- ---- -- ------ ------<br>--- ----- -- ----,69240.40000000037,69239.59999999963,68727.115,68737.09999999963,68743.785,69243.949,,34,that
screen,html.Screen,0_2_0_1_35,2021-11-04T12:00:20.153Z,,,,,,,,,,,,,,,,53,,,,,,,,,,,,,,475.6509999996342,,response,,,99,,,,,,Space,keypress(Space),,,,,---- -- ----- -- ------ - ------- --- ----------<br>------------- ------ ------ ---- ---- ------- ----- -- ----<br>-------- ------- -- ---------- --- - --- ----- ----- ----<br>---- --- --- ----- --- ---- ---- matters ----- ---- -------<br>--- --- -- ----- -- --- ---- -- --- ---- -- ------ ------<br>--- ----- -- ----,69720.30000000075,69719.59999999963,69227.278,69240.59999999963,69243.949,69727.359,,35,matters
screen,html.Screen,0_2_0_1_36,2021-11-04T12:00:20.962Z,,,,,,,,,,,,,,,,53,,,,,,,,,,,,,,800.1410000000033,,response,,,99,,,,,,Space,keypress(Space),,,,,"---- -- ----- -- ------ - ------- --- ----------<br>------------- ------ ------ ---- ---- ------- ----- -- ----<br>-------- ------- -- ---------- --- - --- ----- ----- ----<br>---- --- --- ----- --- ---- ---- ------- most, ---- -------<br>--- --- -- ----- -- --- ---- -- --- ---- -- ------ ------<br>--- ----- -- ----",70528.90000000037,70527.5,69710.689,69720.5,69727.359,70544.209,,36,"most,"
screen,html.Screen,0_2_0_1_37,2021-11-04T12:00:21.441Z,,,,,,,,,,,,,,,,53,,,,,,,,,,,,,,463.29099999999744,,response,,,99,,,,,,Space,keypress(Space),,,,,---- -- ----- -- ------ - ------- --- ----------<br>------------- ------ ------ ---- ---- ------- ----- -- ----<br>-------- ------- -- ---------- --- - --- ----- ----- ----<br>---- --- --- ----- --- ---- ---- ------- ----- it's -------<br>--- --- -- ----- -- --- ---- -- --- ---- -- ------ ------<br>--- ----- -- ----,71008.30000000075,71007.5,70527.539,70529.09999999963,70544.209,71010.981,,37,it's
screen,html.Screen,0_2_0_1_38,2021-11-04T12:00:22.001Z,,,,,,,,,,,,,,,,53,,,,,,,,,,,,,,556.4190000003728,,response,,,99,,,,,,Space,keypress(Space),,,,,---- -- ----- -- ------ - ------- --- ----------<br>------------- ------ ------ ---- ---- ------- ----- -- ----<br>-------- ------- -- ---------- --- - --- ----- ----- ----<br>---- --- --- ----- --- ---- ---- ------- ----- ---- whether<br>--- --- -- ----- -- --- ---- -- --- ---- -- ------ ------<br>--- ----- -- ----,71568.19999999925,71567.40000000037,70994.311,71008.59999999963,71010.981,71577.885,,38,whether
screen,html.Screen,0_2_0_1_39,2021-11-04T12:00:22.457Z,,,,,,,,,,,,,,,,53,,,,,,,,,,,,,,445.61500000000524,,response,,,99,,,,,,Space,keypress(Space),,,,,---- -- ----- -- ------ - ------- --- ----------<br>------------- ------ ------ ---- ---- ------- ----- -- ----<br>-------- ------- -- ---------- --- - --- ----- ----- ----<br>---- --- --- ----- --- ---- ---- ------- ----- ---- -------<br>you --- -- ----- -- --- ---- -- --- ---- -- ------ ------<br>--- ----- -- ----,72024.19999999925,72023.5,71561.214,71568.5,71577.885,72027.855,,39,you
screen,html.Screen,0_2_0_1_40,2021-11-04T12:00:22.865Z,,,,,,,,,,,,,,,,53,,,,,,,,,,,,,,403.6450000000041,,response,,,99,,,,,,Space,keypress(Space),,,,,---- -- ----- -- ------ - ------- --- ----------<br>------------- ------ ------ ---- ---- ------- ----- -- ----<br>-------- ------- -- ---------- --- - --- ----- ----- ----<br>---- --- --- ----- --- ---- ---- ------- ----- ---- -------<br>--- are -- ----- -- --- ---- -- --- ---- -- ------ ------<br>--- ----- -- ----,72432.30000000075,72431.5,72011.186,72024.5,72027.855,72444.642,,40,are
screen,html.Screen,0_2_0_1_41,2021-11-04T12:00:23.257Z,,,,,,,,,,,,,,,,53,,,,,,,,,,,,,,378.7580000003654,,response,,,99,,,,,,Space,keypress(Space),,,,,---- -- ----- -- ------ - ------- --- ----------<br>------------- ------ ------ ---- ---- ------- ----- -- ----<br>-------- ------- -- ---------- --- - --- ----- ----- ----<br>---- --- --- ----- --- ---- ---- ------- ----- ---- -------<br>--- --- as ----- -- --- ---- -- --- ---- -- ------ ------<br>--- ----- -- ----,72824.19999999925,72823.40000000037,72427.973,72432.5,72444.642,72828.123,,41,as
screen,html.Screen,0_2_0_1_42,2021-11-04T12:00:23.705Z,,,,,,,,,,,,,,,,53,,,,,,,,,,,,,,443.27700000036566,,response,,,99,,,,,,Space,keypress(Space),,,,,---- -- ----- -- ------ - ------- --- ----------<br>------------- ------ ------ ---- ---- ------- ----- -- ----<br>-------- ------- -- ---------- --- - --- ----- ----- ----<br>---- --- --- ----- --- ---- ---- ------- ----- ---- -------<br>--- --- -- close -- --- ---- -- --- ---- -- ------ ------<br>--- ----- -- ----,73272.09999999963,73271.40000000037,72811.453,72824.5,72828.123,73278.357,,42,close
screen,html.Screen,0_2_0_1_43,2021-11-04T12:00:24.137Z,,,,,,,,,,,,,,,,53,,,,,,,,,,,,,,425.0430000003689,,response,,,99,,,,,,Space,keypress(Space),,,,,---- -- ----- -- ------ - ------- --- ----------<br>------------- ------ ------ ---- ---- ------- ----- -- ----<br>-------- ------- -- ---------- --- - --- ----- ----- ----<br>---- --- --- ----- --- ---- ---- ------- ----- ---- -------<br>--- --- -- ----- as --- ---- -- --- ---- -- ------ ------<br>--- ----- -- ----,73704.19999999925,73703.40000000037,73261.685,73272.30000000075,73278.357,73711.721,,43,as
screen,html.Screen,0_2_0_1_44,2021-11-04T12:00:24.577Z,,,,,,,,,,,,,,,,53,,,,,,,,,,,,,,431.57900000074005,,response,,,99,,,,,,Space,keypress(Space),,,,,---- -- ----- -- ------ - ------- --- ----------<br>------------- ------ ------ ---- ---- ------- ----- -- ----<br>-------- ------- -- ---------- --- - --- ----- ----- ----<br>---- --- --- ----- --- ---- ---- ------- ----- ---- -------<br>--- --- -- ----- -- you ---- -- --- ---- -- ------ ------<br>--- ----- -- ----,74144.19999999925,74143.30000000075,73695.051,73704.30000000075,73711.721,74145.147,,44,you
screen,html.Screen,0_2_0_1_45,2021-11-04T12:00:24.985Z,,,,,,,,,,,,,,,,53,,,,,,,,,,,,,,406.15300000074785,,response,,,99,,,,,,Space,keypress(Space),,,,,---- -- ----- -- ------ - ------- --- ----------<br>------------- ------ ------ ---- ---- ------- ----- -- ----<br>-------- ------- -- ---------- --- - --- ----- ----- ----<br>---- --- --- ----- --- ---- ---- ------- ----- ---- -------<br>--- --- -- ----- -- --- want -- --- ---- -- ------ ------<br>--- ----- -- ----,74552.09999999963,74551.30000000075,74128.477,74144.40000000037,74145.147,74561.984,,45,want
screen,html.Screen,0_2_0_1_46,2021-11-04T12:00:25.417Z,,,,,,,,,,,,,,,,53,,,,,,,,,,,,,,421.3160000007483,,response,,,99,,,,,,Space,keypress(Space),,,,,---- -- ----- -- ------ - ------- --- ----------<br>------------- ------ ------ ---- ---- ------- ----- -- ----<br>-------- ------- -- ---------- --- - --- ----- ----- ----<br>---- --- --- ----- --- ---- ---- ------- ----- ---- -------<br>--- --- -- ----- -- --- ---- to --- ---- -- ------ ------<br>--- ----- -- ----,74984,74983.30000000075,74545.313,74552.30000000075,74561.984,74995.382,,46,to
screen,html.Screen,0_2_0_1_47,2021-11-04T12:00:26.081Z,,,,,,,,,,,,,,,,53,,,,,,,,,,,,,,651.8179999992572,,response,,,99,,,,,,Space,keypress(Space),,,,,"---- -- ----- -- ------ - ------- --- ----------<br>------------- ------ ------ ---- ---- ------- ----- -- ----<br>-------- ------- -- ---------- --- - --- ----- ----- ----<br>---- --- --- ----- --- ---- ---- ------- ----- ---- -------<br>--- --- -- ----- -- --- ---- -- be, ---- -- ------ ------<br>--- ----- -- ----",75648,75647.19999999925,74978.712,74984.30000000075,74995.382,75662.201,,47,"be,"
screen,html.Screen,0_2_0_1_48,2021-11-04T12:00:26.489Z,,,,,,,,,,,,,,,,53,,,,,,,,,,,,,,392.998999999254,,response,,,99,,,,,,Space,keypress(Space),,,,,---- -- ----- -- ------ - ------- --- ----------<br>------------- ------ ------ ---- ---- ------- ----- -- ----<br>-------- ------- -- ---------- --- - --- ----- ----- ----<br>---- --- --- ----- --- ---- ---- ------- ----- ---- -------<br>--- --- -- ----- -- --- ---- -- --- even -- ------ ------<br>--- ----- -- ----,76056,76055.19999999925,75645.531,75648.30000000075,75662.201,76062.295,,48,even
screen,html.Screen,0_2_0_1_49,2021-11-04T12:00:26.945Z,,,,,,,,,,,,,,,,53,,,,,,,,,,,,,,448.9049999992567,,response,,,99,,,,,,Space,keypress(Space),,,,,---- -- ----- -- ------ - ------- --- ----------<br>------------- ------ ------ ---- ---- ------- ----- -- ----<br>-------- ------- -- ---------- --- - --- ----- ----- ----<br>---- --- --- ----- --- ---- ---- ------- ----- ---- -------<br>--- --- -- ----- -- --- ---- -- --- ---- if ------ ------<br>--- ----- -- ----,76512,76511.19999999925,76045.625,76056.30000000075,76062.295,76529.111,,49,if
screen,html.Screen,0_2_0_1_50,2021-11-04T12:00:27.873Z,,,,,,,,,,,,,,,,53,,,,,,,,,,,,,,910.3889999999956,,response,,,99,,,,,,Space,keypress(Space),,,,,---- -- ----- -- ------ - ------- --- ----------<br>------------- ------ ------ ---- ---- ------- ----- -- ----<br>-------- ------- -- ---------- --- - --- ----- ----- ----<br>---- --- --- ----- --- ---- ---- ------- ----- ---- -------<br>--- --- -- ----- -- --- ---- -- --- ---- -- that's ------<br>--- ----- -- ----,77440.40000000037,77439.5,76512.441,76512.19999999925,76529.111,77446.058,,50,that's
screen,html.Screen,0_2_0_1_51,2021-11-04T12:00:28.409Z,,,,,,,,,,,,,,,,53,,,,,,,,,,,,,,529.0419999996229,,response,,,99,,,,,,Space,keypress(Space),,,,,---- -- ----- -- ------ - ------- --- ----------<br>------------- ------ ------ ---- ---- ------- ----- -- ----<br>-------- ------- -- ---------- --- - --- ----- ----- ----<br>---- --- --- ----- --- ---- ---- ------- ----- ---- -------<br>--- --- -- ----- -- --- ---- -- --- ---- -- ------ really<br>--- ----- -- ----,77975.80000000075,77975.09999999963,77429.387,77440.59999999963,77446.058,77979.461,,51,really
screen,html.Screen,0_2_0_1_52,2021-11-04T12:00:28.889Z,,,,,,,,,,,,,,,,53,,,,,,,,,,,,,,475.6389999996318,,response,,,99,,,,,,Space,keypress(Space),,,,,---- -- ----- -- ------ - ------- --- ----------<br>------------- ------ ------ ---- ---- ------- ----- -- ----<br>-------- ------- -- ---------- --- - --- ----- ----- ----<br>---- --- --- ----- --- ---- ---- ------- ----- ---- -------<br>--- --- -- ----- -- --- ---- -- --- ---- -- ------ ------<br>not ----- -- ----,78455.80000000075,78455.09999999963,77962.791,77976.09999999963,77979.461,78462.844,,52,not
screen,html.Screen,0_2_0_1_53,2021-11-04T12:00:29.313Z,,,,,,,,,,,,,,,,53,,,,,,,,,,,,,,416.1560000000027,,response,,,99,,,,,,Space,keypress(Space),,,,,---- -- ----- -- ------ - ------- --- ----------<br>------------- ------ ------ ---- ---- ------- ----- -- ----<br>-------- ------- -- ---------- --- - --- ----- ----- ----<br>---- --- --- ----- --- ---- ---- ------- ----- ---- -------<br>--- --- -- ----- -- --- ---- -- --- ---- -- ------ ------<br>--- close -- ----,78879.69999999925,78879,78446.175,78456.09999999963,78462.844,78896.472,,53,close
screen,html.Screen,0_2_0_1_54,2021-11-04T12:00:29.729Z,,,,,,,,,,,,,,,,53,,,,,,,,,,,,,,398.6279999996332,,response,,,99,,,,,,Space,keypress(Space),,,,,---- -- ----- -- ------ - ------- --- ----------<br>------------- ------ ------ ---- ---- ------- ----- -- ----<br>-------- ------- -- ---------- --- - --- ----- ----- ----<br>---- --- --- ----- --- ---- ---- ------- ----- ---- -------<br>--- --- -- ----- -- --- ---- -- --- ---- -- ------ ------<br>--- ----- at ----,79295.90000000037,79295.09999999963,78879.8,78880,78896.472,79313.168,,54,at
screen,html.Screen,0_2_0_1_55,2021-11-04T12:00:30.169Z,,,,,,,,,,,,,,,,53,,,,,,,,,,,,,,421.8319999999949,,response,,,99,,,,,,Space,keypress(Space),,,,,---- -- ----- -- ------ - ------- --- ----------<br>------------- ------ ------ ---- ---- ------- ----- -- ----<br>-------- ------- -- ---------- --- - --- ----- ----- ----<br>---- --- --- ----- --- ---- ---- ------- ----- ---- -------<br>--- --- -- ----- -- --- ---- -- --- ---- -- ------ ------<br>--- ----- -- all.,79735.90000000037,79735,79296.498,79296.09999999963,79313.168,79746.616,,55,all.
Item 99,flow.Loop,0_2_0_1,2021-11-04T12:00:30.174Z,,,,,,,,,,,,,,,,,,,,,,,,,,,,,,34580.894,,completion,,,,E,,,,,,,,,,silence,,79740.59999999963,79735,45087.43,45093.699999999255,45154.106,79746.616,,,
Question 1,html.Screen,0_2_0_2,2021-11-04T12:00:35.419Z,,,,,,,,,,,,,,,,,,,,,,,,,,,true,FALSE,,5237.784000000378,,response,,,99,E,,,,,FALSE,click #choice-2,,,,silence,,84985.80000000075,84984.40000000037,79729.946,79740.80000000075,79746.616,84997.73,,,
Question 2,html.Screen,0_2_0_3,2021-11-04T12:00:39.887Z,,,,,,,,,,,,,,,,,,,,,,,,,,,true,TRUE,,4455.369999999632,,response,,,99,E,,,,,TRUE,click #choice-1,,,,silence,,89454.40000000037,89453.09999999963,84981.062,84986.09999999963,84997.73,89465.745,,,
Item 99,flow.Sequence,0_2_0,2021-11-04T12:00:39.888Z,,,,,,,,,,,,,,,,,,,,,,,,,,,,,,54351.45299999963,,completion,,,,,,,,,,,,,,,,89454.80000000075,89453.09999999963,35084.977,35087.300000000745,35101.647,89465.745,,,
Holding screen,html.Screen,0_2_1_0,2021-11-04T12:00:49.886Z,,,,,,,,,,,,,,,,,,,,,,,,,,,,,,10002.462,,timeout,,,,,,,,,,,,,,,,99452.69999999925,99451.537,89449.075,89455.30000000075,89465.745,99468.207,,,
screen,html.Screen,0_2_1_1_0,2021-11-04T12:00:51.096Z,,,,,,,,,,,,,,,,54,,,,,,,,,,,,,,1194.1930000003777,,response,,,100,,,,,,Space,keypress(Space),,,,,At --- ---- --- ------ ----- ------- ---- -- --- ------- --<br>------- ---------- ------ -- ----- -- ----- -- ---- ------<br>--- ----- --- --- ------ -------- ----- --- ------ ----- --<br>----- ----- ---------- --- --- ------ ------ ---- -- ------<br>------- --- ------ ----- --- ---- ------- -- ---- --- --<br>------- ------,100663.40000000037,100662.40000000037,99451.537,99453.09999999963,99468.207,100668.725,,0,At
screen,html.Screen,0_2_1_1_1,2021-11-04T12:00:51.736Z,,,,,,,,,,,,,,,,54,,,,,,,,,,,,,,633.1750000003667,,response,,,100,,,,,,Space,keypress(Space),,,,,-- the ---- --- ------ ----- ------- ---- -- --- ------- --<br>------- ---------- ------ -- ----- -- ----- -- ---- ------<br>--- ----- --- --- ------ -------- ----- --- ------ ----- --<br>----- ----- ---------- --- --- ------ ------ ---- -- ------<br>------- --- ------ ----- --- ---- ------- -- ---- --- --<br>------- ------,101302.69999999925,101301.90000000037,100652.054,100663.69999999925,100668.725,101318.791,,1,the
screen,html.Screen,0_2_1_1_2,2021-11-04T12:00:52.288Z,,,,,,,,,,,,,,,,54,,,,,,,,,,,,,,534.9089999992575,,response,,,100,,,,,,Space,keypress(Space),,,,,-- --- time --- ------ ----- ------- ---- -- --- ------- --<br>------- ---------- ------ -- ----- -- ----- -- ---- ------<br>--- ----- --- --- ------ -------- ----- --- ------ ----- --<br>----- ----- ---------- --- --- ------ ------ ---- -- ------<br>------- --- ------ ----- --- ---- ------- -- ---- --- --<br>------- ------,101854.69999999925,101853.69999999925,101302.121,101303.09999999963,101318.791,101868.88,,2,time
screen,html.Screen,0_2_1_1_3,2021-11-04T12:00:52.792Z,,,,,,,,,,,,,,,,54,,,,,,,,,,,,,,488.9200000007404,,response,,,100,,,,,,Space,keypress(Space),,,,,-- --- ---- the ------ ----- ------- ---- -- --- ------- --<br>------- ---------- ------ -- ----- -- ----- -- ---- ------<br>--- ----- --- --- ------ -------- ----- --- ------ ----- --<br>----- ----- ---------- --- --- ------ ------ ---- -- ------<br>------- --- ------ ----- --- ---- ------- -- ---- --- --<br>------- ------,102358.59999999963,102357.80000000075,101852.21,101855,101868.88,102369.199,,3,the
screen,html.Screen,0_2_1_1_4,2021-11-04T12:00:53.570Z,,,,,,,,,,,,,,,,54,,,,,,,,,,,,,,764.5009999992617,,response,,,100,,,,,,Space,keypress(Space),,,,,-- --- ---- --- French ----- ------- ---- -- --- ------- --<br>------- ---------- ------ -- ----- -- ----- -- ---- ------<br>--- ----- --- --- ------ -------- ----- --- ------ ----- --<br>----- ----- ---------- --- --- ------ ------ ---- -- ------<br>------- --- ------ ----- --- ---- ------- -- ---- --- --<br>------- ------,103136.90000000037,103133.69999999925,102352.527,102359,102369.199,103152.589,,4,French
screen,html.Screen,0_2_1_1_5,2021-11-04T12:00:54.848Z,,,,,,,,,,,,,,,,54,,,,,,,,,,,,,,1261.1109999992477,,response,,,100,,,,,,Space,keypress(Space),,,,,-- --- ---- --- ------ crown ------- ---- -- --- ------- --<br>------- ---------- ------ -- ----- -- ----- -- ---- ------<br>--- ----- --- --- ------ -------- ----- --- ------ ----- --<br>----- ----- ---------- --- --- ------ ------ ---- -- ------<br>------- --- ------ ----- --- ---- ------- -- ---- --- --<br>------- ------,104414.5,104413.69999999925,103135.919,103137.30000000075,103152.589,104419.583,,5,crown
screen,html.Screen,0_2_1_1_6,2021-11-04T12:00:55.607Z,,,,,,,,,,,,,,,,54,,,,,,,,,,,,,,753.8170000003738,,response,,,100,,,,,,Space,keypress(Space),,,,,-- --- ---- --- ------ ----- secured ---- -- --- ------- --<br>------- ---------- ------ -- ----- -- ----- -- ---- ------<br>--- ----- --- --- ------ -------- ----- --- ------ ----- --<br>----- ----- ---------- --- --- ------ ------ ---- -- ------<br>------- --- ------ ----- --- ---- ------- -- ---- --- --<br>------- ------,105174,105173.40000000037,104402.913,104414.80000000075,104419.583,105186.283,,6,secured
screen,html.Screen,0_2_1_1_7,2021-11-04T12:00:56.199Z,,,,,,,,,,,,,,,,54,,,,,,,,,,,,,,579.2170000000042,,response,,,100,,,,,,Space,keypress(Space),,,,,-- --- ---- --- ------ ----- ------- much -- --- ------- --<br>------- ---------- ------ -- ----- -- ----- -- ---- ------<br>--- ----- --- --- ------ -------- ----- --- ------ ----- --<br>----- ----- ---------- --- --- ------ ------ ---- -- ------<br>------- --- ------ ----- --- ---- ------- -- ---- --- --<br>------- ------,105766.19999999925,105765.5,105169.614,105174.19999999925,105186.283,105769.925,,7,much
screen,html.Screen,0_2_1_1_8,2021-11-04T12:00:56.751Z,,,,,,,,,,,,,,,,54,,,,,,,,,,,,,,547.5749999999971,,response,,,100,,,,,,Space,keypress(Space),,,,,-- --- ---- --- ------ ----- ------- ---- of --- ------- --<br>------- ---------- ------ -- ----- -- ----- -- ---- ------<br>--- ----- --- --- ------ -------- ----- --- ------ ----- --<br>----- ----- ---------- --- --- ------ ------ ---- -- ------<br>------- --- ------ ----- --- ---- ------- -- ---- --- --<br>------- ------,106318.30000000075,106317.5,105753.255,105766.5,105769.925,106320.03,,8,of
screen,html.Screen,0_2_1_1_9,2021-11-04T12:00:57.703Z,,,,,,,,,,,,,,,,54,,,,,,,,,,,,,,949.4700000000012,,response,,,100,,,,,,Space,keypress(Space),,,,,-- --- ---- --- ------ ----- ------- ---- -- its ------- --<br>------- ---------- ------ -- ----- -- ----- -- ---- ------<br>--- ----- --- --- ------ -------- ----- --- ------ ----- --<br>----- ----- ---------- --- --- ------ ------ ---- -- ------<br>------- --- ------ ----- --- ---- ------- -- ---- --- --<br>------- ------,107270.30000000075,107269.5,106303.36,106318.5,106320.03,107287.162,,9,its
screen,html.Screen,0_2_1_1_10,2021-11-04T12:00:58.967Z,,,,,,,,,,,,,,,,54,,,,,,,,,,,,,,1246.3380000000034,,response,,,100,,,,,,Space,keypress(Space),,,,,-- --- ---- --- ------ ----- ------- ---- -- --- revenue --<br>------- ---------- ------ -- ----- -- ----- -- ---- ------<br>--- ----- --- --- ------ -------- ----- --- ------ ----- --<br>----- ----- ---------- --- --- ------ ------ ---- -- ------<br>------- --- ------ ----- --- ---- ------- -- ---- --- --<br>------- ------,108534.19999999925,108533.5,107270.49,107270.59999999963,107287.162,108537.403,,10,revenue
screen,html.Screen,0_2_1_1_11,2021-11-04T12:00:59.903Z,,,,,,,,,,,,,,,,54,,,,,,,,,,,,,,931.9970000003668,,response,,,100,,,,,,Space,keypress(Space),,,,,-- --- ---- --- ------ ----- ------- ---- -- --- ------- by<br>------- ---------- ------ -- ----- -- ----- -- ---- ------<br>--- ----- --- --- ------ -------- ----- --- ------ ----- --<br>----- ----- ---------- --- --- ------ ------ ---- -- ------<br>------- --- ------ ----- --- ---- ------- -- ---- --- --<br>------- ------,109470.30000000075,109469.40000000037,108520.732,108534.5,108537.403,109487.544,,11,by
screen,html.Screen,0_2_1_1_12,2021-11-04T12:01:00.551Z,,,,,,,,,,,,,,,,54,,,,,,,,,,,,,,629.7560000007506,,response,,,100,,,,,,Space,keypress(Space),,,,,-- --- ---- --- ------ ----- ------- ---- -- --- ------- --<br>issuing ---------- ------ -- ----- -- ----- -- ---- ------<br>--- ----- --- --- ------ -------- ----- --- ------ ----- --<br>----- ----- ---------- --- --- ------ ------ ---- -- ------<br>------- --- ------ ----- --- ---- ------- -- ---- --- --<br>------- ------,110118.09999999963,110117.30000000075,109470.874,109470.59999999963,109487.544,110121.085,,12,issuing
screen,html.Screen,0_2_1_1_13,2021-11-04T12:01:01.248Z,,,,,,,,,,,,,,,,54,,,,,,,,,,,,,,692.7150000007387,,response,,,100,,,,,,Space,keypress(Space),,,,,-- --- ---- --- ------ ----- ------- ---- -- --- ------- --<br>------- government ------ -- ----- -- ----- -- ---- ------<br>--- ----- --- --- ------ -------- ----- --- ------ ----- --<br>----- ----- ---------- --- --- ------ ------ ---- -- ------<br>------- --- ------ ----- --- ---- ------- -- ---- --- --<br>------- ------,110814.59999999963,110813.80000000075,110104.415,110118.40000000037,110121.085,110821.242,,13,government
screen,html.Screen,0_2_1_1_14,2021-11-04T12:01:02.415Z,,,,,,,,,,,,,,,,54,,,,,,,,,,,,,,1160.0580000007467,,response,,,100,,,,,,Space,keypress(Space),,,,,-- --- ---- --- ------ ----- ------- ---- -- --- ------- --<br>------- ---------- bonds. -- ----- -- ----- -- ---- ------<br>--- ----- --- --- ------ -------- ----- --- ------ ----- --<br>----- ----- ---------- --- --- ------ ------ ---- -- ------<br>------- --- ------ ----- --- ---- ------- -- ---- --- --<br>------- ------,111982,111981.30000000075,110804.572,110814.90000000037,110821.242,111988.2,,14,bonds.
screen,html.Screen,0_2_1_1_15,2021-11-04T12:01:02.807Z,,,,,,,,,,,,,,,,54,,,,,,,,,,,,,,384.99999999925785,,response,,,100,,,,,,Space,keypress(Space),,,,,-- --- ---- --- ------ ----- ------- ---- -- --- ------- --<br>------- ---------- ------ In ----- -- ----- -- ---- ------<br>--- ----- --- --- ------ -------- ----- --- ------ ----- --<br>----- ----- ---------- --- --- ------ ------ ---- -- ------<br>------- --- ------ ----- --- ---- ------- -- ---- --- --<br>------- ------,112374.09999999963,112373.19999999925,111971.53,111982.30000000075,111988.2,112388.349,,15,In
screen,html.Screen,0_2_1_1_16,2021-11-04T12:01:03.823Z,,,,,,,,,,,,,,,,54,,,,,,,,,,,,,,1000.850999999253,,response,,,100,,,,,,Space,keypress(Space),,,,,"-- --- ---- --- ------ ----- ------- ---- -- --- ------- --<br>------- ---------- ------ -- 1727, -- ----- -- ---- ------<br>--- ----- --- --- ------ -------- ----- --- ------ ----- --<br>----- ----- ---------- --- --- ------ ------ ---- -- ------<br>------- --- ------ ----- --- ---- ------- -- ---- --- --<br>------- ------",113390,113389.19999999925,112371.679,112374.30000000075,112388.349,113405.243,,16,"1727,"
screen,html.Screen,0_2_1_1_17,2021-11-04T12:01:04.391Z,,,,,,,,,,,,,,,,54,,,,,,,,,,,,,,551.8569999996253,,response,,,100,,,,,,Space,keypress(Space),,,,,-- --- ---- --- ------ ----- ------- ---- -- --- ------- --<br>------- ---------- ------ -- ----- in ----- -- ---- ------<br>--- ----- --- --- ------ -------- ----- --- ------ ----- --<br>----- ----- ---------- --- --- ------ ------ ---- -- ------<br>------- --- ------ ----- --- ---- ------- -- ---- --- --<br>------- ------,113958,113957.09999999963,113388.573,113390.19999999925,113405.243,113971.837,,17,in
screen,html.Screen,0_2_1_1_18,2021-11-04T12:01:04.967Z,,,,,,,,,,,,,,,,54,,,,,,,,,,,,,,561.2629999996279,,response,,,100,,,,,,Space,keypress(Space),,,,,-- --- ---- --- ------ ----- ------- ---- -- --- ------- --<br>------- ---------- ------ -- ----- -- order -- ---- ------<br>--- ----- --- --- ------ -------- ----- --- ------ ----- --<br>----- ----- ---------- --- --- ------ ------ ---- -- ------<br>------- --- ------ ----- --- ---- ------- -- ---- --- --<br>------- ------,114533.90000000037,114533.09999999963,113955.169,113958.09999999963,113971.837,114538.855,,18,order
screen,html.Screen,0_2_1_1_19,2021-11-04T12:01:05.375Z,,,,,,,,,,,,,,,,54,,,,,,,,,,,,,,402.24499999963155,,response,,,100,,,,,,Space,keypress(Space),,,,,-- --- ---- --- ------ ----- ------- ---- -- --- ------- --<br>------- ---------- ------ -- ----- -- ----- to ---- ------<br>--- ----- --- --- ------ -------- ----- --- ------ ----- --<br>----- ----- ---------- --- --- ------ ------ ---- -- ------<br>------- --- ------ ----- --- ---- ------- -- ---- --- --<br>------- ------,114941.90000000037,114941.09999999963,114522.185,114534.19999999925,114538.855,114955.767,,19,to
screen,html.Screen,0_2_1_1_20,2021-11-04T12:01:05.823Z,,,,,,,,,,,,,,,,54,,,,,,,,,,,,,,433.2329999999929,,response,,,100,,,,,,Space,keypress(Space),,,,,-- --- ---- --- ------ ----- ------- ---- -- --- ------- --<br>------- ---------- ------ -- ----- -- ----- -- save ------<br>--- ----- --- --- ------ -------- ----- --- ------ ----- --<br>----- ----- ---------- --- --- ------ ------ ---- -- ------<br>------- --- ------ ----- --- ---- ------- -- ---- --- --<br>------- ------,115389.80000000075,115389,114939.095,114942.09999999963,114955.767,115405.792,,20,save
screen,html.Screen,0_2_1_1_21,2021-11-04T12:01:06.519Z,,,,,,,,,,,,,,,,54,,,,,,,,,,,,,,679.2079999999987,,response,,,100,,,,,,Space,keypress(Space),,,,,"-- --- ---- --- ------ ----- ------- ---- -- --- ------- --<br>------- ---------- ------ -- ----- -- ----- -- ---- money,<br>--- ----- --- --- ------ -------- ----- --- ------ ----- --<br>----- ----- ---------- --- --- ------ ------ ---- -- ------<br>------- --- ------ ----- --- ---- ------- -- ---- --- --<br>------- ------",116085.90000000037,116085,115389.122,115390.09999999963,115405.792,116089.272,,21,"money,"
screen,html.Screen,0_2_1_1_22,2021-11-04T12:01:07.063Z,,,,,,,,,,,,,,,,54,,,,,,,,,,,,,,539.7280000000028,,response,,,100,,,,,,Space,keypress(Space),,,,,-- --- ---- --- ------ ----- ------- ---- -- --- ------- --<br>------- ---------- ------ -- ----- -- ----- -- ---- ------<br>the ----- --- --- ------ -------- ----- --- ------ ----- --<br>----- ----- ---------- --- --- ------ ------ ---- -- ------<br>------- --- ------ ----- --- ---- ------- -- ---- --- --<br>------- ------,116629.80000000075,116629,116072.602,116086.09999999963,116089.272,116639.413,,22,the
screen,html.Screen,0_2_1_1_23,2021-11-04T12:01:07.551Z,,,,,,,,,,,,,,,,54,,,,,,,,,,,,,,477.58699999999953,,response,,,100,,,,,,Space,keypress(Space),,,,,-- --- ---- --- ------ ----- ------- ---- -- --- ------- --<br>------- ---------- ------ -- ----- -- ----- -- ---- ------<br>--- state --- --- ------ -------- ----- --- ------ ----- --<br>----- ----- ---------- --- --- ------ ------ ---- -- ------<br>------- --- ------ ----- --- ---- ------- -- ---- --- --<br>------- ------,117117.80000000075,117117,116622.743,116630,116639.413,117122.89,,23,state
screen,html.Screen,0_2_1_1_24,2021-11-04T12:01:07.991Z,,,,,,,,,,,,,,,,54,,,,,,,,,,,,,,434.0100000003731,,response,,,100,,,,,,Space,keypress(Space),,,,,-- --- ---- --- ------ ----- ------- ---- -- --- ------- --<br>------- ---------- ------ -- ----- -- ----- -- ---- ------<br>--- ----- cut --- ------ -------- ----- --- ------ ----- --<br>----- ----- ---------- --- --- ------ ------ ---- -- ------<br>------- --- ------ ----- --- ---- ------- -- ---- --- --<br>------- ------,117557.69999999925,117556.90000000037,117106.22,117118.09999999963,117122.89,117572.996,,24,cut
screen,html.Screen,0_2_1_1_25,2021-11-04T12:01:08.487Z,,,,,,,,,,,,,,,,54,,,,,,,,,,,,,,479.90400000037334,,response,,,100,,,,,,Space,keypress(Space),,,,,-- --- ---- --- ------ ----- ------- ---- -- --- ------- --<br>------- ---------- ------ -- ----- -- ----- -- ---- ------<br>--- ----- --- the ------ -------- ----- --- ------ ----- --<br>----- ----- ---------- --- --- ------ ------ ---- -- ------<br>------- --- ------ ----- --- ---- ------- -- ---- --- --<br>------- ------,118053.69999999925,118052.90000000037,117556.326,117558,117572.996,118056.506,,25,the
screen,html.Screen,0_2_1_1_26,2021-11-04T12:01:09.199Z,,,,,,,,,,,,,,,,54,,,,,,,,,,,,,,708.2940000007511,,response,,,100,,,,,,Space,keypress(Space),,,,,-- --- ---- --- ------ ----- ------- ---- -- --- ------- --<br>------- ---------- ------ -- ----- -- ----- -- ---- ------<br>--- ----- --- --- bonds' -------- ----- --- ------ ----- --<br>----- ----- ---------- --- --- ------ ------ ---- -- ------<br>------- --- ------ ----- --- ---- ------- -- ---- --- --<br>------- ------,118765.69999999925,118764.80000000075,118039.835,118054,118056.506,118773.31,,26,bonds'
screen,html.Screen,0_2_1_1_27,2021-11-04T12:01:09.711Z,,,,,,,,,,,,,,,,54,,,,,,,,,,,,,,503.4900000007474,,response,,,100,,,,,,Space,keypress(Space),,,,,-- --- ---- --- ------ ----- ------- ---- -- --- ------- --<br>------- ---------- ------ -- ----- -- ----- -- ---- ------<br>--- ----- --- --- ------ interest ----- --- ------ ----- --<br>----- ----- ---------- --- --- ------ ------ ---- -- ------<br>------- --- ------ ----- --- ---- ------- -- ---- --- --<br>------- ------,119277.69999999925,119276.80000000075,118756.64,118766,118773.31,119290.079,,27,interest
screen,html.Screen,0_2_1_1_28,2021-11-04T12:01:10.407Z,,,,,,,,,,,,,,,,54,,,,,,,,,,,,,,682.7210000007472,,response,,,100,,,,,,Space,keypress(Space),,,,,-- --- ---- --- ------ ----- ------- ---- -- --- ------- --<br>------- ---------- ------ -- ----- -- ----- -- ---- ------<br>--- ----- --- --- ------ -------- rate. --- ------ ----- --<br>----- ----- ---------- --- --- ------ ------ ---- -- ------<br>------- --- ------ ----- --- ---- ------- -- ---- --- --<br>------- ------,119973.59999999963,119972.80000000075,119273.409,119277.90000000037,119290.079,119990.271,,28,rate.
screen,html.Screen,0_2_1_1_29,2021-11-04T12:01:10.959Z,,,,,,,,,,,,,,,,54,,,,,,,,,,,,,,534.4289999992616,,response,,,100,,,,,,Space,keypress(Space),,,,,-- --- ---- --- ------ ----- ------- ---- -- --- ------- --<br>------- ---------- ------ -- ----- -- ----- -- ---- ------<br>--- ----- --- --- ------ -------- ----- The ------ ----- --<br>----- ----- ---------- --- --- ------ ------ ---- -- ------<br>------- --- ------ ----- --- ---- ------- -- ---- --- --<br>------- ------,120525.59999999963,120524.69999999925,119973.601,119973.80000000075,119990.271,120540.485,,29,The
screen,html.Screen,0_2_1_1_30,2021-11-04T12:01:11.411Z,,,,,,,,,,,,,,,,54,,,,,,,,,,,,,,432.71499999925436,,response,,,100,,,,,,Space,keypress(Space),,,,,-- --- ---- --- ------ ----- ------- ---- -- --- ------- --<br>------- ---------- ------ -- ----- -- ----- -- ---- ------<br>--- ----- --- --- ------ -------- ----- --- market ----- --<br>----- ----- ---------- --- --- ------ ------ ---- -- ------<br>------- --- ------ ----- --- ---- ------- -- ---- --- --<br>------- ------,120974,120973.19999999925,120523.814,120525.90000000037,120540.485,120990.467,,30,market
screen,html.Screen,0_2_1_1_31,2021-11-04T12:01:11.858Z,,,,,,,,,,,,,,,,54,,,,,,,,,,,,,,430.23299999925075,,response,,,100,,,,,,Space,keypress(Space),,,,,-- --- ---- --- ------ ----- ------- ---- -- --- ------- --<br>------- ---------- ------ -- ----- -- ----- -- ---- ------<br>--- ----- --- --- ------ -------- ----- --- ------ value --<br>----- ----- ---------- --- --- ------ ------ ---- -- ------<br>------- --- ------ ----- --- ---- ------- -- ---- --- --<br>------- ------,121421.5,121420.69999999925,120973.798,120974.19999999925,120990.467,121423.939,,31,value
screen,html.Screen,0_2_1_1_32,2021-11-04T12:01:12.258Z,,,,,,,,,,,,,,,,54,,,,,,,,,,,,,,396.76099999925646,,response,,,100,,,,,,Space,keypress(Space),,,,,-- --- ---- --- ------ ----- ------- ---- -- --- ------- --<br>------- ---------- ------ -- ----- -- ----- -- ---- ------<br>--- ----- --- --- ------ -------- ----- --- ------ ----- of<br>----- ----- ---------- --- --- ------ ------ ---- -- ------<br>------- --- ------ ----- --- ---- ------- -- ---- --- --<br>------- ------,121821.59999999963,121820.69999999925,121407.269,121421.69999999925,121423.939,121824.063,,32,of
screen,html.Screen,0_2_1_1_33,2021-11-04T12:01:12.658Z,,,,,,,,,,,,,,,,54,,,,,,,,,,,,,,396.6369999992603,,response,,,100,,,,,,Space,keypress(Space),,,,,-- --- ---- --- ------ ----- ------- ---- -- --- ------- --<br>------- ---------- ------ -- ----- -- ----- -- ---- ------<br>--- ----- --- --- ------ -------- ----- --- ------ ----- --<br>these ----- ---------- --- --- ------ ------ ---- -- ------<br>------- --- ------ ----- --- ---- ------- -- ---- --- --<br>------- ------,122221.5,122220.69999999925,121807.393,121821.80000000075,121824.063,122224.285,,33,these
screen,html.Screen,0_2_1_1_34,2021-11-04T12:01:13.002Z,,,,,,,,,,,,,,,,54,,,,,,,,,,,,,,340.2149999999965,,response,,,100,,,,,,Space,keypress(Space),,,,,-- --- ---- --- ------ ----- ------- ---- -- --- ------- --<br>------- ---------- ------ -- ----- -- ----- -- ---- ------<br>--- ----- --- --- ------ -------- ----- --- ------ ----- --<br>----- bonds ---------- --- --- ------ ------ ---- -- ------<br>------- --- ------ ----- --- ---- ------- -- ---- --- --<br>------- ------,122565.40000000037,122564.5,122207.613,122221.80000000075,122224.285,122574.343,,34,bonds
screen,html.Screen,0_2_1_1_35,2021-11-04T12:01:13.594Z,,,,,,,,,,,,,,,,54,,,,,,,,,,,,,,582.256999999634,,response,,,100,,,,,,Space,keypress(Space),,,,,"-- --- ---- --- ------ ----- ------- ---- -- --- ------- --<br>------- ---------- ------ -- ----- -- ----- -- ---- ------<br>--- ----- --- --- ------ -------- ----- --- ------ ----- --<br>----- ----- plummeted, --- --- ------ ------ ---- -- ------<br>------- --- ------ ----- --- ---- ------- -- ---- --- --<br>------- ------",123157.40000000037,123156.59999999963,122557.672,122565.59999999963,122574.343,123174.428,,35,"plummeted,"
screen,html.Screen,0_2_1_1_36,2021-11-04T12:01:14.154Z,,,,,,,,,,,,,,,,54,,,,,,,,,,,,,,542.0720000000001,,response,,,100,,,,,,Space,keypress(Space),,,,,-- --- ---- --- ------ ----- ------- ---- -- --- ------- --<br>------- ---------- ------ -- ----- -- ----- -- ---- ------<br>--- ----- --- --- ------ -------- ----- --- ------ ----- --<br>----- ----- ---------- and --- ------ ------ ---- -- ------<br>------- --- ------ ----- --- ---- ------- -- ---- --- --<br>------- ------,123717.5,123716.5,123157.758,123157.69999999925,123174.428,123724.574,,36,and
screen,html.Screen,0_2_1_1_37,2021-11-04T12:01:14.642Z,,,,,,,,,,,,,,,,54,,,,,,,,,,,,,,480.0259999996342,,response,,,100,,,,,,Space,keypress(Space),,,,,-- --- ---- --- ------ ----- ------- ---- -- --- ------- --<br>------- ---------- ------ -- ----- -- ----- -- ---- ------<br>--- ----- --- --- ------ -------- ----- --- ------ ----- --<br>----- ----- ---------- --- the ------ ------ ---- -- ------<br>------- --- ------ ----- --- ---- ------- -- ---- --- --<br>------- ------,124205.40000000037,124204.59999999963,123707.904,123717.59999999963,123724.574,124207.937,,37,the
screen,html.Screen,0_2_1_1_38,2021-11-04T12:01:15.154Z,,,,,,,,,,,,,,,,54,,,,,,,,,,,,,,508.56299999999464,,response,,,100,,,,,,Space,keypress(Space),,,,,-- --- ---- --- ------ ----- ------- ---- -- --- ------- --<br>------- ---------- ------ -- ----- -- ----- -- ---- ------<br>--- ----- --- --- ------ -------- ----- --- ------ ----- --<br>----- ----- ---------- --- --- market ------ ---- -- ------<br>------- --- ------ ----- --- ---- ------- -- ---- --- --<br>------- ------,124717.40000000037,124716.5,124191.268,124205.69999999925,124207.937,124724.937,,38,market
screen,html.Screen,0_2_1_1_39,2021-11-04T12:01:15.602Z,,,,,,,,,,,,,,,,54,,,,,,,,,,,,,,439.56299999999464,,response,,,100,,,,,,Space,keypress(Space),,,,,-- --- ---- --- ------ ----- ------- ---- -- --- ------- --<br>------- ---------- ------ -- ----- -- ----- -- ---- ------<br>--- ----- --- --- ------ -------- ----- --- ------ ----- --<br>----- ----- ---------- --- --- ------ became ---- -- ------<br>------- --- ------ ----- --- ---- ------- -- ---- --- --<br>------- ------,125165.30000000075,125164.5,124708.265,124717.59999999963,124724.937,125175.004,,39,became
screen,html.Screen,0_2_1_1_40,2021-11-04T12:01:15.994Z,,,,,,,,,,,,,,,,54,,,,,,,,,,,,,,381.4959999999992,,response,,,100,,,,,,Space,keypress(Space),,,,,-- --- ---- --- ------ ----- ------- ---- -- --- ------- --<br>------- ---------- ------ -- ----- -- ----- -- ---- ------<br>--- ----- --- --- ------ -------- ----- --- ------ ----- --<br>----- ----- ---------- --- --- ------ ------ wary -- ------<br>------- --- ------ ----- --- ---- ------- -- ---- --- --<br>------- ------,125557.30000000075,125556.5,125158.333,125165.59999999963,125175.004,125558.309,,40,wary
screen,html.Screen,0_2_1_1_41,2021-11-04T12:01:16.386Z,,,,,,,,,,,,,,,,54,,,,,,,,,,,,,,390.19100000000617,,response,,,100,,,,,,Space,keypress(Space),,,,,-- --- ---- --- ------ ----- ------- ---- -- --- ------- --<br>------- ---------- ------ -- ----- -- ----- -- ---- ------<br>--- ----- --- --- ------ -------- ----- --- ------ ----- --<br>----- ----- ---------- --- --- ------ ------ ---- of ------<br>------- --- ------ ----- --- ---- ------- -- ---- --- --<br>------- ------,125949.19999999925,125948.5,125541.64,125557.5,125558.309,125958.534,,41,of
screen,html.Screen,0_2_1_1_42,2021-11-04T12:01:16.842Z,,,,,,,,,,,,,,,,54,,,,,,,,,,,,,,445.96600000000035,,response,,,100,,,,,,Space,keypress(Space),,,,,-- --- ---- --- ------ ----- ------- ---- -- --- ------- --<br>------- ---------- ------ -- ----- -- ----- -- ---- ------<br>--- ----- --- --- ------ -------- ----- --- ------ ----- --<br>----- ----- ---------- --- --- ------ ------ ---- -- French<br>------- --- ------ ----- --- ---- ------- -- ---- --- --<br>------- ------,126405.30000000075,126404.5,125941.863,125949.5,125958.534,126408.594,,42,French
screen,html.Screen,0_2_1_1_43,2021-11-04T12:01:17.258Z,,,,,,,,,,,,,,,,54,,,,,,,,,,,,,,411.8060000003752,,response,,,100,,,,,,Space,keypress(Space),,,,,-- --- ---- --- ------ ----- ------- ---- -- --- ------- --<br>------- ---------- ------ -- ----- -- ----- -- ---- ------<br>--- ----- --- --- ------ -------- ----- --- ------ ----- --<br>----- ----- ---------- --- --- ------ ------ ---- -- ------<br>credit. --- ------ ----- --- ---- ------- -- ---- --- --<br>------- ------,126821.30000000075,126820.40000000037,126391.924,126405.5,126408.594,126825.426,,43,credit.
screen,html.Screen,0_2_1_1_44,2021-11-04T12:01:17.930Z,,,,,,,,,,,,,,,,54,,,,,,,,,,,,,,666.9740000003658,,response,,,100,,,,,,Space,keypress(Space),,,,,-- --- ---- --- ------ ----- ------- ---- -- --- ------- --<br>------- ---------- ------ -- ----- -- ----- -- ---- ------<br>--- ----- --- --- ------ -------- ----- --- ------ ----- --<br>----- ----- ---------- --- --- ------ ------ ---- -- ------<br>------- The ------ ----- --- ---- ------- -- ---- --- --<br>------- ------,127493.30000000075,127492.40000000037,126808.755,126821.59999999963,126825.426,127508.887,,44,The
screen,html.Screen,0_2_1_1_45,2021-11-04T12:01:18.378Z,,,,,,,,,,,,,,,,54,,,,,,,,,,,,,,431.5130000003701,,response,,,100,,,,,,Space,keypress(Space),,,,,-- --- ---- --- ------ ----- ------- ---- -- --- ------- --<br>------- ---------- ------ -- ----- -- ----- -- ---- ------<br>--- ----- --- --- ------ -------- ----- --- ------ ----- --<br>----- ----- ---------- --- --- ------ ------ ---- -- ------<br>------- --- French ----- --- ---- ------- -- ---- --- --<br>------- ------,127941.19999999925,127940.40000000037,127492.217,127493.5,127508.887,127942.328,,45,French
screen,html.Screen,0_2_1_1_46,2021-11-04T12:01:18.794Z,,,,,,,,,,,,,,,,54,,,,,,,,,,,,,,413.972000000751,,response,,,100,,,,,,Space,keypress(Space),,,,,-- --- ---- --- ------ ----- ------- ---- -- --- ------- --<br>------- ---------- ------ -- ----- -- ----- -- ---- ------<br>--- ----- --- --- ------ -------- ----- --- ------ ----- --<br>----- ----- ---------- --- --- ------ ------ ---- -- ------<br>------- --- ------ state --- ---- ------- -- ---- --- --<br>------- ------,128357.19999999925,128356.30000000075,127925.658,127941.5,127942.328,128359.116,,46,state
screen,html.Screen,0_2_1_1_47,2021-11-04T12:01:19.178Z,,,,,,,,,,,,,,,,54,,,,,,,,,,,,,,381.18400000075053,,response,,,100,,,,,,Space,keypress(Space),,,,,-- --- ---- --- ------ ----- ------- ---- -- --- ------- --<br>------- ---------- ------ -- ----- -- ----- -- ---- ------<br>--- ----- --- --- ------ -------- ----- --- ------ ----- --<br>----- ----- ---------- --- --- ------ ------ ---- -- ------<br>------- --- ------ ----- was ---- ------- -- ---- --- --<br>------- ------,128741.09999999963,128740.30000000075,128342.446,128357.40000000037,128359.116,128742.551,,47,was
screen,html.Screen,0_2_1_1_48,2021-11-04T12:01:19.594Z,,,,,,,,,,,,,,,,54,,,,,,,,,,,,,,413.7490000007383,,response,,,100,,,,,,Space,keypress(Space),,,,,-- --- ---- --- ------ ----- ------- ---- -- --- ------- --<br>------- ---------- ------ -- ----- -- ----- -- ---- ------<br>--- ----- --- --- ------ -------- ----- --- ------ ----- --<br>----- ----- ---------- --- --- ------ ------ ---- -- ------<br>------- --- ------ ----- --- left ------- -- ---- --- --<br>------- ------,129157.09999999963,129156.30000000075,128725.881,128741.40000000037,128742.551,129159.323,,48,left
screen,html.Screen,0_2_1_1_49,2021-11-04T12:01:19.954Z,,,,,,,,,,,,,,,,54,,,,,,,,,,,,,,356.876999999251,,response,,,100,,,,,,Space,keypress(Space),,,,,-- --- ---- --- ------ ----- ------- ---- -- --- ------- --<br>------- ---------- ------ -- ----- -- ----- -- ---- ------<br>--- ----- --- --- ------ -------- ----- --- ------ ----- --<br>----- ----- ---------- --- --- ------ ------ ---- -- ------<br>------- --- ------ ----- --- ---- without -- ---- --- --<br>------- ------,129517.09999999963,129516.19999999925,129142.653,129157.30000000075,129159.323,129526.086,,49,without
screen,html.Screen,0_2_1_1_50,2021-11-04T12:01:20.322Z,,,,,,,,,,,,,,,,54,,,,,,,,,,,,,,358.11399999925925,,response,,,100,,,,,,Space,keypress(Space),,,,,-- --- ---- --- ------ ----- ------- ---- -- --- ------- --<br>------- ---------- ------ -- ----- -- ----- -- ---- ------<br>--- ----- --- --- ------ -------- ----- --- ------ ----- --<br>----- ----- ---------- --- --- ------ ------ ---- -- ------<br>------- --- ------ ----- --- ---- ------- an ---- --- --<br>------- ------,129885,129884.19999999925,129509.416,129517.40000000037,129526.086,129892.833,,50,an
screen,html.Screen,0_2_1_1_51,2021-11-04T12:01:20.634Z,,,,,,,,,,,,,,,,54,,,,,,,,,,,,,,303.3669999992562,,response,,,100,,,,,,Space,keypress(Space),,,,,-- --- ---- --- ------ ----- ------- ---- -- --- ------- --<br>------- ---------- ------ -- ----- -- ----- -- ---- ------<br>--- ----- --- --- ------ -------- ----- --- ------ ----- --<br>----- ----- ---------- --- --- ------ ------ ---- -- ------<br>------- --- ------ ----- --- ---- ------- -- easy --- --<br>------- ------,130197,130196.19999999925,129876.163,129885.40000000037,129892.833,130209.632,,51,easy
screen,html.Screen,0_2_1_1_52,2021-11-04T12:01:21.058Z,,,,,,,,,,,,,,,,54,,,,,,,,,,,,,,410.56799999925715,,response,,,100,,,,,,Space,keypress(Space),,,,,-- --- ---- --- ------ ----- ------- ---- -- --- ------- --<br>------- ---------- ------ -- ----- -- ----- -- ---- ------<br>--- ----- --- --- ------ -------- ----- --- ------ ----- --<br>----- ----- ---------- --- --- ------ ------ ---- -- ------<br>------- --- ------ ----- --- ---- ------- -- ---- way --<br>------- ------,130621,130620.19999999925,130192.961,130197.40000000037,130209.632,130626.308,,52,way
screen,html.Screen,0_2_1_1_53,2021-11-04T12:01:21.402Z,,,,,,,,,,,,,,,,54,,,,,,,,,,,,,,337.8919999992504,,response,,,100,,,,,,Space,keypress(Space),,,,,-- --- ---- --- ------ ----- ------- ---- -- --- ------- --<br>------- ---------- ------ -- ----- -- ----- -- ---- ------<br>--- ----- --- --- ------ -------- ----- --- ------ ----- --<br>----- ----- ---------- --- --- ------ ------ ---- -- ------<br>------- --- ------ ----- --- ---- ------- -- ---- --- of<br>------- ------,130965,130964.19999999925,130609.639,130621.30000000075,130626.308,130976.483,,53,of
screen,html.Screen,0_2_1_1_54,2021-11-04T12:01:21.834Z,,,,,,,,,,,,,,,,54,,,,,,,,,,,,,,420.1169999996346,,response,,,100,,,,,,Space,keypress(Space),,,,,-- --- ---- --- ------ ----- ------- ---- -- --- ------- --<br>------- ---------- ------ -- ----- -- ----- -- ---- ------<br>--- ----- --- --- ------ -------- ----- --- ------ ----- --<br>----- ----- ---------- --- --- ------ ------ ---- -- ------<br>------- --- ------ ----- --- ---- ------- -- ---- --- --<br>raising ------,131397.5,131396.59999999963,130959.812,130965.19999999925,130976.483,131409.949,,54,raising
screen,html.Screen,0_2_1_1_55,2021-11-04T12:01:22.570Z,,,,,,,,,,,,,,,,54,,,,,,,,,,,,,,722.2509999992617,,response,,,100,,,,,,Space,keypress(Space),,,,,-- --- ---- --- ------ ----- ------- ---- -- --- ------- --<br>------- ---------- ------ -- ----- -- ----- -- ---- ------<br>--- ----- --- --- ------ -------- ----- --- ------ ----- --<br>----- ----- ---------- --- --- ------ ------ ---- -- ------<br>------- --- ------ ----- --- ---- ------- -- ---- --- --<br>------- money.,132132.90000000037,132132.19999999925,131393.278,131397.69999999925,131409.949,132143.319,,55,money.
Item 100,flow.Loop,0_2_1_1,2021-11-04T12:01:22.570Z,,,,,,,,,,,,,,,,,,,,,,,,,,,,,,32663.99299999926,,completion,,,,E,,,,,,,,,,silence,,132133.30000000075,132132.19999999925,99451.537,99453,99468.207,132143.319,,,
Question 1,html.Screen,0_2_1_2,2021-11-04T12:01:25.371Z,,,,,,,,,,,,,,,,,,,,,,,,,,,true,TRUE,,2789.9810000007565,,response,,,100,E,,,,,TRUE,click #choice-1,,,,silence,,134934.59999999963,134933.30000000075,132126.65,132133.5,132143.319,134944.124,,,
Question 2,html.Screen,0_2_1_3,2021-11-04T12:01:27.289Z,,,,,,,,,,,,,,,,,,,,,,,,,,,true,FALSE,,1906.5759999992442,,response,,,100,E,,,,,FALSE,click #choice-2,,,,silence,,136852,136850.69999999925,134927.454,134934.80000000075,134944.124,136861.343,,,
Item 100,flow.Sequence,0_2_1,2021-11-04T12:01:27.289Z,,,,,,,,,,,,,,,,,,,,,,,,,,,,,,47384.95499999926,,completion,,,,,,,,,,,,,,,,136852.40000000037,136850.69999999925,89449.075,89455.19999999925,89465.745,136861.343,,,
End of Practice,html.Page,0_2_2,2021-11-04T12:01:32.062Z,,,,,,,,,,,,,,,,,,,,,,,,,,,,,,4762.6570000000065,,form submission,,,,,,,,,,,,,,,,141624.59999999963,141624,136844.672,136852.5,136861.343,141629.21,,,
Practice,flow.Sequence,0_2,2021-11-04T12:01:32.062Z,,,,,,,,,,,,,,,,,,,,,,,,,,,,,,106522.353,,completion,,,,,,,,,,,,,,,,141625.19999999925,141624,35084.977,35087.300000000745,35101.647,141629.21,,,
Trap_instruction,html.Page,0_3_0,2021-11-04T12:01:36.054Z,,,,,,,,,,,,,,,,,,,,,,,,,,,,,,3987.090000000753,,form submission,,,,,,,,,,,,,,,,145616.90000000037,145616.30000000075,141612.539,141625.59999999963,141629.21,145646.634,,,
trap_trial,html.Screen,0_3_1,2021-11-04T12:01:38.904Z,,,,,,,,,,,,,,,,,,,,,,,,,,,true,1,,2819.166000000754,,response,,,,,,,,,1,click #choice-1,,,,,,148467,148465.80000000075,145613.294,145617.09999999963,145646.634,148481.426,,,
end of trap trial,html.Page,0_3_2,2021-11-04T12:01:40.693Z,,,,,,,,,,,,,,,,,,,,,,,,,,,,,,1774.3740000007383,,form submission,,,,,,,,,,,,,,,,150256.5,150255.80000000075,148464.752,148467.30000000075,148481.426,150264.728,,,
Trap 1,flow.Sequence,0_3,2021-11-04T12:01:40.694Z,,,,,,,,,,,,,,,,,,,,,,,,,,,,,,8626.590000000753,,completion,,,,,,,,,,,,,,,,150257,150255.80000000075,141612.539,141625.40000000037,141629.21,150264.728,,,
Standby,html.Page,0_4_0,2021-11-04T12:01:48.688Z,,,,,,,,,,,,,,,,,,,,,,,,,,,,,,8001.595000000001,,timeout,,,,,,,,,,,,,,,,158250.90000000037,158249.653,150248.058,150257.40000000037,150264.728,158266.323,,,
Holding screen,html.Screen,0_4_1_0_0,2021-11-04T12:01:55.690Z,,,,,,,,,,,,,,,,,,,,,,,,,,,,,,7002.043999999994,,timeout,,,,,,,,,,,,,,,,165253.40000000037,165251.698,158249.653,158251.40000000037,158266.323,165268.367,,,
screen,html.Screen,0_4_1_0_1_0,2021-11-04T12:01:56.497Z,,,,,,,,,,,,,,,,15,,,,,,,,,,,,,,790.3329999992566,,response,,,7,E,,,,,Space,keypress(Space),,,,lyrical,Greg --------- ---------- - --- ------- -- --- ------------<br>----- -- -------- ------- ---- ------ - -------- ---- -----<br>--- ------- ---- -- --- -------- --- - ----- ------ ---- --<br>-------- --- -------- -------- --- -------- ---- -- ----- -<br>-------- ---- --- ---------- --------- -- ------- ------ -<br>--------- ----- -----,166060,166058.69999999925,165251.698,165253.80000000075,165268.367,166068.831,,0,Greg
screen,html.Screen,0_4_1_0_1_1,2021-11-04T12:01:57.256Z,,,,,,,,,,,,,,,,15,,,,,,,,,,,,,,749.5690000003669,,response,,,7,E,,,,,Space,keypress(Space),,,,lyrical,"---- Anderson, ---------- - --- ------- -- --- ------------<br>----- -- -------- ------- ---- ------ - -------- ---- -----<br>--- ------- ---- -- --- -------- --- - ----- ------ ---- --<br>-------- --- -------- -------- --- -------- ---- -- ----- -<br>-------- ---- --- ---------- --------- -- ------- ------ -<br>--------- ----- -----",166819.40000000037,166818.40000000037,166052.16,166060.30000000075,166068.831,166835.611,,1,"Anderson,"
screen,html.Screen,0_4_1_0_1_2,2021-11-04T12:01:57.752Z,,,,,,,,,,,,,,,,15,,,,,,,,,,,,,,478.5889999992505,,response,,,7,E,,,,,Space,keypress(Space),,,,lyrical,---- --------- considered - --- ------- -- --- ------------<br>----- -- -------- ------- ---- ------ - -------- ---- -----<br>--- ------- ---- -- --- -------- --- - ----- ------ ---- --<br>-------- --- -------- -------- --- -------- ---- -- ----- -<br>-------- ---- --- ---------- --------- -- ------- ------ -<br>--------- ----- -----,167315.09999999963,167314.19999999925,166818.941,166819.69999999925,166835.611,167319.176,,2,considered
screen,html.Screen,0_4_1_0_1_3,2021-11-04T12:01:58.168Z,,,,,,,,,,,,,,,,15,,,,,,,,,,,,,,410.9239999996207,,response,,,7,E,,,,,Space,keypress(Space),,,,lyrical,---- --------- ---------- a --- ------- -- --- ------------<br>----- -- -------- ------- ---- ------ - -------- ---- -----<br>--- ------- ---- -- --- -------- --- - ----- ------ ---- --<br>-------- --- -------- -------- --- -------- ---- -- ----- -<br>-------- ---- --- ---------- --------- -- ------- ------ -<br>--------- ----- -----,167730.90000000037,167730.09999999963,167302.505,167315.40000000037,167319.176,167735.922,,3,a
screen,html.Screen,0_4_1_0_1_4,2021-11-04T12:01:58.544Z,,,,,,,,,,,,,,,,15,,,,,,,,,,,,,,370.0780000000086,,response,,,7,E,,,,,Space,keypress(Space),,,,lyrical,---- --------- ---------- - key ------- -- --- ------------<br>----- -- -------- ------- ---- ------ - -------- ---- -----<br>--- ------- ---- -- --- -------- --- - ----- ------ ---- --<br>-------- --- -------- -------- --- -------- ---- -- ----- -<br>-------- ---- --- ---------- --------- -- ------- ------ -<br>--------- ----- -----,168107,168106,167719.252,167731.30000000075,167735.922,168136.026,,4,key
screen,html.Screen,0_4_1_0_1_5,2021-11-04T12:01:59.184Z,,,,,,,,,,,,,,,,15,,,,,,,,,,,,,,610.1739999992424,,response,,,7,E,,,,,Space,keypress(Space),,,,lyrical,---- --------- ---------- - --- witness -- --- ------------<br>----- -- -------- ------- ---- ------ - -------- ---- -----<br>--- ------- ---- -- --- -------- --- - ----- ------ ---- --<br>-------- --- -------- -------- --- -------- ---- -- ----- -<br>-------- ---- --- ---------- --------- -- ------- ------ -<br>--------- ----- -----,168747,168746.19999999925,168119.356,168107.30000000075,168136.026,168752.716,,5,witness
screen,html.Screen,0_4_1_0_1_6,2021-11-04T12:01:59.696Z,,,,,,,,,,,,,,,,15,,,,,,,,,,,,,,505.2840000000142,,response,,,7,E,,,,,Space,keypress(Space),,,,lyrical,---- --------- ---------- - --- ------- by --- ------------<br>----- -- -------- ------- ---- ------ - -------- ---- -----<br>--- ------- ---- -- --- -------- --- - ----- ------ ---- --<br>-------- --- -------- -------- --- -------- ---- -- ----- -<br>-------- ---- --- ---------- --------- -- ------- ------ -<br>--------- ----- -----,169259,169258,168736.047,168747.30000000075,168752.716,169269.744,,6,by
screen,html.Screen,0_4_1_0_1_7,2021-11-04T12:02:00.096Z,,,,,,,,,,,,,,,,15,,,,,,,,,,,,,,388.25599999999395,,response,,,7,E,,,,,Space,keypress(Space),,,,lyrical,---- --------- ---------- - --- ------- -- the ------------<br>----- -- -------- ------- ---- ------ - -------- ---- -----<br>--- ------- ---- -- --- -------- --- - ----- ------ ---- --<br>-------- --- -------- -------- --- -------- ---- -- ----- -<br>-------- ---- --- ---------- --------- -- ------- ------ -<br>--------- ----- -----,169658.90000000037,169658,169253.072,169259.30000000075,169269.744,169669.751,,7,the
screen,html.Screen,0_4_1_0_1_8,2021-11-04T12:02:00.848Z,,,,,,,,,,,,,,,,15,,,,,,,,,,,,,,740.2490000000107,,response,,,7,E,,,,,Space,keypress(Space),,,,lyrical,"---- --------- ---------- - --- ------- -- --- prosecution,<br>----- -- -------- ------- ---- ------ - -------- ---- -----<br>--- ------- ---- -- --- -------- --- - ----- ------ ---- --<br>-------- --- -------- -------- --- -------- ---- -- ----- -<br>-------- ---- --- ---------- --------- -- ------- ------ -<br>--------- ----- -----",170410.80000000075,170410,169653.081,169659.30000000075,169669.751,170419.927,,8,"prosecution,"
screen,html.Screen,0_4_1_0_1_9,2021-11-04T12:02:01.752Z,,,,,,,,,,,,,,,,15,,,,,,,,,,,,,,894.073000000004,,response,,,7,E,,,,,Space,keypress(Space),,,,lyrical,---- --------- ---------- - --- ------- -- --- ------------<br>vowed -- -------- ------- ---- ------ - -------- ---- -----<br>--- ------- ---- -- --- -------- --- - ----- ------ ---- --<br>-------- --- -------- -------- --- -------- ---- -- ----- -<br>-------- ---- --- ---------- --------- -- ------- ------ -<br>--------- ----- -----,171314.80000000075,171314,170403.257,170411,170419.927,171320.104,,9,vowed
screen,html.Screen,0_4_1_0_1_10,2021-11-04T12:02:02.464Z,,,,,,,,,,,,,,,,15,,,,,,,,,,,,,,705.7960000003804,,response,,,7,E,,,,,Space,keypress(Space),,,,lyrical,---- --------- ---------- - --- ------- -- --- ------------<br>----- he -------- ------- ---- ------ - -------- ---- -----<br>--- ------- ---- -- --- -------- --- - ----- ------ ---- --<br>-------- --- -------- -------- --- -------- ---- -- ----- -<br>-------- ---- --- ---------- --------- -- ------- ------ -<br>--------- ----- -----,172026.69999999925,172025.90000000037,171303.434,171315.09999999963,171320.104,172037.076,,10,he
screen,html.Screen,0_4_1_0_1_11,2021-11-04T12:02:02.888Z,,,,,,,,,,,,,,,,15,,,,,,,,,,,,,,412.7240000007441,,response,,,7,E,,,,,Space,keypress(Space),,,,lyrical,---- --------- ---------- - --- ------- -- --- ------------<br>----- -- wouldn't ------- ---- ------ - -------- ---- -----<br>--- ------- ---- -- --- -------- --- - ----- ------ ---- --<br>-------- --- -------- -------- --- -------- ---- -- ----- -<br>-------- ---- --- ---------- --------- -- ------- ------ -<br>--------- ----- -----,172450.69999999925,172449.80000000075,172020.405,172026.90000000037,172037.076,172453.781,,11,wouldn't
screen,html.Screen,0_4_1_0_1_12,2021-11-04T12:02:03.480Z,,,,,,,,,,,,,,,,15,,,,,,,,,,,,,,588.1190000003844,,response,,,7,E,,,,,Space,keypress(Space),,,,lyrical,---- --------- ---------- - --- ------- -- --- ------------<br>----- -- -------- testify ---- ------ - -------- ---- -----<br>--- ------- ---- -- --- -------- --- - ----- ------ ---- --<br>-------- --- -------- -------- --- -------- ---- -- ----- -<br>-------- ---- --- ---------- --------- -- ------- ------ -<br>--------- ----- -----,173042.59999999963,173041.90000000037,172437.111,172450.90000000037,172453.781,173053.943,,12,testify
screen,html.Screen,0_4_1_0_1_13,2021-11-04T12:02:03.912Z,,,,,,,,,,,,,,,,15,,,,,,,,,,,,,,419.9570000003732,,response,,,7,E,,,,,Space,keypress(Space),,,,lyrical,---- --------- ---------- - --- ------- -- --- ------------<br>----- -- -------- ------- when ------ - -------- ---- -----<br>--- ------- ---- -- --- -------- --- - ----- ------ ---- --<br>-------- --- -------- -------- --- -------- ---- -- ----- -<br>-------- ---- --- ---------- --------- -- ------- ------ -<br>--------- ----- -----,173474.69999999925,173473.90000000037,173037.273,173042.90000000037,173053.943,173487.363,,13,when
screen,html.Screen,0_4_1_0_1_14,2021-11-04T12:02:04.392Z,,,,,,,,,,,,,,,,15,,,,,,,,,,,,,,466.43700000073295,,response,,,7,E,,,,,Space,keypress(Space),,,,lyrical,---- --------- ---------- - --- ------- -- --- ------------<br>----- -- -------- ------- ---- served - -------- ---- -----<br>--- ------- ---- -- --- -------- --- - ----- ------ ---- --<br>-------- --- -------- -------- --- -------- ---- -- ----- -<br>-------- ---- --- ---------- --------- -- ------- ------ -<br>--------- ----- -----,173954.69999999925,173953.80000000075,173470.693,173475,173487.363,173970.758,,14,served
screen,html.Screen,0_4_1_0_1_15,2021-11-04T12:02:04.767Z,,,,,,,,,,,,,,,,15,,,,,,,,,,,,,,358.9419999992533,,response,,,7,E,,,,,Space,keypress(Space),,,,lyrical,---- --------- ---------- - --- ------- -- --- ------------<br>----- -- -------- ------- ---- ------ a -------- ---- -----<br>--- ------- ---- -- --- -------- --- - ----- ------ ---- --<br>-------- --- -------- -------- --- -------- ---- -- ----- -<br>-------- ---- --- ---------- --------- -- ------- ------ -<br>--------- ----- -----,174330.59999999963,174329.69999999925,173954.089,173954.90000000037,173970.758,174337.702,,15,a
screen,html.Screen,0_4_1_0_1_16,2021-11-04T12:02:05.983Z,,,,,,,,,,,,,,,,15,,,,,,,,,,,,,,1207.9979999992647,,response,,,7,E,,,,,Space,keypress(Space),,,,lyrical,---- --------- ---------- - --- ------- -- --- ------------<br>----- -- -------- ------- ---- ------ - subpoena ---- -----<br>--- ------- ---- -- --- -------- --- - ----- ------ ---- --<br>-------- --- -------- -------- --- -------- ---- -- ----- -<br>-------- ---- --- ---------- --------- -- ------- ------ -<br>--------- ----- -----,175546.5,175545.69999999925,174321.03,174330.80000000075,174337.702,175554.533,,16,subpoena
screen,html.Screen,0_4_1_0_1_17,2021-11-04T12:02:06.495Z,,,,,,,,,,,,,,,,15,,,,,,,,,,,,,,503.16699999925913,,response,,,7,E,,,,,Space,keypress(Space),,,,lyrical,---- --------- ---------- - --- ------- -- --- ------------<br>----- -- -------- ------- ---- ------ - -------- last -----<br>--- ------- ---- -- --- -------- --- - ----- ------ ---- --<br>-------- --- -------- -------- --- -------- ---- -- ----- -<br>-------- ---- --- ---------- --------- -- ------- ------ -<br>--------- ----- -----,176058.59999999963,176057.69999999925,175537.863,175546.80000000075,175554.533,176071.393,,17,last
screen,html.Screen,0_4_1_0_1_18,2021-11-04T12:02:06.896Z,,,,,,,,,,,,,,,,15,,,,,,,,,,,,,,386.806999999244,,response,,,7,E,,,,,Space,keypress(Space),,,,lyrical,---- --------- ---------- - --- ------- -- --- ------------<br>----- -- -------- ------- ---- ------ - -------- ---- week.<br>--- ------- ---- -- --- -------- --- - ----- ------ ---- --<br>-------- --- -------- -------- --- -------- ---- -- ----- -<br>-------- ---- --- ---------- --------- -- ------- ------ -<br>--------- ----- -----,176459,176458.19999999925,176054.722,176058.80000000075,176071.393,176471.386,,18,week.
screen,html.Screen,0_4_1_0_1_19,2021-11-04T12:02:07.423Z,,,,,,,,,,,,,,,,15,,,,,,,,,,,,,,514.2139999996289,,response,,,7,E,,,,,Space,keypress(Space),,,,lyrical,---- --------- ---------- - --- ------- -- --- ------------<br>----- -- -------- ------- ---- ------ - -------- ---- -----<br>His ------- ---- -- --- -------- --- - ----- ------ ---- --<br>-------- --- -------- -------- --- -------- ---- -- ----- -<br>-------- ---- --- ---------- --------- -- ------- ------ -<br>--------- ----- -----,176986.40000000037,176985.59999999963,176454.717,176459.19999999925,176471.386,176988.491,,19,His
screen,html.Screen,0_4_1_0_1_20,2021-11-04T12:02:08.023Z,,,,,,,,,,,,,,,,15,,,,,,,,,,,,,,597.1089999996184,,response,,,7,E,,,,,Space,keypress(Space),,,,lyrical,---- --------- ---------- - --- ------- -- --- ------------<br>----- -- -------- ------- ---- ------ - -------- ---- -----<br>--- lawyers ---- -- --- -------- --- - ----- ------ ---- --<br>-------- --- -------- -------- --- -------- ---- -- ----- -<br>-------- ---- --- ---------- --------- -- ------- ------ -<br>--------- ----- -----,177586.40000000037,177585.59999999963,176971.817,176986.69999999925,176988.491,177588.273,,20,lawyers
screen,html.Screen,0_4_1_0_1_21,2021-11-04T12:02:08.439Z,,,,,,,,,,,,,,,,15,,,,,,,,,,,,,,413.326999999641,,response,,,7,E,,,,,Space,keypress(Space),,,,lyrical,---- --------- ---------- - --- ------- -- --- ------------<br>----- -- -------- ------- ---- ------ - -------- ---- -----<br>--- ------- said -- --- -------- --- - ----- ------ ---- --<br>-------- --- -------- -------- --- -------- ---- -- ----- -<br>-------- ---- --- ---------- --------- -- ------- ------ -<br>--------- ----- -----,178002.40000000037,178001.59999999963,177571.605,177586.59999999963,177588.273,178005.329,,21,said
screen,html.Screen,0_4_1_0_1_22,2021-11-04T12:02:08.871Z,,,,,,,,,,,,,,,,15,,,,,,,,,,,,,,428.1710000000021,,response,,,7,E,,,,,Space,keypress(Space),,,,lyrical,---- --------- ---------- - --- ------- -- --- ------------<br>----- -- -------- ------- ---- ------ - -------- ---- -----<br>--- ------- ---- he --- -------- --- - ----- ------ ---- --<br>-------- --- -------- -------- --- -------- ---- -- ----- -<br>-------- ---- --- ---------- --------- -- ------- ------ -<br>--------- ----- -----,178434.40000000037,178433.5,177988.657,178002.69999999925,178005.329,178438.668,,22,he
screen,html.Screen,0_4_1_0_1_23,2021-11-04T12:02:09.231Z,,,,,,,,,,,,,,,,15,,,,,,,,,,,,,,354.8319999999949,,response,,,7,E,,,,,Space,keypress(Space),,,,lyrical,---- --------- ---------- - --- ------- -- --- ------------<br>----- -- -------- ------- ---- ------ - -------- ---- -----<br>--- ------- ---- -- was -------- --- - ----- ------ ---- --<br>-------- --- -------- -------- --- -------- ---- -- ----- -<br>-------- ---- --- ---------- --------- -- ------- ------ -<br>--------- ----- -----,178794.40000000037,178793.5,178421.998,178434.69999999925,178438.668,178805.335,,23,was
screen,html.Screen,0_4_1_0_1_24,2021-11-04T12:02:09.688Z,,,,,,,,,,,,,,,,15,,,,,,,,,,,,,,444.16500000000815,,response,,,7,E,,,,,Space,keypress(Space),,,,lyrical,---- --------- ---------- - --- ------- -- --- ------------<br>----- -- -------- ------- ---- ------ - -------- ---- -----<br>--- ------- ---- -- --- prepared --- - ----- ------ ---- --<br>-------- --- -------- -------- --- -------- ---- -- ----- -<br>-------- ---- --- ---------- --------- -- ------- ------ -<br>--------- ----- -----,179250.69999999925,179249.5,178788.666,178794.69999999925,178805.335,179255.551,,24,prepared
screen,html.Screen,0_4_1_0_1_25,2021-11-04T12:02:10.095Z,,,,,,,,,,,,,,,,15,,,,,,,,,,,,,,401.94899999999325,,response,,,7,E,,,,,Space,keypress(Space),,,,lyrical,---- --------- ---------- - --- ------- -- --- ------------<br>----- -- -------- ------- ---- ------ - -------- ---- -----<br>--- ------- ---- -- --- -------- for - ----- ------ ---- --<br>-------- --- -------- -------- --- -------- ---- -- ----- -<br>-------- ---- --- ---------- --------- -- ------- ------ -<br>--------- ----- -----,179658.40000000037,179657.5,179238.88,179250.90000000037,179255.551,179672.399,,25,for
screen,html.Screen,0_4_1_0_1_26,2021-11-04T12:02:10.463Z,,,,,,,,,,,,,,,,15,,,,,,,,,,,,,,353.1009999999951,,response,,,7,E,,,,,Space,keypress(Space),,,,lyrical,---- --------- ---------- - --- ------- -- --- ------------<br>----- -- -------- ------- ---- ------ - -------- ---- -----<br>--- ------- ---- -- --- -------- --- a ----- ------ ---- --<br>-------- --- -------- -------- --- -------- ---- -- ----- -<br>-------- ---- --- ---------- --------- -- ------- ------ -<br>--------- ----- -----,180026.30000000075,180025.5,179655.727,179658.59999999963,179672.399,180038.988,,26,a
screen,html.Screen,0_4_1_0_1_27,2021-11-04T12:02:10.919Z,,,,,,,,,,,,,,,,15,,,,,,,,,,,,,,442.4120000003604,,response,,,7,E,,,,,Space,keypress(Space),,,,lyrical,---- --------- ---------- - --- ------- -- --- ------------<br>----- -- -------- ------- ---- ------ - -------- ---- -----<br>--- ------- ---- -- --- -------- --- - third ------ ---- --<br>-------- --- -------- -------- --- -------- ---- -- ----- -<br>-------- ---- --- ---------- --------- -- ------- ------ -<br>--------- ----- -----,180482.40000000037,180481.40000000037,180022.319,180026.5,180038.988,180489.197,,27,third
screen,html.Screen,0_4_1_0_1_28,2021-11-04T12:02:11.382Z,,,,,,,,,,,,,,,,15,,,,,,,,,,,,,,456.20300000038696,,response,,,7,E,,,,,Space,keypress(Space),,,,lyrical,---- --------- ---------- - --- ------- -- --- ------------<br>----- -- -------- ------- ---- ------ - -------- ---- -----<br>--- ------- ---- -- --- -------- --- - ----- prison ---- --<br>-------- --- -------- -------- --- -------- ---- -- ----- -<br>-------- ---- --- ---------- --------- -- ------- ------ -<br>--------- ----- -----,180946.19999999925,180945.40000000037,180472.526,180482.59999999963,180489.197,180956.072,,28,prison
screen,html.Screen,0_4_1_0_1_29,2021-11-04T12:02:12.062Z,,,,,,,,,,,,,,,,15,,,,,,,,,,,,,,669.2280000007595,,response,,,7,E,,,,,Space,keypress(Space),,,,lyrical,---- --------- ---------- - --- ------- -- --- ------------<br>----- -- -------- ------- ---- ------ - -------- ---- -----<br>--- ------- ---- -- --- -------- --- - ----- ------ stay --<br>-------- --- -------- -------- --- -------- ---- -- ----- -<br>-------- ---- --- ---------- --------- -- ------- ------ -<br>--------- ----- -----,181626.19999999925,181625.30000000075,180939.4,180946.5,180956.072,181639.488,,29,stay
screen,html.Screen,0_4_1_0_1_30,2021-11-04T12:02:12.478Z,,,,,,,,,,,,,,,,15,,,,,,,,,,,,,,401.9120000003604,,response,,,7,E,,,,,Space,keypress(Space),,,,lyrical,---- --------- ---------- - --- ------- -- --- ------------<br>----- -- -------- ------- ---- ------ - -------- ---- -----<br>--- ------- ---- -- --- -------- --- - ----- ------ ---- to<br>-------- --- -------- -------- --- -------- ---- -- ----- -<br>-------- ---- --- ---------- --------- -- ------- ------ -<br>--------- ----- -----,182042.19999999925,182041.40000000037,181622.818,181626.40000000037,181639.488,182056.274,,30,to
screen,html.Screen,0_4_1_0_1_31,2021-11-04T12:02:12.990Z,,,,,,,,,,,,,,,,15,,,,,,,,,,,,,,497.12600000036764,,response,,,7,E,,,,,Space,keypress(Space),,,,lyrical,---- --------- ---------- - --- ------- -- --- ------------<br>----- -- -------- ------- ---- ------ - -------- ---- -----<br>--- ------- ---- -- --- -------- --- - ----- ------ ---- --<br>maintain --- -------- -------- --- -------- ---- -- ----- -<br>-------- ---- --- ---------- --------- -- ------- ------ -<br>--------- ----- -----,182554.19999999925,182553.40000000037,182039.604,182042.40000000037,182056.274,182556.395,,31,maintain
screen,html.Screen,0_4_1_0_1_32,2021-11-04T12:02:13.414Z,,,,,,,,,,,,,,,,15,,,,,,,,,,,,,,420.90500000075554,,response,,,7,E,,,,,Space,keypress(Space),,,,lyrical,---- --------- ---------- - --- ------- -- --- ------------<br>----- -- -------- ------- ---- ------ - -------- ---- -----<br>--- ------- ---- -- --- -------- --- - ----- ------ ---- --<br>-------- his -------- -------- --- -------- ---- -- ----- -<br>-------- ---- --- ---------- --------- -- ------- ------ -<br>--------- ----- -----,182978.19999999925,182977.30000000075,182539.725,182554.40000000037,182556.395,182989.774,,32,his
screen,html.Screen,0_4_1_0_1_33,2021-11-04T12:02:14.310Z,,,,,,,,,,,,,,,,15,,,,,,,,,,,,,,883.5260000007402,,response,,,7,E,,,,,Space,keypress(Space),,,,lyrical,---- --------- ---------- - --- ------- -- --- ------------<br>----- -- -------- ------- ---- ------ - -------- ---- -----<br>--- ------- ---- -- --- -------- --- - ----- ------ ---- --<br>-------- --- silence. -------- --- -------- ---- -- ----- -<br>-------- ---- --- ---------- --------- -- ------- ------ -<br>--------- ----- -----,183874,183873.30000000075,182973.105,182978.40000000037,182989.774,183889.928,,33,silence.
screen,html.Screen,0_4_1_0_1_34,2021-11-04T12:02:14.854Z,,,,,,,,,,,,,,,,15,,,,,,,,,,,,,,527.3720000007306,,response,,,7,E,,,,,Space,keypress(Space),,,,lyrical,---- --------- ---------- - --- ------- -- --- ------------<br>----- -- -------- ------- ---- ------ - -------- ---- -----<br>--- ------- ---- -- --- -------- --- - ----- ------ ---- --<br>-------- --- -------- Anderson --- -------- ---- -- ----- -<br>-------- ---- --- ---------- --------- -- ------- ------ -<br>--------- ----- -----,184418.09999999963,184417.30000000075,183873.259,183874.30000000075,183889.928,184423.659,,34,Anderson
screen,html.Screen,0_4_1_0_1_35,2021-11-04T12:02:15.238Z,,,,,,,,,,,,,,,,15,,,,,,,,,,,,,,377.54099999924074,,response,,,7,E,,,,,Space,keypress(Space),,,,lyrical,---- --------- ---------- - --- ------- -- --- ------------<br>----- -- -------- ------- ---- ------ - -------- ---- -----<br>--- ------- ---- -- --- -------- --- - ----- ------ ---- --<br>-------- --- -------- -------- was -------- ---- -- ----- -<br>-------- ---- --- ---------- --------- -- ------- ------ -<br>--------- ----- -----,184802,184801.19999999925,184406.987,184418.30000000075,184423.659,184806.929,,35,was
screen,html.Screen,0_4_1_0_1_36,2021-11-04T12:02:15.734Z,,,,,,,,,,,,,,,,15,,,,,,,,,,,,,,490.2709999992512,,response,,,7,E,,,,,Space,keypress(Space),,,,lyrical,---- --------- ---------- - --- ------- -- --- ------------<br>----- -- -------- ------- ---- ------ - -------- ---- -----<br>--- ------- ---- -- --- -------- --- - ----- ------ ---- --<br>-------- --- -------- -------- --- released ---- -- ----- -<br>-------- ---- --- ---------- --------- -- ------- ------ -<br>--------- ----- -----,185297.90000000037,185297.19999999925,184790.259,184802.19999999925,184806.929,185307.13,,36,released
screen,html.Screen,0_4_1_0_1_37,2021-11-04T12:02:16.230Z,,,,,,,,,,,,,,,,15,,,,,,,,,,,,,,486.0699999992503,,response,,,7,E,,,,,Space,keypress(Space),,,,lyrical,---- --------- ---------- - --- ------- -- --- ------------<br>----- -- -------- ------- ---- ------ - -------- ---- -----<br>--- ------- ---- -- --- -------- --- - ----- ------ ---- --<br>-------- --- -------- -------- --- -------- July -- ----- -<br>-------- ---- --- ---------- --------- -- ------- ------ -<br>--------- ----- -----,185794,185793.19999999925,185290.459,185298.19999999925,185307.13,185807.104,,37,July
screen,html.Screen,0_4_1_0_1_38,2021-11-04T12:02:16.919Z,,,,,,,,,,,,,,,,15,,,,,,,,,,,,,,674.4959999996354,,response,,,7,E,,,,,Space,keypress(Space),,,,lyrical,---- --------- ---------- - --- ------- -- --- ------------<br>----- -- -------- ------- ---- ------ - -------- ---- -----<br>--- ------- ---- -- --- -------- --- - ----- ------ ---- --<br>-------- --- -------- -------- --- -------- ---- 20 ----- -<br>-------- ---- --- ---------- --------- -- ------- ------ -<br>--------- ----- -----,186482.40000000037,186481.59999999963,185790.435,185794.19999999925,185807.104,186490.683,,38,20
screen,html.Screen,0_4_1_0_1_39,2021-11-04T12:02:17.342Z,,,,,,,,,,,,,,,,15,,,,,,,,,,,,,,414.4169999996375,,response,,,7,E,,,,,Space,keypress(Space),,,,lyrical,---- --------- ---------- - --- ------- -- --- ------------<br>----- -- -------- ------- ---- ------ - -------- ---- -----<br>--- ------- ---- -- --- -------- --- - ----- ------ ---- --<br>-------- --- -------- -------- --- -------- ---- -- after -<br>-------- ---- --- ---------- --------- -- ------- ------ -<br>--------- ----- -----,186905.90000000037,186905.09999999963,186474.013,186482.69999999925,186490.683,186907.608,,39,after
screen,html.Screen,0_4_1_0_1_40,2021-11-04T12:02:17.782Z,,,,,,,,,,,,,,,,15,,,,,,,,,,,,,,437.49199999962,,response,,,7,E,,,,,Space,keypress(Space),,,,lyrical,---- --------- ---------- - --- ------- -- --- ------------<br>----- -- -------- ------- ---- ------ - -------- ---- -----<br>--- ------- ---- -- --- -------- --- - ----- ------ ---- --<br>-------- --- -------- -------- --- -------- ---- -- ----- a<br>-------- ---- --- ---------- --------- -- ------- ------ -<br>--------- ----- -----,187345.90000000037,187345.09999999963,186890.936,186906.19999999925,186907.608,187357.635,,40,a
screen,html.Screen,0_4_1_0_1_41,2021-11-04T12:02:18.414Z,,,,,,,,,,,,,,,,15,,,,,,,,,,,,,,619.4649999996182,,response,,,7,E,,,,,Space,keypress(Space),,,,lyrical,---- --------- ---------- - --- ------- -- --- ------------<br>----- -- -------- ------- ---- ------ - -------- ---- -----<br>--- ------- ---- -- --- -------- --- - ----- ------ ---- --<br>-------- --- -------- -------- --- -------- ---- -- ----- -<br>two-week ---- --- ---------- --------- -- ------- ------ -<br>--------- ----- -----,187977.90000000037,187977.09999999963,187340.965,187346.09999999963,187357.635,187991.106,,41,two-week
screen,html.Screen,0_4_1_0_1_42,2021-11-04T12:02:18.806Z,,,,,,,,,,,,,,,,15,,,,,,,,,,,,,,377.9939999996277,,response,,,7,E,,,,,Space,keypress(Space),,,,lyrical,---- --------- ---------- - --- ------- -- --- ------------<br>----- -- -------- ------- ---- ------ - -------- ---- -----<br>--- ------- ---- -- --- -------- --- - ----- ------ ---- --<br>-------- --- -------- -------- --- -------- ---- -- ----- -<br>-------- stay --- ---------- --------- -- ------- ------ -<br>--------- ----- -----,188369.80000000075,188369.09999999963,187974.436,187978.19999999925,187991.106,188374.599,,42,stay
screen,html.Screen,0_4_1_0_1_43,2021-11-04T12:02:19.222Z,,,,,,,,,,,,,,,,15,,,,,,,,,,,,,,410.4010000000126,,response,,,7,E,,,,,Space,keypress(Space),,,,lyrical,---- --------- ---------- - --- ------- -- --- ------------<br>----- -- -------- ------- ---- ------ - -------- ---- -----<br>--- ------- ---- -- --- -------- --- - ----- ------ ---- --<br>-------- --- -------- -------- --- -------- ---- -- ----- -<br>-------- ---- for ---------- --------- -- ------- ------ -<br>--------- ----- -----,188785.80000000075,188785,188357.928,188370.09999999963,188374.599,188791.336,,43,for
screen,html.Screen,0_4_1_0_1_44,2021-11-04T12:02:19.774Z,,,,,,,,,,,,,,,,15,,,,,,,,,,,,,,545.5640000003623,,response,,,7,E,,,,,Space,keypress(Space),,,,lyrical,---- --------- ---------- - --- ------- -- --- ------------<br>----- -- -------- ------- ---- ------ - -------- ---- -----<br>--- ------- ---- -- --- -------- --- - ----- ------ ---- --<br>-------- --- -------- -------- --- -------- ---- -- ----- -<br>-------- ---- --- previously --------- -- ------- ------ -<br>--------- ----- -----,189337.80000000075,189336.90000000037,188774.666,188786.09999999963,188791.336,189341.46,,44,previously
screen,html.Screen,0_4_1_0_1_45,2021-11-04T12:02:20.190Z,,,,,,,,,,,,,,,,15,,,,,,,,,,,,,,411.4400000003807,,response,,,7,E,,,,,Space,keypress(Space),,,,lyrical,---- --------- ---------- - --- ------- -- --- ------------<br>----- -- -------- ------- ---- ------ - -------- ---- -----<br>--- ------- ---- -- --- -------- --- - ----- ------ ---- --<br>-------- --- -------- -------- --- -------- ---- -- ----- -<br>-------- ---- --- ---------- declining -- ------- ------ -<br>--------- ----- -----,189753.80000000075,189752.90000000037,189324.79,189338,189341.46,189758.246,,45,declining
screen,html.Screen,0_4_1_0_1_46,2021-11-04T12:02:20.742Z,,,,,,,,,,,,,,,,15,,,,,,,,,,,,,,546.6540000003588,,response,,,7,E,,,,,Space,keypress(Space),,,,lyrical,---- --------- ---------- - --- ------- -- --- ------------<br>----- -- -------- ------- ---- ------ - -------- ---- -----<br>--- ------- ---- -- --- -------- --- - ----- ------ ---- --<br>-------- --- -------- -------- --- -------- ---- -- ----- -<br>-------- ---- --- ---------- --------- to ------- ------ -<br>--------- ----- -----,190305.69999999925,190304.90000000037,189741.576,189754,189758.246,190308.382,,46,to
screen,html.Screen,0_4_1_0_1_47,2021-11-04T12:02:21.158Z,,,,,,,,,,,,,,,,15,,,,,,,,,,,,,,412.4180000007327,,response,,,7,E,,,,,Space,keypress(Space),,,,lyrical,---- --------- ---------- - --- ------- -- --- ------------<br>----- -- -------- ------- ---- ------ - -------- ---- -----<br>--- ------- ---- -- --- -------- --- - ----- ------ ---- --<br>-------- --- -------- -------- --- -------- ---- -- ----- -<br>-------- ---- --- ---------- --------- -- testify ------ -<br>--------- ----- -----,190721.59999999963,190720.80000000075,190291.712,190306,190308.382,190725.162,,47,testify
screen,html.Screen,0_4_1_0_1_48,2021-11-04T12:02:21.614Z,,,,,,,,,,,,,,,,15,,,,,,,,,,,,,,451.6380000007339,,response,,,7,E,,,,,Space,keypress(Space),,,,lyrical,---- --------- ---------- - --- ------- -- --- ------------<br>----- -- -------- ------- ---- ------ - -------- ---- -----<br>--- ------- ---- -- --- -------- --- - ----- ------ ---- --<br>-------- --- -------- -------- --- -------- ---- -- ----- -<br>-------- ---- --- ---------- --------- -- ------- before -<br>--------- ----- -----,191177.69999999925,191176.80000000075,190708.492,190721.90000000037,190725.162,191191.948,,48,before
screen,html.Screen,0_4_1_0_1_49,2021-11-04T12:02:22.102Z,,,,,,,,,,,,,,,,15,,,,,,,,,,,,,,472.8520000007411,,response,,,7,E,,,,,Space,keypress(Space),,,,lyrical,---- --------- ---------- - --- ------- -- --- ------------<br>----- -- -------- ------- ---- ------ - -------- ---- -----<br>--- ------- ---- -- --- -------- --- - ----- ------ ---- --<br>-------- --- -------- -------- --- -------- ---- -- ----- -<br>-------- ---- --- ---------- --------- -- ------- ------ a<br>--------- ----- -----,191665.69999999925,191664.80000000075,191175.278,191178,191191.948,191675.304,,49,a
screen,html.Screen,0_4_1_0_1_50,2021-11-04T12:02:22.686Z,,,,,,,,,,,,,,,,15,,,,,,,,,,,,,,573.5960000003688,,response,,,7,E,,,,,Space,keypress(Space),,,,lyrical,---- --------- ---------- - --- ------- -- --- ------------<br>----- -- -------- ------- ---- ------ - -------- ---- -----<br>--- ------- ---- -- --- -------- --- - ----- ------ ---- --<br>-------- --- -------- -------- --- -------- ---- -- ----- -<br>-------- ---- --- ---------- --------- -- ------- ------ -<br>different ----- -----,192249.90000000037,192248.90000000037,191658.635,191665.90000000037,191675.304,192258.848,,50,different
screen,html.Screen,0_4_1_0_1_51,2021-11-04T12:02:23.070Z,,,,,,,,,,,,,,,,15,,,,,,,,,,,,,,373.9520000007469,,response,,,7,E,,,,,Space,keypress(Space),,,,lyrical,---- --------- ---------- - --- ------- -- --- ------------<br>----- -- -------- ------- ---- ------ - -------- ---- -----<br>--- ------- ---- -- --- -------- --- - ----- ------ ---- --<br>-------- --- -------- -------- --- -------- ---- -- ----- -<br>-------- ---- --- ---------- --------- -- ------- ------ -<br>--------- grand -----,192633.59999999963,192632.80000000075,192242.178,192250.09999999963,192258.848,192642.417,,51,grand
screen,html.Screen,0_4_1_0_1_52,2021-11-04T12:02:23.606Z,,,,,,,,,,,,,,,,15,,,,,,,,,,,,,,526.3830000007583,,response,,,7,E,,,,,Space,keypress(Space),,,,lyrical,---- --------- ---------- - --- ------- -- --- ------------<br>----- -- -------- ------- ---- ------ - -------- ---- -----<br>--- ------- ---- -- --- -------- --- - ----- ------ ---- --<br>-------- --- -------- -------- --- -------- ---- -- ----- -<br>-------- ---- --- ---------- --------- -- ------- ------ -<br>--------- ----- jury.,193169.59999999963,193168.80000000075,192625.745,192633.80000000075,192642.417,193175.78,,52,jury.
Item 7,flow.Loop,0_4_1_0_1,2021-11-04T12:02:23.606Z,,,,,,,,,,,,,,,,,,,,,,,,,,,,,,27900.433000000747,,completion,,,,,,,,,,,,,,,,193170,193168.80000000075,165251.698,165253.69999999925,165268.367,193175.78,,,
