sender,sender_type,sender_id,timestamp,meta,,Blues,Classical,Country,Dance,Electronic,Folk,Gospel,Hip-Hop,Jazz,Latin,Musical/Film,New-age,Pop,Provo_ID,R&B,Rap,Reggae,Religious,Rock,Soul,Swing,Traditional,age,artist_name,correct,correctResponse,distraction,duration,education,ended_on,familiarity,gender,item,list,music_frequency,offensiveness,pleasantness,preference,response,response_action,snippet_file,song_name,song_rating,sound,text,time_commit,time_end,time_render,time_run,time_show,time_switch,url,word,word_ID
Instructions,html.Page,0_0,2021-12-02T11:58:53.920Z,"{""labjs_version"":""20.2.3"",""labjs_build"":{""flavor"":""production"",""commit"":""7ea907d66ca8aeef8054924ca5d82ffbe11e34e5""},""location"":""https://run.pavlovia.org/mvasilev/lab_music_b/"",""userAgent"":""Mozilla/5.0 (Windows NT 6.1; Win64; x64) AppleWebKit/537.36 (KHTML, like Gecko) Chrome/96.0.4664.45 Safari/537.36"",""platform"":""Win32"",""language"":""en-US"",""locale"":""en-US"",""timeZone"":""Europe/London"",""timezoneOffset"":0,""screen_width"":1920,""screen_height"":1080,""scroll_width"":1920,""scroll_height"":959,""window_innerWidth"":1920,""window_innerHeight"":1007,""devicePixelRatio"":1}",,,,,,,,,,,,,,,,,,,,,,,,,,,,,44213.602999999624,,form submission,,,,,,,,,,,,,,,,52219.300000000745,52218.09999999963,7954.487,7974.5,8004.497,52217.231,{},,
Headphones,html.Page,0_1,2021-12-02T11:58:58.202Z,,,,,,,,,,,,,,,,,,,,,,,,,,,,,,4283.269,,form submission,,,,,,,,,,,,,,,,56501.199999999255,56500.5,52200.49,52220,52217.231,56517.279,,,
Holding screen,html.Screen,0_2_0_0,2021-12-02T11:59:08.213Z,,,,,,,,,,,,,,,,,,,,,,,,,,,,,,10002.801,,timeout,,,,,,,,,,,,,,,,66510.30000000075,66503.411,56483.941,56501.800000000745,56517.279,66520.08,,,
screen,html.Screen,0_2_0_1_0,2021-12-02T11:59:09.179Z,,,,,,,,,,,,,,,,53,,,,,,,,,,,,,,954.8200000003708,,response,,,99,,,,,,Space,keypress(Space),,,,,When -- ----- -- ------ - ------- --- ----------<br>------------- ------ ------ ---- ---- ------- ----- -- ----<br>-------- ------- -- ---------- --- - --- ----- ----- ----<br>---- --- --- ----- --- ---- ---- ------- ----- ---- -------<br>--- --- -- ----- -- --- ---- -- --- ---- -- ------ ------<br>--- ----- -- ----,67476.30000000075,67474.90000000037,66503.411,66510.80000000075,66520.08,67487.302,,0,When
screen,html.Screen,0_2_0_1_1,2021-12-02T11:59:09.867Z,,,,,,,,,,,,,,,,53,,,,,,,,,,,,,,675.498000000749,,response,,,99,,,,,,Space,keypress(Space),,,,,---- it ----- -- ------ - ------- --- ----------<br>------------- ------ ------ ---- ---- ------- ----- -- ----<br>-------- ------- -- ---------- --- - --- ----- ----- ----<br>---- --- --- ----- --- ---- ---- ------- ----- ---- -------<br>--- --- -- ----- -- --- ---- -- --- ---- -- ------ ------<br>--- ----- -- ----,68163.69999999925,68162.80000000075,67470.63,67476.69999999925,67487.302,68170.71,,1,it
screen,html.Screen,0_2_0_1_2,2021-12-02T11:59:11.363Z,,,,,,,,,,,,,,,,53,,,,,,,,,,,,,,1487.9899999992485,,response,,,99,,,,,,Space,keypress(Space),,,,,---- -- comes -- ------ - ------- --- ----------<br>------------- ------ ------ ---- ---- ------- ----- -- ----<br>-------- ------- -- ---------- --- - --- ----- ----- ----<br>---- --- --- ----- --- ---- ---- ------- ----- ---- -------<br>--- --- -- ----- -- --- ---- -- --- ---- -- ------ ------<br>--- ----- -- ----,69659.69999999925,69658.69999999925,68154.04,68163.90000000037,68170.71,69671.185,,2,comes
screen,html.Screen,0_2_0_1_3,2021-12-02T11:59:11.843Z,,,,,,,,,,,,,,,,53,,,,,,,,,,,,,,467.6150000007474,,response,,,99,,,,,,Space,keypress(Space),,,,,---- -- ----- to ------ - ------- --- ----------<br>------------- ------ ------ ---- ---- ------- ----- -- ----<br>-------- ------- -- ---------- --- - --- ----- ----- ----<br>---- --- --- ----- --- ---- ---- ------- ----- ---- -------<br>--- --- -- ----- -- --- ---- -- --- ---- -- ------ ------<br>--- ----- -- ----,70139.59999999963,70138.80000000075,69654.514,69659.90000000037,69671.185,70154.609,,3,to
screen,html.Screen,0_2_0_1_4,2021-12-02T11:59:12.379Z,,,,,,,,,,,,,,,,53,,,,,,,,,,,,,,520.4909999996307,,response,,,99,,,,,,Space,keypress(Space),,,,,---- -- ----- -- having - ------- --- ----------<br>------------- ------ ------ ---- ---- ------- ----- -- ----<br>-------- ------- -- ---------- --- - --- ----- ----- ----<br>---- --- --- ----- --- ---- ---- ------- ----- ---- -------<br>--- --- -- ----- -- --- ---- -- --- ---- -- ------ ------<br>--- ----- -- ----,70676.30000000075,70675.09999999963,70137.939,70140.19999999925,70154.609,70688.087,,4,having
screen,html.Screen,0_2_0_1_5,2021-12-02T11:59:12.907Z,,,,,,,,,,,,,,,,53,,,,,,,,,,,,,,514.6129999992554,,response,,,99,,,,,,Space,keypress(Space),,,,,---- -- ----- -- ------ a ------- --- ----------<br>------------- ------ ------ ---- ---- ------- ----- -- ----<br>-------- ------- -- ---------- --- - --- ----- ----- ----<br>---- --- --- ----- --- ---- ---- ------- ----- ---- -------<br>--- --- -- ----- -- --- ---- -- --- ---- -- ------ ------<br>--- ----- -- ----,71203.59999999963,71202.69999999925,70671.417,70676.59999999963,70688.087,71204.872,,5,a
screen,html.Screen,0_2_0_1_6,2021-12-02T11:59:13.827Z,,,,,,,,,,,,,,,,53,,,,,,,,,,,,,,917.7279999996244,,response,,,99,,,,,,Space,keypress(Space),,,,,---- -- ----- -- ------ - lasting --- ----------<br>------------- ------ ------ ---- ---- ------- ----- -- ----<br>-------- ------- -- ---------- --- - --- ----- ----- ----<br>---- --- --- ----- --- ---- ---- ------- ----- ---- -------<br>--- --- -- ----- -- --- ---- -- --- ---- -- ------ ------<br>--- ----- -- ----,72123.59999999963,72122.59999999963,71188.202,71204.09999999963,71204.872,72138.514,,6,lasting
screen,html.Screen,0_2_0_1_7,2021-12-02T11:59:14.312Z,,,,,,,,,,,,,,,,53,,,,,,,,,,,,,,469.0859999996319,,response,,,99,,,,,,Space,keypress(Space),,,,,---- -- ----- -- ------ - ------- and ----------<br>------------- ------ ------ ---- ---- ------- ----- -- ----<br>-------- ------- -- ---------- --- - --- ----- ----- ----<br>---- --- --- ----- --- ---- ---- ------- ----- ---- -------<br>--- --- -- ----- -- --- ---- -- --- ---- -- ------ ------<br>--- ----- -- ----,72608.5,72607.59999999963,72121.843,72123.80000000075,72138.514,72621.868,,7,and
screen,html.Screen,0_2_0_1_8,2021-12-02T11:59:14.875Z,,,,,,,,,,,,,,,,53,,,,,,,,,,,,,,548.7319999996253,,response,,,99,,,,,,Space,keypress(Space),,,,,---- -- ----- -- ------ - ------- --- fulfilling<br>------------- ------ ------ ---- ---- ------- ----- -- ----<br>-------- ------- -- ---------- --- - --- ----- ----- ----<br>---- --- --- ----- --- ---- ---- ------- ----- ---- -------<br>--- --- -- ----- -- --- ---- -- --- ---- -- ------ ------<br>--- ----- -- ----,73171.69999999925,73170.59999999963,72605.198,72608.80000000075,72621.868,73188.788,,8,fulfilling
screen,html.Screen,0_2_0_1_9,2021-12-02T11:59:15.419Z,,,,,,,,,,,,,,,,53,,,,,,,,,,,,,,525.811999999627,,response,,,99,,,,,,Space,keypress(Space),,,,,"---- -- ----- -- ------ - ------- --- ----------<br>relationship, ------ ------ ---- ---- ------- ----- -- ----<br>-------- ------- -- ---------- --- - --- ----- ----- ----<br>---- --- --- ----- --- ---- ---- ------- ----- ---- -------<br>--- --- -- ----- -- --- ---- -- --- ---- -- ------ ------<br>--- ----- -- ----",73715.5,73714.59999999963,73172.117,73172,73188.788,73722.209,,9,"relationship,"
screen,html.Screen,0_2_0_1_10,2021-12-02T11:59:16.171Z,,,,,,,,,,,,,,,,53,,,,,,,,,,,,,,744.3909999996249,,response,,,99,,,,,,Space,keypress(Space),,,,,---- -- ----- -- ------ - ------- --- ----------<br>------------- common ------ ---- ---- ------- ----- -- ----<br>-------- ------- -- ---------- --- - --- ----- ----- ----<br>---- --- --- ----- --- ---- ---- ------- ----- ---- -------<br>--- --- -- ----- -- --- ---- -- --- ---- -- ------ ------<br>--- ----- -- ----,74467.59999999963,74466.59999999963,73705.539,73715.80000000075,73722.209,74472.404,,10,common
screen,html.Screen,0_2_0_1_11,2021-12-02T11:59:17.050Z,,,,,,,,,,,,,,,,53,,,,,,,,,,,,,,874.096000000005,,response,,,99,,,,,,Space,keypress(Space),,,,,---- -- ----- -- ------ - ------- --- ----------<br>------------- ------ wisdom ---- ---- ------- ----- -- ----<br>-------- ------- -- ---------- --- - --- ----- ----- ----<br>---- --- --- ----- --- ---- ---- ------- ----- ---- -------<br>--- --- -- ----- -- --- ---- -- --- ---- -- ------ ------<br>--- ----- -- ----,75347.5,75346.5,74455.734,74467.80000000075,74472.404,75356.034,,11,wisdom
screen,html.Screen,0_2_0_1_12,2021-12-02T11:59:17.618Z,,,,,,,,,,,,,,,,53,,,,,,,,,,,,,,558.4660000000003,,response,,,99,,,,,,Space,keypress(Space),,,,,---- -- ----- -- ------ - ------- --- ----------<br>------------- ------ ------ says ---- ------- ----- -- ----<br>-------- ------- -- ---------- --- - --- ----- ----- ----<br>---- --- --- ----- --- ---- ---- ------- ----- ---- -------<br>--- --- -- ----- -- --- ---- -- --- ---- -- ------ ------<br>--- ----- -- ----,75915.30000000075,75914.5,75339.363,75347.80000000075,75356.034,75922.804,,12,says
screen,html.Screen,0_2_0_1_13,2021-12-02T11:59:18.226Z,,,,,,,,,,,,,,,,53,,,,,,,,,,,,,,599.5960000003688,,response,,,99,,,,,,Space,keypress(Space),,,,,---- -- ----- -- ------ - ------- --- ----------<br>------------- ------ ------ ---- that ------- ----- -- ----<br>-------- ------- -- ---------- --- - --- ----- ----- ----<br>---- --- --- ----- --- ---- ---- ------- ----- ---- -------<br>--- --- -- ----- -- --- ---- -- --- ---- -- ------ ------<br>--- ----- -- ----,76523.30000000075,76522.40000000037,75906.134,75915.59999999963,75922.804,76539.616,,13,that
screen,html.Screen,0_2_0_1_14,2021-12-02T11:59:18.858Z,,,,,,,,,,,,,,,,53,,,,,,,,,,,,,,614.784000000378,,response,,,99,,,,,,Space,keypress(Space),,,,,---- -- ----- -- ------ - ------- --- ----------<br>------------- ------ ------ ---- ---- feeling ----- -- ----<br>-------- ------- -- ---------- --- - --- ----- ----- ----<br>---- --- --- ----- --- ---- ---- ------- ----- ---- -------<br>--- --- -- ----- -- --- ---- -- --- ---- -- ------ ------<br>--- ----- -- ----,77155.19999999925,77154.40000000037,76522.946,76523.5,76539.616,77156.538,,14,feeling
screen,html.Screen,0_2_0_1_15,2021-12-02T11:59:19.794Z,,,,,,,,,,,,,,,,53,,,,,,,,,,,,,,933.9619999999995,,response,,,99,,,,,,Space,keypress(Space),,,,,---- -- ----- -- ------ - ------- --- ----------<br>------------- ------ ------ ---- ---- ------- close -- ----<br>-------- ------- -- ---------- --- - --- ----- ----- ----<br>---- --- --- ----- --- ---- ---- ------- ----- ---- -------<br>--- --- -- ----- -- --- ---- -- --- ---- -- ------ ------<br>--- ----- -- ----,78091.30000000075,78090.5,77139.867,77155.40000000037,77156.538,78106.571,,15,close
screen,html.Screen,0_2_0_1_16,2021-12-02T11:59:20.234Z,,,,,,,,,,,,,,,,53,,,,,,,,,,,,,,423.82900000037625,,response,,,99,,,,,,Space,keypress(Space),,,,,---- -- ----- -- ------ - ------- --- ----------<br>------------- ------ ------ ---- ---- ------- ----- to ----<br>-------- ------- -- ---------- --- - --- ----- ----- ----<br>---- --- --- ----- --- ---- ---- ------- ----- ---- -------<br>--- --- -- ----- -- --- ---- -- --- ---- -- ------ ------<br>--- ----- -- ----,78531.40000000037,78530.40000000037,78089.902,78091.5,78106.571,78540.122,,16,to
screen,html.Screen,0_2_0_1_17,2021-12-02T11:59:20.666Z,,,,,,,,,,,,,,,,53,,,,,,,,,,,,,,422.17800000074203,,response,,,99,,,,,,Space,keypress(Space),,,,,---- -- ----- -- ------ - ------- --- ----------<br>------------- ------ ------ ---- ---- ------- ----- -- your<br>-------- ------- -- ---------- --- - --- ----- ----- ----<br>---- --- --- ----- --- ---- ---- ------- ----- ---- -------<br>--- --- -- ----- -- --- ---- -- --- ---- -- ------ ------<br>--- ----- -- ----,78963.09999999963,78962.30000000075,78523.452,78531.59999999963,78540.122,78973.662,,17,your
screen,html.Screen,0_2_0_1_18,2021-12-02T11:59:21.226Z,,,,,,,,,,,,,,,,53,,,,,,,,,,,,,,548.7380000003759,,response,,,99,,,,,,Space,keypress(Space),,,,,---- -- ----- -- ------ - ------- --- ----------<br>------------- ------ ------ ---- ---- ------- ----- -- ----<br>romantic ------- -- ---------- --- - --- ----- ----- ----<br>---- --- --- ----- --- ---- ---- ------- ----- ---- -------<br>--- --- -- ----- -- --- ---- -- --- ---- -- ------ ------<br>--- ----- -- ----,79523.19999999925,79522.40000000037,78956.991,78963.40000000037,78973.662,79540.431,,18,romantic
screen,html.Screen,0_2_0_1_19,2021-12-02T11:59:21.570Z,,,,,,,,,,,,,,,,53,,,,,,,,,,,,,,325.8690000007482,,response,,,99,,,,,,Space,keypress(Space),,,,,---- -- ----- -- ------ - ------- --- ----------<br>------------- ------ ------ ---- ---- ------- ----- -- ----<br>-------- partner -- ---------- --- - --- ----- ----- ----<br>---- --- --- ----- --- ---- ---- ------- ----- ---- -------<br>--- --- -- ----- -- --- ---- -- --- ---- -- ------ ------<br>--- ----- -- ----,79867.09999999963,79866.30000000075,79523.761,79523.40000000037,79540.431,79873.748,,19,partner
screen,html.Screen,0_2_0_1_20,2021-12-02T11:59:22.066Z,,,,,,,,,,,,,,,,53,,,,,,,,,,,,,,488.5520000007382,,response,,,99,,,,,,Space,keypress(Space),,,,,---- -- ----- -- ------ - ------- --- ----------<br>------------- ------ ------ ---- ---- ------- ----- -- ----<br>-------- ------- is ---------- --- - --- ----- ----- ----<br>---- --- --- ----- --- ---- ---- ------- ----- ---- -------<br>--- --- -- ----- -- --- ---- -- --- ---- -- ------ ------<br>--- ----- -- ----,80363,80362.30000000075,79857.079,79867.30000000075,79873.748,80374.089,,20,is
screen,html.Screen,0_2_0_1_21,2021-12-02T11:59:22.571Z,,,,,,,,,,,,,,,,53,,,,,,,,,,,,,,492.6109999992477,,response,,,99,,,,,,Space,keypress(Space),,,,,---- -- ----- -- ------ - ------- --- ----------<br>------------- ------ ------ ---- ---- ------- ----- -- ----<br>-------- ------- -- paramount. --- - --- ----- ----- ----<br>---- --- --- ----- --- ---- ---- ------- ----- ---- -------<br>--- --- -- ----- -- --- ---- -- --- ---- -- ------ ------<br>--- ----- -- ----,80867.5,80866.69999999925,80357.417,80363.30000000075,80374.089,80874.18,,21,paramount.
screen,html.Screen,0_2_0_1_22,2021-12-02T11:59:23.306Z,,,,,,,,,,,,,,,,53,,,,,,,,,,,,,,728.0199999992619,,response,,,99,,,,,,Space,keypress(Space),,,,,---- -- ----- -- ------ - ------- --- ----------<br>------------- ------ ------ ---- ---- ------- ----- -- ----<br>-------- ------- -- ---------- But - --- ----- ----- ----<br>---- --- --- ----- --- ---- ---- ------- ----- ---- -------<br>--- --- -- ----- -- --- ---- -- --- ---- -- ------ ------<br>--- ----- -- ----,81603.09999999963,81602.19999999925,80857.509,80868,80874.18,81607.636,,22,But
screen,html.Screen,0_2_0_1_23,2021-12-02T11:59:23.834Z,,,,,,,,,,,,,,,,53,,,,,,,,,,,,,,522.5639999992563,,response,,,99,,,,,,Space,keypress(Space),,,,,---- -- ----- -- ------ - ------- --- ----------<br>------------- ------ ------ ---- ---- ------- ----- -- ----<br>-------- ------- -- ---------- --- a --- ----- ----- ----<br>---- --- --- ----- --- ---- ---- ------- ----- ---- -------<br>--- --- -- ----- -- --- ---- -- --- ---- -- ------ ------<br>--- ----- -- ----,82131,82130.19999999925,81590.966,81603.19999999925,81607.636,82141.111,,23,a
screen,html.Screen,0_2_0_1_24,2021-12-02T11:59:24.314Z,,,,,,,,,,,,,,,,53,,,,,,,,,,,,,,469.0889999992505,,response,,,99,,,,,,Space,keypress(Space),,,,,---- -- ----- -- ------ - ------- --- ----------<br>------------- ------ ------ ---- ---- ------- ----- -- ----<br>-------- ------- -- ---------- --- - new ----- ----- ----<br>---- --- --- ----- --- ---- ---- ------- ----- ---- -------<br>--- --- -- ----- -- --- ---- -- --- ---- -- ------ ------<br>--- ----- -- ----,82611,82610.19999999925,82124.441,82131.30000000075,82141.111,82624.641,,24,new
screen,html.Screen,0_2_0_1_25,2021-12-02T11:59:24.802Z,,,,,,,,,,,,,,,,53,,,,,,,,,,,,,,473.4589999996242,,response,,,99,,,,,,Space,keypress(Space),,,,,---- -- ----- -- ------ - ------- --- ----------<br>------------- ------ ------ ---- ---- ------- ----- -- ----<br>-------- ------- -- ---------- --- - --- study ----- ----<br>---- --- --- ----- --- ---- ---- ------- ----- ---- -------<br>--- --- -- ----- -- --- ---- -- --- ---- -- ------ ------<br>--- ----- -- ----,83099,83098.09999999963,82607.97,82611.09999999963,82624.641,83108.032,,25,study
screen,html.Screen,0_2_0_1_26,2021-12-02T11:59:25.274Z,,,,,,,,,,,,,,,,53,,,,,,,,,,,,,,462.06799999962095,,response,,,99,,,,,,Space,keypress(Space),,,,,---- -- ----- -- ------ - ------- --- ----------<br>------------- ------ ------ ---- ---- ------- ----- -- ----<br>-------- ------- -- ---------- --- - --- ----- finds ----<br>---- --- --- ----- --- ---- ---- ------- ----- ---- -------<br>--- --- -- ----- -- --- ---- -- --- ---- -- ------ ------<br>--- ----- -- ----,83570.90000000037,83570.09999999963,83091.362,83099.19999999925,83108.032,83574.809,,26,finds
screen,html.Screen,0_2_0_1_27,2021-12-02T11:59:25.914Z,,,,,,,,,,,,,,,,53,,,,,,,,,,,,,,635.2909999996336,,response,,,99,,,,,,Space,keypress(Space),,,,,---- -- ----- -- ------ - ------- --- ----------<br>------------- ------ ------ ---- ---- ------- ----- -- ----<br>-------- ------- -- ---------- --- - --- ----- ----- that<br>---- --- --- ----- --- ---- ---- ------- ----- ---- -------<br>--- --- -- ----- -- --- ---- -- --- ---- -- ------ ------<br>--- ----- -- ----,84210.90000000037,84210.09999999963,83558.139,83571.09999999963,83574.809,84225.076,,27,that
screen,html.Screen,0_2_0_1_28,2021-12-02T11:59:26.378Z,,,,,,,,,,,,,,,,53,,,,,,,,,,,,,,449.02399999962654,,response,,,99,,,,,,Space,keypress(Space),,,,,---- -- ----- -- ------ - ------- --- ----------<br>------------- ------ ------ ---- ---- ------- ----- -- ----<br>-------- ------- -- ---------- --- - --- ----- ----- ----<br>it's --- --- ----- --- ---- ---- ------- ----- ---- -------<br>--- --- -- ----- -- --- ---- -- --- ---- -- ------ ------<br>--- ----- -- ----,84674.90000000037,84674.09999999963,84208.405,84211.09999999963,84225.076,84691.86,,28,it's
screen,html.Screen,0_2_0_1_29,2021-12-02T11:59:26.922Z,,,,,,,,,,,,,,,,53,,,,,,,,,,,,,,526.2399999996269,,response,,,99,,,,,,Space,keypress(Space),,,,,---- -- ----- -- ------ - ------- --- ----------<br>------------- ------ ------ ---- ---- ------- ----- -- ----<br>-------- ------- -- ---------- --- - --- ----- ----- ----<br>---- not --- ----- --- ---- ---- ------- ----- ---- -------<br>--- --- -- ----- -- --- ---- -- --- ---- -- ------ ------<br>--- ----- -- ----,85218.80000000075,85218.09999999963,84675.189,84675.19999999925,84691.86,85225.271,,29,not
screen,html.Screen,0_2_0_1_30,2021-12-02T11:59:27.834Z,,,,,,,,,,,,,,,,53,,,,,,,,,,,,,,904.7290000000066,,response,,,99,,,,,,Space,keypress(Space),,,,,---- -- ----- -- ------ - ------- --- ----------<br>------------- ------ ------ ---- ---- ------- ----- -- ----<br>-------- ------- -- ---------- --- - --- ----- ----- ----<br>---- --- how ----- --- ---- ---- ------- ----- ---- -------<br>--- --- -- ----- -- --- ---- -- --- ---- -- ------ ------<br>--- ----- -- ----,86130.69999999925,86130,85208.601,85219.09999999963,85225.271,86142.163,,30,how
screen,html.Screen,0_2_0_1_31,2021-12-02T11:59:28.506Z,,,,,,,,,,,,,,,,53,,,,,,,,,,,,,,659.7370000003721,,response,,,99,,,,,,Space,keypress(Space),,,,,---- -- ----- -- ------ - ------- --- ----------<br>------------- ------ ------ ---- ---- ------- ----- -- ----<br>-------- ------- -- ---------- --- - --- ----- ----- ----<br>---- --- --- close --- ---- ---- ------- ----- ---- -------<br>--- --- -- ----- -- --- ---- -- --- ---- -- ------ ------<br>--- ----- -- ----,86802.90000000037,86801.90000000037,86125.493,86131.19999999925,86142.163,86809.025,,31,close
screen,html.Screen,0_2_0_1_32,2021-12-02T11:59:29.010Z,,,,,,,,,,,,,,,,53,,,,,,,,,,,,,,496.87500000037835,,response,,,99,,,,,,Space,keypress(Space),,,,,---- -- ----- -- ------ - ------- --- ----------<br>------------- ------ ------ ---- ---- ------- ----- -- ----<br>-------- ------- -- ---------- --- - --- ----- ----- ----<br>---- --- --- ----- you ---- ---- ------- ----- ---- -------<br>--- --- -- ----- -- --- ---- -- --- ---- -- ------ ------<br>--- ----- -- ----,87306.69999999925,87305.90000000037,86792.355,86803.09999999963,86809.025,87309.153,,32,you
screen,html.Screen,0_2_0_1_33,2021-12-02T11:59:29.706Z,,,,,,,,,,,,,,,,53,,,,,,,,,,,,,,692.6470000007394,,response,,,99,,,,,,Space,keypress(Space),,,,,---- -- ----- -- ------ - ------- --- ----------<br>------------- ------ ------ ---- ---- ------- ----- -- ----<br>-------- ------- -- ---------- --- - --- ----- ----- ----<br>---- --- --- ----- --- feel ---- ------- ----- ---- -------<br>--- --- -- ----- -- --- ---- -- --- ---- -- ------ ------<br>--- ----- -- ----,88002.59999999963,88001.80000000075,87292.483,87306.90000000037,87309.153,88009.302,,33,feel
screen,html.Screen,0_2_0_1_34,2021-12-02T11:59:30.274Z,,,,,,,,,,,,,,,,53,,,,,,,,,,,,,,560.498000000749,,response,,,99,,,,,,Space,keypress(Space),,,,,---- -- ----- -- ------ - ------- --- ----------<br>------------- ------ ------ ---- ---- ------- ----- -- ----<br>-------- ------- -- ---------- --- - --- ----- ----- ----<br>---- --- --- ----- --- ---- that ------- ----- ---- -------<br>--- --- -- ----- -- --- ---- -- --- ---- -- ------ ------<br>--- ----- -- ----,88570.59999999963,88569.80000000075,87992.632,88002.90000000037,88009.302,88576.219,,34,that
screen,html.Screen,0_2_0_1_35,2021-12-02T11:59:30.818Z,,,,,,,,,,,,,,,,53,,,,,,,,,,,,,,537.5810000007477,,response,,,99,,,,,,Space,keypress(Space),,,,,---- -- ----- -- ------ - ------- --- ----------<br>------------- ------ ------ ---- ---- ------- ----- -- ----<br>-------- ------- -- ---------- --- - --- ----- ----- ----<br>---- --- --- ----- --- ---- ---- matters ----- ---- -------<br>--- --- -- ----- -- --- ---- -- --- ---- -- ------ ------<br>--- ----- -- ----,89114.59999999963,89113.80000000075,88559.548,88570.90000000037,88576.219,89126.361,,35,matters
screen,html.Screen,0_2_0_1_36,2021-12-02T11:59:31.386Z,,,,,,,,,,,,,,,,53,,,,,,,,,,,,,,555.4390000007406,,response,,,99,,,,,,Space,keypress(Space),,,,,"---- -- ----- -- ------ - ------- --- ----------<br>------------- ------ ------ ---- ---- ------- ----- -- ----<br>-------- ------- -- ---------- --- - --- ----- ----- ----<br>---- --- --- ----- --- ---- ---- ------- most, ---- -------<br>--- --- -- ----- -- --- ---- -- --- ---- -- ------ ------<br>--- ----- -- ----",89682.80000000075,89681.80000000075,89109.69,89114.90000000037,89126.361,89693.083,,36,"most,"
screen,html.Screen,0_2_0_1_37,2021-12-02T11:59:31.946Z,,,,,,,,,,,,,,,,53,,,,,,,,,,,,,,548.7170000007463,,response,,,99,,,,,,Space,keypress(Space),,,,,---- -- ----- -- ------ - ------- --- ----------<br>------------- ------ ------ ---- ---- ------- ----- -- ----<br>-------- ------- -- ---------- --- - --- ----- ----- ----<br>---- --- --- ----- --- ---- ---- ------- ----- it's -------<br>--- --- -- ----- -- --- ---- -- --- ---- -- ------ ------<br>--- ----- -- ----,90242.59999999963,90241.80000000075,89676.413,89683,89693.083,90259.823,,37,it's
screen,html.Screen,0_2_0_1_38,2021-12-02T11:59:32.426Z,,,,,,,,,,,,,,,,53,,,,,,,,,,,,,,462.07700000036857,,response,,,99,,,,,,Space,keypress(Space),,,,,---- -- ----- -- ------ - ------- --- ----------<br>------------- ------ ------ ---- ---- ------- ----- -- ----<br>-------- ------- -- ---------- --- - --- ----- ----- ----<br>---- --- --- ----- --- ---- ---- ------- ----- ---- whether<br>--- --- -- ----- -- --- ---- -- --- ---- -- ------ ------<br>--- ----- -- ----,90722.59999999963,90721.90000000037,90243.154,90242.80000000075,90259.823,90726.845,,38,whether
screen,html.Screen,0_2_0_1_39,2021-12-02T11:59:32.914Z,,,,,,,,,,,,,,,,53,,,,,,,,,,,,,,483.4550000007439,,response,,,99,,,,,,Space,keypress(Space),,,,,---- -- ----- -- ------ - ------- --- ----------<br>------------- ------ ------ ---- ---- ------- ----- -- ----<br>-------- ------- -- ---------- --- - --- ----- ----- ----<br>---- --- --- ----- --- ---- ---- ------- ----- ---- -------<br>you --- -- ----- -- --- ---- -- --- ---- -- ------ ------<br>--- ----- -- ----,91211.09999999963,91210.30000000075,90710.173,90722.80000000075,90726.845,91226.876,,39,you
screen,html.Screen,0_2_0_1_40,2021-12-02T11:59:33.490Z,,,,,,,,,,,,,,,,53,,,,,,,,,,,,,,558.9240000007412,,response,,,99,,,,,,Space,keypress(Space),,,,,---- -- ----- -- ------ - ------- --- ----------<br>------------- ------ ------ ---- ---- ------- ----- -- ----<br>-------- ------- -- ---------- --- - --- ----- ----- ----<br>---- --- --- ----- --- ---- ---- ------- ----- ---- -------<br>--- are -- ----- -- --- ---- -- --- ---- -- ------ ------<br>--- ----- -- ----,91786.59999999963,91785.80000000075,91210.206,91211.30000000075,91226.876,91793.692,,40,are
screen,html.Screen,0_2_0_1_41,2021-12-02T11:59:34.049Z,,,,,,,,,,,,,,,,53,,,,,,,,,,,,,,552.0079999992595,,response,,,99,,,,,,Space,keypress(Space),,,,,---- -- ----- -- ------ - ------- --- ----------<br>------------- ------ ------ ---- ---- ------- ----- -- ----<br>-------- ------- -- ---------- --- - --- ----- ----- ----<br>---- --- --- ----- --- ---- ---- ------- ----- ---- -------<br>--- --- as ----- -- --- ---- -- --- ---- -- ------ ------<br>--- ----- -- ----,92346.5,92345.69999999925,91777.022,91786.80000000075,91793.692,92360.51,,41,as
screen,html.Screen,0_2_0_1_42,2021-12-02T11:59:34.521Z,,,,,,,,,,,,,,,,53,,,,,,,,,,,,,,457.1899999992602,,response,,,99,,,,,,Space,keypress(Space),,,,,---- -- ----- -- ------ - ------- --- ----------<br>------------- ------ ------ ---- ---- ------- ----- -- ----<br>-------- ------- -- ---------- --- - --- ----- ----- ----<br>---- --- --- ----- --- ---- ---- ------- ----- ---- -------<br>--- --- -- close -- --- ---- -- --- ---- -- ------ ------<br>--- ----- -- ----,92818.40000000037,92817.69999999925,92343.84,92346.69999999925,92360.51,92827.269,,42,close
screen,html.Screen,0_2_0_1_43,2021-12-02T11:59:34.985Z,,,,,,,,,,,,,,,,53,,,,,,,,,,,,,,454.33099999962724,,response,,,99,,,,,,Space,keypress(Space),,,,,---- -- ----- -- ------ - ------- --- ----------<br>------------- ------ ------ ---- ---- ------- ----- -- ----<br>-------- ------- -- ---------- --- - --- ----- ----- ----<br>---- --- --- ----- --- ---- ---- ------- ----- ---- -------<br>--- --- -- ----- as --- ---- -- --- ---- -- ------ ------<br>--- ----- -- ----,93282.40000000037,93281.59999999963,92810.599,92818.69999999925,92827.269,93294.127,,43,as
screen,html.Screen,0_2_0_1_44,2021-12-02T11:59:35.474Z,,,,,,,,,,,,,,,,53,,,,,,,,,,,,,,475.47299999963434,,response,,,99,,,,,,Space,keypress(Space),,,,,---- -- ----- -- ------ - ------- --- ----------<br>------------- ------ ------ ---- ---- ------- ----- -- ----<br>-------- ------- -- ---------- --- - --- ----- ----- ----<br>---- --- --- ----- --- ---- ---- ------- ----- ---- -------<br>--- --- -- ----- -- you ---- -- --- ---- -- ------ ------<br>--- ----- -- ----,93770.5,93769.59999999963,93277.456,93282.59999999963,93294.127,93777.517,,44,you
screen,html.Screen,0_2_0_1_45,2021-12-02T11:59:35.897Z,,,,,,,,,,,,,,,,53,,,,,,,,,,,,,,415.9829999999929,,response,,,99,,,,,,Space,keypress(Space),,,,,---- -- ----- -- ------ - ------- --- ----------<br>------------- ------ ------ ---- ---- ------- ----- -- ----<br>-------- ------- -- ---------- --- - --- ----- ----- ----<br>---- --- --- ----- --- ---- ---- ------- ----- ---- -------<br>--- --- -- ----- -- --- want -- --- ---- -- ------ ------<br>--- ----- -- ----,94194.40000000037,94193.5,93760.847,93770.80000000075,93777.517,94211.101,,45,want
screen,html.Screen,0_2_0_1_46,2021-12-02T11:59:36.297Z,,,,,,,,,,,,,,,,53,,,,,,,,,,,,,,382.49899999963236,,response,,,99,,,,,,Space,keypress(Space),,,,,---- -- ----- -- ------ - ------- --- ----------<br>------------- ------ ------ ---- ---- ------- ----- -- ----<br>-------- ------- -- ---------- --- - --- ----- ----- ----<br>---- --- --- ----- --- ---- ---- ------- ----- ---- -------<br>--- --- -- ----- -- --- ---- to --- ---- -- ------ ------<br>--- ----- -- ----,94594.40000000037,94593.59999999963,94194.429,94194.59999999963,94211.101,94611.113,,46,to
screen,html.Screen,0_2_0_1_47,2021-12-02T11:59:36.721Z,,,,,,,,,,,,,,,,53,,,,,,,,,,,,,,406.38700000000244,,response,,,99,,,,,,Space,keypress(Space),,,,,"---- -- ----- -- ------ - ------- --- ----------<br>------------- ------ ------ ---- ---- ------- ----- -- ----<br>-------- ------- -- ---------- --- - --- ----- ----- ----<br>---- --- --- ----- --- ---- ---- ------- ----- ---- -------<br>--- --- -- ----- -- --- ---- -- be, ---- -- ------ ------<br>--- ----- -- ----",95018.30000000075,95017.5,94594.443,94594.69999999925,94611.113,95027.886,,47,"be,"
screen,html.Screen,0_2_0_1_48,2021-12-02T11:59:37.185Z,,,,,,,,,,,,,,,,53,,,,,,,,,,,,,,453.6140000000014,,response,,,99,,,,,,Space,keypress(Space),,,,,---- -- ----- -- ------ - ------- --- ----------<br>------------- ------ ------ ---- ---- ------- ----- -- ----<br>-------- ------- -- ---------- --- - --- ----- ----- ----<br>---- --- --- ----- --- ---- ---- ------- ----- ---- -------<br>--- --- -- ----- -- --- ---- -- --- even -- ------ ------<br>--- ----- -- ----,95482.30000000075,95481.5,95011.216,95018.5,95027.886,95494.736,,48,even
screen,html.Screen,0_2_0_1_49,2021-12-02T11:59:37.617Z,,,,,,,,,,,,,,,,53,,,,,,,,,,,,,,418.7639999999956,,response,,,99,,,,,,Space,keypress(Space),,,,,---- -- ----- -- ------ - ------- --- ----------<br>------------- ------ ------ ---- ---- ------- ----- -- ----<br>-------- ------- -- ---------- --- - --- ----- ----- ----<br>---- --- --- ----- --- ---- ---- ------- ----- ---- -------<br>--- --- -- ----- -- --- ---- -- --- ---- if ------ ------<br>--- ----- -- ----,95914.30000000075,95913.5,95478.065,95482.5,95494.736,95928.112,,49,if
screen,html.Screen,0_2_0_1_50,2021-12-02T11:59:38.097Z,,,,,,,,,,,,,,,,53,,,,,,,,,,,,,,465.48799999963376,,response,,,99,,,,,,Space,keypress(Space),,,,,---- -- ----- -- ------ - ------- --- ----------<br>------------- ------ ------ ---- ---- ------- ----- -- ----<br>-------- ------- -- ---------- --- - --- ----- ----- ----<br>---- --- --- ----- --- ---- ---- ------- ----- ---- -------<br>--- --- -- ----- -- --- ---- -- --- ---- -- that's ------<br>--- ----- -- ----,96394.30000000075,96393.59999999963,95911.442,95914.59999999963,95928.112,96411.591,,50,that's
screen,html.Screen,0_2_0_1_51,2021-12-02T11:59:38.513Z,,,,,,,,,,,,,,,,53,,,,,,,,,,,,,,397.90899999999965,,response,,,99,,,,,,Space,keypress(Space),,,,,---- -- ----- -- ------ - ------- --- ----------<br>------------- ------ ------ ---- ---- ------- ----- -- ----<br>-------- ------- -- ---------- --- - --- ----- ----- ----<br>---- --- --- ----- --- ---- ---- ------- ----- ---- -------<br>--- --- -- ----- -- --- ---- -- --- ---- -- ------ really<br>--- ----- -- ----,96810.30000000075,96809.5,96394.921,96394.59999999963,96411.591,96811.691,,51,really
screen,html.Screen,0_2_0_1_52,2021-12-02T11:59:38.930Z,,,,,,,,,,,,,,,,53,,,,,,,,,,,,,,414.30899999999383,,response,,,99,,,,,,Space,keypress(Space),,,,,---- -- ----- -- ------ - ------- --- ----------<br>------------- ------ ------ ---- ---- ------- ----- -- ----<br>-------- ------- -- ---------- --- - --- ----- ----- ----<br>---- --- --- ----- --- ---- ---- ------- ----- ---- -------<br>--- --- -- ----- -- --- ---- -- --- ---- -- ------ ------<br>not ----- -- ----,97226.69999999925,97226,96795.021,96810.5,96811.691,97228.48,,52,not
screen,html.Screen,0_2_0_1_53,2021-12-02T11:59:39.353Z,,,,,,,,,,,,,,,,53,,,,,,,,,,,,,,421.0200000000041,,response,,,99,,,,,,Space,keypress(Space),,,,,---- -- ----- -- ------ - ------- --- ----------<br>------------- ------ ------ ---- ---- ------- ----- -- ----<br>-------- ------- -- ---------- --- - --- ----- ----- ----<br>---- --- --- ----- --- ---- ---- ------- ----- ---- -------<br>--- --- -- ----- -- --- ---- -- --- ---- -- ------ ------<br>--- close -- ----,97650.19999999925,97649.5,97211.81,97227,97228.48,97661.816,,53,close
screen,html.Screen,0_2_0_1_54,2021-12-02T11:59:39.737Z,,,,,,,,,,,,,,,,53,,,,,,,,,,,,,,371.68399999999383,,response,,,99,,,,,,Space,keypress(Space),,,,,---- -- ----- -- ------ - ------- --- ----------<br>------------- ------ ------ ---- ---- ------- ----- -- ----<br>-------- ------- -- ---------- --- - --- ----- ----- ----<br>---- --- --- ----- --- ---- ---- ------- ----- ---- -------<br>--- --- -- ----- -- --- ---- -- --- ---- -- ------ ------<br>--- ----- at ----,98034.19999999925,98033.5,97645.147,97650.5,97661.816,98045.448,,54,at
screen,html.Screen,0_2_0_1_55,2021-12-02T11:59:40.217Z,,,,,,,,,,,,,,,,53,,,,,,,,,,,,,,467.95200000036857,,response,,,99,,,,,,Space,keypress(Space),,,,,---- -- ----- -- ------ - ------- --- ----------<br>------------- ------ ------ ---- ---- ------- ----- -- ----<br>-------- ------- -- ---------- --- - --- ----- ----- ----<br>---- --- --- ----- --- ---- ---- ------- ----- ---- -------<br>--- --- -- ----- -- --- ---- -- --- ---- -- ------ ------<br>--- ----- -- all.,98514.19999999925,98513.40000000037,98028.776,98034.5,98045.448,98528.81,,55,all.
Item 99,flow.Loop,0_2_0_1,2021-12-02T11:59:40.222Z,,,,,,,,,,,,,,,,,,,,,,,,,,,,,,31993.32000000037,,completion,,,,B,,,,,,,,,,silence,,98518.59999999963,98513.40000000037,66503.411,66510.59999999963,66520.08,98528.81,,,
Question 1,html.Screen,0_2_0_2,2021-12-02T11:59:49.737Z,,,,,,,,,,,,,,,,,,,,,,,,,,,true,FALSE,,9503.990000000747,,response,,,99,B,,,,,FALSE,click #choice-2,,,,silence,,108034.40000000037,108032.80000000075,98512.14,98518.80000000075,98528.81,108047.952,,,
Question 2,html.Screen,0_2_0_3,2021-12-02T11:59:57.505Z,,,,,,,,,,,,,,,,,,,,,,,,,,,true,TRUE,,7752.547999999995,,response,,,99,B,,,,,TRUE,click #choice-1,,,,silence,,115801.59999999963,115800.5,108031.282,108034.59999999963,108047.952,115816.845,,,
Item 99,flow.Sequence,0_2_0,2021-12-02T11:59:57.505Z,,,,,,,,,,,,,,,,,,,,,,,,,,,,,,59283.221,,completion,,,,,,,,,,,,,,,,115802.19999999925,115800.5,56483.941,56501.699999999255,56517.279,115816.845,,,
Holding screen,html.Screen,0_2_1_0,2021-12-02T12:00:07.509Z,,,,,,,,,,,,,,,,,,,,,,,,,,,,,,10002.466,,timeout,,,,,,,,,,,,,,,,125803.59999999963,125802.641,115800.171,115802.5,115816.845,125819.311,,,
screen,html.Screen,0_2_1_1_0,2021-12-02T12:00:08.643Z,,,,,,,,,,,,,,,,54,,,,,,,,,,,,,,1116.8889999992534,,response,,,100,,,,,,Space,keypress(Space),,,,,At --- ---- --- ------ ----- ------- ---- -- --- ------- --<br>------- ---------- ------ -- ----- -- ----- -- ---- ------<br>--- ----- --- --- ------ -------- ----- --- ------ ----- --<br>----- ----- ---------- --- --- ------ ------ ---- -- ------<br>------- --- ------ ----- --- ---- ------- -- ---- --- --<br>------- ------,126937,126936.19999999925,125802.641,125804.09999999963,125819.311,126953.121,,0,At
screen,html.Screen,0_2_1_1_1,2021-12-02T12:00:09.290Z,,,,,,,,,,,,,,,,54,,,,,,,,,,,,,,630.9789999996283,,response,,,100,,,,,,Space,keypress(Space),,,,,-- the ---- --- ------ ----- ------- ---- -- --- ------- --<br>------- ---------- ------ -- ----- -- ----- -- ---- ------<br>--- ----- --- --- ------ -------- ----- --- ------ ----- --<br>----- ----- ---------- --- --- ------ ------ ---- -- ------<br>------- --- ------ ----- --- ---- ------- -- ---- --- --<br>------- ------,127584.90000000037,127584.09999999963,126936.45,126937.19999999925,126953.121,127586.507,,1,the
screen,html.Screen,0_2_1_1_2,2021-12-02T12:00:09.778Z,,,,,,,,,,,,,,,,54,,,,,,,,,,,,,,485.4930000000022,,response,,,100,,,,,,Space,keypress(Space),,,,,-- --- time --- ------ ----- ------- ---- -- --- ------- --<br>------- ---------- ------ -- ----- -- ----- -- ---- ------<br>--- ----- --- --- ------ -------- ----- --- ------ ----- --<br>----- ----- ---------- --- --- ------ ------ ---- -- ------<br>------- --- ------ ----- --- ---- ------- -- ---- --- --<br>------- ------,128072.80000000075,128072,127569.837,127585.09999999963,127586.507,128086.677,,2,time
screen,html.Screen,0_2_1_1_3,2021-12-02T12:00:11.915Z,,,,,,,,,,,,,,,,54,,,,,,,,,,,,,,2121.7230000003765,,response,,,100,,,,,,Space,keypress(Space),,,,,-- --- ---- the ------ ----- ------- ---- -- --- ------- --<br>------- ---------- ------ -- ----- -- ----- -- ---- ------<br>--- ----- --- --- ------ -------- ----- --- ------ ----- --<br>----- ----- ---------- --- --- ------ ------ ---- -- ------<br>------- --- ------ ----- --- ---- ------- -- ---- --- --<br>------- ------,130209.19999999925,130208.40000000037,128070.007,128073.09999999963,128086.677,130220.467,,3,the
screen,html.Screen,0_2_1_1_4,2021-12-02T12:00:12.388Z,,,,,,,,,,,,,,,,54,,,,,,,,,,,,,,459.5329999999958,,response,,,100,,,,,,Space,keypress(Space),,,,,-- --- ---- --- French ----- ------- ---- -- --- ------- --<br>------- ---------- ------ -- ----- -- ----- -- ---- ------<br>--- ----- --- --- ------ -------- ----- --- ------ ----- --<br>----- ----- ---------- --- --- ------ ------ ---- -- ------<br>------- --- ------ ----- --- ---- ------- -- ---- --- --<br>------- ------,130682.59999999963,130680,130203.797,130209.40000000037,130220.467,130687.386,,4,French
screen,html.Screen,0_2_1_1_5,2021-12-02T12:00:12.890Z,,,,,,,,,,,,,,,,54,,,,,,,,,,,,,,496.5140000003739,,response,,,100,,,,,,Space,keypress(Space),,,,,-- --- ---- --- ------ crown ------- ---- -- --- ------- --<br>------- ---------- ------ -- ----- -- ----- -- ---- ------<br>--- ----- --- --- ------ -------- ----- --- ------ ----- --<br>----- ----- ---------- --- --- ------ ------ ---- -- ------<br>------- --- ------ ----- --- ---- ------- -- ---- --- --<br>------- ------,131184.80000000075,131183.90000000037,130670.715,130682.90000000037,130687.386,131187.433,,5,crown
screen,html.Screen,0_2_1_1_6,2021-12-02T12:00:13.506Z,,,,,,,,,,,,,,,,54,,,,,,,,,,,,,,612.4670000003825,,response,,,100,,,,,,Space,keypress(Space),,,,,-- --- ---- --- ------ ----- secured ---- -- --- ------- --<br>------- ---------- ------ -- ----- -- ----- -- ---- ------<br>--- ----- --- --- ------ -------- ----- --- ------ ----- --<br>----- ----- ---------- --- --- ------ ------ ---- -- ------<br>------- --- ------ ----- --- ---- ------- -- ---- --- --<br>------- ------,131800.59999999963,131799.90000000037,131170.763,131185,131187.433,131804.488,,6,secured
screen,html.Screen,0_2_1_1_7,2021-12-02T12:00:14.050Z,,,,,,,,,,,,,,,,54,,,,,,,,,,,,,,539.4120000003604,,response,,,100,,,,,,Space,keypress(Space),,,,,-- --- ---- --- ------ ----- ------- much -- --- ------- --<br>------- ---------- ------ -- ----- -- ----- -- ---- ------<br>--- ----- --- --- ------ -------- ----- --- ------ ----- --<br>----- ----- ---------- --- --- ------ ------ ---- -- ------<br>------- --- ------ ----- --- ---- ------- -- ---- --- --<br>------- ------,132344.69999999925,132343.90000000037,131787.815,131800.80000000075,131804.488,132354.522,,7,much
screen,html.Screen,0_2_1_1_8,2021-12-02T12:00:14.522Z,,,,,,,,,,,,,,,,54,,,,,,,,,,,,,,461.3780000003753,,response,,,100,,,,,,Space,keypress(Space),,,,,-- --- ---- --- ------ ----- ------- ---- of --- ------- --<br>------- ---------- ------ -- ----- -- ----- -- ---- ------<br>--- ----- --- --- ------ -------- ----- --- ------ ----- --<br>----- ----- ---------- --- --- ------ ------ ---- -- ------<br>------- --- ------ ----- --- ---- ------- -- ---- --- --<br>------- ------,132816.59999999963,132815.90000000037,132337.851,132345,132354.522,132821.258,,8,of
screen,html.Screen,0_2_1_1_9,2021-12-02T12:00:15.114Z,,,,,,,,,,,,,,,,54,,,,,,,,,,,,,,586.5420000007434,,response,,,100,,,,,,Space,keypress(Space),,,,,-- --- ---- --- ------ ----- ------- ---- -- its ------- --<br>------- ---------- ------ -- ----- -- ----- -- ---- ------<br>--- ----- --- --- ------ -------- ----- --- ------ ----- --<br>----- ----- ---------- --- --- ------ ------ ---- -- ------<br>------- --- ------ ----- --- ---- ------- -- ---- --- --<br>------- ------,133408.69999999925,133407.80000000075,132804.588,132817,132821.258,133421.422,,9,its
screen,html.Screen,0_2_1_1_10,2021-12-02T12:00:15.610Z,,,,,,,,,,,,,,,,54,,,,,,,,,,,,,,482.27799999926356,,response,,,100,,,,,,Space,keypress(Space),,,,,-- --- ---- --- ------ ----- ------- ---- -- --- revenue --<br>------- ---------- ------ -- ----- -- ----- -- ---- ------<br>--- ----- --- --- ------ -------- ----- --- ------ ----- --<br>----- ----- ---------- --- --- ------ ------ ---- -- ------<br>------- --- ------ ----- --- ---- ------- -- ---- --- --<br>------- ------,133904.59999999963,133903.69999999925,133404.752,133408.90000000037,133421.422,133921.544,,10,revenue
screen,html.Screen,0_2_1_1_11,2021-12-02T12:00:16.162Z,,,,,,,,,,,,,,,,54,,,,,,,,,,,,,,534.0559999996331,,response,,,100,,,,,,Space,keypress(Space),,,,,-- --- ---- --- ------ ----- ------- ---- -- --- ------- by<br>------- ---------- ------ -- ----- -- ----- -- ---- ------<br>--- ----- --- --- ------ -------- ----- --- ------ ----- --<br>----- ----- ---------- --- --- ------ ------ ---- -- ------<br>------- --- ------ ----- --- ---- ------- -- ---- --- --<br>------- ------,134456.59999999963,134455.59999999963,133904.874,133904.80000000075,133921.544,134471.696,,11,by
screen,html.Screen,0_2_1_1_12,2021-12-02T12:00:16.762Z,,,,,,,,,,,,,,,,54,,,,,,,,,,,,,,584.0039999992587,,response,,,100,,,,,,Space,keypress(Space),,,,,-- --- ---- --- ------ ----- ------- ---- -- --- ------- --<br>issuing ---------- ------ -- ----- -- ----- -- ---- ------<br>--- ----- --- --- ------ -------- ----- --- ------ ----- --<br>----- ----- ---------- --- --- ------ ------ ---- -- ------<br>------- --- ------ ----- --- ---- ------- -- ---- --- --<br>------- ------,135056.5,135055.69999999925,134455.026,134456.80000000075,134471.696,135071.855,,12,issuing
screen,html.Screen,0_2_1_1_13,2021-12-02T12:00:17.298Z,,,,,,,,,,,,,,,,54,,,,,,,,,,,,,,519.8449999992445,,response,,,100,,,,,,Space,keypress(Space),,,,,-- --- ---- --- ------ ----- ------- ---- -- --- ------- --<br>------- government ------ -- ----- -- ----- -- ---- ------<br>--- ----- --- --- ------ -------- ----- --- ------ ----- --<br>----- ----- ---------- --- --- ------ ------ ---- -- ------<br>------- --- ------ ----- --- ---- ------- -- ---- --- --<br>------- ------,135592.5,135591.69999999925,135055.185,135056.69999999925,135071.855,135605.383,,13,government
screen,html.Screen,0_2_1_1_14,2021-12-02T12:00:17.874Z,,,,,,,,,,,,,,,,54,,,,,,,,,,,,,,562.2169999996258,,response,,,100,,,,,,Space,keypress(Space),,,,,-- --- ---- --- ------ ----- ------- ---- -- --- ------- --<br>------- ---------- bonds. -- ----- -- ----- -- ---- ------<br>--- ----- --- --- ------ -------- ----- --- ------ ----- --<br>----- ----- ---------- --- --- ------ ------ ---- -- ------<br>------- --- ------ ----- --- ---- ------- -- ---- --- --<br>------- ------,136168.40000000037,136167.59999999963,135588.712,135592.69999999925,135605.383,136172.16,,14,bonds.
screen,html.Screen,0_2_1_1_15,2021-12-02T12:00:18.402Z,,,,,,,,,,,,,,,,54,,,,,,,,,,,,,,523.439999999624,,response,,,100,,,,,,Space,keypress(Space),,,,,-- --- ---- --- ------ ----- ------- ---- -- --- ------- --<br>------- ---------- ------ In ----- -- ----- -- ---- ------<br>--- ----- --- --- ------ -------- ----- --- ------ ----- --<br>----- ----- ---------- --- --- ------ ------ ---- -- ------<br>------- --- ------ ----- --- ---- ------- -- ---- --- --<br>------- ------,136696.5,136695.59999999963,136155.49,136168.59999999963,136172.16,136705.496,,15,In
screen,html.Screen,0_2_1_1_16,2021-12-02T12:00:18.922Z,,,,,,,,,,,,,,,,54,,,,,,,,,,,,,,510.10399999961373,,response,,,100,,,,,,Space,keypress(Space),,,,,"-- --- ---- --- ------ ----- ------- ---- -- --- ------- --<br>------- ---------- ------ -- 1727, -- ----- -- ---- ------<br>--- ----- --- --- ------ -------- ----- --- ------ ----- --<br>----- ----- ---------- --- --- ------ ------ ---- -- ------<br>------- --- ------ ----- --- ---- ------- -- ---- --- --<br>------- ------",137216.30000000075,137215.59999999963,136688.827,136696.69999999925,136705.496,137222.53,,16,"1727,"
screen,html.Screen,0_2_1_1_17,2021-12-02T12:00:19.458Z,,,,,,,,,,,,,,,,54,,,,,,,,,,,,,,528.9700000000012,,response,,,100,,,,,,Space,keypress(Space),,,,,-- --- ---- --- ------ ----- ------- ---- -- --- ------- --<br>------- ---------- ------ -- ----- in ----- -- ---- ------<br>--- ----- --- --- ------ -------- ----- --- ------ ----- --<br>----- ----- ---------- --- --- ------ ------ ---- -- ------<br>------- --- ------ ----- --- ---- ------- -- ---- --- --<br>------- ------,137752.40000000037,137751.5,137205.858,137216.59999999963,137222.53,137755.911,,17,in
screen,html.Screen,0_2_1_1_18,2021-12-02T12:00:20.170Z,,,,,,,,,,,,,,,,54,,,,,,,,,,,,,,707.6889999996347,,response,,,100,,,,,,Space,keypress(Space),,,,,-- --- ---- --- ------ ----- ------- ---- -- --- ------- --<br>------- ---------- ------ -- ----- -- order -- ---- ------<br>--- ----- --- --- ------ -------- ----- --- ------ ----- --<br>----- ----- ---------- --- --- ------ ------ ---- -- ------<br>------- --- ------ ----- --- ---- ------- -- ---- --- --<br>------- ------,138464.5,138463.59999999963,137739.241,137752.59999999963,137755.911,138472.757,,18,order
screen,html.Screen,0_2_1_1_19,2021-12-02T12:00:21.178Z,,,,,,,,,,,,,,,,54,,,,,,,,,,,,,,998.8429999996151,,response,,,100,,,,,,Space,keypress(Space),,,,,-- --- ---- --- ------ ----- ------- ---- -- --- ------- --<br>------- ---------- ------ -- ----- -- ----- to ---- ------<br>--- ----- --- --- ------ -------- ----- --- ------ ----- --<br>----- ----- ---------- --- --- ------ ------ ---- -- ------<br>------- --- ------ ----- --- ---- ------- -- ---- --- --<br>------- ------,139472.30000000075,139471.59999999963,138456.087,138464.80000000075,138472.757,139489.674,,19,to
screen,html.Screen,0_2_1_1_20,2021-12-02T12:00:21.850Z,,,,,,,,,,,,,,,,54,,,,,,,,,,,,,,653.8260000000009,,response,,,100,,,,,,Space,keypress(Space),,,,,-- --- ---- --- ------ ----- ------- ---- -- --- ------- --<br>------- ---------- ------ -- ----- -- ----- -- save ------<br>--- ----- --- --- ------ -------- ----- --- ------ ----- --<br>----- ----- ---------- --- --- ------ ------ ---- -- ------<br>------- --- ------ ----- --- ---- ------- -- ---- --- --<br>------- ------,140144.30000000075,140143.5,139473.004,139472.59999999963,139489.674,140156.51,,20,save
screen,html.Screen,0_2_1_1_21,2021-12-02T12:00:22.578Z,,,,,,,,,,,,,,,,54,,,,,,,,,,,,,,715.3900000003632,,response,,,100,,,,,,Space,keypress(Space),,,,,"-- --- ---- --- ------ ----- ------- ---- -- --- ------- --<br>------- ---------- ------ -- ----- -- ----- -- ---- money,<br>--- ----- --- --- ------ -------- ----- --- ------ ----- --<br>----- ----- ---------- --- --- ------ ------ ---- -- ------<br>------- --- ------ ----- --- ---- ------- -- ---- --- --<br>------- ------",140872.69999999925,140871.90000000037,140139.84,140144.5,140156.51,140890.124,,21,"money,"
screen,html.Screen,0_2_1_1_22,2021-12-02T12:00:23.106Z,,,,,,,,,,,,,,,,54,,,,,,,,,,,,,,509.3759999999893,,response,,,100,,,,,,Space,keypress(Space),,,,,-- --- ---- --- ------ ----- ------- ---- -- --- ------- --<br>------- ---------- ------ -- ----- -- ----- -- ---- ------<br>the ----- --- --- ------ -------- ----- --- ------ ----- --<br>----- ----- ---------- --- --- ------ ------ ---- -- ------<br>------- --- ------ ----- --- ---- ------- -- ---- --- --<br>------- ------,141400.30000000075,141399.5,140873.453,140873,140890.124,141406.861,,22,the
screen,html.Screen,0_2_1_1_23,2021-12-02T12:00:23.698Z,,,,,,,,,,,,,,,,54,,,,,,,,,,,,,,584.5390000003681,,response,,,100,,,,,,Space,keypress(Space),,,,,-- --- ---- --- ------ ----- ------- ---- -- --- ------- --<br>------- ---------- ------ -- ----- -- ----- -- ---- ------<br>--- state --- --- ------ -------- ----- --- ------ ----- --<br>----- ----- ---------- --- --- ------ ------ ---- -- ------<br>------- --- ------ ----- --- ---- ------- -- ---- --- --<br>------- ------,141992.19999999925,141991.40000000037,141390.191,141400.5,141406.861,142007.037,,23,state
screen,html.Screen,0_2_1_1_24,2021-12-02T12:00:24.250Z,,,,,,,,,,,,,,,,54,,,,,,,,,,,,,,536.3630000003614,,response,,,100,,,,,,Space,keypress(Space),,,,,-- --- ---- --- ------ ----- ------- ---- -- --- ------- --<br>------- ---------- ------ -- ----- -- ----- -- ---- ------<br>--- ----- cut --- ------ -------- ----- --- ------ ----- --<br>----- ----- ---------- --- --- ------ ------ ---- -- ------<br>------- --- ------ ----- --- ---- ------- -- ---- --- --<br>------- ------,142544.30000000075,142543.40000000037,141990.367,141992.5,142007.037,142557.13,,24,cut
screen,html.Screen,0_2_1_1_25,2021-12-02T12:00:24.714Z,,,,,,,,,,,,,,,,54,,,,,,,,,,,,,,450.2700000003679,,response,,,100,,,,,,Space,keypress(Space),,,,,-- --- ---- --- ------ ----- ------- ---- -- --- ------- --<br>------- ---------- ------ -- ----- -- ----- -- ---- ------<br>--- ----- --- the ------ -------- ----- --- ------ ----- --<br>----- ----- ---------- --- --- ------ ------ ---- -- ------<br>------- --- ------ ----- --- ---- ------- -- ---- --- --<br>------- ------,143008.19999999925,143007.40000000037,142540.46,142544.5,142557.13,143024.044,,25,the
screen,html.Screen,0_2_1_1_26,2021-12-02T12:00:25.274Z,,,,,,,,,,,,,,,,54,,,,,,,,,,,,,,543.3560000003781,,response,,,100,,,,,,Space,keypress(Space),,,,,-- --- ---- --- ------ ----- ------- ---- -- --- ------- --<br>------- ---------- ------ -- ----- -- ----- -- ---- ------<br>--- ----- --- --- bonds' -------- ----- --- ------ ----- --<br>----- ----- ---------- --- --- ------ ------ ---- -- ------<br>------- --- ------ ----- --- ---- ------- -- ---- --- --<br>------- ------,143568.19999999925,143567.40000000037,143007.373,143008.40000000037,143024.044,143574.112,,26,bonds'
screen,html.Screen,0_2_1_1_27,2021-12-02T12:00:25.778Z,,,,,,,,,,,,,,,,54,,,,,,,,,,,,,,497.18800000075134,,response,,,100,,,,,,Space,keypress(Space),,,,,-- --- ---- --- ------ ----- ------- ---- -- --- ------- --<br>------- ---------- ------ -- ----- -- ----- -- ---- ------<br>--- ----- --- --- ------ interest ----- --- ------ ----- --<br>----- ----- ---------- --- --- ------ ------ ---- -- ------<br>------- --- ------ ----- --- ---- ------- -- ---- --- --<br>------- ------,144072,144071.30000000075,143557.442,143568.5,143574.112,144074.261,,27,interest
screen,html.Screen,0_2_1_1_28,2021-12-02T12:00:26.650Z,,,,,,,,,,,,,,,,54,,,,,,,,,,,,,,869.0390000007465,,response,,,100,,,,,,Space,keypress(Space),,,,,-- --- ---- --- ------ ----- ------- ---- -- --- ------- --<br>------- ---------- ------ -- ----- -- ----- -- ---- ------<br>--- ----- --- --- ------ -------- rate. --- ------ ----- --<br>----- ----- ---------- --- --- ------ ------ ---- -- ------<br>------- --- ------ ----- --- ---- ------- -- ---- --- --<br>------- ------,144944.09999999963,144943.30000000075,144057.591,144072.30000000075,144074.261,144957.804,,28,rate.
screen,html.Screen,0_2_1_1_29,2021-12-02T12:00:27.178Z,,,,,,,,,,,,,,,,54,,,,,,,,,,,,,,513.4960000007413,,response,,,100,,,,,,Space,keypress(Space),,,,,-- --- ---- --- ------ ----- ------- ---- -- --- ------- --<br>------- ---------- ------ -- ----- -- ----- -- ---- ------<br>--- ----- --- --- ------ -------- ----- The ------ ----- --<br>----- ----- ---------- --- --- ------ ------ ---- -- ------<br>------- --- ------ ----- --- ---- ------- -- ---- --- --<br>------- ------,145472.09999999963,145471.30000000075,144941.134,144944.30000000075,144957.804,145474.609,,29,The
screen,html.Screen,0_2_1_1_30,2021-12-02T12:00:27.658Z,,,,,,,,,,,,,,,,54,,,,,,,,,,,,,,476.5909999992582,,response,,,100,,,,,,Space,keypress(Space),,,,,-- --- ---- --- ------ ----- ------- ---- -- --- ------- --<br>------- ---------- ------ -- ----- -- ----- -- ---- ------<br>--- ----- --- --- ------ -------- ----- --- market ----- --<br>----- ----- ---------- --- --- ------ ------ ---- -- ------<br>------- --- ------ ----- --- ---- ------- -- ---- --- --<br>------- ------,145952,145951.19999999925,145457.939,145472.40000000037,145474.609,145958.096,,30,market
screen,html.Screen,0_2_1_1_31,2021-12-02T12:00:28.218Z,,,,,,,,,,,,,,,,54,,,,,,,,,,,,,,553.1039999992645,,response,,,100,,,,,,Space,keypress(Space),,,,,-- --- ---- --- ------ ----- ------- ---- -- --- ------- --<br>------- ---------- ------ -- ----- -- ----- -- ---- ------<br>--- ----- --- --- ------ -------- ----- --- ------ value --<br>----- ----- ---------- --- --- ------ ------ ---- -- ------<br>------- --- ------ ----- --- ---- ------- -- ---- --- --<br>------- ------,146512,146511.19999999925,145941.426,145952.19999999925,145958.096,146524.914,,31,value
screen,html.Screen,0_2_1_1_32,2021-12-02T12:00:28.738Z,,,,,,,,,,,,,,,,54,,,,,,,,,,,,,,506.2859999992652,,response,,,100,,,,,,Space,keypress(Space),,,,,-- --- ---- --- ------ ----- ------- ---- -- --- ------- --<br>------- ---------- ------ -- ----- -- ----- -- ---- ------<br>--- ----- --- --- ------ -------- ----- --- ------ ----- of<br>----- ----- ---------- --- --- ------ ------ ---- -- ------<br>------- --- ------ ----- --- ---- ------- -- ---- --- --<br>------- ------,147032,147031.19999999925,146508.244,146512.30000000075,146524.914,147041.707,,32,of
screen,html.Screen,0_2_1_1_33,2021-12-02T12:00:29.234Z,,,,,,,,,,,,,,,,54,,,,,,,,,,,,,,485.3929999996326,,response,,,100,,,,,,Space,keypress(Space),,,,,-- --- ---- --- ------ ----- ------- ---- -- --- ------- --<br>------- ---------- ------ -- ----- -- ----- -- ---- ------<br>--- ----- --- --- ------ -------- ----- --- ------ ----- --<br>these ----- ---------- --- --- ------ ------ ---- -- ------<br>------- --- ------ ----- --- ---- ------- -- ---- --- --<br>------- ------,147527.90000000037,147527.09999999963,147025.037,147032.19999999925,147041.707,147541.837,,33,these
screen,html.Screen,0_2_1_1_34,2021-12-02T12:00:29.729Z,,,,,,,,,,,,,,,,54,,,,,,,,,,,,,,481.3629999992554,,response,,,100,,,,,,Space,keypress(Space),,,,,-- --- ---- --- ------ ----- ------- ---- -- --- ------- --<br>------- ---------- ------ -- ----- -- ----- -- ---- ------<br>--- ----- --- --- ------ -------- ----- --- ------ ----- --<br>----- bonds ---------- --- --- ------ ------ ---- -- ------<br>------- --- ------ ----- --- ---- ------- -- ---- --- --<br>------- ------,148023.90000000037,148023.19999999925,147525.167,147528.19999999925,147541.837,148025.354,,34,bonds
screen,html.Screen,0_2_1_1_35,2021-12-02T12:00:30.257Z,,,,,,,,,,,,,,,,54,,,,,,,,,,,,,,525.7459999996354,,response,,,100,,,,,,Space,keypress(Space),,,,,"-- --- ---- --- ------ ----- ------- ---- -- --- ------- --<br>------- ---------- ------ -- ----- -- ----- -- ---- ------<br>--- ----- --- --- ------ -------- ----- --- ------ ----- --<br>----- ----- plummeted, --- --- ------ ------ ---- -- ------<br>------- --- ------ ----- --- ---- ------- -- ---- --- --<br>------- ------",148551.80000000075,148551.09999999963,148008.683,148024.09999999963,148025.354,148558.776,,35,"plummeted,"
screen,html.Screen,0_2_1_1_36,2021-12-02T12:00:30.993Z,,,,,,,,,,,,,,,,54,,,,,,,,,,,,,,728.2239999999874,,response,,,100,,,,,,Space,keypress(Space),,,,,-- --- ---- --- ------ ----- ------- ---- -- --- ------- --<br>------- ---------- ------ -- ----- -- ----- -- ---- ------<br>--- ----- --- --- ------ -------- ----- --- ------ ----- --<br>----- ----- ---------- and --- ------ ------ ---- -- ------<br>------- --- ------ ----- --- ---- ------- -- ---- --- --<br>------- ------,149287.80000000075,149287,148542.106,148552.09999999963,148558.776,149292.358,,36,and
screen,html.Screen,0_2_1_1_37,2021-12-02T12:00:31.617Z,,,,,,,,,,,,,,,,54,,,,,,,,,,,,,,618.6419999999925,,response,,,100,,,,,,Space,keypress(Space),,,,,-- --- ---- --- ------ ----- ------- ---- -- --- ------- --<br>------- ---------- ------ -- ----- -- ----- -- ---- ------<br>--- ----- --- --- ------ -------- ----- --- ------ ----- --<br>----- ----- ---------- --- the ------ ------ ---- -- ------<br>------- --- ------ ----- --- ---- ------- -- ---- --- --<br>------- ------,149911.80000000075,149911,149275.687,149288.09999999963,149292.358,149925.686,,37,the
screen,html.Screen,0_2_1_1_38,2021-12-02T12:00:32.153Z,,,,,,,,,,,,,,,,54,,,,,,,,,,,,,,521.314000000013,,response,,,100,,,,,,Space,keypress(Space),,,,,-- --- ---- --- ------ ----- ------- ---- -- --- ------- --<br>------- ---------- ------ -- ----- -- ----- -- ---- ------<br>--- ----- --- --- ------ -------- ----- --- ------ ----- --<br>----- ----- ---------- --- --- market ------ ---- -- ------<br>------- --- ------ ----- --- ---- ------- -- ---- --- --<br>------- ------,150447.80000000075,150447,149909.017,149912,149925.686,150459.354,,38,market
screen,html.Screen,0_2_1_1_39,2021-12-02T12:00:32.666Z,,,,,,,,,,,,,,,,54,,,,,,,,,,,,,,499.946000000753,,response,,,100,,,,,,Space,keypress(Space),,,,,-- --- ---- --- ------ ----- ------- ---- -- --- ------- --<br>------- ---------- ------ -- ----- -- ----- -- ---- ------<br>--- ----- --- --- ------ -------- ----- --- ------ ----- --<br>----- ----- ---------- --- --- ------ became ---- -- ------<br>------- --- ------ ----- --- ---- ------- -- ---- --- --<br>------- ------,150960.09999999963,150959.30000000075,150442.683,150448.09999999963,150459.354,150976.08,,39,became
screen,html.Screen,0_2_1_1_40,2021-12-02T12:00:33.169Z,,,,,,,,,,,,,,,,54,,,,,,,,,,,,,,486.9200000000128,,response,,,100,,,,,,Space,keypress(Space),,,,,-- --- ---- --- ------ ----- ------- ---- -- --- ------- --<br>------- ---------- ------ -- ----- -- ----- -- ---- ------<br>--- ----- --- --- ------ -------- ----- --- ------ ----- --<br>----- ----- ---------- --- --- ------ ------ wary -- ------<br>------- --- ------ ----- --- ---- ------- -- ---- --- --<br>------- ------,151463.69999999925,151463,150959.41,150960.30000000075,150976.08,151476.223,,40,wary
screen,html.Screen,0_2_1_1_41,2021-12-02T12:00:33.665Z,,,,,,,,,,,,,,,,54,,,,,,,,,,,,,,482.6770000003744,,response,,,100,,,,,,Space,keypress(Space),,,,,-- --- ---- --- ------ ----- ------- ---- -- --- ------- --<br>------- ---------- ------ -- ----- -- ----- -- ---- ------<br>--- ----- --- --- ------ -------- ----- --- ------ ----- --<br>----- ----- ---------- --- --- ------ ------ ---- of ------<br>------- --- ------ ----- --- ---- ------- -- ---- --- --<br>------- ------,151959.80000000075,151958.90000000037,151459.553,151464,151476.223,151976.354,,41,of
screen,html.Screen,0_2_1_1_42,2021-12-02T12:00:34.153Z,,,,,,,,,,,,,,,,54,,,,,,,,,,,,,,470.6460000000079,,response,,,100,,,,,,Space,keypress(Space),,,,,-- --- ---- --- ------ ----- ------- ---- -- --- ------- --<br>------- ---------- ------ -- ----- -- ----- -- ---- ------<br>--- ----- --- --- ------ -------- ----- --- ------ ----- --<br>----- ----- ---------- --- --- ------ ------ ---- -- French<br>------- --- ------ ----- --- ---- ------- -- ---- --- --<br>------- ------,152447.69999999925,152447,151959.684,151960,151976.354,152459.863,,42,French
screen,html.Screen,0_2_1_1_43,2021-12-02T12:00:35.145Z,,,,,,,,,,,,,,,,54,,,,,,,,,,,,,,978.937000000733,,response,,,100,,,,,,Space,keypress(Space),,,,,-- --- ---- --- ------ ----- ------- ---- -- --- ------- --<br>------- ---------- ------ -- ----- -- ----- -- ---- ------<br>--- ----- --- --- ------ -------- ----- --- ------ ----- --<br>----- ----- ---------- --- --- ------ ------ ---- -- ------<br>credit. --- ------ ----- --- ---- ------- -- ---- --- --<br>------- ------,153439.59999999963,153438.80000000075,152443.192,152448,152459.863,153443.386,,43,credit.
screen,html.Screen,0_2_1_1_44,2021-12-02T12:00:35.546Z,,,,,,,,,,,,,,,,54,,,,,,,,,,,,,,396.1140000000014,,response,,,100,,,,,,Space,keypress(Space),,,,,-- --- ---- --- ------ ----- ------- ---- -- --- ------- --<br>------- ---------- ------ -- ----- -- ----- -- ---- ------<br>--- ----- --- --- ------ -------- ----- --- ------ ----- --<br>----- ----- ---------- --- --- ------ ------ ---- -- ------<br>------- The ------ ----- --- ---- ------- -- ---- --- --<br>------- ------,153840.30000000075,153839.5,153426.716,153439.80000000075,153443.386,153843.504,,44,The
screen,html.Screen,0_2_1_1_45,2021-12-02T12:00:36.185Z,,,,,,,,,,,,,,,,54,,,,,,,,,,,,,,635.2960000007588,,response,,,100,,,,,,Space,keypress(Space),,,,,-- --- ---- --- ------ ----- ------- ---- -- --- ------- --<br>------- ---------- ------ -- ----- -- ----- -- ---- ------<br>--- ----- --- --- ------ -------- ----- --- ------ ----- --<br>----- ----- ---------- --- --- ------ ------ ---- -- ------<br>------- --- French ----- --- ---- ------- -- ---- --- --<br>------- ------,154479.59999999963,154478.80000000075,153826.834,153840.5,153843.504,154493.685,,45,French
screen,html.Screen,0_2_1_1_46,2021-12-02T12:00:36.657Z,,,,,,,,,,,,,,,,54,,,,,,,,,,,,,,457.01499999925727,,response,,,100,,,,,,Space,keypress(Space),,,,,-- --- ---- --- ------ ----- ------- ---- -- --- ------- --<br>------- ---------- ------ -- ----- -- ----- -- ---- ------<br>--- ----- --- --- ------ -------- ----- --- ------ ----- --<br>----- ----- ---------- --- --- ------ ------ ---- -- ------<br>------- --- ------ state --- ---- ------- -- ---- --- --<br>------- ------,154951.40000000037,154950.69999999925,154477.015,154479.80000000075,154493.685,154960.471,,46,state
screen,html.Screen,0_2_1_1_47,2021-12-02T12:00:37.201Z,,,,,,,,,,,,,,,,54,,,,,,,,,,,,,,534.2289999992645,,response,,,100,,,,,,Space,keypress(Space),,,,,-- --- ---- --- ------ ----- ------- ---- -- --- ------- --<br>------- ---------- ------ -- ----- -- ----- -- ---- ------<br>--- ----- --- --- ------ -------- ----- --- ------ ----- --<br>----- ----- ---------- --- --- ------ ------ ---- -- ------<br>------- --- ------ ----- was ---- ------- -- ---- --- --<br>------- ------,155495.5,155494.69999999925,154943.801,154951.59999999963,154960.471,155510.587,,47,was
screen,html.Screen,0_2_1_1_48,2021-12-02T12:00:37.657Z,,,,,,,,,,,,,,,,54,,,,,,,,,,,,,,440.1129999992554,,response,,,100,,,,,,Space,keypress(Space),,,,,-- --- ---- --- ------ ----- ------- ---- -- --- ------- --<br>------- ---------- ------ -- ----- -- ----- -- ---- ------<br>--- ----- --- --- ------ -------- ----- --- ------ ----- --<br>----- ----- ---------- --- --- ------ ------ ---- -- ------<br>------- --- ------ ----- --- left ------- -- ---- --- --<br>------- ------,155951.5,155950.69999999925,155493.917,155495.80000000075,155510.587,155960.81,,48,left
screen,html.Screen,0_2_1_1_49,2021-12-02T12:00:38.313Z,,,,,,,,,,,,,,,,54,,,,,,,,,,,,,,645.8899999992573,,response,,,100,,,,,,Space,keypress(Space),,,,,-- --- ---- --- ------ ----- ------- ---- -- --- ------- --<br>------- ---------- ------ -- ----- -- ----- -- ---- ------<br>--- ----- --- --- ------ -------- ----- --- ------ ----- --<br>----- ----- ---------- --- --- ------ ------ ---- -- ------<br>------- --- ------ ----- --- ---- without -- ---- --- --<br>------- ------,156607.5,156606.69999999925,155944.139,155951.69999999925,155960.81,156610.898,,49,without
screen,html.Screen,0_2_1_1_50,2021-12-02T12:00:38.825Z,,,,,,,,,,,,,,,,54,,,,,,,,,,,,,,507.701999999641,,response,,,100,,,,,,Space,keypress(Space),,,,,-- --- ---- --- ------ ----- ------- ---- -- --- ------- --<br>------- ---------- ------ -- ----- -- ----- -- ---- ------<br>--- ----- --- --- ------ -------- ----- --- ------ ----- --<br>----- ----- ---------- --- --- ------ ------ ---- -- ------<br>------- --- ------ ----- --- ---- ------- an ---- --- --<br>------- ------,157119.40000000037,157118.59999999963,156594.228,156607.80000000075,156610.898,157127.768,,50,an
screen,html.Screen,0_2_1_1_51,2021-12-02T12:00:39.393Z,,,,,,,,,,,,,,,,54,,,,,,,,,,,,,,558.8319999996165,,response,,,100,,,,,,Space,keypress(Space),,,,,-- --- ---- --- ------ ----- ------- ---- -- --- ------- --<br>------- ---------- ------ -- ----- -- ----- -- ---- ------<br>--- ----- --- --- ------ -------- ----- --- ------ ----- --<br>----- ----- ---------- --- --- ------ ------ ---- -- ------<br>------- --- ------ ----- --- ---- ------- -- easy --- --<br>------- ------,157687.5,157686.59999999963,157111.097,157119.59999999963,157127.768,157694.507,,51,easy
screen,html.Screen,0_2_1_1_52,2021-12-02T12:00:40.017Z,,,,,,,,,,,,,,,,54,,,,,,,,,,,,,,616.1929999992426,,response,,,100,,,,,,Space,keypress(Space),,,,,-- --- ---- --- ------ ----- ------- ---- -- --- ------- --<br>------- ---------- ------ -- ----- -- ----- -- ---- ------<br>--- ----- --- --- ------ -------- ----- --- ------ ----- --<br>----- ----- ---------- --- --- ------ ------ ---- -- ------<br>------- --- ------ ----- --- ---- ------- -- ---- way --<br>------- ------,158311.40000000037,158310.69999999925,157677.837,157687.59999999963,157694.507,158328.1,,52,way
screen,html.Screen,0_2_1_1_53,2021-12-02T12:00:40.801Z,,,,,,,,,,,,,,,,54,,,,,,,,,,,,,,766.5999999992491,,response,,,100,,,,,,Space,keypress(Space),,,,,-- --- ---- --- ------ ----- ------- ---- -- --- ------- --<br>------- ---------- ------ -- ----- -- ----- -- ---- ------<br>--- ----- --- --- ------ -------- ----- --- ------ ----- --<br>----- ----- ---------- --- --- ------ ------ ---- -- ------<br>------- --- ------ ----- --- ---- ------- -- ---- --- of<br>------- ------,159095.40000000037,159094.69999999925,158311.429,158311.69999999925,158328.1,159111.576,,53,of
screen,html.Screen,0_2_1_1_54,2021-12-02T12:00:41.273Z,,,,,,,,,,,,,,,,54,,,,,,,,,,,,,,455.02399999962654,,response,,,100,,,,,,Space,keypress(Space),,,,,-- --- ---- --- ------ ----- ------- ---- -- --- ------- --<br>------- ---------- ------ -- ----- -- ----- -- ---- ------<br>--- ----- --- --- ------ -------- ----- --- ------ ----- --<br>----- ----- ---------- --- --- ------ ------ ---- -- ------<br>------- --- ------ ----- --- ---- ------- -- ---- --- --<br>raising ------,159567.30000000075,159566.59999999963,159094.906,159095.59999999963,159111.576,159578.362,,54,raising
screen,html.Screen,0_2_1_1_55,2021-12-02T12:00:41.769Z,,,,,,,,,,,,,,,,54,,,,,,,,,,,,,,484.1380000000063,,response,,,100,,,,,,Space,keypress(Space),,,,,-- --- ---- --- ------ ----- ------- ---- -- --- ------- --<br>------- ---------- ------ -- ----- -- ----- -- ---- ------<br>--- ----- --- --- ------ -------- ----- --- ------ ----- --<br>----- ----- ---------- --- --- ------ ------ ---- -- ------<br>------- --- ------ ----- --- ---- ------- -- ---- --- --<br>------- money.,160063.19999999925,160062.5,159561.692,159567.5,159578.362,160078.46,,55,money.
Item 100,flow.Loop,0_2_1_1,2021-12-02T12:00:41.769Z,,,,,,,,,,,,,,,,,,,,,,,,,,,,,,34243.189,,completion,,,,B,,,,,,,,,,silence,,160063.69999999925,160062.5,125802.641,125803.90000000037,125819.311,160078.46,,,
Question 1,html.Screen,0_2_1_2,2021-12-02T12:00:44.585Z,,,,,,,,,,,,,,,,,,,,,,,,,,,true,TRUE,,2799.840000000753,,response,,,100,B,,,,,TRUE,click #choice-1,,,,silence,,162879.5,162878.30000000075,160061.79,160063.90000000037,160078.46,162879.325,,,
Question 2,html.Screen,0_2_1_3,2021-12-02T12:00:46.713Z,,,,,,,,,,,,,,,,,,,,,,,,,,,true,FALSE,,2126.8749999992433,,response,,,100,B,,,,,FALSE,click #choice-2,,,,silence,,165007.30000000075,165006.19999999925,162862.653,162879.69999999925,162879.325,165013.188,,,
Item 100,flow.Sequence,0_2_1,2021-12-02T12:00:46.713Z,,,,,,,,,,,,,,,,,,,,,,,,,,,,,,49189.354999999254,,completion,,,,,,,,,,,,,,,,165007.69999999925,165006.19999999925,115800.171,115802.40000000037,115816.845,165013.188,,,
End of Practice,html.Page,0_2_2,2021-12-02T12:01:06.713Z,,,,,,,,,,,,,,,,,,,,,,,,,,,,,,20005.216000000015,,timeout,,,,,,,,,,,,,,,,185003.40000000037,185001.733,164996.518,165007.90000000037,165013.188,185018.404,,,
Practice,flow.Sequence,0_2,2021-12-02T12:01:06.713Z,,,,,,,,,,,,,,,,,,,,,,,,,,,,,,128484.454,,completion,,,,,,,,,,,,,,,,185003.59999999963,185001.733,56483.941,56501.59999999963,56517.279,185018.404,,,
Trap_instruction,html.Page,0_3_0,2021-12-02T12:01:21.740Z,,,,,,,,,,,,,,,,,,,,,,,,,,,,,,15011.695999999618,,form submission,,,,,,,,,,,,,,,,200030.80000000075,200030.09999999963,185001.733,185003.90000000037,185018.404,200055.651,,,
trap_trial,html.Screen,0_3_1,2021-12-02T12:01:25.483Z,,,,,,,,,,,,,,,,,,,,,,,,,,,true,1,,3716.74900000036,,response,,,,,,,,,1,click #choice-1,,,,,,203773.69999999925,203772.40000000037,200022.311,200031,200055.651,203773.431,,,
end of trap trial,html.Page,0_3_2,2021-12-02T12:01:28.147Z,,,,,,,,,,,,,,,,,,,,,,,,,,,,,,2664.0689999999886,,form submission,,,,,,,,,,,,,,,,206437.90000000037,206437.5,203756.76,203774,203773.431,206440.327,,,
Trap 1,flow.Sequence,0_3,2021-12-02T12:01:28.148Z,,,,,,,,,,,,,,,,,,,,,,,,,,,,,,21419.09599999999,,completion,,,,,,,,,,,,,,,,206438.30000000075,206437.5,185001.733,185003.90000000037,185018.404,206440.327,,,
Standby,html.Page,0_4_0,2021-12-02T12:01:36.137Z,,,,,,,,,,,,,,,,,,,,,,,,,,,,,,8002.091000000015,,timeout,,,,,,,,,,,,,,,,214427.19999999925,214425.748,206423.671,206438.5,206440.327,214442.418,,,
Holding screen,html.Screen,0_4_1_0_0,2021-12-02T12:01:43.138Z,,,,,,,,,,,,,,,,,,,,,,,,,,,,,,7002.366000000009,,timeout,,,,,,,,,,,,,,,,221428.90000000037,221428.114,214425.748,214427.59999999963,214442.418,221444.784,,,
screen,html.Screen,0_4_1_0_1_0,2021-12-02T12:01:44.067Z,,,,,,,,,,,,,,,,51,,,,,,,,,,,,,,911.5160000007309,,response,,,13,B,,,,,Space,keypress(Space),,,,lyrical,American -------- --- --- ---- --- --- ------ -- --------<br>---- --------- --- ------- ------------ ---------- ---------<br>--- ---------- ------- ---------- ------- -- -------- ----<br>---- --- ------ ----- ------ -- ---- --- ----- -- - -------<br>-------- -- --- --- -- ----- ----------- ----- -----------<br>---- --- ---------- --- ---- --- -- ----------,222357.19999999925,222356.30000000075,221428.114,221429.19999999925,221444.784,222361.595,,0,American
screen,html.Screen,0_4_1_0_1_1,2021-12-02T12:01:44.778Z,,,,,,,,,,,,,,,,51,,,,,,,,,,,,,,706.0049999996263,,response,,,13,B,,,,,Space,keypress(Space),,,,lyrical,-------- industry --- --- ---- --- --- ------ -- --------<br>---- --------- --- ------- ------------ ---------- ---------<br>--- ---------- ------- ---------- ------- -- -------- ----<br>---- --- ------ ----- ------ -- ---- --- ----- -- - -------<br>-------- -- --- --- -- ----- ----------- ----- -----------<br>---- --- ---------- --- ---- --- -- ----------,223068.40000000037,223067.59999999963,222344.925,222357.5,222361.595,223078.604,,1,industry
screen,html.Screen,0_4_1_0_1_2,2021-12-02T12:01:45.314Z,,,,,,,,,,,,,,,,51,,,,,,,,,,,,,,524.9959999996354,,response,,,13,B,,,,,Space,keypress(Space),,,,lyrical,-------- -------- may --- ---- --- --- ------ -- --------<br>---- --------- --- ------- ------------ ---------- ---------<br>--- ---------- ------- ---------- ------- -- -------- ----<br>---- --- ------ ----- ------ -- ---- --- ----- -- - -------<br>-------- -- --- --- -- ----- ----------- ----- -----------<br>---- --- ---------- --- ---- --- -- ----------,223604.40000000037,223603.59999999963,223061.933,223068.59999999963,223078.604,223612.117,,2,may
screen,html.Screen,0_4_1_0_1_3,2021-12-02T12:01:45.930Z,,,,,,,,,,,,,,,,51,,,,,,,,,,,,,,607.4829999996291,,response,,,13,B,,,,,Space,keypress(Space),,,,lyrical,-------- -------- --- not ---- --- --- ------ -- --------<br>---- --------- --- ------- ------------ ---------- ---------<br>--- ---------- ------- ---------- ------- -- -------- ----<br>---- --- ------ ----- ------ -- ---- --- ----- -- - -------<br>-------- -- --- --- -- ----- ----------- ----- -----------<br>---- --- ---------- --- ---- --- -- ----------,224220.40000000037,224219.59999999963,223595.446,223604.59999999963,223612.117,224228.885,,3,not
screen,html.Screen,0_4_1_0_1_4,2021-12-02T12:01:46.330Z,,,,,,,,,,,,,,,,51,,,,,,,,,,,,,,390.6149999999907,,response,,,13,B,,,,,Space,keypress(Space),,,,lyrical,-------- -------- --- --- know --- --- ------ -- --------<br>---- --------- --- ------- ------------ ---------- ---------<br>--- ---------- ------- ---------- ------- -- -------- ----<br>---- --- ------ ----- ------ -- ---- --- ----- -- - -------<br>-------- -- --- --- -- ----- ----------- ----- -----------<br>---- --- ---------- --- ---- --- -- ----------,224620.40000000037,224619.5,224212.215,224220.69999999925,224228.885,224629.047,,4,know
screen,html.Screen,0_4_1_0_1_5,2021-12-02T12:01:46.746Z,,,,,,,,,,,,,,,,51,,,,,,,,,,,,,,406.5529999996361,,response,,,13,B,,,,,Space,keypress(Space),,,,lyrical,"-------- -------- --- --- ---- it, --- ------ -- --------<br>---- --------- --- ------- ------------ ---------- ---------<br>--- ---------- ------- ---------- ------- -- -------- ----<br>---- --- ------ ----- ------ -- ---- --- ----- -- - -------<br>-------- -- --- --- -- ----- ----------- ----- -----------<br>---- --- ---------- --- ---- --- -- ----------",225036.30000000075,225035.59999999963,224612.376,224620.59999999963,224629.047,225045.685,,5,"it,"
screen,html.Screen,0_4_1_0_1_6,2021-12-02T12:01:47.218Z,,,,,,,,,,,,,,,,51,,,,,,,,,,,,,,461.8150000000023,,response,,,13,B,,,,,Space,keypress(Space),,,,lyrical,-------- -------- --- --- ---- --- but ------ -- --------<br>---- --------- --- ------- ------------ ---------- ---------<br>--- ---------- ------- ---------- ------- -- -------- ----<br>---- --- ------ ----- ------ -- ---- --- ----- -- - -------<br>-------- -- --- --- -- ----- ----------- ----- -----------<br>---- --- ---------- --- ---- --- -- ----------,225508.30000000075,225507.5,225029.016,225036.59999999963,225045.685,225512.668,,6,but
screen,html.Screen,0_4_1_0_1_7,2021-12-02T12:01:47.618Z,,,,,,,,,,,,,,,,51,,,,,,,,,,,,,,394.8319999999949,,response,,,13,B,,,,,Space,keypress(Space),,,,lyrical,-------- -------- --- --- ---- --- --- debate -- --------<br>---- --------- --- ------- ------------ ---------- ---------<br>--- ---------- ------- ---------- ------- -- -------- ----<br>---- --- ------ ----- ------ -- ---- --- ----- -- - -------<br>-------- -- --- --- -- ----- ----------- ----- -----------<br>---- --- ---------- --- ---- --- -- ----------,225908.30000000075,225907.5,225495.996,225508.5,225512.668,225912.569,,7,debate
screen,html.Screen,0_4_1_0_1_8,2021-12-02T12:01:47.994Z,,,,,,,,,,,,,,,,51,,,,,,,,,,,,,,370.9310000000114,,response,,,13,B,,,,,Space,keypress(Space),,,,lyrical,-------- -------- --- --- ---- --- --- ------ in --------<br>---- --------- --- ------- ------------ ---------- ---------<br>--- ---------- ------- ---------- ------- -- -------- ----<br>---- --- ------ ----- ------ -- ---- --- ----- -- - -------<br>-------- -- --- --- -- ----- ----------- ----- -----------<br>---- --- ---------- --- ---- --- -- ----------,226284.30000000075,226283.5,225895.9,225908.5,225912.569,226296.215,,8,in
screen,html.Screen,0_4_1_0_1_9,2021-12-02T12:01:48.506Z,,,,,,,,,,,,,,,,51,,,,,,,,,,,,,,499.2850000000035,,response,,,13,B,,,,,Space,keypress(Space),,,,lyrical,-------- -------- --- --- ---- --- --- ------ -- Congress<br>---- --------- --- ------- ------------ ---------- ---------<br>--- ---------- ------- ---------- ------- -- -------- ----<br>---- --- ------ ----- ------ -- ---- --- ----- -- - -------<br>-------- -- --- --- -- ----- ----------- ----- -----------<br>---- --- ---------- --- ---- --- -- ----------,226796.30000000075,226795.5,226279.543,226284.59999999963,226296.215,226812.841,,9,Congress
screen,html.Screen,0_4_1_0_1_10,2021-12-02T12:01:49.026Z,,,,,,,,,,,,,,,,51,,,,,,,,,,,,,,502.55900000038673,,response,,,13,B,,,,,Space,keypress(Space),,,,lyrical,-------- -------- --- --- ---- --- --- ------ -- --------<br>over --------- --- ------- ------------ ---------- ---------<br>--- ---------- ------- ---------- ------- -- -------- ----<br>---- --- ------ ----- ------ -- ---- --- ----- -- - -------<br>-------- -- --- --- -- ----- ----------- ----- -----------<br>---- --- ---------- --- ---- --- -- ----------,227316.19999999925,227315.40000000037,226796.172,226796.59999999963,226812.841,227329.759,,10,over
screen,html.Screen,0_4_1_0_1_11,2021-12-02T12:01:49.626Z,,,,,,,,,,,,,,,,51,,,,,,,,,,,,,,585.6410000003816,,response,,,13,B,,,,,Space,keypress(Space),,,,lyrical,-------- -------- --- --- ---- --- --- ------ -- --------<br>---- reforming --- ------- ------------ ---------- ---------<br>--- ---------- ------- ---------- ------- -- -------- ----<br>---- --- ------ ----- ------ -- ---- --- ----- -- - -------<br>-------- -- --- --- -- ----- ----------- ----- -----------<br>---- --- ---------- --- ---- --- -- ----------,227916.19999999925,227915.40000000037,227313.088,227316.5,227329.759,227929.923,,11,reforming
screen,html.Screen,0_4_1_0_1_12,2021-12-02T12:01:50.082Z,,,,,,,,,,,,,,,,51,,,,,,,,,,,,,,441.47700000036275,,response,,,13,B,,,,,Space,keypress(Space),,,,lyrical,-------- -------- --- --- ---- --- --- ------ -- --------<br>---- --------- the ------- ------------ ---------- ---------<br>--- ---------- ------- ---------- ------- -- -------- ----<br>---- --- ------ ----- ------ -- ---- --- ----- -- - -------<br>-------- -- --- --- -- ----- ----------- ----- -----------<br>---- --- ---------- --- ---- --- -- ----------,228372.19999999925,228371.40000000037,227913.252,227916.40000000037,227929.923,228379.989,,12,the
screen,html.Screen,0_4_1_0_1_13,2021-12-02T12:01:50.546Z,,,,,,,,,,,,,,,,51,,,,,,,,,,,,,,455.41100000037113,,response,,,13,B,,,,,Space,keypress(Space),,,,lyrical,-------- -------- --- --- ---- --- --- ------ -- --------<br>---- --------- --- federal ------------ ---------- ---------<br>--- ---------- ------- ---------- ------- -- -------- ----<br>---- --- ------ ----- ------ -- ---- --- ----- -- - -------<br>-------- -- --- --- -- ----- ----------- ----- -----------<br>---- --- ---------- --- ---- --- -- ----------,228836.09999999963,228835.40000000037,228363.319,228372.40000000037,228379.989,228846.789,,13,federal
screen,html.Screen,0_4_1_0_1_14,2021-12-02T12:01:51.073Z,,,,,,,,,,,,,,,,51,,,,,,,,,,,,,,516.5110000007553,,response,,,13,B,,,,,Space,keypress(Space),,,,lyrical,-------- -------- --- --- ---- --- --- ------ -- --------<br>---- --------- --- ------- government's ---------- ---------<br>--- ---------- ------- ---------- ------- -- -------- ----<br>---- --- ------ ----- ------ -- ---- --- ----- -- - -------<br>-------- -- --- --- -- ----- ----------- ----- -----------<br>---- --- ---------- --- ---- --- -- ----------,229364,229363.30000000075,228830.119,228836.40000000037,228846.789,229380.26,,14,government's
screen,html.Screen,0_4_1_0_1_15,2021-12-02T12:01:51.577Z,,,,,,,,,,,,,,,,51,,,,,,,,,,,,,,487.04000000073574,,response,,,13,B,,,,,Space,keypress(Space),,,,lyrical,-------- -------- --- --- ---- --- --- ------ -- --------<br>---- --------- --- ------- ------------ regulatory ---------<br>--- ---------- ------- ---------- ------- -- -------- ----<br>---- --- ------ ----- ------ -- ---- --- ----- -- - -------<br>-------- -- --- --- -- ----- ----------- ----- -----------<br>---- --- ---------- --- ---- --- -- ----------,229868.09999999963,229867.30000000075,229363.59,229364.30000000075,229380.26,229880.443,,15,regulatory
screen,html.Screen,0_4_1_0_1_16,2021-12-02T12:01:52.106Z,,,,,,,,,,,,,,,,51,,,,,,,,,,,,,,514.8570000007458,,response,,,13,B,,,,,Space,keypress(Space),,,,lyrical,-------- -------- --- --- ---- --- --- ------ -- --------<br>---- --------- --- ------- ------------ ---------- apparatus<br>--- ---------- ------- ---------- ------- -- -------- ----<br>---- --- ------ ----- ------ -- ---- --- ----- -- - -------<br>-------- -- --- --- -- ----- ----------- ----- -----------<br>---- --- ---------- --- ---- --- -- ----------,230396.09999999963,230395.30000000075,229863.772,229868.19999999925,229880.443,230397.177,,16,apparatus
screen,html.Screen,0_4_1_0_1_17,2021-12-02T12:01:52.673Z,,,,,,,,,,,,,,,,51,,,,,,,,,,,,,,566.0229999992589,,response,,,13,B,,,,,Space,keypress(Space),,,,lyrical,-------- -------- --- --- ---- --- --- ------ -- --------<br>---- --------- --- ------- ------------ ---------- ---------<br>may ---------- ------- ---------- ------- -- -------- ----<br>---- --- ------ ----- ------ -- ---- --- ----- -- - -------<br>-------- -- --- --- -- ----- ----------- ----- -----------<br>---- --- ---------- --- ---- --- -- ----------,230964,230963.19999999925,230380.507,230396.30000000075,230397.177,230980.735,,17,may
screen,html.Screen,0_4_1_0_1_18,2021-12-02T12:01:53.137Z,,,,,,,,,,,,,,,,51,,,,,,,,,,,,,,446.565000000759,,response,,,13,B,,,,,Space,keypress(Space),,,,lyrical,-------- -------- --- --- ---- --- --- ------ -- --------<br>---- --------- --- ------- ------------ ---------- ---------<br>--- profoundly ------- ---------- ------- -- -------- ----<br>---- --- ------ ----- ------ -- ---- --- ----- -- - -------<br>-------- -- --- --- -- ----- ----------- ----- -----------<br>---- --- ---------- --- ---- --- -- ----------,231428,231427.30000000075,230964.064,230964.19999999925,230980.735,231430.799,,18,profoundly
screen,html.Screen,0_4_1_0_1_19,2021-12-02T12:01:53.521Z,,,,,,,,,,,,,,,,51,,,,,,,,,,,,,,380.4009999992559,,response,,,13,B,,,,,Space,keypress(Space),,,,lyrical,-------- -------- --- --- ---- --- --- ------ -- --------<br>---- --------- --- ------- ------------ ---------- ---------<br>--- ---------- improve ---------- ------- -- -------- ----<br>---- --- ------ ----- ------ -- ---- --- ----- -- - -------<br>-------- -- --- --- -- ----- ----------- ----- -----------<br>---- --- ---------- --- ---- --- -- ----------,231812.09999999963,231811.19999999925,231414.129,231428.30000000075,231430.799,231814.29,,19,improve
screen,html.Screen,0_4_1_0_1_20,2021-12-02T12:01:54.057Z,,,,,,,,,,,,,,,,51,,,,,,,,,,,,,,532.9099999992468,,response,,,13,B,,,,,Space,keypress(Space),,,,lyrical,-------- -------- --- --- ---- --- --- ------ -- --------<br>---- --------- --- ------- ------------ ---------- ---------<br>--- ---------- ------- companies' ------- -- -------- ----<br>---- --- ------ ----- ------ -- ---- --- ----- -- - -------<br>-------- -- --- --- -- ----- ----------- ----- -----------<br>---- --- ---------- --- ---- --- -- ----------,232348,232347.19999999925,231797.619,231812.30000000075,231814.29,232364.385,,20,companies'
screen,html.Screen,0_4_1_0_1_21,2021-12-02T12:01:54.938Z,,,,,,,,,,,,,,,,51,,,,,,,,,,,,,,863.2149999996182,,response,,,13,B,,,,,Space,keypress(Space),,,,lyrical,-------- -------- --- --- ---- --- --- ------ -- --------<br>---- --------- --- ------- ------------ ---------- ---------<br>--- ---------- ------- ---------- ability -- -------- ----<br>---- --- ------ ----- ------ -- ---- --- ----- -- - -------<br>-------- -- --- --- -- ----- ----------- ----- -----------<br>---- --- ---------- --- ---- --- -- ----------,233228.40000000037,233227.59999999963,232347.715,232348.19999999925,232364.385,233231.347,,21,ability
screen,html.Screen,0_4_1_0_1_22,2021-12-02T12:01:55.465Z,,,,,,,,,,,,,,,,51,,,,,,,,,,,,,,523.7529999996186,,response,,,13,B,,,,,Space,keypress(Space),,,,lyrical,-------- -------- --- --- ---- --- --- ------ -- --------<br>---- --------- --- ------- ------------ ---------- ---------<br>--- ---------- ------- ---------- ------- to -------- ----<br>---- --- ------ ----- ------ -- ---- --- ----- -- - -------<br>-------- -- --- --- -- ----- ----------- ----- -----------<br>---- --- ---------- --- ---- --- -- ----------,233755.90000000037,233755.09999999963,233214.676,233228.5,233231.347,233764.595,,22,to
screen,html.Screen,0_4_1_0_1_23,2021-12-02T12:01:55.897Z,,,,,,,,,,,,,,,,51,,,,,,,,,,,,,,422.5049999996263,,response,,,13,B,,,,,Space,keypress(Space),,,,lyrical,-------- -------- --- --- ---- --- --- ------ -- --------<br>---- --------- --- ------- ------------ ---------- ---------<br>--- ---------- ------- ---------- ------- -- survive. ----<br>---- --- ------ ----- ------ -- ---- --- ----- -- - -------<br>-------- -- --- --- -- ----- ----------- ----- -----------<br>---- --- ---------- --- ---- --- -- ----------,234187.90000000037,234187.09999999963,233747.926,233756.09999999963,233764.595,234198.27,,23,survive.
screen,html.Screen,0_4_1_0_1_24,2021-12-02T12:01:56.369Z,,,,,,,,,,,,,,,,51,,,,,,,,,,,,,,460.82999999963795,,response,,,13,B,,,,,Space,keypress(Space),,,,lyrical,-------- -------- --- --- ---- --- --- ------ -- --------<br>---- --------- --- ------- ------------ ---------- ---------<br>--- ---------- ------- ---------- ------- -- -------- This<br>---- --- ------ ----- ------ -- ---- --- ----- -- - -------<br>-------- -- --- --- -- ----- ----------- ----- -----------<br>---- --- ---------- --- ---- --- -- ----------,234659.80000000075,234659.09999999963,234181.599,234188.19999999925,234198.27,234664.899,,24,This
screen,html.Screen,0_4_1_0_1_25,2021-12-02T12:01:56.857Z,,,,,,,,,,,,,,,,51,,,,,,,,,,,,,,482.1009999999951,,response,,,13,B,,,,,Space,keypress(Space),,,,lyrical,-------- -------- --- --- ---- --- --- ------ -- --------<br>---- --------- --- ------- ------------ ---------- ---------<br>--- ---------- ------- ---------- ------- -- -------- ----<br>week --- ------ ----- ------ -- ---- --- ----- -- - -------<br>-------- -- --- --- -- ----- ----------- ----- -----------<br>---- --- ---------- --- ---- --- -- ----------,235147.80000000075,235147,234648.23,234660.09999999963,234664.899,235165.22,,25,week
screen,html.Screen,0_4_1_0_1_26,2021-12-02T12:01:57.457Z,,,,,,,,,,,,,,,,51,,,,,,,,,,,,,,581.7799999999988,,response,,,13,B,,,,,Space,keypress(Space),,,,lyrical,-------- -------- --- --- ---- --- --- ------ -- --------<br>---- --------- --- ------- ------------ ---------- ---------<br>--- ---------- ------- ---------- ------- -- -------- ----<br>---- the ------ ----- ------ -- ---- --- ----- -- - -------<br>-------- -- --- --- -- ----- ----------- ----- -----------<br>---- --- ---------- --- ---- --- -- ----------,235747.80000000075,235747,235148.548,235148.09999999963,235165.22,235765.343,,26,the
screen,html.Screen,0_4_1_0_1_27,2021-12-02T12:01:57.857Z,,,,,,,,,,,,,,,,51,,,,,,,,,,,,,,381.6570000000065,,response,,,13,B,,,,,Space,keypress(Space),,,,lyrical,-------- -------- --- --- ---- --- --- ------ -- --------<br>---- --------- --- ------- ------------ ---------- ---------<br>--- ---------- ------- ---------- ------- -- -------- ----<br>---- --- Senate ----- ------ -- ---- --- ----- -- - -------<br>-------- -- --- --- -- ----- ----------- ----- -----------<br>---- --- ---------- --- ---- --- -- ----------,236147.80000000075,236147,235748.672,235748,235765.343,236165.28,,27,Senate
screen,html.Screen,0_4_1_0_1_28,2021-12-02T12:01:58.361Z,,,,,,,,,,,,,,,,51,,,,,,,,,,,,,,485.72000000000116,,response,,,13,B,,,,,Space,keypress(Space),,,,lyrical,-------- -------- --- --- ---- --- --- ------ -- --------<br>---- --------- --- ------- ------------ ---------- ---------<br>--- ---------- ------- ---------- ------- -- -------- ----<br>---- --- ------ seems ------ -- ---- --- ----- -- - -------<br>-------- -- --- --- -- ----- ----------- ----- -----------<br>---- --- ---------- --- ---- --- -- ----------,236651.80000000075,236651,236148.611,236148,236165.28,236665.493,,28,seems
screen,html.Screen,0_4_1_0_1_29,2021-12-02T12:01:58.809Z,,,,,,,,,,,,,,,,51,,,,,,,,,,,,,,433.50700000001234,,response,,,13,B,,,,,Space,keypress(Space),,,,lyrical,-------- -------- --- --- ---- --- --- ------ -- --------<br>---- --------- --- ------- ------------ ---------- ---------<br>--- ---------- ------- ---------- ------- -- -------- ----<br>---- --- ------ ----- poised -- ---- --- ----- -- - -------<br>-------- -- --- --- -- ----- ----------- ----- -----------<br>---- --- ---------- --- ---- --- -- ----------,237099.80000000075,237099,236648.823,236652,236665.493,237115.615,,29,poised
screen,html.Screen,0_4_1_0_1_30,2021-12-02T12:01:59.353Z,,,,,,,,,,,,,,,,51,,,,,,,,,,,,,,527.2850000003818,,response,,,13,B,,,,,Space,keypress(Space),,,,lyrical,-------- -------- --- --- ---- --- --- ------ -- --------<br>---- --------- --- ------- ------------ ---------- ---------<br>--- ---------- ------- ---------- ------- -- -------- ----<br>---- --- ------ ----- ------ to ---- --- ----- -- - -------<br>-------- -- --- --- -- ----- ----------- ----- -----------<br>---- --- ---------- --- ---- --- -- ----------,237643.69999999925,237642.90000000037,237098.945,237100,237115.615,237649.234,,30,to
screen,html.Screen,0_4_1_0_1_31,2021-12-02T12:02:00.441Z,,,,,,,,,,,,,,,,51,,,,,,,,,,,,,,1081.6660000003758,,response,,,13,B,,,,,Space,keypress(Space),,,,lyrical,-------- -------- --- --- ---- --- --- ------ -- --------<br>---- --------- --- ------- ------------ ---------- ---------<br>--- ---------- ------- ---------- ------- -- -------- ----<br>---- --- ------ ----- ------ -- join --- ----- -- - -------<br>-------- -- --- --- -- ----- ----------- ----- -----------<br>---- --- ---------- --- ---- --- -- ----------,238731.69999999925,238730.90000000037,237632.562,237643.90000000037,237649.234,238749.22,,31,join
screen,html.Screen,0_4_1_0_1_32,2021-12-02T12:02:01.065Z,,,,,,,,,,,,,,,,51,,,,,,,,,,,,,,605.3799999996263,,response,,,13,B,,,,,Space,keypress(Space),,,,lyrical,-------- -------- --- --- ---- --- --- ------ -- --------<br>---- --------- --- ------- ------------ ---------- ---------<br>--- ---------- ------- ---------- ------- -- -------- ----<br>---- --- ------ ----- ------ -- ---- the ----- -- - -------<br>-------- -- --- --- -- ----- ----------- ----- -----------<br>---- --- ---------- --- ---- --- -- ----------,239355.69999999925,239354.59999999963,238732.551,238732,238749.22,239366.199,,32,the
screen,html.Screen,0_4_1_0_1_33,2021-12-02T12:02:01.641Z,,,,,,,,,,,,,,,,51,,,,,,,,,,,,,,564.6010000007518,,response,,,13,B,,,,,Space,keypress(Space),,,,lyrical,-------- -------- --- --- ---- --- --- ------ -- --------<br>---- --------- --- ------- ------------ ---------- ---------<br>--- ---------- ------- ---------- ------- -- -------- ----<br>---- --- ------ ----- ------ -- ---- --- House -- - -------<br>-------- -- --- --- -- ----- ----------- ----- -----------<br>---- --- ---------- --- ---- --- -- ----------,239931.59999999963,239930.80000000075,239349.529,239355.80000000075,239366.199,239933.095,,33,House
screen,html.Screen,0_4_1_0_1_34,2021-12-02T12:02:02.145Z,,,,,,,,,,,,,,,,51,,,,,,,,,,,,,,501.7050000007439,,response,,,13,B,,,,,Space,keypress(Space),,,,lyrical,-------- -------- --- --- ---- --- --- ------ -- --------<br>---- --------- --- ------- ------------ ---------- ---------<br>--- ---------- ------- ---------- ------- -- -------- ----<br>---- --- ------ ----- ------ -- ---- --- ----- in - -------<br>-------- -- --- --- -- ----- ----------- ----- -----------<br>---- --- ---------- --- ---- --- -- ----------,240435.69999999925,240434.80000000075,239916.424,239931.90000000037,239933.095,240449.866,,34,in
screen,html.Screen,0_4_1_0_1_35,2021-12-02T12:02:02.617Z,,,,,,,,,,,,,,,,51,,,,,,,,,,,,,,456.934000000736,,response,,,13,B,,,,,Space,keypress(Space),,,,lyrical,-------- -------- --- --- ---- --- --- ------ -- --------<br>---- --------- --- ------- ------------ ---------- ---------<br>--- ---------- ------- ---------- ------- -- -------- ----<br>---- --- ------ ----- ------ -- ---- --- ----- -- a -------<br>-------- -- --- --- -- ----- ----------- ----- -----------<br>---- --- ---------- --- ---- --- -- ----------,240907.59999999963,240906.80000000075,240433.196,240435.90000000037,240449.866,240916.634,,35,a
screen,html.Screen,0_4_1_0_1_36,2021-12-02T12:02:03.073Z,,,,,,,,,,,,,,,,51,,,,,,,,,,,,,,446.065999999264,,response,,,13,B,,,,,Space,keypress(Space),,,,lyrical,-------- -------- --- --- ---- --- --- ------ -- --------<br>---- --------- --- ------- ------------ ---------- ---------<br>--- ---------- ------- ---------- ------- -- -------- ----<br>---- --- ------ ----- ------ -- ---- --- ----- -- - massive<br>-------- -- --- --- -- ----- ----------- ----- -----------<br>---- --- ---------- --- ---- --- -- ----------,241363.5,241362.69999999925,240899.964,240907.69999999925,240916.634,241366.819,,36,massive
screen,html.Screen,0_4_1_0_1_37,2021-12-02T12:02:03.505Z,,,,,,,,,,,,,,,,51,,,,,,,,,,,,,,427.88099999926635,,response,,,13,B,,,,,Space,keypress(Space),,,,lyrical,-------- -------- --- --- ---- --- --- ------ -- --------<br>---- --------- --- ------- ------------ ---------- ---------<br>--- ---------- ------- ---------- ------- -- -------- ----<br>---- --- ------ ----- ------ -- ---- --- ----- -- - -------<br>overhaul -- --- --- -- ----- ----------- ----- -----------<br>---- --- ---------- --- ---- --- -- ----------,241795.5,241794.69999999925,241350.148,241363.69999999925,241366.819,241800.187,,37,overhaul
screen,html.Screen,0_4_1_0_1_38,2021-12-02T12:02:03.905Z,,,,,,,,,,,,,,,,51,,,,,,,,,,,,,,394.5129999992496,,response,,,13,B,,,,,Space,keypress(Space),,,,lyrical,-------- -------- --- --- ---- --- --- ------ -- --------<br>---- --------- --- ------- ------------ ---------- ---------<br>--- ---------- ------- ---------- ------- -- -------- ----<br>---- --- ------ ----- ------ -- ---- --- ----- -- - -------<br>-------- of --- --- -- ----- ----------- ----- -----------<br>---- --- ---------- --- ---- --- -- ----------,242195.5,242194.69999999925,241783.517,241795.69999999925,241800.187,242200.307,,38,of
screen,html.Screen,0_4_1_0_1_39,2021-12-02T12:02:04.385Z,,,,,,,,,,,,,,,,51,,,,,,,,,,,,,,474.39299999925424,,response,,,13,B,,,,,Space,keypress(Space),,,,lyrical,-------- -------- --- --- ---- --- --- ------ -- --------<br>---- --------- --- ------- ------------ ---------- ---------<br>--- ---------- ------- ---------- ------- -- -------- ----<br>---- --- ------ ----- ------ -- ---- --- ----- -- - -------<br>-------- -- the --- -- ----- ----------- ----- -----------<br>---- --- ---------- --- ---- --- -- ----------,242675.5,242674.69999999925,242183.637,242195.80000000075,242200.307,242683.887,,39,the
screen,html.Screen,0_4_1_0_1_40,2021-12-02T12:02:04.825Z,,,,,,,,,,,,,,,,51,,,,,,,,,,,,,,430.7129999996396,,response,,,13,B,,,,,Space,keypress(Space),,,,lyrical,-------- -------- --- --- ---- --- --- ------ -- --------<br>---- --------- --- ------- ------------ ---------- ---------<br>--- ---------- ------- ---------- ------- -- -------- ----<br>---- --- ------ ----- ------ -- ---- --- ----- -- - -------<br>-------- -- --- way -- ----- ----------- ----- -----------<br>---- --- ---------- --- ---- --- -- ----------,243115.40000000037,243114.59999999963,242667.215,242675.69999999925,242683.887,243117.244,,40,way
screen,html.Screen,0_4_1_0_1_41,2021-12-02T12:02:05.273Z,,,,,,,,,,,,,,,,51,,,,,,,,,,,,,,445.8559999996214,,response,,,13,B,,,,,Space,keypress(Space),,,,lyrical,-------- -------- --- --- ---- --- --- ------ -- --------<br>---- --------- --- ------- ------------ ---------- ---------<br>--- ---------- ------- ---------- ------- -- -------- ----<br>---- --- ------ ----- ------ -- ---- --- ----- -- - -------<br>-------- -- --- --- in ----- ----------- ----- -----------<br>---- --- ---------- --- ---- --- -- ----------,243564,243563.09999999963,243100.574,243115.69999999925,243117.244,243567.416,,41,in
screen,html.Screen,0_4_1_0_1_42,2021-12-02T12:02:05.689Z,,,,,,,,,,,,,,,,51,,,,,,,,,,,,,,411.18399999963003,,response,,,13,B,,,,,Space,keypress(Space),,,,lyrical,-------- -------- --- --- ---- --- --- ------ -- --------<br>---- --------- --- ------- ------------ ---------- ---------<br>--- ---------- ------- ---------- ------- -- -------- ----<br>---- --- ------ ----- ------ -- ---- --- ----- -- - -------<br>-------- -- --- --- -- which ----------- ----- -----------<br>---- --- ---------- --- ---- --- -- ----------,243979.40000000037,243978.59999999963,243550.745,243564.19999999925,243567.416,243984.151,,42,which
screen,html.Screen,0_4_1_0_1_43,2021-12-02T12:02:06.145Z,,,,,,,,,,,,,,,,51,,,,,,,,,,,,,,450.54899999924237,,response,,,13,B,,,,,Space,keypress(Space),,,,lyrical,-------- -------- --- --- ---- --- --- ------ -- --------<br>---- --------- --- ------- ------------ ---------- ---------<br>--- ---------- ------- ---------- ------- -- -------- ----<br>---- --- ------ ----- ------ -- ---- --- ----- -- - -------<br>-------- -- --- --- -- ----- bureaucrats ----- -----------<br>---- --- ---------- --- ---- --- -- ----------,244435.5,244434.69999999925,243967.481,243979.59999999963,243984.151,244450.829,,43,bureaucrats
screen,html.Screen,0_4_1_0_1_44,2021-12-02T12:02:06.698Z,,,,,,,,,,,,,,,,51,,,,,,,,,,,,,,535.7709999996296,,response,,,13,B,,,,,Space,keypress(Space),,,,lyrical,-------- -------- --- --- ---- --- --- ------ -- --------<br>---- --------- --- ------- ------------ ---------- ---------<br>--- ---------- ------- ---------- ------- -- -------- ----<br>---- --- ------ ----- ------ -- ---- --- ----- -- - -------<br>-------- -- --- --- -- ----- ----------- enact -----------<br>---- --- ---------- --- ---- --- -- ----------,244987.30000000075,244986.59999999963,244434.16,244435.69999999925,244450.829,245001.183,,44,enact
screen,html.Screen,0_4_1_0_1_45,2021-12-02T12:02:07.274Z,,,,,,,,,,,,,,,,51,,,,,,,,,,,,,,561.4169999996375,,response,,,13,B,,,,,Space,keypress(Space),,,,lyrical,-------- -------- --- --- ---- --- --- ------ -- --------<br>---- --------- --- ------- ------------ ---------- ---------<br>--- ---------- ------- ---------- ------- -- -------- ----<br>---- --- ------ ----- ------ -- ---- --- ----- -- - -------<br>-------- -- --- --- -- ----- ----------- ----- regulations<br>---- --- ---------- --- ---- --- -- ----------,245563.40000000037,245562.59999999963,244984.511,244987.59999999963,245001.183,245567.944,,45,regulations
screen,html.Screen,0_4_1_0_1_46,2021-12-02T12:02:07.810Z,,,,,,,,,,,,,,,,51,,,,,,,,,,,,,,530.5560000000114,,response,,,13,B,,,,,Space,keypress(Space),,,,lyrical,-------- -------- --- --- ---- --- --- ------ -- --------<br>---- --------- --- ------- ------------ ---------- ---------<br>--- ---------- ------- ---------- ------- -- -------- ----<br>---- --- ------ ----- ------ -- ---- --- ----- -- - -------<br>-------- -- --- --- -- ----- ----------- ----- -----------<br>that --- ---------- --- ---- --- -- ----------,246099.30000000075,246098.5,245551.273,245563.5,245567.944,246101.268,,46,that
screen,html.Screen,0_4_1_0_1_47,2021-12-02T12:02:08.258Z,,,,,,,,,,,,,,,,51,,,,,,,,,,,,,,445.3319999996165,,response,,,13,B,,,,,Space,keypress(Space),,,,lyrical,-------- -------- --- --- ---- --- --- ------ -- --------<br>---- --------- --- ------- ------------ ---------- ---------<br>--- ---------- ------- ---------- ------- -- -------- ----<br>---- --- ------ ----- ------ -- ---- --- ----- -- - -------<br>-------- -- --- --- -- ----- ----------- ----- -----------<br>---- are ---------- --- ---- --- -- ----------,246547.30000000075,246546.59999999963,246084.599,246099.5,246101.268,246551.449,,47,are
screen,html.Screen,0_4_1_0_1_48,2021-12-02T12:02:08.746Z,,,,,,,,,,,,,,,,51,,,,,,,,,,,,,,483.05100000000675,,response,,,13,B,,,,,Space,keypress(Space),,,,lyrical,-------- -------- --- --- ---- --- --- ------ -- --------<br>---- --------- --- ------- ------------ ---------- ---------<br>--- ---------- ------- ---------- ------- -- -------- ----<br>---- --- ------ ----- ------ -- ---- --- ----- -- - -------<br>-------- -- --- --- -- ----- ----------- ----- -----------<br>---- --- strangling --- ---- --- -- ----------,247035.19999999925,247034.5,246534.779,246547.5,246551.449,247051.716,,48,strangling
screen,html.Screen,0_4_1_0_1_49,2021-12-02T12:02:09.218Z,,,,,,,,,,,,,,,,51,,,,,,,,,,,,,,454.7840000000142,,response,,,13,B,,,,,Space,keypress(Space),,,,lyrical,-------- -------- --- --- ---- --- --- ------ -- --------<br>---- --------- --- ------- ------------ ---------- ---------<br>--- ---------- ------- ---------- ------- -- -------- ----<br>---- --- ------ ----- ------ -- ---- --- ----- -- - -------<br>-------- -- --- --- -- ----- ----------- ----- -----------<br>---- --- ---------- the ---- --- -- ----------,247507.30000000075,247506.5,247035.044,247035.5,247051.716,247518.466,,49,the
screen,html.Screen,0_4_1_0_1_50,2021-12-02T12:02:09.658Z,,,,,,,,,,,,,,,,51,,,,,,,,,,,,,,427.93400000038673,,response,,,13,B,,,,,Space,keypress(Space),,,,lyrical,-------- -------- --- --- ---- --- --- ------ -- --------<br>---- --------- --- ------- ------------ ---------- ---------<br>--- ---------- ------- ---------- ------- -- -------- ----<br>---- --- ------ ----- ------ -- ---- --- ----- -- - -------<br>-------- -- --- --- -- ----- ----------- ----- -----------<br>---- --- ---------- --- life --- -- ----------,247947.30000000075,247946.40000000037,247501.795,247507.40000000037,247518.466,247951.869,,50,life
