sender,sender_type,sender_id,timestamp,meta,,Blues,Classical,Country,Dance,Electronic,Folk,Gospel,Hip-Hop,Jazz,Latin,Musical/Film,New-age,Pop,Provo_ID,R&B,Rap,Reggae,Religious,Rock,Soul,Swing,Traditional,age,artist_name,correct,correctResponse,distraction,duration,education,ended_on,familiarity,gender,item,list,music_frequency,offensiveness,pleasantness,preference,response,response_action,snippet_file,song_name,song_rating,sound,text,time_commit,time_end,time_render,time_run,time_show,time_switch,url,word,word_ID
Instructions,html.Page,0_0,2021-11-12T10:27:15.302Z,"{""labjs_version"":""20.2.3"",""labjs_build"":{""flavor"":""production"",""commit"":""7ea907d66ca8aeef8054924ca5d82ffbe11e34e5""},""location"":""https://run.pavlovia.org/mvasilev/lab_music_c/"",""userAgent"":""Mozilla/5.0 (Windows NT 6.1; Win64; x64) AppleWebKit/537.36 (KHTML, like Gecko) Chrome/95.0.4638.69 Safari/537.36"",""platform"":""Win32"",""language"":""en-US"",""locale"":""en-US"",""timeZone"":""Europe/London"",""timezoneOffset"":0,""screen_width"":1920,""screen_height"":1080,""scroll_width"":1920,""scroll_height"":959,""window_innerWidth"":1920,""window_innerHeight"":1007,""devicePixelRatio"":1}",,,,,,,,,,,,,,,,,,,,,,,,,,,,,39813.87999999972,,form submission,,,,,,,,,,,,,,,,50393.39999999991,50392.19999999972,10544.98,10551.299999999814,10578.32,50399.502,{},,
Headphones,html.Page,0_1,2021-11-12T10:27:23.447Z,,,,,,,,,,,,,,,,,,,,,,,,,,,,,,8138.797999999813,,form submission,,,,,,,,,,,,,,,,58538.799999999814,58538.299999999814,50382.787,50394.09999999963,50399.502,58543.874,,,
Holding screen,html.Screen,0_2_0_0,2021-11-12T10:27:33.445Z,,,,,,,,,,,,,,,,,,,,,,,,,,,,,,9998.572999999997,,timeout,,,,,,,,,,,,,,,,68531.8999999999,68525.778,58527.196,58539.19999999972,58543.874,68542.447,,,
screen,html.Screen,0_2_0_1_0,2021-11-12T10:27:36.875Z,,,,,,,,,,,,,,,,53,,,,,,,,,,,,,,3418.2529999997205,,response,,,99,,,,,,Space,keypress(Space),,,,,When -- ----- -- ------ - ------- --- ----------<br>------------- ------ ------ ---- ---- ------- ----- -- ----<br>-------- ------- -- ---------- --- - --- ----- ----- ----<br>---- --- --- ----- --- ---- ---- ------- ----- ---- -------<br>--- --- -- ----- -- --- ---- -- --- ---- -- ------ ------<br>--- ----- -- ----,71962.09999999963,71960.69999999972,68525.778,68532.3999999999,68542.447,71976.982,,0,When
screen,html.Screen,0_2_0_1_1,2021-11-12T10:27:37.554Z,,,,,,,,,,,,,,,,53,,,,,,,,,,,,,,663.217999999717,,response,,,99,,,,,,Space,keypress(Space),,,,,---- it ----- -- ------ - ------- --- ----------<br>------------- ------ ------ ---- ---- ------- ----- -- ----<br>-------- ------- -- ---------- --- - --- ----- ----- ----<br>---- --- --- ----- --- ---- ---- ------- ----- ---- -------<br>--- --- -- ----- -- --- ---- -- --- ---- -- ------ ------<br>--- ----- -- ----,72641.19999999972,72640.19999999972,71960.311,71962.5,71976.982,72643.59,,1,it
screen,html.Screen,0_2_0_1_2,2021-11-12T10:27:38.106Z,,,,,,,,,,,,,,,,53,,,,,,,,,,,,,,548.6099999997241,,response,,,99,,,,,,Space,keypress(Space),,,,,---- -- comes -- ------ - ------- --- ----------<br>------------- ------ ------ ---- ---- ------- ----- -- ----<br>-------- ------- -- ---------- --- - --- ----- ----- ----<br>---- --- --- ----- --- ---- ---- ------- ----- ---- -------<br>--- --- -- ----- -- --- ---- -- --- ---- -- ------ ------<br>--- ----- -- ----,73193.19999999972,73192.19999999972,72626.92,72641.59999999963,72643.59,73204.886,,2,comes
screen,html.Screen,0_2_0_1_3,2021-11-12T10:27:38.586Z,,,,,,,,,,,,,,,,53,,,,,,,,,,,,,,467.41399999981513,,response,,,99,,,,,,Space,keypress(Space),,,,,---- -- ----- to ------ - ------- --- ----------<br>------------- ------ ------ ---- ---- ------- ----- -- ----<br>-------- ------- -- ---------- --- - --- ----- ----- ----<br>---- --- --- ----- --- ---- ---- ------- ----- ---- -------<br>--- --- -- ----- -- --- ---- -- --- ---- -- ------ ------<br>--- ----- -- ----,73673.29999999981,73672.29999999981,73188.296,73193.5,73204.886,73677.375,,3,to
screen,html.Screen,0_2_0_1_4,2021-11-12T10:27:39.378Z,,,,,,,,,,,,,,,,53,,,,,,,,,,,,,,786.7249999996275,,response,,,99,,,,,,Space,keypress(Space),,,,,---- -- ----- -- having - ------- --- ----------<br>------------- ------ ------ ---- ---- ------- ----- -- ----<br>-------- ------- -- ---------- --- - --- ----- ----- ----<br>---- --- --- ----- --- ---- ---- ------- ----- ---- -------<br>--- --- -- ----- -- --- ---- -- --- ---- -- ------ ------<br>--- ----- -- ----,74465.29999999981,74464.09999999963,73660.703,73674,73677.375,74477.451,,4,having
screen,html.Screen,0_2_0_1_5,2021-11-12T10:27:40.018Z,,,,,,,,,,,,,,,,53,,,,,,,,,,,,,,626.6489999996265,,response,,,99,,,,,,Space,keypress(Space),,,,,---- -- ----- -- ------ a ------- --- ----------<br>------------- ------ ------ ---- ---- ------- ----- -- ----<br>-------- ------- -- ---------- --- - --- ----- ----- ----<br>---- --- --- ----- --- ---- ---- ------- ----- ---- -------<br>--- --- -- ----- -- --- ---- -- --- ---- -- ------ ------<br>--- ----- -- ----,75105,75104.09999999963,74460.781,74465.69999999972,74477.451,75110.922,,5,a
screen,html.Screen,0_2_0_1_6,2021-11-12T10:27:40.810Z,,,,,,,,,,,,,,,,53,,,,,,,,,,,,,,785.0779999999941,,response,,,99,,,,,,Space,keypress(Space),,,,,---- -- ----- -- ------ - lasting --- ----------<br>------------- ------ ------ ---- ---- ------- ----- -- ----<br>-------- ------- -- ---------- --- - --- ----- ----- ----<br>---- --- --- ----- --- ---- ---- ------- ----- ---- -------<br>--- --- -- ----- -- --- ---- -- --- ---- -- ------ ------<br>--- ----- -- ----,75897.09999999963,75896,75094.252,75105.69999999972,75110.922,75911.146,,6,lasting
screen,html.Screen,0_2_0_1_7,2021-11-12T10:27:41.393Z,,,,,,,,,,,,,,,,53,,,,,,,,,,,,,,568.7539999999135,,response,,,99,,,,,,Space,keypress(Space),,,,,---- -- ----- -- ------ - ------- and ----------<br>------------- ------ ------ ---- ---- ------- ----- -- ----<br>-------- ------- -- ---------- --- - --- ----- ----- ----<br>---- --- --- ----- --- ---- ---- ------- ----- ---- -------<br>--- --- -- ----- -- --- ---- -- --- ---- -- ------ ------<br>--- ----- -- ----,76480.8999999999,76479.8999999999,75894.476,75897.3999999999,75911.146,76494.64,,7,and
screen,html.Screen,0_2_0_1_8,2021-11-12T10:27:42.362Z,,,,,,,,,,,,,,,,53,,,,,,,,,,,,,,953.2599999999074,,response,,,99,,,,,,Space,keypress(Space),,,,,---- -- ----- -- ------ - ------- --- fulfilling<br>------------- ------ ------ ---- ---- ------- ----- -- ----<br>-------- ------- -- ---------- --- - --- ----- ----- ----<br>---- --- --- ----- --- ---- ---- ------- ----- ---- -------<br>--- --- -- ----- -- --- ---- -- --- ---- -- ------ ------<br>--- ----- -- ----,77449,77447.8999999999,76477.97,76481.19999999972,76494.64,77461.485,,8,fulfilling
screen,html.Screen,0_2_0_1_9,2021-11-12T10:27:43.081Z,,,,,,,,,,,,,,,,53,,,,,,,,,,,,,,706.3149999998132,,response,,,99,,,,,,Space,keypress(Space),,,,,"---- -- ----- -- ------ - ------- --- ----------<br>relationship, ------ ------ ---- ---- ------- ----- -- ----<br>-------- ------- -- ---------- --- - --- ----- ----- ----<br>---- --- --- ----- --- ---- ---- ------- ----- ---- -------<br>--- --- -- ----- -- --- ---- -- --- ---- -- ------ ------<br>--- ----- -- ----",78168.69999999972,78167.79999999981,77444.815,77449.29999999981,77461.485,78178.438,,9,"relationship,"
screen,html.Screen,0_2_0_1_10,2021-11-12T10:27:44.889Z,,,,,,,,,,,,,,,,53,,,,,,,,,,,,,,1797.261999999726,,response,,,99,,,,,,Space,keypress(Space),,,,,---- -- ----- -- ------ - ------- --- ----------<br>------------- common ------ ---- ---- ------- ----- -- ----<br>-------- ------- -- ---------- --- - --- ----- ----- ----<br>---- --- --- ----- --- ---- ---- ------- ----- ---- -------<br>--- --- -- ----- -- --- ---- -- --- ---- -- ------ ------<br>--- ----- -- ----,79976.59999999963,79975.69999999972,78161.767,78169,78178.438,79978.725,,10,common
screen,html.Screen,0_2_0_1_11,2021-11-12T10:27:45.561Z,,,,,,,,,,,,,,,,53,,,,,,,,,,,,,,668.9749999997148,,response,,,99,,,,,,Space,keypress(Space),,,,,---- -- ----- -- ------ - ------- --- ----------<br>------------- ------ wisdom ---- ---- ------- ----- -- ----<br>-------- ------- -- ---------- --- - --- ----- ----- ----<br>---- --- --- ----- --- ---- ---- ------- ----- ---- -------<br>--- --- -- ----- -- --- ---- -- --- ---- -- ------ ------<br>--- ----- -- ----,80648.5,80647.69999999972,79962.055,79977.09999999963,79978.725,80662.277,,11,wisdom
screen,html.Screen,0_2_0_1_12,2021-11-12T10:27:46.369Z,,,,,,,,,,,,,,,,53,,,,,,,,,,,,,,793.4229999997187,,response,,,99,,,,,,Space,keypress(Space),,,,,---- -- ----- -- ------ - ------- --- ----------<br>------------- ------ ------ says ---- ------- ----- -- ----<br>-------- ------- -- ---------- --- - --- ----- ----- ----<br>---- --- --- ----- --- ---- ---- ------- ----- ---- -------<br>--- --- -- ----- -- --- ---- -- --- ---- -- ------ ------<br>--- ----- -- ----,81456.59999999963,81455.69999999972,80645.607,80648.8999999999,80662.277,81462.478,,12,says
screen,html.Screen,0_2_0_1_13,2021-11-12T10:27:46.841Z,,,,,,,,,,,,,,,,53,,,,,,,,,,,,,,465.1219999996247,,response,,,99,,,,,,Space,keypress(Space),,,,,---- -- ----- -- ------ - ------- --- ----------<br>------------- ------ ------ ---- that ------- ----- -- ----<br>-------- ------- -- ---------- --- - --- ----- ----- ----<br>---- --- --- ----- --- ---- ---- ------- ----- ---- -------<br>--- --- -- ----- -- --- ---- -- --- ---- -- ------ ------<br>--- ----- -- ----,81928.3999999999,81927.59999999963,81445.808,81456.79999999981,81462.478,81929.253,,13,that
screen,html.Screen,0_2_0_1_14,2021-11-12T10:27:47.625Z,,,,,,,,,,,,,,,,53,,,,,,,,,,,,,,782.6469999999099,,response,,,99,,,,,,Space,keypress(Space),,,,,---- -- ----- -- ------ - ------- --- ----------<br>------------- ------ ------ ---- ---- feeling ----- -- ----<br>-------- ------- -- ---------- --- - --- ----- ----- ----<br>---- --- --- ----- --- ---- ---- ------- ----- ---- -------<br>--- --- -- ----- -- --- ---- -- --- ---- -- ------ ------<br>--- ----- -- ----,82712.69999999972,82711.8999999999,81912.583,81928.69999999972,81929.253,82729.468,,14,feeling
screen,html.Screen,0_2_0_1_15,2021-11-12T10:27:48.697Z,,,,,,,,,,,,,,,,53,,,,,,,,,,,,,,1053.9319999999134,,response,,,99,,,,,,Space,keypress(Space),,,,,---- -- ----- -- ------ - ------- --- ----------<br>------------- ------ ------ ---- ---- ------- close -- ----<br>-------- ------- -- ---------- --- - --- ----- ----- ----<br>---- --- --- ----- --- ---- ---- ------- ----- ---- -------<br>--- --- -- ----- -- --- ---- -- --- ---- -- ------ ------<br>--- ----- -- ----,83784.29999999981,83783.3999999999,82712.798,82713.19999999972,82729.468,83796.352,,15,close
screen,html.Screen,0_2_0_1_16,2021-11-12T10:27:49.257Z,,,,,,,,,,,,,,,,53,,,,,,,,,,,,,,547.0479999999079,,response,,,99,,,,,,Space,keypress(Space),,,,,---- -- ----- -- ------ - ------- --- ----------<br>------------- ------ ------ ---- ---- ------- ----- to ----<br>-------- ------- -- ---------- --- - --- ----- ----- ----<br>---- --- --- ----- --- ---- ---- ------- ----- ---- -------<br>--- --- -- ----- -- --- ---- -- --- ---- -- ------ ------<br>--- ----- -- ----,84344.29999999981,84343.3999999999,83779.682,83784.5,83796.352,84346.518,,16,to
screen,html.Screen,0_2_0_1_17,2021-11-12T10:27:50.377Z,,,,,,,,,,,,,,,,53,,,,,,,,,,,,,,1116.8819999999105,,response,,,99,,,,,,Space,keypress(Space),,,,,---- -- ----- -- ------ - ------- --- ----------<br>------------- ------ ------ ---- ---- ------- ----- -- your<br>-------- ------- -- ---------- --- - --- ----- ----- ----<br>---- --- --- ----- --- ---- ---- ------- ----- ---- -------<br>--- --- -- ----- -- --- ---- -- --- ---- -- ------ ------<br>--- ----- -- ----,85464.09999999963,85463.3999999999,84329.848,84344.59999999963,84346.518,85480.084,,17,your
screen,html.Screen,0_2_0_1_18,2021-11-12T10:27:51.697Z,,,,,,,,,,,,,,,,53,,,,,,,,,,,,,,1303.2159999998112,,response,,,99,,,,,,Space,keypress(Space),,,,,---- -- ----- -- ------ - ------- --- ----------<br>------------- ------ ------ ---- ---- ------- ----- -- ----<br>romantic ------- -- ---------- --- - --- ----- ----- ----<br>---- --- --- ----- --- ---- ---- ------- ----- ---- -------<br>--- --- -- ----- -- --- ---- -- --- ---- -- ------ ------<br>--- ----- -- ----,86784,86783.29999999981,85463.414,85464.3999999999,85480.084,86797.078,,18,romantic
screen,html.Screen,0_2_0_1_19,2021-11-12T10:27:52.193Z,,,,,,,,,,,,,,,,53,,,,,,,,,,,,,,482.12199999972654,,response,,,99,,,,,,Space,keypress(Space),,,,,---- -- ----- -- ------ - ------- --- ----------<br>------------- ------ ------ ---- ---- ------- ----- -- ----<br>-------- partner -- ---------- --- - --- ----- ----- ----<br>---- --- --- ----- --- ---- ---- ------- ----- ---- -------<br>--- --- -- ----- -- --- ---- -- --- ---- -- ------ ------<br>--- ----- -- ----,87280.09999999963,87279.19999999972,86780.408,86784.3999999999,86797.078,87297.24,,19,partner
screen,html.Screen,0_2_0_1_20,2021-11-12T10:27:52.785Z,,,,,,,,,,,,,,,,53,,,,,,,,,,,,,,573.9599999997154,,response,,,99,,,,,,Space,keypress(Space),,,,,---- -- ----- -- ------ - ------- --- ----------<br>------------- ------ ------ ---- ---- ------- ----- -- ----<br>-------- ------- is ---------- --- - --- ----- ----- ----<br>---- --- --- ----- --- ---- ---- ------- ----- ---- -------<br>--- --- -- ----- -- --- ---- -- --- ---- -- ------ ------<br>--- ----- -- ----,87872,87871.19999999972,87280.57,87280.29999999981,87297.24,87880.709,,20,is
screen,html.Screen,0_2_0_1_21,2021-11-12T10:27:54.392Z,,,,,,,,,,,,,,,,53,,,,,,,,,,,,,,1598.1909999999043,,response,,,99,,,,,,Space,keypress(Space),,,,,---- -- ----- -- ------ - ------- --- ----------<br>------------- ------ ------ ---- ---- ------- ----- -- ----<br>-------- ------- -- paramount. --- - --- ----- ----- ----<br>---- --- --- ----- --- ---- ---- ------- ----- ---- -------<br>--- --- -- ----- -- --- ---- -- --- ---- -- ------ ------<br>--- ----- -- ----,89479.79999999981,89478.8999999999,87864.039,87872.3999999999,87880.709,89481.038,,21,paramount.
screen,html.Screen,0_2_0_1_22,2021-11-12T10:27:54.960Z,,,,,,,,,,,,,,,,53,,,,,,,,,,,,,,565.9619999999995,,response,,,99,,,,,,Space,keypress(Space),,,,,---- -- ----- -- ------ - ------- --- ----------<br>------------- ------ ------ ---- ---- ------- ----- -- ----<br>-------- ------- -- ---------- But - --- ----- ----- ----<br>---- --- --- ----- --- ---- ---- ------- ----- ---- -------<br>--- --- -- ----- -- --- ---- -- --- ---- -- ------ ------<br>--- ----- -- ----,90047.79999999981,90047,89464.368,89480.29999999981,89481.038,90064.571,,22,But
screen,html.Screen,0_2_0_1_23,2021-11-12T10:27:55.752Z,,,,,,,,,,,,,,,,53,,,,,,,,,,,,,,774.4290000000037,,response,,,99,,,,,,Space,keypress(Space),,,,,---- -- ----- -- ------ - ------- --- ----------<br>------------- ------ ------ ---- ---- ------- ----- -- ----<br>-------- ------- -- ---------- --- a --- ----- ----- ----<br>---- --- --- ----- --- ---- ---- ------- ----- ---- -------<br>--- --- -- ----- -- --- ---- -- --- ---- -- ------ ------<br>--- ----- -- ----,90839.69999999972,90839,90047.901,90048.09999999963,90064.571,90848.092,,23,a
screen,html.Screen,0_2_0_1_24,2021-11-12T10:27:56.288Z,,,,,,,,,,,,,,,,53,,,,,,,,,,,,,,526.8079999999027,,response,,,99,,,,,,Space,keypress(Space),,,,,---- -- ----- -- ------ - ------- --- ----------<br>------------- ------ ------ ---- ---- ------- ----- -- ----<br>-------- ------- -- ---------- --- - new ----- ----- ----<br>---- --- --- ----- --- ---- ---- ------- ----- ---- -------<br>--- --- -- ----- -- --- ---- -- --- ---- -- ------ ------<br>--- ----- -- ----,91375.79999999981,91374.8999999999,90831.422,90840,90848.092,91381.423,,24,new
screen,html.Screen,0_2_0_1_25,2021-11-12T10:27:56.776Z,,,,,,,,,,,,,,,,53,,,,,,,,,,,,,,481.47699999991164,,response,,,99,,,,,,Space,keypress(Space),,,,,---- -- ----- -- ------ - ------- --- ----------<br>------------- ------ ------ ---- ---- ------- ----- -- ----<br>-------- ------- -- ---------- --- - --- study ----- ----<br>---- --- --- ----- --- ---- ---- ------- ----- ---- -------<br>--- --- -- ----- -- --- ---- -- --- ---- -- ------ ------<br>--- ----- -- ----,91863.69999999972,91862.8999999999,91364.754,91376,91381.423,91865.065,,25,study
screen,html.Screen,0_2_0_1_26,2021-11-12T10:27:58.345Z,,,,,,,,,,,,,,,,53,,,,,,,,,,,,,,1566.0349999996251,,response,,,99,,,,,,Space,keypress(Space),,,,,---- -- ----- -- ------ - ------- --- ----------<br>------------- ------ ------ ---- ---- ------- ----- -- ----<br>-------- ------- -- ---------- --- - --- ----- finds ----<br>---- --- --- ----- --- ---- ---- ------- ----- ---- -------<br>--- --- -- ----- -- --- ---- -- --- ---- -- ------ ------<br>--- ----- -- ----,93431.8999999999,93431.09999999963,91848.394,91863.8999999999,91865.065,93448.687,,26,finds
screen,html.Screen,0_2_0_1_27,2021-11-12T10:27:59.776Z,,,,,,,,,,,,,,,,53,,,,,,,,,,,,,,1414.0129999997152,,response,,,99,,,,,,Space,keypress(Space),,,,,---- -- ----- -- ------ - ------- --- ----------<br>------------- ------ ------ ---- ---- ------- ----- -- ----<br>-------- ------- -- ---------- --- - --- ----- ----- that<br>---- --- --- ----- --- ---- ---- ------- ----- ---- -------<br>--- --- -- ----- -- --- ---- -- --- ---- -- ------ ------<br>--- ----- -- ----,94863.5,94862.69999999972,93432.017,93432.19999999972,93448.687,94865.687,,27,that
screen,html.Screen,0_2_0_1_28,2021-11-12T10:28:00.656Z,,,,,,,,,,,,,,,,53,,,,,,,,,,,,,,876.9129999996221,,response,,,99,,,,,,Space,keypress(Space),,,,,---- -- ----- -- ------ - ------- --- ----------<br>------------- ------ ------ ---- ---- ------- ----- -- ----<br>-------- ------- -- ---------- --- - --- ----- ----- ----<br>it's --- --- ----- --- ---- ---- ------- ----- ---- -------<br>--- --- -- ----- -- --- ---- -- --- ---- -- ------ ------<br>--- ----- -- ----,95743.5,95742.59999999963,94849.017,94864,94865.687,95749.172,,28,it's
screen,html.Screen,0_2_0_1_29,2021-11-12T10:28:01.192Z,,,,,,,,,,,,,,,,53,,,,,,,,,,,,,,529.4279999996215,,response,,,99,,,,,,Space,keypress(Space),,,,,---- -- ----- -- ------ - ------- --- ----------<br>------------- ------ ------ ---- ---- ------- ----- -- ----<br>-------- ------- -- ---------- --- - --- ----- ----- ----<br>---- not --- ----- --- ---- ---- ------- ----- ---- -------<br>--- --- -- ----- -- --- ---- -- --- ---- -- ------ ------<br>--- ----- -- ----,96279.5,96278.59999999963,95732.502,95743.79999999981,95749.172,96282.811,,29,not
screen,html.Screen,0_2_0_1_30,2021-11-12T10:28:01.704Z,,,,,,,,,,,,,,,,53,,,,,,,,,,,,,,507.6889999999985,,response,,,99,,,,,,Space,keypress(Space),,,,,---- -- ----- -- ------ - ------- --- ----------<br>------------- ------ ------ ---- ---- ------- ----- -- ----<br>-------- ------- -- ---------- --- - --- ----- ----- ----<br>---- --- how ----- --- ---- ---- ------- ----- ---- -------<br>--- --- -- ----- -- --- ---- -- --- ---- -- ------ ------<br>--- ----- -- ----,96791.29999999981,96790.5,96266.14,96279.59999999963,96282.811,96799.566,,30,how
screen,html.Screen,0_2_0_1_31,2021-11-12T10:28:02.240Z,,,,,,,,,,,,,,,,53,,,,,,,,,,,,,,527.0339999996213,,response,,,99,,,,,,Space,keypress(Space),,,,,---- -- ----- -- ------ - ------- --- ----------<br>------------- ------ ------ ---- ---- ------- ----- -- ----<br>-------- ------- -- ---------- --- - --- ----- ----- ----<br>---- --- --- close --- ---- ---- ------- ----- ---- -------<br>--- --- -- ----- -- --- ---- -- --- ---- -- ------ ------<br>--- ----- -- ----,97327.29999999981,97326.59999999963,96782.896,96791.59999999963,96799.566,97332.827,,31,close
screen,html.Screen,0_2_0_1_32,2021-11-12T10:28:02.752Z,,,,,,,,,,,,,,,,53,,,,,,,,,,,,,,505.6729999999952,,response,,,99,,,,,,Space,keypress(Space),,,,,---- -- ----- -- ------ - ------- --- ----------<br>------------- ------ ------ ---- ---- ------- ----- -- ----<br>-------- ------- -- ---------- --- - --- ----- ----- ----<br>---- --- --- ----- you ---- ---- ------- ----- ---- -------<br>--- --- -- ----- -- --- ---- -- --- ---- -- ------ ------<br>--- ----- -- ----,97839.3999999999,97838.5,97316.159,97327.69999999972,97332.827,97849.915,,32,you
screen,html.Screen,0_2_0_1_33,2021-11-12T10:28:03.352Z,,,,,,,,,,,,,,,,53,,,,,,,,,,,,,,588.4849999999133,,response,,,99,,,,,,Space,keypress(Space),,,,,---- -- ----- -- ------ - ------- --- ----------<br>------------- ------ ------ ---- ---- ------- ----- -- ----<br>-------- ------- -- ---------- --- - --- ----- ----- ----<br>---- --- --- ----- --- feel ---- ------- ----- ---- -------<br>--- --- -- ----- -- --- ---- -- --- ---- -- ------ ------<br>--- ----- -- ----,98439.19999999972,98438.3999999999,97833.243,97839.69999999972,97849.915,98449.954,,33,feel
screen,html.Screen,0_2_0_1_34,2021-11-12T10:28:04.080Z,,,,,,,,,,,,,,,,53,,,,,,,,,,,,,,716.445999999909,,response,,,99,,,,,,Space,keypress(Space),,,,,---- -- ----- -- ------ - ------- --- ----------<br>------------- ------ ------ ---- ---- ------- ----- -- ----<br>-------- ------- -- ---------- --- - --- ----- ----- ----<br>---- --- --- ----- --- ---- that ------- ----- ---- -------<br>--- --- -- ----- -- --- ---- -- --- ---- -- ------ ------<br>--- ----- -- ----,99167.19999999972,99166.3999999999,98433.284,98439.5,98449.954,99183.444,,34,that
screen,html.Screen,0_2_0_1_35,2021-11-12T10:28:04.570Z,,,,,,,,,,,,,,,,53,,,,,,,,,,,,,,470.9559999999037,,response,,,99,,,,,,Space,keypress(Space),,,,,---- -- ----- -- ------ - ------- --- ----------<br>------------- ------ ------ ---- ---- ------- ----- -- ----<br>-------- ------- -- ---------- --- - --- ----- ----- ----<br>---- --- --- ----- --- ---- ---- matters ----- ---- -------<br>--- --- -- ----- -- --- ---- -- --- ---- -- ------ ------<br>--- ----- -- ----,99657.3999999999,99654.3999999999,99166.774,99167.5,99183.444,99666.915,,35,matters
screen,html.Screen,0_2_0_1_36,2021-11-12T10:28:05.472Z,,,,,,,,,,,,,,,,53,,,,,,,,,,,,,,891.3849999998201,,response,,,99,,,,,,Space,keypress(Space),,,,,"---- -- ----- -- ------ - ------- --- ----------<br>------------- ------ ------ ---- ---- ------- ----- -- ----<br>-------- ------- -- ---------- --- - --- ----- ----- ----<br>---- --- --- ----- --- ---- ---- ------- most, ---- -------<br>--- --- -- ----- -- --- ---- -- --- ---- -- ------ ------<br>--- ----- -- ----",100559.29999999981,100558.29999999981,99650.245,99657.69999999972,99666.915,100566.982,,36,"most,"
screen,html.Screen,0_2_0_1_37,2021-11-12T10:28:06.032Z,,,,,,,,,,,,,,,,53,,,,,,,,,,,,,,551.3179999998101,,response,,,99,,,,,,Space,keypress(Space),,,,,---- -- ----- -- ------ - ------- --- ----------<br>------------- ------ ------ ---- ---- ------- ----- -- ----<br>-------- ------- -- ---------- --- - --- ----- ----- ----<br>---- --- --- ----- --- ---- ---- ------- ----- it's -------<br>--- --- -- ----- -- --- ---- -- --- ---- -- ------ ------<br>--- ----- -- ----,101119,101118.29999999981,100550.313,100559.59999999963,100566.982,101134.078,,37,it's
screen,html.Screen,0_2_0_1_38,2021-11-12T10:28:07.760Z,,,,,,,,,,,,,,,,53,,,,,,,,,,,,,,1712.1219999997265,,response,,,99,,,,,,Space,keypress(Space),,,,,---- -- ----- -- ------ - ------- --- ----------<br>------------- ------ ------ ---- ---- ------- ----- -- ----<br>-------- ------- -- ---------- --- - --- ----- ----- ----<br>---- --- --- ----- --- ---- ---- ------- ----- ---- whether<br>--- --- -- ----- -- --- ---- -- --- ---- -- ------ ------<br>--- ----- -- ----,102847,102846.19999999972,101117.406,101119.29999999981,101134.078,102850.953,,38,whether
screen,html.Screen,0_2_0_1_39,2021-11-12T10:28:08.656Z,,,,,,,,,,,,,,,,53,,,,,,,,,,,,,,891.4469999999128,,response,,,99,,,,,,Space,keypress(Space),,,,,---- -- ----- -- ------ - ------- --- ----------<br>------------- ------ ------ ---- ---- ------- ----- -- ----<br>-------- ------- -- ---------- --- - --- ----- ----- ----<br>---- --- --- ----- --- ---- ---- ------- ----- ---- -------<br>you --- -- ----- -- --- ---- -- --- ---- -- ------ ------<br>--- ----- -- ----,103743.29999999981,103742.3999999999,102834.283,102847.19999999972,102850.953,103751.195,,39,you
screen,html.Screen,0_2_0_1_40,2021-11-12T10:28:09.175Z,,,,,,,,,,,,,,,,53,,,,,,,,,,,,,,510.9049999996205,,response,,,99,,,,,,Space,keypress(Space),,,,,---- -- ----- -- ------ - ------- --- ----------<br>------------- ------ ------ ---- ---- ------- ----- -- ----<br>-------- ------- -- ---------- --- - --- ----- ----- ----<br>---- --- --- ----- --- ---- ---- ------- ----- ---- -------<br>--- are -- ----- -- --- ---- -- --- ---- -- ------ ------<br>--- ----- -- ----,104262.79999999981,104262.09999999963,103734.525,103743.59999999963,103751.195,104267.945,,40,are
screen,html.Screen,0_2_0_1_41,2021-11-12T10:28:09.727Z,,,,,,,,,,,,,,,,53,,,,,,,,,,,,,,546.054999999993,,response,,,99,,,,,,Space,keypress(Space),,,,,---- -- ----- -- ------ - ------- --- ----------<br>------------- ------ ------ ---- ---- ------- ----- -- ----<br>-------- ------- -- ---------- --- - --- ----- ----- ----<br>---- --- --- ----- --- ---- ---- ------- ----- ---- -------<br>--- --- as ----- -- --- ---- -- --- ---- -- ------ ------<br>--- ----- -- ----,104814.79999999981,104814,104251.275,104263.19999999972,104267.945,104818.21,,41,as
screen,html.Screen,0_2_0_1_42,2021-11-12T10:28:10.399Z,,,,,,,,,,,,,,,,53,,,,,,,,,,,,,,667.6899999999005,,response,,,99,,,,,,Space,keypress(Space),,,,,---- -- ----- -- ------ - ------- --- ----------<br>------------- ------ ------ ---- ---- ------- ----- -- ----<br>-------- ------- -- ---------- --- - --- ----- ----- ----<br>---- --- --- ----- --- ---- ---- ------- ----- ---- -------<br>--- --- -- close -- --- ---- -- --- ---- -- ------ ------<br>--- ----- -- ----,105486.79999999981,105485.8999999999,104801.539,104815.19999999972,104818.21,105501.669,,42,close
screen,html.Screen,0_2_0_1_43,2021-11-12T10:28:10.983Z,,,,,,,,,,,,,,,,53,,,,,,,,,,,,,,568.2309999999125,,response,,,99,,,,,,Space,keypress(Space),,,,,---- -- ----- -- ------ - ------- --- ----------<br>------------- ------ ------ ---- ---- ------- ----- -- ----<br>-------- ------- -- ---------- --- - --- ----- ----- ----<br>---- --- --- ----- --- ---- ---- ------- ----- ---- -------<br>--- --- -- ----- as --- ---- -- --- ---- -- ------ ------<br>--- ----- -- ----,106070.69999999972,106069.8999999999,105484.999,105487.19999999972,105501.669,106085.158,,43,as
screen,html.Screen,0_2_0_1_44,2021-11-12T10:28:11.551Z,,,,,,,,,,,,,,,,53,,,,,,,,,,,,,,552.7419999999111,,response,,,99,,,,,,Space,keypress(Space),,,,,---- -- ----- -- ------ - ------- --- ----------<br>------------- ------ ------ ---- ---- ------- ----- -- ----<br>-------- ------- -- ---------- --- - --- ----- ----- ----<br>---- --- --- ----- --- ---- ---- ------- ----- ---- -------<br>--- --- -- ----- -- you ---- -- --- ---- -- ------ ------<br>--- ----- -- ----,106638.69999999972,106637.8999999999,106068.488,106071,106085.158,106651.949,,44,you
screen,html.Screen,0_2_0_1_45,2021-11-12T10:28:12.287Z,,,,,,,,,,,,,,,,53,,,,,,,,,,,,,,721.8509999998205,,response,,,99,,,,,,Space,keypress(Space),,,,,---- -- ----- -- ------ - ------- --- ----------<br>------------- ------ ------ ---- ---- ------- ----- -- ----<br>-------- ------- -- ---------- --- - --- ----- ----- ----<br>---- --- --- ----- --- ---- ---- ------- ----- ---- -------<br>--- --- -- ----- -- --- want -- --- ---- -- ------ ------<br>--- ----- -- ----,107374.59999999963,107373.79999999981,106635.279,106638.8999999999,106651.949,107385.438,,45,want
screen,html.Screen,0_2_0_1_46,2021-11-12T10:28:12.823Z,,,,,,,,,,,,,,,,53,,,,,,,,,,,,,,524.3619999998191,,response,,,99,,,,,,Space,keypress(Space),,,,,---- -- ----- -- ------ - ------- --- ----------<br>------------- ------ ------ ---- ---- ------- ----- -- ----<br>-------- ------- -- ---------- --- - --- ----- ----- ----<br>---- --- --- ----- --- ---- ---- ------- ----- ---- -------<br>--- --- -- ----- -- --- ---- to --- ---- -- ------ ------<br>--- ----- -- ----,107910.69999999972,107909.79999999981,107368.768,107374.8999999999,107385.438,107918.822,,46,to
screen,html.Screen,0_2_0_1_47,2021-11-12T10:28:13.471Z,,,,,,,,,,,,,,,,53,,,,,,,,,,,,,,638.9779999998136,,response,,,99,,,,,,Space,keypress(Space),,,,,"---- -- ----- -- ------ - ------- --- ----------<br>------------- ------ ------ ---- ---- ------- ----- -- ----<br>-------- ------- -- ---------- --- - --- ----- ----- ----<br>---- --- --- ----- --- ---- ---- ------- ----- ---- -------<br>--- --- -- ----- -- --- ---- -- be, ---- -- ------ ------<br>--- ----- -- ----",108558.59999999963,108557.79999999981,107902.153,107911,107918.822,108569.122,,47,"be,"
screen,html.Screen,0_2_0_1_48,2021-11-12T10:28:14.367Z,,,,,,,,,,,,,,,,53,,,,,,,,,,,,,,884.5779999997176,,response,,,99,,,,,,Space,keypress(Space),,,,,---- -- ----- -- ------ - ------- --- ----------<br>------------- ------ ------ ---- ---- ------- ----- -- ----<br>-------- ------- -- ---------- --- - --- ----- ----- ----<br>---- --- --- ----- --- ---- ---- ------- ----- ---- -------<br>--- --- -- ----- -- --- ---- -- --- even -- ------ ------<br>--- ----- -- ----,109454.5,109453.69999999972,108552.451,108558.8999999999,108569.122,109469.277,,48,even
screen,html.Screen,0_2_0_1_49,2021-11-12T10:28:14.855Z,,,,,,,,,,,,,,,,53,,,,,,,,,,,,,,472.3229999996256,,response,,,99,,,,,,Space,keypress(Space),,,,,---- -- ----- -- ------ - ------- --- ----------<br>------------- ------ ------ ---- ---- ------- ----- -- ----<br>-------- ------- -- ---------- --- - --- ----- ----- ----<br>---- --- --- ----- --- ---- ---- ------- ----- ---- -------<br>--- --- -- ----- -- --- ---- -- --- ---- if ------ ------<br>--- ----- -- ----,109942.5,109941.59999999963,109452.607,109454.69999999972,109469.277,109952.741,,49,if
screen,html.Screen,0_2_0_1_50,2021-11-12T10:28:15.463Z,,,,,,,,,,,,,,,,53,,,,,,,,,,,,,,596.8589999996329,,response,,,99,,,,,,Space,keypress(Space),,,,,---- -- ----- -- ------ - ------- --- ----------<br>------------- ------ ------ ---- ---- ------- ----- -- ----<br>-------- ------- -- ---------- --- - --- ----- ----- ----<br>---- --- --- ----- --- ---- ---- ------- ----- ---- -------<br>--- --- -- ----- -- --- ---- -- --- ---- -- that's ------<br>--- ----- -- ----,110550.5,110549.59999999963,109936.071,109942.79999999981,109952.741,110552.886,,50,that's
screen,html.Screen,0_2_0_1_51,2021-11-12T10:28:16.807Z,,,,,,,,,,,,,,,,53,,,,,,,,,,,,,,1340.7139999996289,,response,,,99,,,,,,Space,keypress(Space),,,,,---- -- ----- -- ------ - ------- --- ----------<br>------------- ------ ------ ---- ---- ------- ----- -- ----<br>-------- ------- -- ---------- --- - --- ----- ----- ----<br>---- --- --- ----- --- ---- ---- ------- ----- ---- -------<br>--- --- -- ----- -- --- ---- -- --- ---- -- ------ really<br>--- ----- -- ----,111894.29999999981,111893.59999999963,110536.216,110550.69999999972,110552.886,111903.186,,51,really
screen,html.Screen,0_2_0_1_52,2021-11-12T10:28:17.735Z,,,,,,,,,,,,,,,,53,,,,,,,,,,,,,,918.3139999999985,,response,,,99,,,,,,Space,keypress(Space),,,,,---- -- ----- -- ------ - ------- --- ----------<br>------------- ------ ------ ---- ---- ------- ----- -- ----<br>-------- ------- -- ---------- --- - --- ----- ----- ----<br>---- --- --- ----- --- ---- ---- ------- ----- ---- -------<br>--- --- -- ----- -- --- ---- -- --- ---- -- ------ ------<br>not ----- -- ----,112822.29999999981,112821.5,111886.516,111894.59999999963,111903.186,112836.732,,52,not
screen,html.Screen,0_2_0_1_53,2021-11-12T10:28:18.767Z,,,,,,,,,,,,,,,,53,,,,,,,,,,,,,,1016.8679999996239,,response,,,99,,,,,,Space,keypress(Space),,,,,---- -- ----- -- ------ - ------- --- ----------<br>------------- ------ ------ ---- ---- ------- ----- -- ----<br>-------- ------- -- ---------- --- - --- ----- ----- ----<br>---- --- --- ----- --- ---- ---- ------- ----- ---- -------<br>--- --- -- ----- -- --- ---- -- --- ---- -- ------ ------<br>--- close -- ----,113854.5,113853.59999999963,112820.062,112822.59999999963,112836.732,113870.263,,53,close
screen,html.Screen,0_2_0_1_54,2021-11-12T10:28:19.159Z,,,,,,,,,,,,,,,,53,,,,,,,,,,,,,,375.03699999980745,,response,,,99,,,,,,Space,keypress(Space),,,,,---- -- ----- -- ------ - ------- --- ----------<br>------------- ------ ------ ---- ---- ------- ----- -- ----<br>-------- ------- -- ---------- --- - --- ----- ----- ----<br>---- --- --- ----- --- ---- ---- ------- ----- ---- -------<br>--- --- -- ----- -- --- ---- -- --- ---- -- ------ ------<br>--- ----- at ----,114246.19999999972,114245.29999999981,113853.593,113854.79999999981,113870.263,114253.868,,54,at
screen,html.Screen,0_2_0_1_55,2021-11-12T10:28:20.487Z,,,,,,,,,,,,,,,,53,,,,,,,,,,,,,,1319.3319999997184,,response,,,99,,,,,,Space,keypress(Space),,,,,---- -- ----- -- ------ - ------- --- ----------<br>------------- ------ ------ ---- ---- ------- ----- -- ----<br>-------- ------- -- ---------- --- - --- ----- ----- ----<br>---- --- --- ----- --- ---- ---- ------- ----- ---- -------<br>--- --- -- ----- -- --- ---- -- --- ---- -- ------ ------<br>--- ----- -- all.,115574,115573.19999999972,114237.197,114246.5,114253.868,115587.397,,55,all.
Item 99,flow.Loop,0_2_0_1,2021-11-12T10:28:20.493Z,,,,,,,,,,,,,,,,,,,,,,,,,,,,,,47030.75299999972,,completion,,,,C,,,,,,,,,,silence,,115579.8999999999,115573.19999999972,68525.778,68532.29999999981,68542.447,115587.397,,,
Question 1,html.Screen,0_2_0_2,2021-11-12T10:28:27.651Z,,,,,,,,,,,,,,,,,,,,,,,,,,,true,FALSE,,7145.20299999963,,response,,,99,C,,,,,FALSE,click #choice-2,,,,silence,,122733.8999999999,122732.59999999963,115570.727,115580.29999999981,115587.397,122739.939,,,
Question 2,html.Screen,0_2_0_3,2021-11-12T10:28:27.931Z,,,,,,,,,,,,,,,,,,,,,,,,,,,false,TRUE,,272.5610000000015,,response,,,99,C,,,,,FALSE,click #choice-2,,,,silence,,123013.59999999963,123012.5,122723.253,122734.19999999972,122739.939,123039.203,,,
Item 99,flow.Sequence,0_2_0,2021-11-12T10:28:27.931Z,,,,,,,,,,,,,,,,,,,,,,,,,,,,,,64468.626,,completion,,,,,,,,,,,,,,,,123014,123012.5,58527.196,58539.19999999972,58543.874,123039.203,,,
Holding screen,html.Screen,0_2_1_0,2021-11-12T10:28:37.951Z,,,,,,,,,,,,,,,,,,,,,,,,,,,,,,10002.365000000005,,timeout,,,,,,,,,,,,,,,,133033.3999999999,133024.898,123022.534,123014.3999999999,123039.203,133041.568,,,
screen,html.Screen,0_2_1_1_0,2021-11-12T10:28:39.466Z,,,,,,,,,,,,,,,,54,,,,,,,,,,,,,,1506.4320000000007,,response,,,100,,,,,,Space,keypress(Space),,,,,At --- ---- --- ------ ----- ------- ---- -- --- ------- --<br>------- ---------- ------ -- ----- -- ----- -- ---- ------<br>--- ----- --- --- ------ -------- ----- --- ------ ----- --<br>----- ----- ---------- --- --- ------ ------ ---- -- ------<br>------- --- ------ ----- --- ---- ------- -- ---- --- --<br>------- ------,134548.8999999999,134548,133024.898,133034,133041.568,134558.659,,0,At
screen,html.Screen,0_2_1_1_1,2021-11-12T10:28:39.986Z,,,,,,,,,,,,,,,,54,,,,,,,,,,,,,,509.24099999989267,,response,,,100,,,,,,Space,keypress(Space),,,,,-- the ---- --- ------ ----- ------- ---- -- --- ------- --<br>------- ---------- ------ -- ----- -- ----- -- ---- ------<br>--- ----- --- --- ------ -------- ----- --- ------ ----- --<br>----- ----- ---------- --- --- ------ ------ ---- -- ------<br>------- --- ------ ----- --- ---- ------- -- ---- --- --<br>------- ------,135068.69999999972,135067.8999999999,134541.989,134549.19999999972,134558.659,135075.593,,1,the
screen,html.Screen,0_2_1_1_2,2021-11-12T10:28:40.522Z,,,,,,,,,,,,,,,,54,,,,,,,,,,,,,,528.2069999998203,,response,,,100,,,,,,Space,keypress(Space),,,,,-- --- time --- ------ ----- ------- ---- -- --- ------- --<br>------- ---------- ------ -- ----- -- ----- -- ---- ------<br>--- ----- --- --- ------ -------- ----- --- ------ ----- --<br>----- ----- ---------- --- --- ------ ------ ---- -- ------<br>------- --- ------ ----- --- ---- ------- -- ---- --- --<br>------- ------,135604.59999999963,135603.7999999998,135058.922,135068.8999999999,135075.593,135608.98,,2,time
screen,html.Screen,0_2_1_1_3,2021-11-12T10:28:41.138Z,,,,,,,,,,,,,,,,54,,,,,,,,,,,,,,611.2199999997101,,response,,,100,,,,,,Space,keypress(Space),,,,,-- --- ---- the ------ ----- ------- ---- -- --- ------- --<br>------- ---------- ------ -- ----- -- ----- -- ---- ------<br>--- ----- --- --- ------ -------- ----- --- ------ ----- --<br>----- ----- ---------- --- --- ------ ------ ---- -- ------<br>------- --- ------ ----- --- ---- ------- -- ---- --- --<br>------- ------,136221.09999999963,136220.19999999972,135592.31,135604.7999999998,135608.98,136225.79,,3,the
screen,html.Screen,0_2_1_1_4,2021-11-12T10:28:41.690Z,,,,,,,,,,,,,,,,54,,,,,,,,,,,,,,545.9099999997125,,response,,,100,,,,,,Space,keypress(Space),,,,,-- --- ---- --- French ----- ------- ---- -- --- ------- --<br>------- ---------- ------ -- ----- -- ----- -- ---- ------<br>--- ----- --- --- ------ -------- ----- --- ------ ----- --<br>----- ----- ---------- --- --- ------ ------ ---- -- ------<br>------- --- ------ ----- --- ---- ------- -- ---- --- --<br>------- ------,136772.59999999963,136771.69999999972,136209.12,136221.3999999999,136225.79,136775.91,,4,French
screen,html.Screen,0_2_1_1_5,2021-11-12T10:28:42.282Z,,,,,,,,,,,,,,,,54,,,,,,,,,,,,,,587.7899999997171,,response,,,100,,,,,,Space,keypress(Space),,,,,-- --- ---- --- ------ crown ------- ---- -- --- ------- --<br>------- ---------- ------ -- ----- -- ----- -- ---- ------<br>--- ----- --- --- ------ -------- ----- --- ------ ----- --<br>----- ----- ---------- --- --- ------ ------ ---- -- ------<br>------- --- ------ ----- --- ---- ------- -- ---- --- --<br>------- ------,137364.7999999998,137363.69999999972,136759.24,136772.7999999998,136775.91,137376.084,,5,crown
screen,html.Screen,0_2_1_1_6,2021-11-12T10:28:43.130Z,,,,,,,,,,,,,,,,54,,,,,,,,,,,,,,835.615999999718,,response,,,100,,,,,,Space,keypress(Space),,,,,-- --- ---- --- ------ ----- secured ---- -- --- ------- --<br>------- ---------- ------ -- ----- -- ----- -- ---- ------<br>--- ----- --- --- ------ -------- ----- --- ------ ----- --<br>----- ----- ---------- --- --- ------ ------ ---- -- ------<br>------- --- ------ ----- --- ---- ------- -- ---- --- --<br>------- ------,138212.5,138211.69999999972,137359.414,137365,137376.084,138226.234,,6,secured
screen,html.Screen,0_2_1_1_7,2021-11-12T10:28:43.346Z,,,,,,,,,,,,,,,,54,,,,,,,,,,,,,,201.46599999972386,,response,,,100,,,,,,Space,keypress(Space),,,,,-- --- ---- --- ------ ----- ------- much -- --- ------- --<br>------- ---------- ------ -- ----- -- ----- -- ---- ------<br>--- ----- --- --- ------ -------- ----- --- ------ ----- --<br>----- ----- ---------- --- --- ------ ------ ---- -- ------<br>------- --- ------ ----- --- ---- ------- -- ---- --- --<br>------- ------,138428.5,138427.69999999972,138209.564,138213.5,138226.234,138443.025,,7,much
screen,html.Screen,0_2_1_1_8,2021-11-12T10:28:44.330Z,,,,,,,,,,,,,,,,54,,,,,,,,,,,,,,968.5749999996333,,response,,,100,,,,,,Space,keypress(Space),,,,,-- --- ---- --- ------ ----- ------- ---- of --- ------- --<br>------- ---------- ------ -- ----- -- ----- -- ---- ------<br>--- ----- --- --- ------ -------- ----- --- ------ ----- --<br>----- ----- ---------- --- --- ------ ------ ---- -- ------<br>------- --- ------ ----- --- ---- ------- -- ---- --- --<br>------- ------,139412.3999999999,139411.59999999963,138426.355,138428.69999999972,138443.025,139426.553,,8,of
screen,html.Screen,0_2_1_1_9,2021-11-12T10:28:44.850Z,,,,,,,,,,,,,,,,54,,,,,,,,,,,,,,505.04699999961304,,response,,,100,,,,,,Space,keypress(Space),,,,,-- --- ---- --- ------ ----- ------- ---- -- its ------- --<br>------- ---------- ------ -- ----- -- ----- -- ---- ------<br>--- ----- --- --- ------ -------- ----- --- ------ ----- --<br>----- ----- ---------- --- --- ------ ------ ---- -- ------<br>------- --- ------ ----- --- ---- ------- -- ---- --- --<br>------- ------,139932.3999999999,139931.59999999963,139409.883,139412.69999999972,139426.553,139943.36,,9,its
screen,html.Screen,0_2_1_1_10,2021-11-12T10:28:45.490Z,,,,,,,,,,,,,,,,54,,,,,,,,,,,,,,628.140000000014,,response,,,100,,,,,,Space,keypress(Space),,,,,-- --- ---- --- ------ ----- ------- ---- -- --- revenue --<br>------- ---------- ------ -- ----- -- ----- -- ---- ------<br>--- ----- --- --- ------ -------- ----- --- ------ ----- --<br>----- ----- ---------- --- --- ------ ------ ---- -- ------<br>------- --- ------ ----- --- ---- ------- -- ---- --- --<br>------- ------,140572.2999999998,140571.5,139926.69,139932.69999999972,139943.36,140576.868,,10,revenue
screen,html.Screen,0_2_1_1_11,2021-11-12T10:28:46.274Z,,,,,,,,,,,,,,,,54,,,,,,,,,,,,,,778.6320000000123,,response,,,100,,,,,,Space,keypress(Space),,,,,-- --- ---- --- ------ ----- ------- ---- -- --- ------- by<br>------- ---------- ------ -- ----- -- ----- -- ---- ------<br>--- ----- --- --- ------ -------- ----- --- ------ ----- --<br>----- ----- ---------- --- --- ------ ------ ---- -- ------<br>------- --- ------ ----- --- ---- ------- -- ---- --- --<br>------- ------,141356.2999999998,141355.5,140560.198,140572.59999999963,140576.868,141360.337,,11,by
screen,html.Screen,0_2_1_1_12,2021-11-12T10:28:48.162Z,,,,,,,,,,,,,,,,54,,,,,,,,,,,,,,1883.0629999999073,,response,,,100,,,,,,Space,keypress(Space),,,,,-- --- ---- --- ------ ----- ------- ---- -- --- ------- --<br>issuing ---------- ------ -- ----- -- ----- -- ---- ------<br>--- ----- --- --- ------ -------- ----- --- ------ ----- --<br>----- ----- ---------- --- --- ------ ------ ---- -- ------<br>------- --- ------ ----- --- ---- ------- -- ---- --- --<br>------- ------,143244.19999999972,143243.3999999999,141343.667,141356.5,141360.337,143260.774,,12,issuing
screen,html.Screen,0_2_1_1_13,2021-11-12T10:28:48.761Z,,,,,,,,,,,,,,,,54,,,,,,,,,,,,,,582.5259999998088,,response,,,100,,,,,,Space,keypress(Space),,,,,-- --- ---- --- ------ ----- ------- ---- -- --- ------- --<br>------- government ------ -- ----- -- ----- -- ---- ------<br>--- ----- --- --- ------ -------- ----- --- ------ ----- --<br>----- ----- ---------- --- --- ------ ------ ---- -- ------<br>------- --- ------ ----- --- ---- ------- -- ---- --- --<br>------- ------,143844.09999999963,143843.2999999998,143244.104,143244.3999999999,143260.774,143860.966,,13,government
screen,html.Screen,0_2_1_1_14,2021-11-12T10:28:49.353Z,,,,,,,,,,,,,,,,54,,,,,,,,,,,,,,574.2339999997348,,response,,,100,,,,,,Space,keypress(Space),,,,,-- --- ---- --- ------ ----- ------- ---- -- --- ------- --<br>------- ---------- bonds. -- ----- -- ----- -- ---- ------<br>--- ----- --- --- ------ -------- ----- --- ------ ----- --<br>----- ----- ---------- --- --- ------ ------ ---- -- ------<br>------- --- ------ ----- --- ---- ------- -- ---- --- --<br>------- ------,144436,144435.19999999972,143844.296,143844.2999999998,143860.966,144444.45,,14,bonds.
screen,html.Screen,0_2_1_1_15,2021-11-12T10:28:49.945Z,,,,,,,,,,,,,,,,54,,,,,,,,,,,,,,582.749999999709,,response,,,100,,,,,,Space,keypress(Space),,,,,-- --- ---- --- ------ ----- ------- ---- -- --- ------- --<br>------- ---------- ------ In ----- -- ----- -- ---- ------<br>--- ----- --- --- ------ -------- ----- --- ------ ----- --<br>----- ----- ---------- --- --- ------ ------ ---- -- ------<br>------- --- ------ ----- --- ---- ------- -- ---- --- --<br>------- ------,145028,145027.19999999972,144427.78,144436.2999999998,144444.45,145044.474,,15,In
screen,html.Screen,0_2_1_1_16,2021-11-12T10:28:51.001Z,,,,,,,,,,,,,,,,54,,,,,,,,,,,,,,1038.62599999964,,response,,,100,,,,,,Space,keypress(Space),,,,,"-- --- ---- --- ------ ----- ------- ---- -- --- ------- --<br>------- ---------- ------ -- 1727, -- ----- -- ---- ------<br>--- ----- --- --- ------ -------- ----- --- ------ ----- --<br>----- ----- ---------- --- --- ------ ------ ---- -- ------<br>------- --- ------ ----- --- ---- ------- -- ---- --- --<br>------- ------",146083.8999999999,146083.09999999963,145027.805,145028.2999999998,145044.474,146094.923,,16,"1727,"
screen,html.Screen,0_2_1_1_17,2021-11-12T10:28:51.578Z,,,,,,,,,,,,,,,,54,,,,,,,,,,,,,,564.4769999998971,,response,,,100,,,,,,Space,keypress(Space),,,,,-- --- ---- --- ------ ----- ------- ---- -- --- ------- --<br>------- ---------- ------ -- ----- in ----- -- ---- ------<br>--- ----- --- --- ------ -------- ----- --- ------ ----- --<br>----- ----- ---------- --- --- ------ ------ ---- -- ------<br>------- --- ------ ----- --- ---- ------- -- ---- --- --<br>------- ------,146660.19999999972,146659.3999999999,146078.252,146084.09999999963,146094.923,146661.507,,17,in
screen,html.Screen,0_2_1_1_18,2021-11-12T10:28:52.161Z,,,,,,,,,,,,,,,,54,,,,,,,,,,,,,,581.4929999999877,,response,,,100,,,,,,Space,keypress(Space),,,,,-- --- ---- --- ------ ----- ------- ---- -- --- ------- --<br>------- ---------- ------ -- ----- -- order -- ---- ------<br>--- ----- --- --- ------ -------- ----- --- ------ ----- --<br>----- ----- ---------- --- --- ------ ------ ---- -- ------<br>------- --- ------ ----- --- ---- ------- -- ---- --- --<br>------- ------,147243.8999999999,147243,146644.838,146660.5,146661.507,147245.186,,18,order
screen,html.Screen,0_2_1_1_19,2021-11-12T10:28:52.641Z,,,,,,,,,,,,,,,,54,,,,,,,,,,,,,,477.81400000001304,,response,,,100,,,,,,Space,keypress(Space),,,,,-- --- ---- --- ------ ----- ------- ---- -- --- ------- --<br>------- ---------- ------ -- ----- -- ----- to ---- ------<br>--- ----- --- --- ------ -------- ----- --- ------ ----- --<br>----- ----- ---------- --- --- ------ ------ ---- -- ------<br>------- --- ------ ----- --- ---- ------- -- ---- --- --<br>------- ------,147723.7999999998,147723,147228.515,147244.09999999963,147245.186,147728.602,,19,to
screen,html.Screen,0_2_1_1_20,2021-11-12T10:28:53.225Z,,,,,,,,,,,,,,,,54,,,,,,,,,,,,,,578.3979999999865,,response,,,100,,,,,,Space,keypress(Space),,,,,-- --- ---- --- ------ ----- ------- ---- -- --- ------- --<br>------- ---------- ------ -- ----- -- ----- -- save ------<br>--- ----- --- --- ------ -------- ----- --- ------ ----- --<br>----- ----- ---------- --- --- ------ ------ ---- -- ------<br>------- --- ------ ----- --- ---- ------- -- ---- --- --<br>------- ------,148307.7999999998,148307,147711.932,147724.09999999963,147728.602,148311.876,,20,save
screen,html.Screen,0_2_1_1_21,2021-11-12T10:28:54.089Z,,,,,,,,,,,,,,,,54,,,,,,,,,,,,,,859.0239999999176,,response,,,100,,,,,,Space,keypress(Space),,,,,"-- --- ---- --- ------ ----- ------- ---- -- --- ------- --<br>------- ---------- ------ -- ----- -- ----- -- ---- money,<br>--- ----- --- --- ------ -------- ----- --- ------ ----- --<br>----- ----- ---------- --- --- ------ ------ ---- -- ------<br>------- --- ------ ----- --- ---- ------- -- ---- --- --<br>------- ------",149171.59999999963,149170.8999999999,148295.208,148308,148311.876,149179.102,,21,"money,"
screen,html.Screen,0_2_1_1_22,2021-11-12T10:28:55.241Z,,,,,,,,,,,,,,,,54,,,,,,,,,,,,,,1143.597999999707,,response,,,100,,,,,,Space,keypress(Space),,,,,-- --- ---- --- ------ ----- ------- ---- -- --- ------- --<br>------- ---------- ------ -- ----- -- ----- -- ---- ------<br>the ----- --- --- ------ -------- ----- --- ------ ----- --<br>----- ----- ---------- --- --- ------ ------ ---- -- ------<br>------- --- ------ ----- --- ---- ------- -- ---- --- --<br>------- ------,150323.59999999963,150322.69999999972,149162.43,149171.8999999999,149179.102,150329.004,,22,the
screen,html.Screen,0_2_1_1_23,2021-11-12T10:28:55.777Z,,,,,,,,,,,,,,,,54,,,,,,,,,,,,,,529.6959999997343,,response,,,100,,,,,,Space,keypress(Space),,,,,-- --- ---- --- ------ ----- ------- ---- -- --- ------- --<br>------- ---------- ------ -- ----- -- ----- -- ---- ------<br>--- state --- --- ------ -------- ----- --- ------ ----- --<br>----- ----- ---------- --- --- ------ ------ ---- -- ------<br>------- --- ------ ----- --- ---- ------- -- ---- --- --<br>------- ------,150859.59999999963,150858.69999999972,150312.335,150323.7999999998,150329.004,150862.676,,23,state
screen,html.Screen,0_2_1_1_24,2021-11-12T10:28:56.281Z,,,,,,,,,,,,,,,,54,,,,,,,,,,,,,,500.123999999807,,response,,,100,,,,,,Space,keypress(Space),,,,,-- --- ---- --- ------ ----- ------- ---- -- --- ------- --<br>------- ---------- ------ -- ----- -- ----- -- ---- ------<br>--- ----- cut --- ------ -------- ----- --- ------ ----- --<br>----- ----- ---------- --- --- ------ ------ ---- -- ------<br>------- --- ------ ----- --- ---- ------- -- ---- --- --<br>------- ------,151363.5,151362.7999999998,150846.006,150859.69999999972,150862.676,151379.481,,24,cut
screen,html.Screen,0_2_1_1_25,2021-11-12T10:28:56.769Z,,,,,,,,,,,,,,,,54,,,,,,,,,,,,,,471.31899999981397,,response,,,100,,,,,,Space,keypress(Space),,,,,-- --- ---- --- ------ ----- ------- ---- -- --- ------- --<br>------- ---------- ------ -- ----- -- ----- -- ---- ------<br>--- ----- --- the ------ -------- ----- --- ------ ----- --<br>----- ----- ---------- --- --- ------ ------ ---- -- ------<br>------- --- ------ ----- --- ---- ------- -- ---- --- --<br>------- ------,151851.59999999963,151850.7999999998,151362.811,151363.69999999972,151379.481,151862.924,,25,the
screen,html.Screen,0_2_1_1_26,2021-11-12T10:28:57.377Z,,,,,,,,,,,,,,,,54,,,,,,,,,,,,,,595.7759999997215,,response,,,100,,,,,,Space,keypress(Space),,,,,-- --- ---- --- ------ ----- ------- ---- -- --- ------- --<br>------- ---------- ------ -- ----- -- ----- -- ---- ------<br>--- ----- --- --- bonds' -------- ----- --- ------ ----- --<br>----- ----- ---------- --- --- ------ ------ ---- -- ------<br>------- --- ------ ----- --- ---- ------- -- ---- --- --<br>------- ------,152459.5,152458.69999999972,151846.254,151851.7999999998,151862.924,152463.079,,26,bonds'
screen,html.Screen,0_2_1_1_27,2021-11-12T10:28:57.969Z,,,,,,,,,,,,,,,,54,,,,,,,,,,,,,,587.5209999996296,,response,,,100,,,,,,Space,keypress(Space),,,,,-- --- ---- --- ------ ----- ------- ---- -- --- ------- --<br>------- ---------- ------ -- ----- -- ----- -- ---- ------<br>--- ----- --- --- ------ interest ----- --- ------ ----- --<br>----- ----- ---------- --- --- ------ ------ ---- -- ------<br>------- --- ------ ----- --- ---- ------- -- ---- --- --<br>------- ------,153051.3999999999,153050.59999999963,152446.409,152459.69999999972,152463.079,153063.09,,27,interest
screen,html.Screen,0_2_1_1_28,2021-11-12T10:28:58.553Z,,,,,,,,,,,,,,,,54,,,,,,,,,,,,,,571.509999999631,,response,,,100,,,,,,Space,keypress(Space),,,,,-- --- ---- --- ------ ----- ------- ---- -- --- ------- --<br>------- ---------- ------ -- ----- -- ----- -- ---- ------<br>--- ----- --- --- ------ -------- rate. --- ------ ----- --<br>----- ----- ---------- --- --- ------ ------ ---- -- ------<br>------- --- ------ ----- --- ---- ------- -- ---- --- --<br>------- ------,153635.3999999999,153634.59999999963,153046.421,153051.7999999998,153063.09,153646.756,,28,rate.
screen,html.Screen,0_2_1_1_29,2021-11-12T10:28:59.201Z,,,,,,,,,,,,,,,,54,,,,,,,,,,,,,,635.744000000006,,response,,,100,,,,,,Space,keypress(Space),,,,,-- --- ---- --- ------ ----- ------- ---- -- --- ------- --<br>------- ---------- ------ -- ----- -- ----- -- ---- ------<br>--- ----- --- --- ------ -------- ----- The ------ ----- --<br>----- ----- ---------- --- --- ------ ------ ---- -- ------<br>------- --- ------ ----- --- ---- ------- -- ---- --- --<br>------- ------,154283.3999999999,154282.5,153630.085,153635.69999999972,153646.756,154296.845,,29,The
screen,html.Screen,0_2_1_1_30,2021-11-12T10:28:59.905Z,,,,,,,,,,,,,,,,54,,,,,,,,,,,,,,689.6549999999988,,response,,,100,,,,,,Space,keypress(Space),,,,,-- --- ---- --- ------ ----- ------- ---- -- --- ------- --<br>------- ---------- ------ -- ----- -- ----- -- ---- ------<br>--- ----- --- --- ------ -------- ----- --- market ----- --<br>----- ----- ---------- --- --- ------ ------ ---- -- ------<br>------- --- ------ ----- --- ---- ------- -- ---- --- --<br>------- ------,154987.19999999972,154986.5,154280.175,154283.69999999972,154296.845,154996.889,,30,market
screen,html.Screen,0_2_1_1_31,2021-11-12T10:29:00.521Z,,,,,,,,,,,,,,,,54,,,,,,,,,,,,,,605.6110000000044,,response,,,100,,,,,,Space,keypress(Space),,,,,-- --- ---- --- ------ ----- ------- ---- -- --- ------- --<br>------- ---------- ------ -- ----- -- ----- -- ---- ------<br>--- ----- --- --- ------ -------- ----- --- ------ value --<br>----- ----- ---------- --- --- ------ ------ ---- -- ------<br>------- --- ------ ----- --- ---- ------- -- ---- --- --<br>------- ------,155603.19999999972,155602.5,154980.22,154987.5,154996.889,155613.893,,31,value
screen,html.Screen,0_2_1_1_32,2021-11-12T10:29:01.321Z,,,,,,,,,,,,,,,,54,,,,,,,,,,,,,,788.5069999998959,,response,,,100,,,,,,Space,keypress(Space),,,,,-- --- ---- --- ------ ----- ------- ---- -- --- ------- --<br>------- ---------- ------ -- ----- -- ----- -- ---- ------<br>--- ----- --- --- ------ -------- ----- --- ------ ----- of<br>----- ----- ---------- --- --- ------ ------ ---- -- ------<br>------- --- ------ ----- --- ---- ------- -- ---- --- --<br>------- ------,156403.19999999972,156402.3999999999,155597.222,155603.5,155613.893,156414.017,,32,of
screen,html.Screen,0_2_1_1_33,2021-11-12T10:29:01.921Z,,,,,,,,,,,,,,,,54,,,,,,,,,,,,,,588.682999999728,,response,,,100,,,,,,Space,keypress(Space),,,,,-- --- ---- --- ------ ----- ------- ---- -- --- ------- --<br>------- ---------- ------ -- ----- -- ----- -- ---- ------<br>--- ----- --- --- ------ -------- ----- --- ------ ----- --<br>these ----- ---------- --- --- ------ ------ ---- -- ------<br>------- --- ------ ----- --- ---- ------- -- ---- --- --<br>------- ------,157003.5,157002.69999999972,156397.347,156403.5,156414.017,157014.172,,33,these
screen,html.Screen,0_2_1_1_34,2021-11-12T10:29:02.392Z,,,,,,,,,,,,,,,,54,,,,,,,,,,,,,,460.12799999982235,,response,,,100,,,,,,Space,keypress(Space),,,,,-- --- ---- --- ------ ----- ------- ---- -- --- ------- --<br>------- ---------- ------ -- ----- -- ----- -- ---- ------<br>--- ----- --- --- ------ -------- ----- --- ------ ----- --<br>----- bonds ---------- --- --- ------ ------ ---- -- ------<br>------- --- ------ ----- --- ---- ------- -- ---- --- --<br>------- ------,157475.09999999963,157474.2999999998,156997.502,157003.69999999972,157014.172,157480.963,,34,bonds
screen,html.Screen,0_2_1_1_35,2021-11-12T10:29:03.392Z,,,,,,,,,,,,,,,,54,,,,,,,,,,,,,,993.3369999998249,,response,,,100,,,,,,Space,keypress(Space),,,,,"-- --- ---- --- ------ ----- ------- ---- -- --- ------- --<br>------- ---------- ------ -- ----- -- ----- -- ---- ------<br>--- ----- --- --- ------ -------- ----- --- ------ ----- --<br>----- ----- plummeted, --- --- ------ ------ ---- -- ------<br>------- --- ------ ----- --- ---- ------- -- ---- --- --<br>------- ------",158475.09999999963,158474.2999999998,157464.293,157475.2999999998,157480.963,158481.184,,35,"plummeted,"
screen,html.Screen,0_2_1_1_36,2021-11-12T10:29:03.992Z,,,,,,,,,,,,,,,,54,,,,,,,,,,,,,,593.0159999997122,,response,,,100,,,,,,Space,keypress(Space),,,,,-- --- ---- --- ------ ----- ------- ---- -- --- ------- --<br>------- ---------- ------ -- ----- -- ----- -- ---- ------<br>--- ----- --- --- ------ -------- ----- --- ------ ----- --<br>----- ----- ---------- and --- ------ ------ ---- -- ------<br>------- --- ------ ----- --- ---- ------- -- ---- --- --<br>------- ------,159075,159074.19999999972,158464.514,158475.2999999998,158481.184,159081.342,,36,and
screen,html.Screen,0_2_1_1_37,2021-11-12T10:29:04.512Z,,,,,,,,,,,,,,,,54,,,,,,,,,,,,,,512.8579999997164,,response,,,100,,,,,,Space,keypress(Space),,,,,-- --- ---- --- ------ ----- ------- ---- -- --- ------- --<br>------- ---------- ------ -- ----- -- ----- -- ---- ------<br>--- ----- --- --- ------ -------- ----- --- ------ ----- --<br>----- ----- ---------- --- the ------ ------ ---- -- ------<br>------- --- ------ ----- --- ---- ------- -- ---- --- --<br>------- ------,159595,159594.19999999972,159064.672,159075.2999999998,159081.342,159598.116,,37,the
screen,html.Screen,0_2_1_1_38,2021-11-12T10:29:05.112Z,,,,,,,,,,,,,,,,54,,,,,,,,,,,,,,595.9839999996184,,response,,,100,,,,,,Space,keypress(Space),,,,,-- --- ---- --- ------ ----- ------- ---- -- --- ------- --<br>------- ---------- ------ -- ----- -- ----- -- ---- ------<br>--- ----- --- --- ------ -------- ----- --- ------ ----- --<br>----- ----- ---------- --- --- market ------ ---- -- ------<br>------- --- ------ ----- --- ---- ------- -- ---- --- --<br>------- ------,160195,160194.09999999963,159581.446,159595.19999999972,159598.116,160198.269,,38,market
screen,html.Screen,0_2_1_1_39,2021-11-12T10:29:05.648Z,,,,,,,,,,,,,,,,54,,,,,,,,,,,,,,531.8309999996272,,response,,,100,,,,,,Space,keypress(Space),,,,,-- --- ---- --- ------ ----- ------- ---- -- --- ------- --<br>------- ---------- ------ -- ----- -- ----- -- ---- ------<br>--- ----- --- --- ------ -------- ----- --- ------ ----- --<br>----- ----- ---------- --- --- ------ became ---- -- ------<br>------- --- ------ ----- --- ---- ------- -- ---- --- --<br>------- ------,160730.8999999999,160730.09999999963,160181.599,160195.09999999963,160198.269,160748.423,,39,became
screen,html.Screen,0_2_1_1_40,2021-11-12T10:29:06.424Z,,,,,,,,,,,,,,,,54,,,,,,,,,,,,,,757.6769999996177,,response,,,100,,,,,,Space,keypress(Space),,,,,-- --- ---- --- ------ ----- ------- ---- -- --- ------- --<br>------- ---------- ------ -- ----- -- ----- -- ---- ------<br>--- ----- --- --- ------ -------- ----- --- ------ ----- --<br>----- ----- ---------- --- --- ------ ------ wary -- ------<br>------- --- ------ ----- --- ---- ------- -- ---- --- --<br>------- ------,161506.7999999998,161506.09999999963,160731.753,160731.19999999972,160748.423,161515.249,,40,wary
screen,html.Screen,0_2_1_1_41,2021-11-12T10:29:07.104Z,,,,,,,,,,,,,,,,54,,,,,,,,,,,,,,670.7509999999893,,response,,,100,,,,,,Space,keypress(Space),,,,,-- --- ---- --- ------ ----- ------- ---- -- --- ------- --<br>------- ---------- ------ -- ----- -- ----- -- ---- ------<br>--- ----- --- --- ------ -------- ----- --- ------ ----- --<br>----- ----- ---------- --- --- ------ ------ ---- of ------<br>------- --- ------ ----- --- ---- ------- -- ---- --- --<br>------- ------,162186.7999999998,162186,161498.579,161507.19999999972,161515.249,162198.615,,41,of
screen,html.Screen,0_2_1_1_42,2021-11-12T10:29:08.448Z,,,,,,,,,,,,,,,,54,,,,,,,,,,,,,,1331.2849999999162,,response,,,100,,,,,,Space,keypress(Space),,,,,-- --- ---- --- ------ ----- ------- ---- -- --- ------- --<br>------- ---------- ------ -- ----- -- ----- -- ---- ------<br>--- ----- --- --- ------ -------- ----- --- ------ ----- --<br>----- ----- ---------- --- --- ------ ------ ---- -- French<br>------- --- ------ ----- --- ---- ------- -- ---- --- --<br>------- ------,163530.69999999972,163529.8999999999,162181.946,162187,162198.615,163532.495,,42,French
screen,html.Screen,0_2_1_1_43,2021-11-12T10:29:09.944Z,,,,,,,,,,,,,,,,54,,,,,,,,,,,,,,1493.4049999999115,,response,,,100,,,,,,Space,keypress(Space),,,,,-- --- ---- --- ------ ----- ------- ---- -- --- ------- --<br>------- ---------- ------ -- ----- -- ----- -- ---- ------<br>--- ----- --- --- ------ -------- ----- --- ------ ----- --<br>----- ----- ---------- --- --- ------ ------ ---- -- ------<br>credit. --- ------ ----- --- ---- ------- -- ---- --- --<br>------- ------,165026.59999999963,165025.8999999999,163515.824,163530.8999999999,163532.495,165032.744,,43,credit.
screen,html.Screen,0_2_1_1_44,2021-11-12T10:29:10.520Z,,,,,,,,,,,,,,,,54,,,,,,,,,,,,,,569.0559999998077,,response,,,100,,,,,,Space,keypress(Space),,,,,-- --- ---- --- ------ ----- ------- ---- -- --- ------- --<br>------- ---------- ------ -- ----- -- ----- -- ---- ------<br>--- ----- --- --- ------ -------- ----- --- ------ ----- --<br>----- ----- ---------- --- --- ------ ------ ---- -- ------<br>------- The ------ ----- --- ---- ------- -- ---- --- --<br>------- ------,165602.59999999963,165601.7999999998,165016.074,165026.8999999999,165032.744,165616.228,,44,The
screen,html.Screen,0_2_1_1_45,2021-11-12T10:29:11.192Z,,,,,,,,,,,,,,,,54,,,,,,,,,,,,,,657.4719999997178,,response,,,100,,,,,,Space,keypress(Space),,,,,-- --- ---- --- ------ ----- ------- ---- -- --- ------- --<br>------- ---------- ------ -- ----- -- ----- -- ---- ------<br>--- ----- --- --- ------ -------- ----- --- ------ ----- --<br>----- ----- ---------- --- --- ------ ------ ---- -- ------<br>------- --- French ----- --- ---- ------- -- ---- --- --<br>------- ------,166274.5,166273.69999999972,165599.558,165603,165616.228,166283.017,,45,French
screen,html.Screen,0_2_1_1_46,2021-11-12T10:29:11.792Z,,,,,,,,,,,,,,,,54,,,,,,,,,,,,,,590.5829999996349,,response,,,100,,,,,,Space,keypress(Space),,,,,-- --- ---- --- ------ ----- ------- ---- -- --- ------- --<br>------- ---------- ------ -- ----- -- ----- -- ---- ------<br>--- ----- --- --- ------ -------- ----- --- ------ ----- --<br>----- ----- ---------- --- --- ------ ------ ---- -- ------<br>------- --- ------ state --- ---- ------- -- ---- --- --<br>------- ------,166874.59999999963,166873.59999999963,166266.347,166274.7999999998,166283.017,166883.382,,46,state
screen,html.Screen,0_2_1_1_47,2021-11-12T10:29:12.752Z,,,,,,,,,,,,,,,,54,,,,,,,,,,,,,,950.5179999998945,,response,,,100,,,,,,Space,keypress(Space),,,,,-- --- ---- --- ------ ----- ------- ---- -- --- ------- --<br>------- ---------- ------ -- ----- -- ----- -- ---- ------<br>--- ----- --- --- ------ -------- ----- --- ------ ----- --<br>----- ----- ---------- --- --- ------ ------ ---- -- ------<br>------- --- ------ ----- was ---- ------- -- ---- --- --<br>------- ------,167834.59999999963,167833.8999999999,166866.71,166874.8999999999,166883.382,167850.101,,47,was
screen,html.Screen,0_2_1_1_48,2021-11-12T10:29:13.408Z,,,,,,,,,,,,,,,,54,,,,,,,,,,,,,,639.3990000000049,,response,,,100,,,,,,Space,keypress(Space),,,,,-- --- ---- --- ------ ----- ------- ---- -- --- ------- --<br>------- ---------- ------ -- ----- -- ----- -- ---- ------<br>--- ----- --- --- ------ -------- ----- --- ------ ----- --<br>----- ----- ---------- --- --- ------ ------ ---- -- ------<br>------- --- ------ ----- --- left ------- -- ---- --- --<br>------- ------,168490.3999999999,168489.5,167833.431,167834.8999999999,167850.101,168500.317,,48,left
screen,html.Screen,0_2_1_1_49,2021-11-12T10:29:14.064Z,,,,,,,,,,,,,,,,54,,,,,,,,,,,,,,645.18299999999,,response,,,100,,,,,,Space,keypress(Space),,,,,-- --- ---- --- ------ ----- ------- ---- -- --- ------- --<br>------- ---------- ------ -- ----- -- ----- -- ---- ------<br>--- ----- --- --- ------ -------- ----- --- ------ ----- --<br>----- ----- ---------- --- --- ------ ------ ---- -- ------<br>------- --- ------ ----- --- ---- without -- ---- --- --<br>------- ------,169146.2999999998,169145.5,168483.647,168490.59999999963,168500.317,169150.464,,49,without
screen,html.Screen,0_2_1_1_50,2021-11-12T10:29:14.904Z,,,,,,,,,,,,,,,,54,,,,,,,,,,,,,,835.0359999999928,,response,,,100,,,,,,Space,keypress(Space),,,,,-- --- ---- --- ------ ----- ------- ---- -- --- ------- --<br>------- ---------- ------ -- ----- -- ----- -- ---- ------<br>--- ----- --- --- ------ -------- ----- --- ------ ----- --<br>----- ----- ---------- --- --- ------ ------ ---- -- ------<br>------- --- ------ ----- --- ---- ------- an ---- --- --<br>------- ------,169986.19999999972,169985.5,169133.794,169146.5,169150.464,170000.5,,50,an
screen,html.Screen,0_2_1_1_51,2021-11-12T10:29:15.520Z,,,,,,,,,,,,,,,,54,,,,,,,,,,,,,,600.8999999999069,,response,,,100,,,,,,Space,keypress(Space),,,,,-- --- ---- --- ------ ----- ------- ---- -- --- ------- --<br>------- ---------- ------ -- ----- -- ----- -- ---- ------<br>--- ----- --- --- ------ -------- ----- --- ------ ----- --<br>----- ----- ---------- --- --- ------ ------ ---- -- ------<br>------- --- ------ ----- --- ---- ------- -- easy --- --<br>------- ------,170602.2999999998,170601.3999999999,169983.831,169986.3999999999,170000.5,170617.571,,51,easy
screen,html.Screen,0_2_1_1_52,2021-11-12T10:29:16.112Z,,,,,,,,,,,,,,,,54,,,,,,,,,,,,,,575.8289999999106,,response,,,100,,,,,,Space,keypress(Space),,,,,-- --- ---- --- ------ ----- ------- ---- -- --- ------- --<br>------- ---------- ------ -- ----- -- ----- -- ---- ------<br>--- ----- --- --- ------ -------- ----- --- ------ ----- --<br>----- ----- ---------- --- --- ------ ------ ---- -- ------<br>------- --- ------ ----- --- ---- ------- -- ---- way --<br>------- ------,171194.19999999972,171193.3999999999,170600.9,170602.3999999999,170617.571,171200.958,,52,way
screen,html.Screen,0_2_1_1_53,2021-11-12T10:29:17.383Z,,,,,,,,,,,,,,,,54,,,,,,,,,,,,,,1264.3419999998005,,response,,,100,,,,,,Space,keypress(Space),,,,,-- --- ---- --- ------ ----- ------- ---- -- --- ------- --<br>------- ---------- ------ -- ----- -- ----- -- ---- ------<br>--- ----- --- --- ------ -------- ----- --- ------ ----- --<br>----- ----- ---------- --- --- ------ ------ ---- -- ------<br>------- --- ------ ----- --- ---- ------- -- ---- --- of<br>------- ------,172466.09999999963,172465.2999999998,171184.288,171194.3999999999,171200.958,172467.883,,53,of
screen,html.Screen,0_2_1_1_54,2021-11-12T10:29:18.423Z,,,,,,,,,,,,,,,,54,,,,,,,,,,,,,,1037.316999999719,,response,,,100,,,,,,Space,keypress(Space),,,,,-- --- ---- --- ------ ----- ------- ---- -- --- ------- --<br>------- ---------- ------ -- ----- -- ----- -- ---- ------<br>--- ----- --- --- ------ -------- ----- --- ------ ----- --<br>----- ----- ---------- --- --- ------ ------ ---- -- ------<br>------- --- ------ ----- --- ---- ------- -- ---- --- --<br>raising ------,173506,173505.19999999972,172451.213,172466.2999999998,172467.883,173518.138,,54,raising
screen,html.Screen,0_2_1_1_55,2021-11-12T10:29:21.543Z,,,,,,,,,,,,,,,,54,,,,,,,,,,,,,,3106.8619999999937,,response,,,100,,,,,,Space,keypress(Space),,,,,-- --- ---- --- ------ ----- ------- ---- -- --- ------- --<br>------- ---------- ------ -- ----- -- ----- -- ---- ------<br>--- ----- --- --- ------ -------- ----- --- ------ ----- --<br>----- ----- ---------- --- --- ------ ------ ---- -- ------<br>------- --- ------ ----- --- ---- ------- -- ---- --- --<br>------- money.,176625.7999999998,176625,173501.468,173506.19999999972,173518.138,176635.503,,55,money.
Item 100,flow.Loop,0_2_1_1,2021-11-12T10:29:21.544Z,,,,,,,,,,,,,,,,,,,,,,,,,,,,,,43583.432,,completion,,,,C,,,,,,,,,,silence,,176626.2999999998,176625,133024.898,133033.69999999972,133041.568,176635.503,,,
Question 1,html.Screen,0_2_1_2,2021-11-12T10:29:29.171Z,,,,,,,,,,,,,,,,,,,,,,,,,,,true,TRUE,,7612.796999999817,,response,,,100,C,,,,,TRUE,click #choice-1,,,,silence,,184249.5,184248.2999999998,176618.833,176626.5,176635.503,184254.006,,,
Question 2,html.Screen,0_2_1_3,2021-11-12T10:29:35.098Z,,,,,,,,,,,,,,,,,,,,,,,,,,,true,FALSE,,5921.893999999913,,response,,,100,C,,,,,FALSE,click #choice-2,,,,silence,,190177,190175.8999999999,184237.337,184249.8999999999,184254.006,190188.774,,,
Item 100,flow.Sequence,0_2_1,2021-11-12T10:29:35.099Z,,,,,,,,,,,,,,,,,,,,,,,,,,,,,,67136.69699999991,,completion,,,,,,,,,,,,,,,,190177.2999999998,190175.8999999999,123022.534,123014.29999999981,123039.203,190188.774,,,
End of Practice,html.Page,0_2_2,2021-11-12T10:29:46.779Z,,,,,,,,,,,,,,,,,,,,,,,,,,,,,,11667.725999999995,,form submission,,,,,,,,,,,,,,,,201857.09999999963,201856.5,190172.105,190177.59999999963,190188.774,201857.924,,,
Practice,flow.Sequence,0_2,2021-11-12T10:29:46.779Z,,,,,,,,,,,,,,,,,,,,,,,,,,,,,,143312.626,,completion,,,,,,,,,,,,,,,,201857.59999999963,201856.5,58527.196,58539.09999999963,58543.874,201857.924,,,
Trap_instruction,html.Page,0_3_0,2021-11-12T10:29:58.410Z,,,,,,,,,,,,,,,,,,,,,,,,,,,,,,11629.675999999628,,form submission,,,,,,,,,,,,,,,,213488.19999999972,213487.59999999963,201841.254,201858,201857.924,213544.032,,,
trap_trial,html.Screen,0_3_1,2021-11-12T10:30:01.785Z,,,,,,,,,,,,,,,,,,,,,,,,,,,true,1,,3317.9679999999935,,response,,,,,,,,,1,click #choice-1,,,,,,216863.19999999972,216862,213477.352,213488.5,213544.032,216878.547,,,
end of trap trial,html.Page,0_3_2,2021-11-12T10:30:05.801Z,,,,,,,,,,,,,,,,,,,,,,,,,,,,,,4000.552999999636,,form submission,,,,,,,,,,,,,,,,220879.69999999972,220879.09999999963,216861.877,216863.59999999963,216878.547,220879.64,,,
Trap 1,flow.Sequence,0_3,2021-11-12T10:30:05.802Z,,,,,,,,,,,,,,,,,,,,,,,,,,,,,,19021.17599999963,,completion,,,,,,,,,,,,,,,,220880.09999999963,220879.09999999963,201841.254,201857.7999999998,201857.924,220879.64,,,
Standby,html.Page,0_4_0,2021-11-12T10:30:13.787Z,,,,,,,,,,,,,,,,,,,,,,,,,,,,,,8001.591999999975,,timeout,,,,,,,,,,,,,,,,228865.59999999963,228864.562,220862.97,220880.5,220879.64,228881.232,,,
Holding screen,html.Screen,0_4_1_0_0,2021-11-12T10:30:20.790Z,,,,,,,,,,,,,,,,,,,,,,,,,,,,,,7002.002000000008,,timeout,,,,,,,,,,,,,,,,235868.09999999963,235866.564,228864.562,228866,228881.232,235883.234,,,
screen,html.Screen,0_4_1_0_1_0,2021-11-12T10:30:23.560Z,,,,,,,,,,,,,,,,15,,,,,,,,,,,,,,2753.8659999996307,,response,,,7,C,,,,,Space,keypress(Space),,,,instrumental,Greg --------- ---------- - --- ------- -- --- ------------<br>----- -- -------- ------- ---- ------ - -------- ---- -----<br>--- ------- ---- -- --- -------- --- - ----- ------ ---- --<br>-------- --- -------- -------- --- -------- ---- -- ----- -<br>-------- ---- --- ---------- --------- -- ------- ------ -<br>--------- ----- -----,238638.09999999963,238637.09999999963,235866.564,235868.69999999972,235883.234,238650.566,,0,Greg
screen,html.Screen,0_4_1_0_1_1,2021-11-12T10:30:24.343Z,,,,,,,,,,,,,,,,15,,,,,,,,,,,,,,770.0339999996359,,response,,,7,C,,,,,Space,keypress(Space),,,,instrumental,"---- Anderson, ---------- - --- ------- -- --- ------------<br>----- -- -------- ------- ---- ------ - -------- ---- -----<br>--- ------- ---- -- --- -------- --- - ----- ------ ---- --<br>-------- --- -------- -------- --- -------- ---- -- ----- -<br>-------- ---- --- ---------- --------- -- ------- ------ -<br>--------- ----- -----",239421.5,239420.59999999963,238633.896,238638.5,238650.566,239434.166,,1,"Anderson,"
screen,html.Screen,0_4_1_0_1_2,2021-11-12T10:30:24.983Z,,,,,,,,,,,,,,,,15,,,,,,,,,,,,,,626.43399999963,,response,,,7,C,,,,,Space,keypress(Space),,,,instrumental,---- --------- considered - --- ------- -- --- ------------<br>----- -- -------- ------- ---- ------ - -------- ---- -----<br>--- ------- ---- -- --- -------- --- - ----- ------ ---- --<br>-------- --- -------- -------- --- -------- ---- -- ----- -<br>-------- ---- --- ---------- --------- -- ------- ------ -<br>--------- ----- -----,240061.5,240060.59999999963,239417.496,239421.7999999998,239434.166,240067.616,,2,considered
screen,html.Screen,0_4_1_0_1_3,2021-11-12T10:30:26.069Z,,,,,,,,,,,,,,,,15,,,,,,,,,,,,,,1080.7839999998978,,response,,,7,C,,,,,Space,keypress(Space),,,,instrumental,---- --------- ---------- a --- ------- -- --- ------------<br>----- -- -------- ------- ---- ------ - -------- ---- -----<br>--- ------- ---- -- --- -------- --- - ----- ------ ---- --<br>-------- --- -------- -------- --- -------- ---- -- ----- -<br>-------- ---- --- ---------- --------- -- ------- ------ -<br>--------- ----- -----,241149.3999999999,241148.3999999999,240050.946,240061.7999999998,240067.616,241151.336,,3,a
screen,html.Screen,0_4_1_0_1_4,2021-11-12T10:30:26.637Z,,,,,,,,,,,,,,,,15,,,,,,,,,,,,,,565.1639999999898,,response,,,7,C,,,,,Space,keypress(Space),,,,instrumental,---- --------- ---------- - key ------- -- --- ------------<br>----- -- -------- ------- ---- ------ - -------- ---- -----<br>--- ------- ---- -- --- -------- --- - ----- ------ ---- --<br>-------- --- -------- -------- --- -------- ---- -- ----- -<br>-------- ---- --- ---------- --------- -- ------- ------ -<br>--------- ----- -----,241717.2999999998,241716.5,241134.665,241149.7999999998,241151.336,241734.572,,4,key
screen,html.Screen,0_4_1_0_1_5,2021-11-12T10:30:27.237Z,,,,,,,,,,,,,,,,15,,,,,,,,,,,,,,581.8279999999213,,response,,,7,C,,,,,Space,keypress(Space),,,,instrumental,---- --------- ---------- - --- witness -- --- ------------<br>----- -- -------- ------- ---- ------ - -------- ---- -----<br>--- ------- ---- -- --- -------- --- - ----- ------ ---- --<br>-------- --- -------- -------- --- -------- ---- -- ----- -<br>-------- ---- --- ---------- --------- -- ------- ------ -<br>--------- ----- -----,242317.2999999998,242316.3999999999,241717.903,241717.59999999963,241734.572,242334.953,,5,witness
screen,html.Screen,0_4_1_0_1_6,2021-11-12T10:30:27.893Z,,,,,,,,,,,,,,,,15,,,,,,,,,,,,,,637.4469999998983,,response,,,7,C,,,,,Space,keypress(Space),,,,instrumental,---- --------- ---------- - --- ------- by --- ------------<br>----- -- -------- ------- ---- ------ - -------- ---- -----<br>--- ------- ---- -- --- -------- --- - ----- ------ ---- --<br>-------- --- -------- -------- --- -------- ---- -- ----- -<br>-------- ---- --- ---------- --------- -- ------- ------ -<br>--------- ----- -----,242973.19999999972,242972.3999999999,242318.282,242317.69999999972,242334.953,242985.054,,6,by
screen,html.Screen,0_4_1_0_1_7,2021-11-12T10:30:28.404Z,,,,,,,,,,,,,,,,15,,,,,,,,,,,,,,499.24599999981,,response,,,7,C,,,,,Space,keypress(Space),,,,instrumental,---- --------- ---------- - --- ------- -- the ------------<br>----- -- -------- ------- ---- ------ - -------- ---- -----<br>--- ------- ---- -- --- -------- --- - ----- ------ ---- --<br>-------- --- -------- -------- --- -------- ---- -- ----- -<br>-------- ---- --- ---------- --------- -- ------- ------ -<br>--------- ----- -----,243485.09999999963,243484.2999999998,242968.384,242973.5,242985.054,243501.85,,7,the
screen,html.Screen,0_4_1_0_1_8,2021-11-12T10:30:29.972Z,,,,,,,,,,,,,,,,15,,,,,,,,,,,,,,1550.449999999808,,response,,,7,C,,,,,Space,keypress(Space),,,,instrumental,"---- --------- ---------- - --- ------- -- --- prosecution,<br>----- -- -------- ------- ---- ------ - -------- ---- -----<br>--- ------- ---- -- --- -------- --- - ----- ------ ---- --<br>-------- --- -------- -------- --- -------- ---- -- ----- -<br>-------- ---- --- ---------- --------- -- ------- ------ -<br>--------- ----- -----",245053.09999999963,245052.2999999998,243485.18,243485.5,243501.85,245068.874,,8,"prosecution,"
screen,html.Screen,0_4_1_0_1_9,2021-11-12T10:30:30.612Z,,,,,,,,,,,,,,,,15,,,,,,,,,,,,,,623.3259999997099,,response,,,7,C,,,,,Space,keypress(Space),,,,instrumental,---- --------- ---------- - --- ------- -- --- ------------<br>vowed -- -------- ------- ---- ------ - -------- ---- -----<br>--- ------- ---- -- --- -------- --- - ----- ------ ---- --<br>-------- --- -------- -------- --- -------- ---- -- ----- -<br>-------- ---- --- ---------- --------- -- ------- ------ -<br>--------- ----- -----,245693,245692.19999999972,245052.204,245053.3999999999,245068.874,245702.096,,9,vowed
screen,html.Screen,0_4_1_0_1_10,2021-11-12T10:30:31.380Z,,,,,,,,,,,,,,,,15,,,,,,,,,,,,,,758.1039999997301,,response,,,7,C,,,,,Space,keypress(Space),,,,instrumental,---- --------- ---------- - --- ------- -- --- ------------<br>----- he -------- ------- ---- ------ - -------- ---- -----<br>--- ------- ---- -- --- -------- --- - ----- ------ ---- --<br>-------- --- -------- -------- --- -------- ---- -- ----- -<br>-------- ---- --- ---------- --------- -- ------- ------ -<br>--------- ----- -----,246461,246460.19999999972,245685.428,245693.3999999999,245702.096,246469.311,,10,he
screen,html.Screen,0_4_1_0_1_11,2021-11-12T10:30:31.900Z,,,,,,,,,,,,,,,,15,,,,,,,,,,,,,,510.7889999996405,,response,,,7,C,,,,,Space,keypress(Space),,,,instrumental,---- --------- ---------- - --- ------- -- --- ------------<br>----- -- wouldn't ------- ---- ------ - -------- ---- -----<br>--- ------- ---- -- --- -------- --- - ----- ------ ---- --<br>-------- --- -------- -------- --- -------- ---- -- ----- -<br>-------- ---- --- ---------- --------- -- ------- ------ -<br>--------- ----- -----,246981,246980.09999999963,246452.64,246461.2999999998,246469.311,246985.887,,11,wouldn't
screen,html.Screen,0_4_1_0_1_12,2021-11-12T10:30:32.460Z,,,,,,,,,,,,,,,,15,,,,,,,,,,,,,,554.1130000000121,,response,,,7,C,,,,,Space,keypress(Space),,,,instrumental,---- --------- ---------- - --- ------- -- --- ------------<br>----- -- -------- testify ---- ------ - -------- ---- -----<br>--- ------- ---- -- --- -------- --- - ----- ------ ---- --<br>-------- --- -------- -------- --- -------- ---- -- ----- -<br>-------- ---- --- ---------- --------- -- ------- ------ -<br>--------- ----- -----,247540.7999999998,247540,246969.218,246981.3999999999,246985.887,247552.824,,12,testify
screen,html.Screen,0_4_1_0_1_13,2021-11-12T10:30:32.996Z,,,,,,,,,,,,,,,,15,,,,,,,,,,,,,,523.1760000000068,,response,,,7,C,,,,,Space,keypress(Space),,,,instrumental,---- --------- ---------- - --- ------- -- --- ------------<br>----- -- -------- ------- when ------ - -------- ---- -----<br>--- ------- ---- -- --- -------- --- - ----- ------ ---- --<br>-------- --- -------- -------- --- -------- ---- -- ----- -<br>-------- ---- --- ---------- --------- -- ------- ------ -<br>--------- ----- -----,248076.7999999998,248076,247536.154,247541.19999999972,247552.824,248086.365,,13,when
screen,html.Screen,0_4_1_0_1_14,2021-11-12T10:30:33.916Z,,,,,,,,,,,,,,,,15,,,,,,,,,,,,,,909.934999999823,,response,,,7,C,,,,,Space,keypress(Space),,,,instrumental,---- --------- ---------- - --- ------- -- --- ------------<br>----- -- -------- ------- ---- served - -------- ---- -----<br>--- ------- ---- -- --- -------- --- - ----- ------ ---- --<br>-------- --- -------- -------- --- -------- ---- -- ----- -<br>-------- ---- --- ---------- --------- -- ------- ------ -<br>--------- ----- -----,248997.19999999972,248996.2999999998,248069.694,248077.09999999963,248086.365,249003.027,,14,served
screen,html.Screen,0_4_1_0_1_15,2021-11-12T10:30:34.412Z,,,,,,,,,,,,,,,,15,,,,,,,,,,,,,,488.97299999999814,,response,,,7,C,,,,,Space,keypress(Space),,,,instrumental,---- --------- ---------- - --- ------- -- --- ------------<br>----- -- -------- ------- ---- ------ a -------- ---- -----<br>--- ------- ---- -- --- -------- --- - ----- ------ ---- --<br>-------- --- -------- -------- --- -------- ---- -- ----- -<br>-------- ---- --- ---------- --------- -- ------- ------ -<br>--------- ----- -----,249492.69999999972,249492,248986.358,248997.3999999999,249003.027,249503.199,,15,a
screen,html.Screen,0_4_1_0_1_16,2021-11-12T10:30:35.084Z,,,,,,,,,,,,,,,,15,,,,,,,,,,,,,,660.7009999999136,,response,,,7,C,,,,,Space,keypress(Space),,,,instrumental,---- --------- ---------- - --- ------- -- --- ------------<br>----- -- -------- ------- ---- ------ - subpoena ---- -----<br>--- ------- ---- -- --- -------- --- - ----- ------ ---- --<br>-------- --- -------- -------- --- -------- ---- -- ----- -<br>-------- ---- --- ---------- --------- -- ------- ------ -<br>--------- ----- -----,250164.69999999972,250163.8999999999,249486.53,249493,249503.199,250170.086,,16,subpoena
screen,html.Screen,0_4_1_0_1_17,2021-11-12T10:30:35.820Z,,,,,,,,,,,,,,,,15,,,,,,,,,,,,,,729.7139999998035,,response,,,7,C,,,,,Space,keypress(Space),,,,instrumental,---- --------- ---------- - --- ------- -- --- ------------<br>----- -- -------- ------- ---- ------ - -------- last -----<br>--- ------- ---- -- --- -------- --- - ----- ------ ---- --<br>-------- --- -------- -------- --- -------- ---- -- ----- -<br>-------- ---- --- ---------- --------- -- ------- ------ -<br>--------- ----- -----,250900.59999999963,250899.7999999998,250153.416,250165.09999999963,250170.086,250903.736,,17,last
screen,html.Screen,0_4_1_0_1_18,2021-11-12T10:30:37.204Z,,,,,,,,,,,,,,,,15,,,,,,,,,,,,,,1380.0639999998093,,response,,,7,C,,,,,Space,keypress(Space),,,,instrumental,---- --------- ---------- - --- ------- -- --- ------------<br>----- -- -------- ------- ---- ------ - -------- ---- week.<br>--- ------- ---- -- --- -------- --- - ----- ------ ---- --<br>-------- --- -------- -------- --- -------- ---- -- ----- -<br>-------- ---- --- ---------- --------- -- ------- ------ -<br>--------- ----- -----,252284.5,252283.7999999998,250887.065,250900.8999999999,250903.736,252287.264,,18,week.
screen,html.Screen,0_4_1_0_1_19,2021-11-12T10:30:38.268Z,,,,,,,,,,,,,,,,15,,,,,,,,,,,,,,1060.435999999725,,response,,,7,C,,,,,Space,keypress(Space),,,,instrumental,---- --------- ---------- - --- ------- -- --- ------------<br>----- -- -------- ------- ---- ------ - -------- ---- -----<br>His ------- ---- -- --- -------- --- - ----- ------ ---- --<br>-------- --- -------- -------- --- -------- ---- -- ----- -<br>-------- ---- --- ---------- --------- -- ------- ------ -<br>--------- ----- -----,253348.3999999999,253347.69999999972,252270.594,252284.7999999998,252287.264,253354.252,,19,His
screen,html.Screen,0_4_1_0_1_20,2021-11-12T10:30:38.892Z,,,,,,,,,,,,,,,,15,,,,,,,,,,,,,,617.3479999996198,,response,,,7,C,,,,,Space,keypress(Space),,,,instrumental,---- --------- ---------- - --- ------- -- --- ------------<br>----- -- -------- ------- ---- ------ - -------- ---- -----<br>--- lawyers ---- -- --- -------- --- - ----- ------ ---- --<br>-------- --- -------- -------- --- -------- ---- -- ----- -<br>-------- ---- --- ---------- --------- -- ------- ------ -<br>--------- ----- -----,253972.5,253971.59999999963,253337.582,253348.59999999963,253354.252,253987.708,,20,lawyers
screen,html.Screen,0_4_1_0_1_21,2021-11-12T10:30:39.428Z,,,,,,,,,,,,,,,,15,,,,,,,,,,,,,,519.8919999996142,,response,,,7,C,,,,,Space,keypress(Space),,,,instrumental,---- --------- ---------- - --- ------- -- --- ------------<br>----- -- -------- ------- ---- ------ - -------- ---- -----<br>--- ------- said -- --- -------- --- - ----- ------ ---- --<br>-------- --- -------- -------- --- -------- ---- -- ----- -<br>-------- ---- --- ---------- --------- -- ------- ------ -<br>--------- ----- -----,254508.3999999999,254507.59999999963,253971.038,253972.7999999998,253987.708,254521.133,,21,said
screen,html.Screen,0_4_1_0_1_22,2021-11-12T10:30:40.036Z,,,,,,,,,,,,,,,,15,,,,,,,,,,,,,,594.3669999999984,,response,,,7,C,,,,,Space,keypress(Space),,,,instrumental,---- --------- ---------- - --- ------- -- --- ------------<br>----- -- -------- ------- ---- ------ - -------- ---- -----<br>--- ------- ---- he --- -------- --- - ----- ------ ---- --<br>-------- --- -------- -------- --- -------- ---- -- ----- -<br>-------- ---- --- ---------- --------- -- ------- ------ -<br>--------- ----- -----,255116.2999999998,255115.5,254504.463,254508.69999999972,254521.133,255121.41,,22,he
screen,html.Screen,0_4_1_0_1_23,2021-11-12T10:30:40.532Z,,,,,,,,,,,,,,,,15,,,,,,,,,,,,,,490.189999999624,,response,,,7,C,,,,,Space,keypress(Space),,,,instrumental,---- --------- ---------- - --- ------- -- --- ------------<br>----- -- -------- ------- ---- ------ - -------- ---- -----<br>--- ------- ---- -- was -------- --- - ----- ------ ---- --<br>-------- --- -------- -------- --- -------- ---- -- ----- -<br>-------- ---- --- ---------- --------- -- ------- ------ -<br>--------- ----- -----,255612.2999999998,255611.59999999963,255104.739,255116.69999999972,255121.41,255621.337,,23,was
screen,html.Screen,0_4_1_0_1_24,2021-11-12T10:30:41.324Z,,,,,,,,,,,,,,,,15,,,,,,,,,,,,,,782.1630000000005,,response,,,7,C,,,,,Space,keypress(Space),,,,instrumental,---- --------- ---------- - --- ------- -- --- ------------<br>----- -- -------- ------- ---- ------ - -------- ---- -----<br>--- ------- ---- -- --- prepared --- - ----- ------ ---- --<br>-------- --- -------- -------- --- -------- ---- -- ----- -<br>-------- ---- --- ---------- --------- -- ------- ------ -<br>--------- ----- -----,256404.2999999998,256403.5,255604.668,255612.59999999963,255621.337,256421.604,,24,prepared
screen,html.Screen,0_4_1_0_1_25,2021-11-12T10:30:41.884Z,,,,,,,,,,,,,,,,15,,,,,,,,,,,,,,541.7959999999148,,response,,,7,C,,,,,Space,keypress(Space),,,,instrumental,---- --------- ---------- - --- ------- -- --- ------------<br>----- -- -------- ------- ---- ------ - -------- ---- -----<br>--- ------- ---- -- --- -------- for - ----- ------ ---- --<br>-------- --- -------- -------- --- -------- ---- -- ----- -<br>-------- ---- --- ---------- --------- -- ------- ------ -<br>--------- ----- -----,256964.19999999972,256963.3999999999,256404.934,256404.59999999963,256421.604,256971.748,,25,for
screen,html.Screen,0_4_1_0_1_26,2021-11-12T10:30:42.379Z,,,,,,,,,,,,,,,,15,,,,,,,,,,,,,,487.5519999998214,,response,,,7,C,,,,,Space,keypress(Space),,,,instrumental,---- --------- ---------- - --- ------- -- --- ------------<br>----- -- -------- ------- ---- ------ - -------- ---- -----<br>--- ------- ---- -- --- -------- --- a ----- ------ ---- --<br>-------- --- -------- -------- --- -------- ---- -- ----- -<br>-------- ---- --- ---------- --------- -- ------- ------ -<br>--------- ----- -----,257460,257459.2999999998,256955.078,256964.5,256971.748,257471.86,,26,a
screen,html.Screen,0_4_1_0_1_27,2021-11-12T10:30:42.995Z,,,,,,,,,,,,,,,,15,,,,,,,,,,,,,,603.5399999999208,,response,,,7,C,,,,,Space,keypress(Space),,,,instrumental,---- --------- ---------- - --- ------- -- --- ------------<br>----- -- -------- ------- ---- ------ - -------- ---- -----<br>--- ------- ---- -- --- -------- --- - third ------ ---- --<br>-------- --- -------- -------- --- -------- ---- -- ----- -<br>-------- ---- --- ---------- --------- -- ------- ------ -<br>--------- ----- -----,258076.19999999972,258075.3999999999,257455.19,257460.3999999999,257471.86,258088.803,,27,third
screen,html.Screen,0_4_1_0_1_28,2021-11-12T10:30:43.908Z,,,,,,,,,,,,,,,,15,,,,,,,,,,,,,,898.4969999997993,,response,,,7,C,,,,,Space,keypress(Space),,,,instrumental,---- --------- ---------- - --- ------- -- --- ------------<br>----- -- -------- ------- ---- ------ - -------- ---- -----<br>--- ------- ---- -- --- -------- --- - ----- prison ---- --<br>-------- --- -------- -------- --- -------- ---- -- ----- -<br>-------- ---- --- ---------- --------- -- ------- ------ -<br>--------- ----- -----,258988.19999999972,258987.2999999998,258072.132,258076.3999999999,258088.803,259005.387,,28,prison
screen,html.Screen,0_4_1_0_1_29,2021-11-12T10:30:45.020Z,,,,,,,,,,,,,,,,15,,,,,,,,,,,,,,1094.012999999919,,response,,,7,C,,,,,Space,keypress(Space),,,,instrumental,---- --------- ---------- - --- ------- -- --- ------------<br>----- -- -------- ------- ---- ------ - -------- ---- -----<br>--- ------- ---- -- --- -------- --- - ----- ------ stay --<br>-------- --- -------- -------- --- -------- ---- -- ----- -<br>-------- ---- --- ---------- --------- -- ------- ------ -<br>--------- ----- -----,260100.3999999999,260099.3999999999,258988.719,258988.59999999963,259005.387,260105.996,,29,stay
screen,html.Screen,0_4_1_0_1_30,2021-11-12T10:30:46.675Z,,,,,,,,,,,,,,,,15,,,,,,,,,,,,,,1649.1039999996137,,response,,,7,C,,,,,Space,keypress(Space),,,,instrumental,---- --------- ---------- - --- ------- -- --- ------------<br>----- -- -------- ------- ---- ------ - -------- ---- -----<br>--- ------- ---- -- --- -------- --- - ----- ------ ---- to<br>-------- --- -------- -------- --- -------- ---- -- ----- -<br>-------- ---- --- ---------- --------- -- ------- ------ -<br>--------- ----- -----,261756.09999999963,261755.09999999963,260089.325,260100.69999999972,260105.996,261772.918,,30,to
screen,html.Screen,0_4_1_0_1_31,2021-11-12T10:30:47.307Z,,,,,,,,,,,,,,,,15,,,,,,,,,,,,,,614.0819999999949,,response,,,7,C,,,,,Space,keypress(Space),,,,instrumental,---- --------- ---------- - --- ------- -- --- ------------<br>----- -- -------- ------- ---- ------ - -------- ---- -----<br>--- ------- ---- -- --- -------- --- - ----- ------ ---- --<br>maintain --- -------- -------- --- -------- ---- -- ----- -<br>-------- ---- --- ---------- --------- -- ------- ------ -<br>--------- ----- -----,262387.7999999998,262387,261756.248,261756.2999999998,261772.918,262389.733,,31,maintain
screen,html.Screen,0_4_1_0_1_32,2021-11-12T10:30:47.819Z,,,,,,,,,,,,,,,,15,,,,,,,,,,,,,,509.36699999962,,response,,,7,C,,,,,Space,keypress(Space),,,,instrumental,---- --------- ---------- - --- ------- -- --- ------------<br>----- -- -------- ------- ---- ------ - -------- ---- -----<br>--- ------- ---- -- --- -------- --- - ----- ------ ---- --<br>-------- his -------- -------- --- -------- ---- -- ----- -<br>-------- ---- --- ---------- --------- -- ------- ------ -<br>--------- ----- -----,262900,262899.0999999996,262373.063,262388.0999999996,262389.733,262906.532,,32,his
screen,html.Screen,0_4_1_0_1_33,2021-11-12T10:30:49.643Z,,,,,,,,,,,,,,,,15,,,,,,,,,,,,,,1816.3679999999003,,response,,,7,C,,,,,Space,keypress(Space),,,,instrumental,---- --------- ---------- - --- ------- -- --- ------------<br>----- -- -------- ------- ---- ------ - -------- ---- -----<br>--- ------- ---- -- --- -------- --- - ----- ------ ---- --<br>-------- --- silence. -------- --- -------- ---- -- ----- -<br>-------- ---- --- ---------- --------- -- ------- ------ -<br>--------- ----- -----,264723.7999999998,264722.8999999999,262889.862,262900.2999999998,262906.532,264740.415,,33,silence.
screen,html.Screen,0_4_1_0_1_34,2021-11-12T10:30:51.475Z,,,,,,,,,,,,,,,,15,,,,,,,,,,,,,,1814.3849999998347,,response,,,7,C,,,,,Space,keypress(Space),,,,instrumental,---- --------- ---------- - --- ------- -- --- ------------<br>----- -- -------- ------- ---- ------ - -------- ---- -----<br>--- ------- ---- -- --- -------- --- - ----- ------ ---- --<br>-------- --- -------- Anderson --- -------- ---- -- ----- -<br>-------- ---- --- ---------- --------- -- ------- ------ -<br>--------- ----- -----,266555.6999999997,266554.7999999998,264723.744,264724.0999999996,264740.415,266557.398,,34,Anderson
screen,html.Screen,0_4_1_0_1_35,2021-11-12T10:30:52.411Z,,,,,,,,,,,,,,,,15,,,,,,,,,,,,,,933.4019999998272,,response,,,7,C,,,,,Space,keypress(Space),,,,instrumental,---- --------- ---------- - --- ------- -- --- ------------<br>----- -- -------- ------- ---- ------ - -------- ---- -----<br>--- ------- ---- -- --- -------- --- - ----- ------ ---- --<br>-------- --- -------- -------- was -------- ---- -- ----- -<br>-------- ---- --- ---------- --------- -- ------- ------ -<br>--------- ----- -----,267491.6999999997,267490.7999999998,266540.728,266555.8999999999,266557.398,267507.553,,35,was
screen,html.Screen,0_4_1_0_1_36,2021-11-12T10:30:53.627Z,,,,,,,,,,,,,,,,15,,,,,,,,,,,,,,1199.046999999613,,response,,,7,C,,,,,Space,keypress(Space),,,,instrumental,---- --------- ---------- - --- ------- -- --- ------------<br>----- -- -------- ------- ---- ------ - -------- ---- -----<br>--- ------- ---- -- --- -------- --- - ----- ------ ---- --<br>-------- --- -------- -------- --- released ---- -- ----- -<br>-------- ---- --- ---------- --------- -- ------- ------ -<br>--------- ----- -----,268707.3999999999,268706.5999999996,267490.883,267491.8999999999,267507.553,268724.636,,36,released
screen,html.Screen,0_4_1_0_1_37,2021-11-12T10:30:56.435Z,,,,,,,,,,,,,,,,15,,,,,,,,,,,,,,2790.163999999815,,response,,,7,C,,,,,Space,keypress(Space),,,,instrumental,---- --------- ---------- - --- ------- -- --- ------------<br>----- -- -------- ------- ---- ------ - -------- ---- -----<br>--- ------- ---- -- --- -------- --- - ----- ------ ---- --<br>-------- --- -------- -------- --- -------- July -- ----- -<br>-------- ---- --- ---------- --------- -- ------- ------ -<br>--------- ----- -----,271515.6999999997,271514.7999999998,268707.966,268707.6999999997,268724.636,271525.226,,37,July
screen,html.Screen,0_4_1_0_1_38,2021-11-12T10:30:57.506Z,,,,,,,,,,,,,,,,15,,,,,,,,,,,,,,1061.1739999998827,,response,,,7,C,,,,,Space,keypress(Space),,,,instrumental,---- --------- ---------- - --- ------- -- --- ------------<br>----- -- -------- ------- ---- ------ - -------- ---- -----<br>--- ------- ---- -- --- -------- --- - ----- ------ ---- --<br>-------- --- -------- -------- --- -------- ---- 20 ----- -<br>-------- ---- --- ---------- --------- -- ------- ------ -<br>--------- ----- -----,272587.0999999996,272586.3999999999,271508.556,271516,271525.226,272592.12,,38,20
screen,html.Screen,0_4_1_0_1_39,2021-11-12T10:30:58.722Z,,,,,,,,,,,,,,,,15,,,,,,,,,,,,,,1210.0799999997253,,response,,,7,C,,,,,Space,keypress(Space),,,,instrumental,---- --------- ---------- - --- ------- -- --- ------------<br>----- -- -------- ------- ---- ------ - -------- ---- -----<br>--- ------- ---- -- --- -------- --- - ----- ------ ---- --<br>-------- --- -------- -------- --- -------- ---- -- after -<br>-------- ---- --- ---------- --------- -- ------- ------ -<br>--------- ----- -----,273803,273802.1999999997,272575.45,272587.3999999999,272592.12,273809.082,,39,after
screen,html.Screen,0_4_1_0_1_40,2021-11-12T10:30:59.850Z,,,,,,,,,,,,,,,,15,,,,,,,,,,,,,,1121.0179999996326,,response,,,7,C,,,,,Space,keypress(Space),,,,instrumental,---- --------- ---------- - --- ------- -- --- ------------<br>----- -- -------- ------- ---- ------ - -------- ---- -----<br>--- ------- ---- -- --- -------- --- - ----- ------ ---- --<br>-------- --- -------- -------- --- -------- ---- -- ----- a<br>-------- ---- --- ---------- --------- -- ------- ------ -<br>--------- ----- -----,274931,274930.0999999996,273792.412,273803.2999999998,273809.082,274942.848,,40,a
screen,html.Screen,0_4_1_0_1_41,2021-11-12T10:31:01.042Z,,,,,,,,,,,,,,,,15,,,,,,,,,,,,,,1179.2519999996293,,response,,,7,C,,,,,Space,keypress(Space),,,,instrumental,---- --------- ---------- - --- ------- -- --- ------------<br>----- -- -------- ------- ---- ------ - -------- ---- -----<br>--- ------- ---- -- --- -------- --- - ----- ------ ---- --<br>-------- --- -------- -------- --- -------- ---- -- ----- -<br>two-week ---- --- ---------- --------- -- ------- ------ -<br>--------- ----- -----,276122.7999999998,276122.0999999996,274926.177,274931.1999999997,274942.848,276126.345,,41,two-week
screen,html.Screen,0_4_1_0_1_42,2021-11-12T10:31:01.682Z,,,,,,,,,,,,,,,,15,,,,,,,,,,,,,,635.7549999996554,,response,,,7,C,,,,,Space,keypress(Space),,,,instrumental,---- --------- ---------- - --- ------- -- --- ------------<br>----- -- -------- ------- ---- ------ - -------- ---- -----<br>--- ------- ---- -- --- -------- --- - ----- ------ ---- --<br>-------- --- -------- -------- --- -------- ---- -- ----- -<br>-------- stay --- ---------- --------- -- ------- ------ -<br>--------- ----- -----,276762.7999999998,276762.0999999996,276109.675,276123.1999999997,276126.345,276776.697,,42,stay
screen,html.Screen,0_4_1_0_1_43,2021-11-12T10:31:02.722Z,,,,,,,,,,,,,,,,15,,,,,,,,,,,,,,1025.3030000000144,,response,,,7,C,,,,,Space,keypress(Space),,,,instrumental,---- --------- ---------- - --- ------- -- --- ------------<br>----- -- -------- ------- ---- ------ - -------- ---- -----<br>--- ------- ---- -- --- -------- --- - ----- ------ ---- --<br>-------- --- -------- -------- --- -------- ---- -- ----- -<br>-------- ---- for ---------- --------- -- ------- ------ -<br>--------- ----- -----,277802.7999999998,277802,276760.026,276763.0999999996,276776.697,277810.161,,43,for
screen,html.Screen,0_4_1_0_1_44,2021-11-12T10:31:03.418Z,,,,,,,,,,,,,,,,15,,,,,,,,,,,,,,687.738999999885,,response,,,7,C,,,,,Space,keypress(Space),,,,instrumental,---- --------- ---------- - --- ------- -- --- ------------<br>----- -- -------- ------- ---- ------ - -------- ---- -----<br>--- ------- ---- -- --- -------- --- - ----- ------ ---- --<br>-------- --- -------- -------- --- -------- ---- -- ----- -<br>-------- ---- --- previously --------- -- ------- ------ -<br>--------- ----- -----,278498.5999999996,278497.8999999999,277793.491,277803,277810.161,278510.322,,44,previously
screen,html.Screen,0_4_1_0_1_45,2021-11-12T10:31:04.274Z,,,,,,,,,,,,,,,,15,,,,,,,,,,,,,,843.5779999999213,,response,,,7,C,,,,,Space,keypress(Space),,,,instrumental,---- --------- ---------- - --- ------- -- --- ------------<br>----- -- -------- ------- ---- ------ - -------- ---- -----<br>--- ------- ---- -- --- -------- --- - ----- ------ ---- --<br>-------- --- -------- -------- --- -------- ---- -- ----- -<br>-------- ---- --- ---------- declining -- ------- ------ -<br>--------- ----- -----,279354.6999999997,279353.8999999999,278493.652,278500.0999999996,278510.322,279360.423,,45,declining
screen,html.Screen,0_4_1_0_1_46,2021-11-12T10:31:04.818Z,,,,,,,,,,,,,,,,15,,,,,,,,,,,,,,537.376999999804,,response,,,7,C,,,,,Space,keypress(Space),,,,instrumental,---- --------- ---------- - --- ------- -- --- ------------<br>----- -- -------- ------- ---- ------ - -------- ---- -----<br>--- ------- ---- -- --- -------- --- - ----- ------ ---- --<br>-------- --- -------- -------- --- -------- ---- -- ----- -<br>-------- ---- --- ---------- --------- to ------- ------ -<br>--------- ----- -----,279898.5999999996,279897.7999999998,279343.754,279355,279360.423,279910.654,,46,to
screen,html.Screen,0_4_1_0_1_47,2021-11-12T10:31:05.618Z,,,,,,,,,,,,,,,,15,,,,,,,,,,,,,,787.0459999997402,,response,,,7,C,,,,,Space,keypress(Space),,,,instrumental,---- --------- ---------- - --- ------- -- --- ------------<br>----- -- -------- ------- ---- ------ - -------- ---- -----<br>--- ------- ---- -- --- -------- --- - ----- ------ ---- --<br>-------- --- -------- -------- --- -------- ---- -- ----- -<br>-------- ---- --- ---------- --------- -- testify ------ -<br>--------- ----- -----,280698.3999999999,280697.6999999997,279893.984,279898.8999999999,279910.654,280710.945,,47,testify
screen,html.Screen,0_4_1_0_1_48,2021-11-12T10:31:06.226Z,,,,,,,,,,,,,,,,15,,,,,,,,,,,,,,594.8549999998068,,response,,,7,C,,,,,Space,keypress(Space),,,,instrumental,---- --------- ---------- - --- ------- -- --- ------------<br>----- -- -------- ------- ---- ------ - -------- ---- -----<br>--- ------- ---- -- --- -------- --- - ----- ------ ---- --<br>-------- --- -------- -------- --- -------- ---- -- ----- -<br>-------- ---- --- ---------- --------- -- ------- before -<br>--------- ----- -----,281306.5,281305.7999999998,280694.274,280698.7999999998,280710.945,281310.925,,48,before
screen,html.Screen,0_4_1_0_1_49,2021-11-12T10:31:07.418Z,,,,,,,,,,,,,,,,15,,,,,,,,,,,,,,1187.0750000000116,,response,,,7,C,,,,,Space,keypress(Space),,,,instrumental,---- --------- ---------- - --- ------- -- --- ------------<br>----- -- -------- ------- ---- ------ - -------- ---- -----<br>--- ------- ---- -- --- -------- --- - ----- ------ ---- --<br>-------- --- -------- -------- --- -------- ---- -- ----- -<br>-------- ---- --- ---------- --------- -- ------- ------ a<br>--------- ----- -----,282498.7999999998,282498,281294.256,281306.6999999997,281310.925,282511.391,,49,a
screen,html.Screen,0_4_1_0_1_50,2021-11-12T10:31:09.130Z,,,,,,,,,,,,,,,,15,,,,,,,,,,,,,,1698.1089999999967,,response,,,7,C,,,,,Space,keypress(Space),,,,instrumental,---- --------- ---------- - --- ------- -- --- ------------<br>----- -- -------- ------- ---- ------ - -------- ---- -----<br>--- ------- ---- -- --- -------- --- - ----- ------ ---- --<br>-------- --- -------- -------- --- -------- ---- -- ----- -<br>-------- ---- --- ---------- --------- -- ------- ------ -<br>different ----- -----,284210.2999999998,284209.5,282494.72,282499.0999999996,282511.391,284211.49,,50,different
screen,html.Screen,0_4_1_0_1_51,2021-11-12T10:31:09.626Z,,,,,,,,,,,,,,,,15,,,,,,,,,,,,,,493.9099999999162,,response,,,7,C,,,,,Space,keypress(Space),,,,instrumental,---- --------- ---------- - --- ------- -- --- ------------<br>----- -- -------- ------- ---- ------ - -------- ---- -----<br>--- ------- ---- -- --- -------- --- - ----- ------ ---- --<br>-------- --- -------- -------- --- -------- ---- -- ----- -<br>-------- ---- --- ---------- --------- -- ------- ------ -<br>--------- grand -----,284706.1999999997,284705.3999999999,284194.821,284210.5999999996,284211.49,284711.953,,51,grand
screen,html.Screen,0_4_1_0_1_52,2021-11-12T10:31:15.577Z,,,,,,,,,,,,,,,,15,,,,,,,,,,,,,,5945.146999999648,,response,,,7,C,,,,,Space,keypress(Space),,,,instrumental,---- --------- ---------- - --- ------- -- --- ------------<br>----- -- -------- ------- ---- ------ - -------- ---- -----<br>--- ------- ---- -- --- -------- --- - ----- ------ ---- --<br>-------- --- -------- -------- --- -------- ---- -- ----- -<br>-------- ---- --- ---------- --------- -- ------- ------ -<br>--------- ----- jury.,290658,290657.0999999996,284695.282,284706.5,284711.953,290663.019,,52,jury.
Item 7,flow.Loop,0_4_1_0_1,2021-11-12T10:31:15.578Z,,,,,,,,,,,,,,,,,,,,,,,,,,,,,,54773.86599999963,,completion,,,,,,,,,,,,,,,,290658.2999999998,290657.0999999996,235866.564,235868.5,235883.234,290663.019,,,
