sender,sender_type,sender_id,timestamp,meta,,Blues,Classical,Country,Dance,Electronic,Folk,Gospel,Hip-Hop,Jazz,Latin,Musical/Film,New-age,Pop,Provo_ID,R&B,Rap,Reggae,Religious,Rock,Soul,Swing,Traditional,age,artist_name,correct,correctResponse,distraction,duration,education,ended_on,familiarity,gender,item,list,music_frequency,offensiveness,pleasantness,preference,response,response_action,snippet_file,song_name,song_rating,sound,text,time_commit,time_end,time_render,time_run,time_show,time_switch,url,word,word_ID
Instructions,html.Page,0_0,2021-11-19T09:53:51.139Z,"{""labjs_version"":""20.2.3"",""labjs_build"":{""flavor"":""production"",""commit"":""7ea907d66ca8aeef8054924ca5d82ffbe11e34e5""},""location"":""https://run.pavlovia.org/mvasilev/lab_music_e/"",""userAgent"":""Mozilla/5.0 (Windows NT 6.1; Win64; x64) AppleWebKit/537.36 (KHTML, like Gecko) Chrome/96.0.4664.45 Safari/537.36"",""platform"":""Win32"",""language"":""en-US"",""locale"":""en-US"",""timeZone"":""Europe/London"",""timezoneOffset"":0,""screen_width"":1920,""screen_height"":1080,""scroll_width"":1920,""scroll_height"":959,""window_innerWidth"":1920,""window_innerHeight"":1007,""devicePixelRatio"":1}",,,,,,,,,,,,,,,,,,,,,,,,,,,,,22341.430000095366,,form submission,,,,,,,,,,,,,,,,30008.100000023842,30006.900000095367,7632.128,7644.900000095367,7665.47,30017.117,{},,
Headphones,html.Page,0_1,2021-11-19T09:53:53.699Z,,,,,,,,,,,,,,,,,,,,,,,,,,,,,,2550.3830000000016,,form submission,,,,,,,,,,,,,,,,32568,32567.5,30000.384,30008.900000095367,30017.117,32571.901,,,
Holding screen,html.Screen,0_2_0_0,2021-11-19T09:54:03.694Z,,,,,,,,,,,,,,,,,,,,,,,,,,,,,,10018.946,,timeout,,,,,,,,,,,,,,,,42563.5,42557.509,32555.23,32568.5,32571.901,42590.847,,,
screen,html.Screen,0_2_0_1_0,2021-11-19T09:54:05.652Z,,,,,,,,,,,,,,,,53,,,,,,,,,,,,,,1929.1529999999984,,response,,,99,,,,,,Space,keypress(Space),,,,,When -- ----- -- ------ - ------- --- ----------<br>------------- ------ ------ ---- ---- ------- ----- -- ----<br>-------- ------- -- ---------- --- - --- ----- ----- ----<br>---- --- --- ----- --- ---- ---- ------- ----- ---- -------<br>--- --- -- ----- -- --- ---- -- --- ---- -- ------ ------<br>--- ----- -- ----,44521.300000071526,44520,42557.509,42563.90000009537,42590.847,44525.018,,0,When
screen,html.Screen,0_2_0_1_1,2021-11-19T09:54:07.404Z,,,,,,,,,,,,,,,,53,,,,,,,,,,,,,,1746.882000095371,,response,,,99,,,,,,Space,keypress(Space),,,,,---- it ----- -- ------ - ------- --- ----------<br>------------- ------ ------ ---- ---- ------- ----- -- ----<br>-------- ------- -- ---------- --- - --- ----- ----- ----<br>---- --- --- ----- --- ---- ---- ------- ----- ---- -------<br>--- --- -- ----- -- --- ---- -- --- ---- -- ------ ------<br>--- ----- -- ----,46272.700000047684,46271.90000009537,44508.347,44521.700000047684,44525.018,46275.254,,1,it
screen,html.Screen,0_2_0_1_2,2021-11-19T09:54:08.812Z,,,,,,,,,,,,,,,,53,,,,,,,,,,,,,,1405.0460000715248,,response,,,99,,,,,,Space,keypress(Space),,,,,---- -- comes -- ------ - ------- --- ----------<br>------------- ------ ------ ---- ---- ------- ----- -- ----<br>-------- ------- -- ---------- --- - --- ----- ----- ----<br>---- --- --- ----- --- ---- ---- ------- ----- ---- -------<br>--- --- -- ----- -- --- ---- -- --- ---- -- ------ ------<br>--- ----- -- ----,47681.200000047684,47680.300000071526,46258.584,46273,46275.254,47692.277,,2,comes
screen,html.Screen,0_2_0_1_3,2021-11-19T09:54:09.540Z,,,,,,,,,,,,,,,,53,,,,,,,,,,,,,,715.5230000715237,,response,,,99,,,,,,Space,keypress(Space),,,,,---- -- ----- to ------ - ------- --- ----------<br>------------- ------ ------ ---- ---- ------- ----- -- ----<br>-------- ------- -- ---------- --- - --- ----- ----- ----<br>---- --- --- ----- --- ---- ---- ------- ----- ---- -------<br>--- --- -- ----- -- --- ---- -- --- ---- -- ------ ------<br>--- ----- -- ----,48408.700000047684,48407.800000071526,47675.607,47681.40000009537,47692.277,48425.795,,3,to
screen,html.Screen,0_2_0_1_4,2021-11-19T09:54:10.804Z,,,,,,,,,,,,,,,,53,,,,,,,,,,,,,,1245.9050000476855,,response,,,99,,,,,,Space,keypress(Space),,,,,---- -- ----- -- having - ------- --- ----------<br>------------- ------ ------ ---- ---- ------- ----- -- ----<br>-------- ------- -- ---------- --- - --- ----- ----- ----<br>---- --- --- ----- --- ---- ---- ------- ----- ---- -------<br>--- --- -- ----- -- --- ---- -- --- ---- -- ------ ------<br>--- ----- -- ----,49672.90000009537,49671.700000047684,48409.125,48409.200000047684,48425.795,49676.313,,4,having
screen,html.Screen,0_2_0_1_5,2021-11-19T09:54:11.820Z,,,,,,,,,,,,,,,,53,,,,,,,,,,,,,,1011.3870000476818,,response,,,99,,,,,,Space,keypress(Space),,,,,---- -- ----- -- ------ a ------- --- ----------<br>------------- ------ ------ ---- ---- ------- ----- -- ----<br>-------- ------- -- ---------- --- - --- ----- ----- ----<br>---- --- --- ----- --- ---- ---- ------- ----- ---- -------<br>--- --- -- ----- -- --- ---- -- --- ---- -- ------ ------<br>--- ----- -- ----,50688.60000002384,50687.700000047684,49659.642,49673.200000047684,49676.313,50693.152,,5,a
screen,html.Screen,0_2_0_1_6,2021-11-19T09:54:12.612Z,,,,,,,,,,,,,,,,53,,,,,,,,,,,,,,786.44800002384,,response,,,99,,,,,,Space,keypress(Space),,,,,---- -- ----- -- ------ - lasting --- ----------<br>------------- ------ ------ ---- ---- ------- ----- -- ----<br>-------- ------- -- ---------- --- - --- ----- ----- ----<br>---- --- --- ----- --- ---- ---- ------- ----- ---- -------<br>--- --- -- ----- -- --- ---- -- --- ---- -- ------ ------<br>--- ----- -- ----,51480.5,51479.60000002384,50676.482,50689.10000002384,50693.152,51493.373,,6,lasting
screen,html.Screen,0_2_0_1_7,2021-11-19T09:54:13.131Z,,,,,,,,,,,,,,,,53,,,,,,,,,,,,,,506.22700002384227,,response,,,99,,,,,,Space,keypress(Space),,,,,---- -- ----- -- ------ - ------- and ----------<br>------------- ------ ------ ---- ---- ------- ----- -- ----<br>-------- ------- -- ---------- --- - --- ----- ----- ----<br>---- --- --- ----- --- ---- ---- ------- ----- ---- -------<br>--- --- -- ----- -- --- ---- -- --- ---- -- ------ ------<br>--- ----- -- ----,52000.5,51999.60000002384,51476.703,51480.800000071526,51493.373,52010.19,,7,and
screen,html.Screen,0_2_0_1_8,2021-11-19T09:54:13.884Z,,,,,,,,,,,,,,,,53,,,,,,,,,,,,,,741.4100000238395,,response,,,99,,,,,,Space,keypress(Space),,,,,---- -- ----- -- ------ - ------- --- fulfilling<br>------------- ------ ------ ---- ---- ------- ----- -- ----<br>-------- ------- -- ---------- --- - --- ----- ----- ----<br>---- --- --- ----- --- ---- ---- ------- ----- ---- -------<br>--- --- -- ----- -- --- ---- -- --- ---- -- ------ ------<br>--- ----- -- ----,52752.700000047684,52751.60000002384,51993.52,52000.800000071526,52010.19,52760.429,,8,fulfilling
screen,html.Screen,0_2_0_1_9,2021-11-19T09:54:15.995Z,,,,,,,,,,,,,,,,53,,,,,,,,,,,,,,2102.971000095371,,response,,,99,,,,,,Space,keypress(Space),,,,,"---- -- ----- -- ------ - ------- --- ----------<br>relationship, ------ ------ ---- ---- ------- ----- -- ----<br>-------- ------- -- ---------- --- - --- ----- ----- ----<br>---- --- --- ----- --- ---- ---- ------- ----- ---- -------<br>--- --- -- ----- -- --- ---- -- --- ---- -- ------ ------<br>--- ----- -- ----",54864.40000009537,54863.40000009537,52743.758,52753,52760.429,54877.494,,9,"relationship,"
screen,html.Screen,0_2_0_1_10,2021-11-19T09:54:16.651Z,,,,,,,,,,,,,,,,53,,,,,,,,,,,,,,641.9060000953687,,response,,,99,,,,,,Space,keypress(Space),,,,,---- -- ----- -- ------ - ------- --- ----------<br>------------- common ------ ---- ---- ------- ----- -- ----<br>-------- ------- -- ---------- --- - --- ----- ----- ----<br>---- --- --- ----- --- ---- ---- ------- ----- ---- -------<br>--- --- -- ----- -- --- ---- -- --- ---- -- ------ ------<br>--- ----- -- ----,55520.40000009537,55519.40000009537,54860.824,54864.60000002384,54877.494,55527.711,,10,common
screen,html.Screen,0_2_0_1_11,2021-11-19T09:54:17.979Z,,,,,,,,,,,,,,,,53,,,,,,,,,,,,,,1319.5890000715226,,response,,,99,,,,,,Space,keypress(Space),,,,,---- -- ----- -- ------ - ------- --- ----------<br>------------- ------ wisdom ---- ---- ------- ----- -- ----<br>-------- ------- -- ---------- --- - --- ----- ----- ----<br>---- --- --- ----- --- ---- ---- ------- ----- ---- -------<br>--- --- -- ----- -- --- ---- -- --- ---- -- ------ ------<br>--- ----- -- ----,56848.40000009537,56847.300000071526,55511.041,55520.700000047684,55527.711,56861.332,,11,wisdom
screen,html.Screen,0_2_0_1_12,2021-11-19T09:54:18.996Z,,,,,,,,,,,,,,,,53,,,,,,,,,,,,,,1002.4680000715234,,response,,,99,,,,,,Space,keypress(Space),,,,,---- -- ----- -- ------ - ------- --- ----------<br>------------- ------ ------ says ---- ------- ----- -- ----<br>-------- ------- -- ---------- --- - --- ----- ----- ----<br>---- --- --- ----- --- ---- ---- ------- ----- ---- -------<br>--- --- -- ----- -- --- ---- -- --- ---- -- ------ ------<br>--- ----- -- ----,57864.60000002384,57863.800000071526,56844.662,56848.700000047684,56861.332,57878.437,,12,says
screen,html.Screen,0_2_0_1_13,2021-11-19T09:54:19.763Z,,,,,,,,,,,,,,,,53,,,,,,,,,,,,,,752.7630000476856,,response,,,99,,,,,,Space,keypress(Space),,,,,---- -- ----- -- ------ - ------- --- ----------<br>------------- ------ ------ ---- that ------- ----- -- ----<br>-------- ------- -- ---------- --- - --- ----- ----- ----<br>---- --- --- ----- --- ---- ---- ------- ----- ---- -------<br>--- --- -- ----- -- --- ---- -- --- ---- -- ------ ------<br>--- ----- -- ----,58632.10000002384,58631.200000047684,57861.765,57865,57878.437,58645,,13,that
screen,html.Screen,0_2_0_1_14,2021-11-19T09:54:20.395Z,,,,,,,,,,,,,,,,53,,,,,,,,,,,,,,618.2000000476837,,response,,,99,,,,,,Space,keypress(Space),,,,,---- -- ----- -- ------ - ------- --- ----------<br>------------- ------ ------ ---- ---- feeling ----- -- ----<br>-------- ------- -- ---------- --- - --- ----- ----- ----<br>---- --- --- ----- --- ---- ---- ------- ----- ---- -------<br>--- --- -- ----- -- --- ---- -- --- ---- -- ------ ------<br>--- ----- -- ----,59264.10000002384,59263.200000047684,58628.331,58632.40000009537,58645,59278.842,,14,feeling
screen,html.Screen,0_2_0_1_15,2021-11-19T09:54:20.971Z,,,,,,,,,,,,,,,,53,,,,,,,,,,,,,,560.2580000238449,,response,,,99,,,,,,Space,keypress(Space),,,,,---- -- ----- -- ------ - ------- --- ----------<br>------------- ------ ------ ---- ---- ------- close -- ----<br>-------- ------- -- ---------- --- - --- ----- ----- ----<br>---- --- --- ----- --- ---- ---- ------- ----- ---- -------<br>--- --- -- ----- -- --- ---- -- --- ---- -- ------ ------<br>--- ----- -- ----,59840,59839.10000002384,59262.17,59264.5,59278.842,59845.595,,15,close
screen,html.Screen,0_2_0_1_16,2021-11-19T09:54:21.390Z,,,,,,,,,,,,,,,,53,,,,,,,,,,,,,,409.60500004768255,,response,,,99,,,,,,Space,keypress(Space),,,,,---- -- ----- -- ------ - ------- --- ----------<br>------------- ------ ------ ---- ---- ------- ----- to ----<br>-------- ------- -- ---------- --- - --- ----- ----- ----<br>---- --- --- ----- --- ---- ---- ------- ----- ---- -------<br>--- --- -- ----- -- --- ---- -- --- ---- -- ------ ------<br>--- ----- -- ----,60256,60255.200000047684,59828.924,59840.300000071526,59845.595,60262.205,,16,to
screen,html.Screen,0_2_0_1_17,2021-11-19T09:54:21.982Z,,,,,,,,,,,,,,,,53,,,,,,,,,,,,,,584.8950000238401,,response,,,99,,,,,,Space,keypress(Space),,,,,---- -- ----- -- ------ - ------- --- ----------<br>------------- ------ ------ ---- ---- ------- ----- -- your<br>-------- ------- -- ---------- --- - --- ----- ----- ----<br>---- --- --- ----- --- ---- ---- ------- ----- ---- -------<br>--- --- -- ----- -- --- ---- -- --- ---- -- ------ ------<br>--- ----- -- ----,60847.90000009537,60847.10000002384,60245.536,60256.300000071526,60262.205,60862.563,,17,your
screen,html.Screen,0_2_0_1_18,2021-11-19T09:54:22.662Z,,,,,,,,,,,,,,,,53,,,,,,,,,,,,,,664.5370000238399,,response,,,99,,,,,,Space,keypress(Space),,,,,---- -- ----- -- ------ - ------- --- ----------<br>------------- ------ ------ ---- ---- ------- ----- -- ----<br>romantic ------- -- ---------- --- - --- ----- ----- ----<br>---- --- --- ----- --- ---- ---- ------- ----- ---- -------<br>--- --- -- ----- -- --- ---- -- --- ---- -- ------ ------<br>--- ----- -- ----,61528,61527.10000002384,60845.891,60848.200000047684,60862.563,61529.3,,18,romantic
screen,html.Screen,0_2_0_1_19,2021-11-19T09:54:24.039Z,,,,,,,,,,,,,,,,53,,,,,,,,,,,,,,1374.199999999997,,response,,,99,,,,,,Space,keypress(Space),,,,,---- -- ----- -- ------ - ------- --- ----------<br>------------- ------ ------ ---- ---- ------- ----- -- ----<br>-------- partner -- ---------- --- - --- ----- ----- ----<br>---- --- --- ----- --- ---- ---- ------- ----- ---- -------<br>--- --- -- ----- -- --- ---- -- --- ---- -- ------ ------<br>--- ----- -- ----,62904.300000071526,62903.5,61512.63,61528.300000071526,61529.3,62912.946,,19,partner
screen,html.Screen,0_2_0_1_20,2021-11-19T09:54:24.582Z,,,,,,,,,,,,,,,,53,,,,,,,,,,,,,,533.9540000953639,,response,,,99,,,,,,Space,keypress(Space),,,,,---- -- ----- -- ------ - ------- --- ----------<br>------------- ------ ------ ---- ---- ------- ----- -- ----<br>-------- ------- is ---------- --- - --- ----- ----- ----<br>---- --- --- ----- --- ---- ---- ------- ----- ---- -------<br>--- --- -- ----- -- --- ---- -- --- ---- -- ------ ------<br>--- ----- -- ----,63447.800000071526,63446.90000009537,62896.276,62904.5,62912.946,63463.138,,20,is
screen,html.Screen,0_2_0_1_21,2021-11-19T09:54:25.526Z,,,,,,,,,,,,,,,,53,,,,,,,,,,,,,,927.862000000001,,response,,,99,,,,,,Space,keypress(Space),,,,,---- -- ----- -- ------ - ------- --- ----------<br>------------- ------ ------ ---- ---- ------- ----- -- ----<br>-------- ------- -- paramount. --- - --- ----- ----- ----<br>---- --- --- ----- --- ---- ---- ------- ----- ---- -------<br>--- --- -- ----- -- --- ---- -- --- ---- -- ------ ------<br>--- ----- -- ----,64391.700000047684,64391,63446.468,63448,63463.138,64396.685,,21,paramount.
screen,html.Screen,0_2_0_1_22,2021-11-19T09:54:26.622Z,,,,,,,,,,,,,,,,53,,,,,,,,,,,,,,1090.115000071528,,response,,,99,,,,,,Space,keypress(Space),,,,,---- -- ----- -- ------ - ------- --- ----------<br>------------- ------ ------ ---- ---- ------- ----- -- ----<br>-------- ------- -- ---------- But - --- ----- ----- ----<br>---- --- --- ----- --- ---- ---- ------- ----- ---- -------<br>--- --- -- ----- -- --- ---- -- --- ---- -- ------ ------<br>--- ----- -- ----,65487.700000047684,65486.800000071526,64380.015,64392.200000047684,64396.685,65497.045,,22,But
screen,html.Screen,0_2_0_1_23,2021-11-19T09:54:27.342Z,,,,,,,,,,,,,,,,53,,,,,,,,,,,,,,709.7550000715273,,response,,,99,,,,,,Space,keypress(Space),,,,,---- -- ----- -- ------ - ------- --- ----------<br>------------- ------ ------ ---- ---- ------- ----- -- ----<br>-------- ------- -- ---------- --- a --- ----- ----- ----<br>---- --- --- ----- --- ---- ---- ------- ----- ---- -------<br>--- --- -- ----- -- --- ---- -- --- ---- -- ------ ------<br>--- ----- -- ----,66207.60000002384,66206.80000007153,65480.374,65487.90000009537,65497.045,66213.838,,23,a
screen,html.Screen,0_2_0_1_24,2021-11-19T09:54:27.862Z,,,,,,,,,,,,,,,,53,,,,,,,,,,,,,,512.8620000476803,,response,,,99,,,,,,Space,keypress(Space),,,,,---- -- ----- -- ------ - ------- --- ----------<br>------------- ------ ------ ---- ---- ------- ----- -- ----<br>-------- ------- -- ---------- --- - new ----- ----- ----<br>---- --- --- ----- --- ---- ---- ------- ----- ---- -------<br>--- --- -- ----- -- --- ---- -- --- ---- -- ------ ------<br>--- ----- -- ----,66727.70000004768,66726.70000004768,66197.168,66207.90000009537,66213.838,66730.632,,24,new
screen,html.Screen,0_2_0_1_25,2021-11-19T09:54:28.646Z,,,,,,,,,,,,,,,,53,,,,,,,,,,,,,,780.0680000476859,,response,,,99,,,,,,Space,keypress(Space),,,,,---- -- ----- -- ------ - ------- --- ----------<br>------------- ------ ------ ---- ---- ------- ----- -- ----<br>-------- ------- -- ---------- --- - --- study ----- ----<br>---- --- --- ----- --- ---- ---- ------- ----- ---- -------<br>--- --- -- ----- -- --- ---- -- --- ---- -- ------ ------<br>--- ----- -- ----,67511.60000002384,67510.70000004768,66713.962,66727.80000007153,66730.632,67514.168,,25,study
screen,html.Screen,0_2_0_1_26,2021-11-19T09:54:29.758Z,,,,,,,,,,,,,,,,53,,,,,,,,,,,,,,1108.9320000238367,,response,,,99,,,,,,Space,keypress(Space),,,,,---- -- ----- -- ------ - ------- --- ----------<br>------------- ------ ------ ---- ---- ------- ----- -- ----<br>-------- ------- -- ---------- --- - --- ----- finds ----<br>---- --- --- ----- --- ---- ---- ------- ----- ---- -------<br>--- --- -- ----- -- --- ---- -- --- ---- -- ------ ------<br>--- ----- -- ----,68624,68623.10000002384,67497.498,67511.90000009537,67514.168,68631.105,,26,finds
screen,html.Screen,0_2_0_1_27,2021-11-19T09:54:31.238Z,,,,,,,,,,,,,,,,53,,,,,,,,,,,,,,1471.495000023846,,response,,,99,,,,,,Space,keypress(Space),,,,,---- -- ----- -- ------ - ------- --- ----------<br>------------- ------ ------ ---- ---- ------- ----- -- ----<br>-------- ------- -- ---------- --- - --- ----- ----- that<br>---- --- --- ----- --- ---- ---- ------- ----- ---- -------<br>--- --- -- ----- -- --- ---- -- --- ---- -- ------ ------<br>--- ----- -- ----,70103.30000007153,70102.60000002384,68614.435,68624.20000004768,68631.105,70114.77,,27,that
screen,html.Screen,0_2_0_1_28,2021-11-19T09:54:31.934Z,,,,,,,,,,,,,,,,53,,,,,,,,,,,,,,683.8300000238378,,response,,,99,,,,,,Space,keypress(Space),,,,,---- -- ----- -- ------ - ------- --- ----------<br>------------- ------ ------ ---- ---- ------- ----- -- ----<br>-------- ------- -- ---------- --- - --- ----- ----- ----<br>it's --- --- ----- --- ---- ---- ------- ----- ---- -------<br>--- --- -- ----- -- --- ---- -- --- ---- -- ------ ------<br>--- ----- -- ----,70799.30000007153,70798.60000002384,70098.1,70103.60000002384,70114.77,70815.007,,28,it's
screen,html.Screen,0_2_0_1_29,2021-11-19T09:54:32.878Z,,,,,,,,,,,,,,,,53,,,,,,,,,,,,,,927.5930000238441,,response,,,99,,,,,,Space,keypress(Space),,,,,---- -- ----- -- ------ - ------- --- ----------<br>------------- ------ ------ ---- ---- ------- ----- -- ----<br>-------- ------- -- ---------- --- - --- ----- ----- ----<br>---- not --- ----- --- ---- ---- ------- ----- ---- -------<br>--- --- -- ----- -- --- ---- -- --- ---- -- ------ ------<br>--- ----- -- ----,71743.30000007153,71742.60000002384,70798.337,70799.60000002384,70815.007,71748.576,,29,not
screen,html.Screen,0_2_0_1_30,2021-11-19T09:54:33.862Z,,,,,,,,,,,,,,,,53,,,,,,,,,,,,,,977.8240000953665,,response,,,99,,,,,,Space,keypress(Space),,,,,---- -- ----- -- ------ - ------- --- ----------<br>------------- ------ ------ ---- ---- ------- ----- -- ----<br>-------- ------- -- ---------- --- - --- ----- ----- ----<br>---- --- how ----- --- ---- ---- ------- ----- ---- -------<br>--- --- -- ----- -- --- ---- -- --- ---- -- ------ ------<br>--- ----- -- ----,72727.20000004768,72726.40000009537,71731.906,71743.60000002384,71748.576,72732.117,,30,how
screen,html.Screen,0_2_0_1_31,2021-11-19T09:54:34.630Z,,,,,,,,,,,,,,,,53,,,,,,,,,,,,,,762.3830000000016,,response,,,99,,,,,,Space,keypress(Space),,,,,---- -- ----- -- ------ - ------- --- ----------<br>------------- ------ ------ ---- ---- ------- ----- -- ----<br>-------- ------- -- ---------- --- - --- ----- ----- ----<br>---- --- --- close --- ---- ---- ------- ----- ---- -------<br>--- --- -- ----- -- --- ---- -- --- ---- -- ------ ------<br>--- ----- -- ----,73495.20000004768,73494.5,72715.447,72727.5,72732.117,73499.037,,31,close
screen,html.Screen,0_2_0_1_32,2021-11-19T09:54:35.174Z,,,,,,,,,,,,,,,,53,,,,,,,,,,,,,,539.3630000953708,,response,,,99,,,,,,Space,keypress(Space),,,,,---- -- ----- -- ------ - ------- --- ----------<br>------------- ------ ------ ---- ---- ------- ----- -- ----<br>-------- ------- -- ---------- --- - --- ----- ----- ----<br>---- --- --- ----- you ---- ---- ------- ----- ---- -------<br>--- --- -- ----- -- --- ---- -- --- ---- -- ------ ------<br>--- ----- -- ----,74039.20000004768,74038.40000009537,73482.367,73495.40000009537,73499.037,74049.2,,32,you
screen,html.Screen,0_2_0_1_33,2021-11-19T09:54:35.814Z,,,,,,,,,,,,,,,,53,,,,,,,,,,,,,,629.1000000715285,,response,,,99,,,,,,Space,keypress(Space),,,,,---- -- ----- -- ------ - ------- --- ----------<br>------------- ------ ------ ---- ---- ------- ----- -- ----<br>-------- ------- -- ---------- --- - --- ----- ----- ----<br>---- --- --- ----- --- feel ---- ------- ----- ---- -------<br>--- --- -- ----- -- --- ---- -- --- ---- -- ------ ------<br>--- ----- -- ----,74679.20000004768,74678.30000007153,74032.53,74039.5,74049.2,74682.585,,33,feel
screen,html.Screen,0_2_0_1_34,2021-11-19T09:54:37.110Z,,,,,,,,,,,,,,,,53,,,,,,,,,,,,,,1291.7150000715192,,response,,,99,,,,,,Space,keypress(Space),,,,,---- -- ----- -- ------ - ------- --- ----------<br>------------- ------ ------ ---- ---- ------- ----- -- ----<br>-------- ------- -- ---------- --- - --- ----- ----- ----<br>---- --- --- ----- --- ---- that ------- ----- ---- -------<br>--- --- -- ----- -- --- ---- -- --- ---- -- ------ ------<br>--- ----- -- ----,75975.10000002384,75974.30000007153,74665.916,74679.40000009537,74682.585,75983.202,,34,that
screen,html.Screen,0_2_0_1_35,2021-11-19T09:54:38.830Z,,,,,,,,,,,,,,,,53,,,,,,,,,,,,,,1710.998000047679,,response,,,99,,,,,,Space,keypress(Space),,,,,---- -- ----- -- ------ - ------- --- ----------<br>------------- ------ ------ ---- ---- ------- ----- -- ----<br>-------- ------- -- ---------- --- - --- ----- ----- ----<br>---- --- --- ----- --- ---- ---- matters ----- ---- -------<br>--- --- -- ----- -- --- ---- -- --- ---- -- ------ ------<br>--- ----- -- ----,77695.10000002384,77694.20000004768,75966.53,75975.40000009537,75983.202,77700.041,,35,matters
screen,html.Screen,0_2_0_1_36,2021-11-19T09:54:39.390Z,,,,,,,,,,,,,,,,53,,,,,,,,,,,,,,554.0590000238444,,response,,,99,,,,,,Space,keypress(Space),,,,,"---- -- ----- -- ------ - ------- --- ----------<br>------------- ------ ------ ---- ---- ------- ----- -- ----<br>-------- ------- -- ---------- --- - --- ----- ----- ----<br>---- --- --- ----- --- ---- ---- ------- most, ---- -------<br>--- --- -- ----- -- --- ---- -- --- ---- -- ------ ------<br>--- ----- -- ----",78255.20000004768,78254.10000002384,77683.371,77695.30000007153,77700.041,78266.768,,36,"most,"
screen,html.Screen,0_2_0_1_37,2021-11-19T09:54:40.118Z,,,,,,,,,,,,,,,,53,,,,,,,,,,,,,,715.8320000238455,,response,,,99,,,,,,Space,keypress(Space),,,,,---- -- ----- -- ------ - ------- --- ----------<br>------------- ------ ------ ---- ---- ------- ----- -- ----<br>-------- ------- -- ---------- --- - --- ----- ----- ----<br>---- --- --- ----- --- ---- ---- ------- ----- it's -------<br>--- --- -- ----- -- --- ---- -- --- ---- -- ------ ------<br>--- ----- -- ----,78983.40000009537,78982.60000002384,78250.099,78255.40000009537,78266.768,79000.422,,37,it's
screen,html.Screen,0_2_0_1_38,2021-11-19T09:54:40.757Z,,,,,,,,,,,,,,,,53,,,,,,,,,,,,,,621.5779999999941,,response,,,99,,,,,,Space,keypress(Space),,,,,---- -- ----- -- ------ - ------- --- ----------<br>------------- ------ ------ ---- ---- ------- ----- -- ----<br>-------- ------- -- ---------- --- - --- ----- ----- ----<br>---- --- --- ----- --- ---- ---- ------- ----- ---- whether<br>--- --- -- ----- -- --- ---- -- --- ---- -- ------ ------<br>--- ----- -- ----,79622.80000007153,79622,78983.752,78983.5,79000.422,79634.032,,38,whether
screen,html.Screen,0_2_0_1_39,2021-11-19T09:54:41.581Z,,,,,,,,,,,,,,,,53,,,,,,,,,,,,,,811.9679999999935,,response,,,99,,,,,,Space,keypress(Space),,,,,---- -- ----- -- ------ - ------- --- ----------<br>------------- ------ ------ ---- ---- ------- ----- -- ----<br>-------- ------- -- ---------- --- - --- ----- ----- ----<br>---- --- --- ----- --- ---- ---- ------- ----- ---- -------<br>you --- -- ----- -- --- ---- -- --- ---- -- ------ ------<br>--- ----- -- ----,80446.80000007153,80446,79617.361,79623,79634.032,80450.895,,39,you
screen,html.Screen,0_2_0_1_40,2021-11-19T09:54:42.245Z,,,,,,,,,,,,,,,,53,,,,,,,,,,,,,,659.1049999999959,,response,,,99,,,,,,Space,keypress(Space),,,,,---- -- ----- -- ------ - ------- --- ----------<br>------------- ------ ------ ---- ---- ------- ----- -- ----<br>-------- ------- -- ---------- --- - --- ----- ----- ----<br>---- --- --- ----- --- ---- ---- ------- ----- ---- -------<br>--- are -- ----- -- --- ---- -- --- ---- -- ------ ------<br>--- ----- -- ----,81110.90000009537,81110,80434.224,80447.10000002384,80450.895,81117.637,,40,are
screen,html.Screen,0_2_0_1_41,2021-11-19T09:54:42.941Z,,,,,,,,,,,,,,,,53,,,,,,,,,,,,,,688.263000095365,,response,,,99,,,,,,Space,keypress(Space),,,,,---- -- ----- -- ------ - ------- --- ----------<br>------------- ------ ------ ---- ---- ------- ----- -- ----<br>-------- ------- -- ---------- --- - --- ----- ----- ----<br>---- --- --- ----- --- ---- ---- ------- ----- ---- -------<br>--- --- as ----- -- --- ---- -- --- ---- -- ------ ------<br>--- ----- -- ----,81806.70000004768,81805.90000009537,81100.967,81111.10000002384,81117.637,81817.917,,41,as
screen,html.Screen,0_2_0_1_42,2021-11-19T09:54:43.765Z,,,,,,,,,,,,,,,,53,,,,,,,,,,,,,,811.9830000953662,,response,,,99,,,,,,Space,keypress(Space),,,,,---- -- ----- -- ------ - ------- --- ----------<br>------------- ------ ------ ---- ---- ------- ----- -- ----<br>-------- ------- -- ---------- --- - --- ----- ----- ----<br>---- --- --- ----- --- ---- ---- ------- ----- ---- -------<br>--- --- -- close -- --- ---- -- --- ---- -- ------ ------<br>--- ----- -- ----,82630.70000004768,82629.90000009537,81801.246,81806.90000009537,81817.917,82634.714,,42,close
screen,html.Screen,0_2_0_1_43,2021-11-19T09:54:44.533Z,,,,,,,,,,,,,,,,53,,,,,,,,,,,,,,763.0860000715184,,response,,,99,,,,,,Space,keypress(Space),,,,,---- -- ----- -- ------ - ------- --- ----------<br>------------- ------ ------ ---- ---- ------- ----- -- ----<br>-------- ------- -- ---------- --- - --- ----- ----- ----<br>---- --- --- ----- --- ---- ---- ------- ----- ---- -------<br>--- --- -- ----- as --- ---- -- --- ---- -- ------ ------<br>--- ----- -- ----,83398.70000004768,83397.80000007153,82618.044,82630.90000009537,82634.714,83401.542,,43,as
screen,html.Screen,0_2_0_1_44,2021-11-19T09:54:45.061Z,,,,,,,,,,,,,,,,53,,,,,,,,,,,,,,524.3580000953662,,response,,,99,,,,,,Space,keypress(Space),,,,,---- -- ----- -- ------ - ------- --- ----------<br>------------- ------ ------ ---- ---- ------- ----- -- ----<br>-------- ------- -- ---------- --- - --- ----- ----- ----<br>---- --- --- ----- --- ---- ---- ------- ----- ---- -------<br>--- --- -- ----- -- you ---- -- --- ---- -- ------ ------<br>--- ----- -- ----,83926.60000002384,83925.90000009537,83384.872,83398.90000009537,83401.542,83935.033,,44,you
screen,html.Screen,0_2_0_1_45,2021-11-19T09:54:45.581Z,,,,,,,,,,,,,,,,53,,,,,,,,,,,,,,510.76700007152976,,response,,,99,,,,,,Space,keypress(Space),,,,,---- -- ----- -- ------ - ------- --- ----------<br>------------- ------ ------ ---- ---- ------- ----- -- ----<br>-------- ------- -- ---------- --- - --- ----- ----- ----<br>---- --- --- ----- --- ---- ---- ------- ----- ---- -------<br>--- --- -- ----- -- --- want -- --- ---- -- ------ ------<br>--- ----- -- ----,84446.60000002384,84445.80000007153,83918.363,83926.90000009537,83935.033,84451.845,,45,want
screen,html.Screen,0_2_0_1_46,2021-11-19T09:54:46.405Z,,,,,,,,,,,,,,,,53,,,,,,,,,,,,,,817.9550000715244,,response,,,99,,,,,,Space,keypress(Space),,,,,---- -- ----- -- ------ - ------- --- ----------<br>------------- ------ ------ ---- ---- ------- ----- -- ----<br>-------- ------- -- ---------- --- - --- ----- ----- ----<br>---- --- --- ----- --- ---- ---- ------- ----- ---- -------<br>--- --- -- ----- -- --- ---- to --- ---- -- ------ ------<br>--- ----- -- ----,85270.5,85269.80000007153,84435.175,84446.80000007153,84451.845,85285.268,,46,to
screen,html.Screen,0_2_0_1_47,2021-11-19T09:54:47.645Z,,,,,,,,,,,,,,,,53,,,,,,,,,,,,,,1224.3320000238455,,response,,,99,,,,,,Space,keypress(Space),,,,,"---- -- ----- -- ------ - ------- --- ----------<br>------------- ------ ------ ---- ---- ------- ----- -- ----<br>-------- ------- -- ---------- --- - --- ----- ----- ----<br>---- --- --- ----- --- ---- ---- ------- ----- ---- -------<br>--- --- -- ----- -- --- ---- -- be, ---- -- ------ ------<br>--- ----- -- ----",86510.5,86509.60000002384,85268.599,85270.80000007153,85285.268,86519.206,,47,"be,"
screen,html.Screen,0_2_0_1_48,2021-11-19T09:54:48.501Z,,,,,,,,,,,,,,,,53,,,,,,,,,,,,,,846.3940000238363,,response,,,99,,,,,,Space,keypress(Space),,,,,---- -- ----- -- ------ - ------- --- ----------<br>------------- ------ ------ ---- ---- ------- ----- -- ----<br>-------- ------- -- ---------- --- - --- ----- ----- ----<br>---- --- --- ----- --- ---- ---- ------- ----- ---- -------<br>--- --- -- ----- -- --- ---- -- --- even -- ------ ------<br>--- ----- -- ----,87366.40000009537,87365.60000002384,86502.534,86510.70000004768,86519.206,87369.211,,48,even
screen,html.Screen,0_2_0_1_49,2021-11-19T09:54:49.133Z,,,,,,,,,,,,,,,,53,,,,,,,,,,,,,,628.3890000238462,,response,,,99,,,,,,Space,keypress(Space),,,,,---- -- ----- -- ------ - ------- --- ----------<br>------------- ------ ------ ---- ---- ------- ----- -- ----<br>-------- ------- -- ---------- --- - --- ----- ----- ----<br>---- --- --- ----- --- ---- ---- ------- ----- ---- -------<br>--- --- -- ----- -- --- ---- -- --- ---- if ------ ------<br>--- ----- -- ----,87998.40000009537,87997.60000002384,87352.541,87366.60000002384,87369.211,88002.707,,49,if
screen,html.Screen,0_2_0_1_50,2021-11-19T09:54:49.653Z,,,,,,,,,,,,,,,,53,,,,,,,,,,,,,,514.893000023847,,response,,,99,,,,,,Space,keypress(Space),,,,,---- -- ----- -- ------ - ------- --- ----------<br>------------- ------ ------ ---- ---- ------- ----- -- ----<br>-------- ------- -- ---------- --- - --- ----- ----- ----<br>---- --- --- ----- --- ---- ---- ------- ----- ---- -------<br>--- --- -- ----- -- --- ---- -- --- ---- -- that's ------<br>--- ----- -- ----,88518.30000007153,88517.60000002384,87986.037,87998.60000002384,88002.707,88519.634,,50,that's
screen,html.Screen,0_2_0_1_51,2021-11-19T09:54:50.213Z,,,,,,,,,,,,,,,,53,,,,,,,,,,,,,,558.3659999999945,,response,,,99,,,,,,Space,keypress(Space),,,,,---- -- ----- -- ------ - ------- --- ----------<br>------------- ------ ------ ---- ---- ------- ----- -- ----<br>-------- ------- -- ---------- --- - --- ----- ----- ----<br>---- --- --- ----- --- ---- ---- ------- ----- ---- -------<br>--- --- -- ----- -- --- ---- -- --- ---- -- ------ really<br>--- ----- -- ----,89078.80000007153,89078,88502.963,88518.60000002384,88519.634,89086.449,,51,really
screen,html.Screen,0_2_0_1_52,2021-11-19T09:54:50.757Z,,,,,,,,,,,,,,,,53,,,,,,,,,,,,,,535.0510000000068,,response,,,99,,,,,,Space,keypress(Space),,,,,---- -- ----- -- ------ - ------- --- ----------<br>------------- ------ ------ ---- ---- ------- ----- -- ----<br>-------- ------- -- ---------- --- - --- ----- ----- ----<br>---- --- --- ----- --- ---- ---- ------- ----- ---- -------<br>--- --- -- ----- -- --- ---- -- --- ---- -- ------ ------<br>not ----- -- ----,89622.30000007153,89621.5,89069.778,89079.10000002384,89086.449,89636.522,,52,not
screen,html.Screen,0_2_0_1_53,2021-11-19T09:54:51.381Z,,,,,,,,,,,,,,,,53,,,,,,,,,,,,,,608.9780000000028,,response,,,99,,,,,,Space,keypress(Space),,,,,---- -- ----- -- ------ - ------- --- ----------<br>------------- ------ ------ ---- ---- ------- ----- -- ----<br>-------- ------- -- ---------- --- - --- ----- ----- ----<br>---- --- --- ----- --- ---- ---- ------- ----- ---- -------<br>--- --- -- ----- -- --- ---- -- --- ---- -- ------ ------<br>--- close -- ----,90246.20000004768,90245.5,89619.852,89622.60000002384,89636.522,90253.352,,53,close
screen,html.Screen,0_2_0_1_54,2021-11-19T09:54:51.869Z,,,,,,,,,,,,,,,,53,,,,,,,,,,,,,,480.14800000000105,,response,,,99,,,,,,Space,keypress(Space),,,,,---- -- ----- -- ------ - ------- --- ----------<br>------------- ------ ------ ---- ---- ------- ----- -- ----<br>-------- ------- -- ---------- --- - --- ----- ----- ----<br>---- --- --- ----- --- ---- ---- ------- ----- ---- -------<br>--- --- -- ----- -- --- ---- -- --- ---- -- ------ ------<br>--- ----- at ----,90734.30000007153,90733.5,90236.682,90246.40000009537,90253.352,90736.824,,54,at
screen,html.Screen,0_2_0_1_55,2021-11-19T09:54:53.237Z,,,,,,,,,,,,,,,,53,,,,,,,,,,,,,,1364.4760000715323,,response,,,99,,,,,,Space,keypress(Space),,,,,---- -- ----- -- ------ - ------- --- ----------<br>------------- ------ ------ ---- ---- ------- ----- -- ----<br>-------- ------- -- ---------- --- - --- ----- ----- ----<br>---- --- --- ----- --- ---- ---- ------- ----- ---- -------<br>--- --- -- ----- -- --- ---- -- --- ---- -- ------ ------<br>--- ----- -- all.,92102.20000004768,92101.30000007153,90720.154,90734.5,90736.824,92120.467,,55,all.
Item 99,flow.Loop,0_2_0_1,2021-11-19T09:54:53.241Z,,,,,,,,,,,,,,,,,,,,,,,,,,,,,,49510.453000071524,,completion,,,,E,,,,,,,,,,silence,,92106.80000007153,92101.30000007153,42557.509,42563.800000071526,42590.847,92120.467,,,
Question 1,html.Screen,0_2_0_2,2021-11-19T09:54:57.819Z,,,,,,,,,,,,,,,,,,,,,,,,,,,true,FALSE,,4562.7330000476795,,response,,,99,E,,,,,FALSE,click #choice-2,,,,silence,,96684.60000002384,96683.20000004768,92103.797,92107.10000002384,92120.467,96688.387,,,
Question 2,html.Screen,0_2_0_3,2021-11-19T09:55:01.806Z,,,,,,,,,,,,,,,,,,,,,,,,,,,true,TRUE,,3982.1129999999976,,response,,,99,E,,,,,TRUE,click #choice-1,,,,silence,,100671.70000004768,100670.5,96671.716,96684.90000009537,96688.387,100672.691,,,
Item 99,flow.Sequence,0_2_0,2021-11-19T09:55:01.807Z,,,,,,,,,,,,,,,,,,,,,,,,,,,,,,68098.599,,completion,,,,,,,,,,,,,,,,100672.10000002384,100670.5,32555.23,32568.400000095367,32571.901,100672.691,,,
Holding screen,html.Screen,0_2_1_0,2021-11-19T09:55:11.794Z,,,,,,,,,,,,,,,,,,,,,,,,,,,,,,10002.341,,timeout,,,,,,,,,,,,,,,,110659.30000007153,110658.363,100656.021,100672.5,100672.691,110675.032,,,
screen,html.Screen,0_2_1_1_0,2021-11-19T09:55:12.748Z,,,,,,,,,,,,,,,,54,,,,,,,,,,,,,,937.768000071519,,response,,,100,,,,,,Space,keypress(Space),,,,,At --- ---- --- ------ ----- ------- ---- -- --- ------- --<br>------- ---------- ------ -- ----- -- ----- -- ---- ------<br>--- ----- --- --- ------ -------- ----- --- ------ ----- --<br>----- ----- ---------- --- --- ------ ------ ---- -- ------<br>------- --- ------ ----- --- ---- ------- -- ---- --- --<br>------- ------,111613.60000002384,111612.80000007153,110658.363,110659.80000007153,110675.032,111625.573,,0,At
screen,html.Screen,0_2_1_1_1,2021-11-19T09:55:14.195Z,,,,,,,,,,,,,,,,54,,,,,,,,,,,,,,1434.6270000476798,,response,,,100,,,,,,Space,keypress(Space),,,,,-- the ---- --- ------ ----- ------- ---- -- --- ------- --<br>------- ---------- ------ -- ----- -- ----- -- ---- ------<br>--- ----- --- --- ------ -------- ----- --- ------ ----- --<br>----- ----- ---------- --- --- ------ ------ ---- -- ------<br>------- --- ------ ----- --- ---- ------- -- ---- --- --<br>------- ------,113061,113060.20000004768,111608.902,111613.90000009537,111625.573,113075.807,,1,the
screen,html.Screen,0_2_1_1_2,2021-11-19T09:55:14.995Z,,,,,,,,,,,,,,,,54,,,,,,,,,,,,,,784.2930000238412,,response,,,100,,,,,,Space,keypress(Space),,,,,-- --- time --- ------ ----- ------- ---- -- --- ------- --<br>------- ---------- ------ -- ----- -- ----- -- ---- ------<br>--- ----- --- --- ------ -------- ----- --- ------ ----- --<br>----- ----- ---------- --- --- ------ ------ ---- -- ------<br>------- --- ------ ----- --- ---- ------- -- ---- --- --<br>------- ------,113860.90000009537,113860.10000002384,113059.137,113061.30000007153,113075.807,113876.088,,2,time
screen,html.Screen,0_2_1_1_3,2021-11-19T09:55:15.771Z,,,,,,,,,,,,,,,,54,,,,,,,,,,,,,,760.0120000238385,,response,,,100,,,,,,Space,keypress(Space),,,,,-- --- ---- the ------ ----- ------- ---- -- --- ------- --<br>------- ---------- ------ -- ----- -- ----- -- ---- ------<br>--- ----- --- --- ------ -------- ----- --- ------ ----- --<br>----- ----- ---------- --- --- ------ ------ ---- -- ------<br>------- --- ------ ----- --- ---- ------- -- ---- --- --<br>------- ------,114636.90000009537,114636.10000002384,113859.418,113861.20000004768,113876.088,114642.97,,3,the
screen,html.Screen,0_2_1_1_4,2021-11-19T09:55:16.683Z,,,,,,,,,,,,,,,,54,,,,,,,,,,,,,,905.1300000238407,,response,,,100,,,,,,Space,keypress(Space),,,,,-- --- ---- --- French ----- ------- ---- -- --- ------- --<br>------- ---------- ------ -- ----- -- ----- -- ---- ------<br>--- ----- --- --- ------ -------- ----- --- ------ ----- --<br>----- ----- ---------- --- --- ------ ------ ---- -- ------<br>------- --- ------ ----- --- ---- ------- -- ---- --- --<br>------- ------,115548.90000009537,115548.10000002384,114626.3,114637.10000002384,114642.97,115559.836,,4,French
screen,html.Screen,0_2_1_1_5,2021-11-19T09:55:17.755Z,,,,,,,,,,,,,,,,54,,,,,,,,,,,,,,1060.1640000000043,,response,,,100,,,,,,Space,keypress(Space),,,,,-- --- ---- --- ------ crown ------- ---- -- --- ------- --<br>------- ---------- ------ -- ----- -- ----- -- ---- ------<br>--- ----- --- --- ------ -------- ----- --- ------ ----- --<br>----- ----- ---------- --- --- ------ ------ ---- -- ------<br>------- --- ------ ----- --- ---- ------- -- ---- --- --<br>------- ------,116620.80000007153,116620,115543.166,115549.10000002384,115559.836,116626.876,,5,crown
screen,html.Screen,0_2_1_1_6,2021-11-19T09:55:18.651Z,,,,,,,,,,,,,,,,54,,,,,,,,,,,,,,889.1239999999962,,response,,,100,,,,,,Space,keypress(Space),,,,,-- --- ---- --- ------ ----- secured ---- -- --- ------- --<br>------- ---------- ------ -- ----- -- ----- -- ---- ------<br>--- ----- --- --- ------ -------- ----- --- ------ ----- --<br>----- ----- ---------- --- --- ------ ------ ---- -- ------<br>------- --- ------ ----- --- ---- ------- -- ---- --- --<br>------- ------,117516.80000007153,117516,116610.205,116621.10000002384,116626.876,117526.847,,6,secured
screen,html.Screen,0_2_1_1_7,2021-11-19T09:55:19.379Z,,,,,,,,,,,,,,,,54,,,,,,,,,,,,,,717.1530000000057,,response,,,100,,,,,,Space,keypress(Space),,,,,-- --- ---- --- ------ ----- ------- much -- --- ------- --<br>------- ---------- ------ -- ----- -- ----- -- ---- ------<br>--- ----- --- --- ------ -------- ----- --- ------ ----- --<br>----- ----- ---------- --- --- ------ ------ ---- -- ------<br>------- --- ------ ----- --- ---- ------- -- ---- --- --<br>------- ------,118244.80000007153,118244,117510.178,117517,117526.847,118260.657,,7,much
screen,html.Screen,0_2_1_1_8,2021-11-19T09:55:20.243Z,,,,,,,,,,,,,,,,54,,,,,,,,,,,,,,847.143000071519,,response,,,100,,,,,,Space,keypress(Space),,,,,-- --- ---- --- ------ ----- ------- ---- of --- ------- --<br>------- ---------- ------ -- ----- -- ----- -- ---- ------<br>--- ----- --- --- ------ -------- ----- --- ------ ----- --<br>----- ----- ---------- --- --- ------ ------ ---- -- ------<br>------- --- ------ ----- --- ---- ------- -- ---- --- --<br>------- ------,119108.70000004768,119107.80000007153,118243.986,118245,118260.657,119110.604,,8,of
screen,html.Screen,0_2_1_1_9,2021-11-19T09:55:20.851Z,,,,,,,,,,,,,,,,54,,,,,,,,,,,,,,605.2960000953608,,response,,,100,,,,,,Space,keypress(Space),,,,,-- --- ---- --- ------ ----- ------- ---- -- its ------- --<br>------- ---------- ------ -- ----- -- ----- -- ---- ------<br>--- ----- --- --- ------ -------- ----- --- ------ ----- --<br>----- ----- ---------- --- --- ------ ------ ---- -- ------<br>------- --- ------ ----- --- ---- ------- -- ---- --- --<br>------- ------,119716.70000004768,119715.90000009537,119093.935,119108.90000009537,119110.604,119727.698,,9,its
screen,html.Screen,0_2_1_1_10,2021-11-19T09:55:21.895Z,,,,,,,,,,,,,,,,54,,,,,,,,,,,,,,1028.2020000953635,,response,,,100,,,,,,Space,keypress(Space),,,,,-- --- ---- --- ------ ----- ------- ---- -- --- revenue --<br>------- ---------- ------ -- ----- -- ----- -- ---- ------<br>--- ----- --- --- ------ -------- ----- --- ------ ----- --<br>----- ----- ---------- --- --- ------ ------ ---- -- ------<br>------- --- ------ ----- --- ---- ------- -- ---- --- --<br>------- ------,120756.60000002384,120755.90000009537,119711.027,119716.90000009537,119727.698,120761.175,,10,revenue
screen,html.Screen,0_2_1_1_11,2021-11-19T09:55:22.431Z,,,,,,,,,,,,,,,,54,,,,,,,,,,,,,,530.6250000715227,,response,,,100,,,,,,Space,keypress(Space),,,,,-- --- ---- --- ------ ----- ------- ---- -- --- ------- by<br>------- ---------- ------ -- ----- -- ----- -- ---- ------<br>--- ----- --- --- ------ -------- ----- --- ------ ----- --<br>----- ----- ---------- --- --- ------ ------ ---- -- ------<br>------- --- ------ ----- --- ---- ------- -- ---- --- --<br>------- ------,121292.5,121291.80000007153,120744.505,120756.90000009537,120761.175,121294.684,,11,by
screen,html.Screen,0_2_1_1_12,2021-11-19T09:55:23.552Z,,,,,,,,,,,,,,,,54,,,,,,,,,,,,,,1117.5160000476899,,response,,,100,,,,,,Space,keypress(Space),,,,,-- --- ---- --- ------ ----- ------- ---- -- --- ------- --<br>issuing ---------- ------ -- ----- -- ----- -- ---- ------<br>--- ----- --- --- ------ -------- ----- --- ------ ----- --<br>----- ----- ---------- --- --- ------ ------ ---- -- ------<br>------- --- ------ ----- --- ---- ------- -- ---- --- --<br>------- ------,122413.10000002384,122412.20000004768,121278.014,121292.80000007153,121294.684,122428.283,,12,issuing
screen,html.Screen,0_2_1_1_13,2021-11-19T09:55:24.311Z,,,,,,,,,,,,,,,,54,,,,,,,,,,,,,,743.4170000476879,,response,,,100,,,,,,Space,keypress(Space),,,,,-- --- ---- --- ------ ----- ------- ---- -- --- ------- --<br>------- government ------ -- ----- -- ----- -- ---- ------<br>--- ----- --- --- ------ -------- ----- --- ------ ----- --<br>----- ----- ---------- --- --- ------ ------ ---- -- ------<br>------- --- ------ ----- --- ---- ------- -- ---- --- --<br>------- ------,123172.40000009537,123171.70000004768,122411.613,122413.40000009537,122428.283,123178.466,,13,government
screen,html.Screen,0_2_1_1_14,2021-11-19T09:55:25.743Z,,,,,,,,,,,,,,,,54,,,,,,,,,,,,,,1425.1340000238415,,response,,,100,,,,,,Space,keypress(Space),,,,,-- --- ---- --- ------ ----- ------- ---- -- --- ------- --<br>------- ---------- bonds. -- ----- -- ----- -- ---- ------<br>--- ----- --- --- ------ -------- ----- --- ------ ----- --<br>----- ----- ---------- --- --- ------ ------ ---- -- ------<br>------- --- ------ ----- --- ---- ------- -- ---- --- --<br>------- ------,124604.40000009537,124603.60000002384,123161.796,123172.60000002384,123178.466,124612.154,,14,bonds.
screen,html.Screen,0_2_1_1_15,2021-11-19T09:55:26.383Z,,,,,,,,,,,,,,,,54,,,,,,,,,,,,,,631.4460000238469,,response,,,100,,,,,,Space,keypress(Space),,,,,-- --- ---- --- ------ ----- ------- ---- -- --- ------- --<br>------- ---------- ------ In ----- -- ----- -- ---- ------<br>--- ----- --- --- ------ -------- ----- --- ------ ----- --<br>----- ----- ---------- --- --- ------ ------ ---- -- ------<br>------- --- ------ ----- --- ---- ------- -- ---- --- --<br>------- ------,125244.40000009537,125243.60000002384,124595.484,124604.70000004768,124612.154,125245.681,,15,In
screen,html.Screen,0_2_1_1_16,2021-11-19T09:55:27.303Z,,,,,,,,,,,,,,,,54,,,,,,,,,,,,,,917.8190000000031,,response,,,100,,,,,,Space,keypress(Space),,,,,"-- --- ---- --- ------ ----- ------- ---- -- --- ------- --<br>------- ---------- ------ -- 1727, -- ----- -- ---- ------<br>--- ----- --- --- ------ -------- ----- --- ------ ----- --<br>----- ----- ---------- --- --- ------ ------ ---- -- ------<br>------- --- ------ ----- --- ---- ------- -- ---- --- --<br>------- ------",126164.30000007153,126163.5,125229.011,125244.60000002384,125245.681,126179.181,,16,"1727,"
screen,html.Screen,0_2_1_1_17,2021-11-19T09:55:27.863Z,,,,,,,,,,,,,,,,54,,,,,,,,,,,,,,544.3190000000031,,response,,,100,,,,,,Space,keypress(Space),,,,,-- --- ---- --- ------ ----- ------- ---- -- --- ------- --<br>------- ---------- ------ -- ----- in ----- -- ---- ------<br>--- ----- --- --- ------ -------- ----- --- ------ ----- --<br>----- ----- ---------- --- --- ------ ------ ---- -- ------<br>------- --- ------ ----- --- ---- ------- -- ---- --- --<br>------- ------,126724.30000007153,126723.5,126162.511,126164.60000002384,126179.181,126729.559,,17,in
screen,html.Screen,0_2_1_1_18,2021-11-19T09:55:28.911Z,,,,,,,,,,,,,,,,54,,,,,,,,,,,,,,1041.7410000715317,,response,,,100,,,,,,Space,keypress(Space),,,,,-- --- ---- --- ------ ----- ------- ---- -- --- ------- --<br>------- ---------- ------ -- ----- -- order -- ---- ------<br>--- ----- --- --- ------ -------- ----- --- ------ ----- --<br>----- ----- ---------- --- --- ------ ------ ---- -- ------<br>------- --- ------ ----- --- ---- ------- -- ---- --- --<br>------- ------,127772.20000004768,127771.30000007153,126712.887,126724.60000002384,126729.559,127779.656,,18,order
screen,html.Screen,0_2_1_1_19,2021-11-19T09:55:29.599Z,,,,,,,,,,,,,,,,54,,,,,,,,,,,,,,679.7440000953648,,response,,,100,,,,,,Space,keypress(Space),,,,,-- --- ---- --- ------ ----- ------- ---- -- --- ------- --<br>------- ---------- ------ -- ----- -- ----- to ---- ------<br>--- ----- --- --- ------ -------- ----- --- ------ ----- --<br>----- ----- ---------- --- --- ------ ------ ---- -- ------<br>------- --- ------ ----- --- ---- ------- -- ---- --- --<br>------- ------,128460.10000002384,128459.40000009537,127762.986,127772.40000009537,127779.656,128463.119,,19,to
screen,html.Screen,0_2_1_1_20,2021-11-19T09:55:30.255Z,,,,,,,,,,,,,,,,54,,,,,,,,,,,,,,652.1810000715195,,response,,,100,,,,,,Space,keypress(Space),,,,,-- --- ---- --- ------ ----- ------- ---- -- --- ------- --<br>------- ---------- ------ -- ----- -- ----- -- save ------<br>--- ----- --- --- ------ -------- ----- --- ------ ----- --<br>----- ----- ---------- --- --- ------ ------ ---- -- ------<br>------- --- ------ ----- --- ---- ------- -- ---- --- --<br>------- ------,129116.10000002384,129115.30000007153,128446.449,128460.30000007153,128463.119,129130.019,,20,save
screen,html.Screen,0_2_1_1_21,2021-11-19T09:55:31.159Z,,,,,,,,,,,,,,,,54,,,,,,,,,,,,,,889.2810000715253,,response,,,100,,,,,,Space,keypress(Space),,,,,"-- --- ---- --- ------ ----- ------- ---- -- --- ------- --<br>------- ---------- ------ -- ----- -- ----- -- ---- money,<br>--- ----- --- --- ------ -------- ----- --- ------ ----- --<br>----- ----- ---------- --- --- ------ ------ ---- -- ------<br>------- --- ------ ----- --- ---- ------- -- ---- --- --<br>------- ------",130020,130019.30000007153,129113.349,129116.40000009537,129130.019,130030.34,,21,"money,"
screen,html.Screen,0_2_1_1_22,2021-11-19T09:55:31.598Z,,,,,,,,,,,,,,,,54,,,,,,,,,,,,,,428.8600000476872,,response,,,100,,,,,,Space,keypress(Space),,,,,-- --- ---- --- ------ ----- ------- ---- -- --- ------- --<br>------- ---------- ------ -- ----- -- ----- -- ---- ------<br>the ----- --- --- ------ -------- ----- --- ------ ----- --<br>----- ----- ---------- --- --- ------ ------ ---- -- ------<br>------- --- ------ ----- --- ---- ------- -- ---- --- --<br>------- ------,130460,130459.20000004768,130013.669,130020.20000004768,130030.34,130463.553,,22,the
screen,html.Screen,0_2_1_1_23,2021-11-19T09:55:32.206Z,,,,,,,,,,,,,,,,54,,,,,,,,,,,,,,603.6470000476838,,response,,,100,,,,,,Space,keypress(Space),,,,,-- --- ---- --- ------ ----- ------- ---- -- --- ------- --<br>------- ---------- ------ -- ----- -- ----- -- ---- ------<br>--- state --- --- ------ -------- ----- --- ------ ----- --<br>----- ----- ---------- --- --- ------ ------ ---- -- ------<br>------- --- ------ ----- --- ---- ------- -- ---- --- --<br>------- ------,131068,131067.20000004768,130446.884,130460.20000004768,130463.553,131080.597,,23,state
screen,html.Screen,0_2_1_1_24,2021-11-19T09:55:32.902Z,,,,,,,,,,,,,,,,54,,,,,,,,,,,,,,682.6030000476749,,response,,,100,,,,,,Space,keypress(Space),,,,,-- --- ---- --- ------ ----- ------- ---- -- --- ------- --<br>------- ---------- ------ -- ----- -- ----- -- ---- ------<br>--- ----- cut --- ------ -------- ----- --- ------ ----- --<br>----- ----- ---------- --- --- ------ ------ ---- -- ------<br>------- --- ------ ----- --- ---- ------- -- ---- --- --<br>------- ------,131764,131763.20000004768,131063.926,131068.20000004768,131080.597,131780.695,,24,cut
screen,html.Screen,0_2_1_1_25,2021-11-19T09:55:33.671Z,,,,,,,,,,,,,,,,54,,,,,,,,,,,,,,750.9050000238349,,response,,,100,,,,,,Space,keypress(Space),,,,,-- --- ---- --- ------ ----- ------- ---- -- --- ------- --<br>------- ---------- ------ -- ----- -- ----- -- ---- ------<br>--- ----- --- the ------ -------- ----- --- ------ ----- --<br>----- ----- ---------- --- --- ------ ------ ---- -- ------<br>------- --- ------ ----- --- ---- ------- -- ---- --- --<br>------- ------,132532.40000009537,132531.60000002384,131764.025,131764.20000004768,131780.695,132547.571,,25,the
screen,html.Screen,0_2_1_1_26,2021-11-19T09:55:34.590Z,,,,,,,,,,,,,,,,54,,,,,,,,,,,,,,903.5290000238456,,response,,,100,,,,,,Space,keypress(Space),,,,,-- --- ---- --- ------ ----- ------- ---- -- --- ------- --<br>------- ---------- ------ -- ----- -- ----- -- ---- ------<br>--- ----- --- --- bonds' -------- ----- --- ------ ----- --<br>----- ----- ---------- --- --- ------ ------ ---- -- ------<br>------- --- ------ ----- --- ---- ------- -- ---- --- --<br>------- ------,133452,133451.10000002384,132530.901,132532.70000004768,132547.571,133464.468,,26,bonds'
screen,html.Screen,0_2_1_1_27,2021-11-19T09:55:35.463Z,,,,,,,,,,,,,,,,54,,,,,,,,,,,,,,858.6320000238484,,response,,,100,,,,,,Space,keypress(Space),,,,,-- --- ---- --- ------ ----- ------- ---- -- --- ------- --<br>------- ---------- ------ -- ----- -- ----- -- ---- ------<br>--- ----- --- --- ------ interest ----- --- ------ ----- --<br>----- ----- ---------- --- --- ------ ------ ---- -- ------<br>------- --- ------ ----- --- ---- ------- -- ---- --- --<br>------- ------,134324,134323.10000002384,133447.798,133452.20000004768,133464.468,134331.226,,27,interest
screen,html.Screen,0_2_1_1_28,2021-11-19T09:55:36.454Z,,,,,,,,,,,,,,,,54,,,,,,,,,,,,,,983.7740000000049,,response,,,100,,,,,,Space,keypress(Space),,,,,-- --- ---- --- ------ ----- ------- ---- -- --- ------- --<br>------- ---------- ------ -- ----- -- ----- -- ---- ------<br>--- ----- --- --- ------ -------- rate. --- ------ ----- --<br>----- ----- ---------- --- --- ------ ------ ---- -- ------<br>------- --- ------ ----- --- ---- ------- -- ---- --- --<br>------- ------,135315.80000007153,135315,134314.557,134324.30000007153,134331.226,135331.697,,28,rate.
screen,html.Screen,0_2_1_1_29,2021-11-19T09:55:36.958Z,,,,,,,,,,,,,,,,54,,,,,,,,,,,,,,487.20300009538187,,response,,,100,,,,,,Space,keypress(Space),,,,,-- --- ---- --- ------ ----- ------- ---- -- --- ------- --<br>------- ---------- ------ -- ----- -- ----- -- ---- ------<br>--- ----- --- --- ------ -------- ----- The ------ ----- --<br>----- ----- ---------- --- --- ------ ------ ---- -- ------<br>------- --- ------ ----- --- ---- ------- -- ---- --- --<br>------- ------,135819.80000007153,135818.90000009537,135315.026,135316.10000002384,135331.697,135831.763,,29,The
screen,html.Screen,0_2_1_1_30,2021-11-19T09:55:38.150Z,,,,,,,,,,,,,,,,54,,,,,,,,,,,,,,1179.0370000715193,,response,,,100,,,,,,Space,keypress(Space),,,,,-- --- ---- --- ------ ----- ------- ---- -- --- ------- --<br>------- ---------- ------ -- ----- -- ----- -- ---- ------<br>--- ----- --- --- ------ -------- ----- --- market ----- --<br>----- ----- ---------- --- --- ------ ------ ---- -- ------<br>------- --- ------ ----- --- ---- ------- -- ---- --- --<br>------- ------,137011.80000007153,137010.80000007153,135815.093,135820,135831.763,137015.315,,30,market
screen,html.Screen,0_2_1_1_31,2021-11-19T09:55:38.822Z,,,,,,,,,,,,,,,,54,,,,,,,,,,,,,,667.4850000715232,,response,,,100,,,,,,Space,keypress(Space),,,,,-- --- ---- --- ------ ----- ------- ---- -- --- ------- --<br>------- ---------- ------ -- ----- -- ----- -- ---- ------<br>--- ----- --- --- ------ -------- ----- --- ------ value --<br>----- ----- ---------- --- --- ------ ------ ---- -- ------<br>------- --- ------ ----- --- ---- ------- -- ---- --- --<br>------- ------,137683.70000004768,137682.80000007153,136998.645,137012,137015.315,137698.995,,31,value
screen,html.Screen,0_2_1_1_32,2021-11-19T09:55:39.598Z,,,,,,,,,,,,,,,,54,,,,,,,,,,,,,,759.8050000715302,,response,,,100,,,,,,Space,keypress(Space),,,,,-- --- ---- --- ------ ----- ------- ---- -- --- ------- --<br>------- ---------- ------ -- ----- -- ----- -- ---- ------<br>--- ----- --- --- ------ -------- ----- --- ------ ----- of<br>----- ----- ---------- --- --- ------ ------ ---- -- ------<br>------- --- ------ ----- --- ---- ------- -- ---- --- --<br>------- ------,138459.60000002384,138458.80000007153,137682.324,137683.90000009537,137698.995,138465.76,,32,of
screen,html.Screen,0_2_1_1_33,2021-11-19T09:55:40.062Z,,,,,,,,,,,,,,,,54,,,,,,,,,,,,,,457.04000007151626,,response,,,100,,,,,,Space,keypress(Space),,,,,-- --- ---- --- ------ ----- ------- ---- -- --- ------- --<br>------- ---------- ------ -- ----- -- ----- -- ---- ------<br>--- ----- --- --- ------ -------- ----- --- ------ ----- --<br>these ----- ---------- --- --- ------ ------ ---- -- ------<br>------- --- ------ ----- --- ---- ------- -- ---- --- --<br>------- ------,138923.60000002384,138922.80000007153,138449.09,138459.90000009537,138465.76,138932.612,,33,these
screen,html.Screen,0_2_1_1_34,2021-11-19T09:55:40.646Z,,,,,,,,,,,,,,,,54,,,,,,,,,,,,,,574.08800004769,,response,,,100,,,,,,Space,keypress(Space),,,,,-- --- ---- --- ------ ----- ------- ---- -- --- ------- --<br>------- ---------- ------ -- ----- -- ----- -- ---- ------<br>--- ----- --- --- ------ -------- ----- --- ------ ----- --<br>----- bonds ---------- --- --- ------ ------ ---- -- ------<br>------- --- ------ ----- --- ---- ------- -- ---- --- --<br>------- ------,139507.60000002384,139506.70000004768,138915.941,138923.90000009537,138932.612,139516.029,,34,bonds
screen,html.Screen,0_2_1_1_35,2021-11-19T09:55:41.342Z,,,,,,,,,,,,,,,,54,,,,,,,,,,,,,,686.6710000476742,,response,,,100,,,,,,Space,keypress(Space),,,,,"-- --- ---- --- ------ ----- ------- ---- -- --- ------- --<br>------- ---------- ------ -- ----- -- ----- -- ---- ------<br>--- ----- --- --- ------ -------- ----- --- ------ ----- --<br>----- ----- plummeted, --- --- ------ ------ ---- -- ------<br>------- --- ------ ----- --- ---- ------- -- ---- --- --<br>------- ------",140203.60000002384,140202.70000004768,139499.359,139507.90000009537,139516.029,140216.182,,35,"plummeted,"
screen,html.Screen,0_2_1_1_36,2021-11-19T09:55:41.902Z,,,,,,,,,,,,,,,,54,,,,,,,,,,,,,,546.518000047683,,response,,,100,,,,,,Space,keypress(Space),,,,,-- --- ---- --- ------ ----- ------- ---- -- --- ------- --<br>------- ---------- ------ -- ----- -- ----- -- ---- ------<br>--- ----- --- --- ------ -------- ----- --- ------ ----- --<br>----- ----- ---------- and --- ------ ------ ---- -- ------<br>------- --- ------ ----- --- ---- ------- -- ---- --- --<br>------- ------,140763.5,140762.70000004768,140199.512,140205.40000009537,140216.182,140766.356,,36,and
screen,html.Screen,0_2_1_1_37,2021-11-19T09:55:42.598Z,,,,,,,,,,,,,,,,54,,,,,,,,,,,,,,692.2440000238421,,response,,,100,,,,,,Space,keypress(Space),,,,,-- --- ---- --- ------ ----- ------- ---- -- --- ------- --<br>------- ---------- ------ -- ----- -- ----- -- ---- ------<br>--- ----- --- --- ------ -------- ----- --- ------ ----- --<br>----- ----- ---------- --- the ------ ------ ---- -- ------<br>------- --- ------ ----- --- ---- ------- -- ---- --- --<br>------- ------,141459.5,141458.60000002384,140749.686,140763.70000004768,140766.356,141466.596,,37,the
screen,html.Screen,0_2_1_1_38,2021-11-19T09:55:43.366Z,,,,,,,,,,,,,,,,54,,,,,,,,,,,,,,760.0040000238514,,response,,,100,,,,,,Space,keypress(Space),,,,,-- --- ---- --- ------ ----- ------- ---- -- --- ------- --<br>------- ---------- ------ -- ----- -- ----- -- ---- ------<br>--- ----- --- --- ------ -------- ----- --- ------ ----- --<br>----- ----- ---------- --- --- market ------ ---- -- ------<br>------- --- ------ ----- --- ---- ------- -- ---- --- --<br>------- ------,142227.40000009537,142226.60000002384,141449.925,141459.70000004768,141466.596,142233.379,,38,market
screen,html.Screen,0_2_1_1_39,2021-11-19T09:55:43.974Z,,,,,,,,,,,,,,,,54,,,,,,,,,,,,,,601.7210000238556,,response,,,100,,,,,,Space,keypress(Space),,,,,-- --- ---- --- ------ ----- ------- ---- -- --- ------- --<br>------- ---------- ------ -- ----- -- ----- -- ---- ------<br>--- ----- --- --- ------ -------- ----- --- ------ ----- --<br>----- ----- ---------- --- --- ------ became ---- -- ------<br>------- --- ------ ----- --- ---- ------- -- ---- --- --<br>------- ------,142835.80000007153,142835.10000002384,142216.709,142227.70000004768,142233.379,142850.226,,39,became
screen,html.Screen,0_2_1_1_40,2021-11-19T09:55:44.694Z,,,,,,,,,,,,,,,,54,,,,,,,,,,,,,,704.3740000238467,,response,,,100,,,,,,Space,keypress(Space),,,,,-- --- ---- --- ------ ----- ------- ---- -- --- ------- --<br>------- ---------- ------ -- ----- -- ----- -- ---- ------<br>--- ----- --- --- ------ -------- ----- --- ------ ----- --<br>----- ----- ---------- --- --- ------ ------ wary -- ------<br>------- --- ------ ----- --- ---- ------- -- ---- --- --<br>------- ------,143555.40000009537,143554.60000002384,142833.556,142836,142850.226,143567.136,,40,wary
screen,html.Screen,0_2_1_1_41,2021-11-19T09:55:45.438Z,,,,,,,,,,,,,,,,54,,,,,,,,,,,,,,731.3640000000014,,response,,,100,,,,,,Space,keypress(Space),,,,,-- --- ---- --- ------ ----- ------- ---- -- --- ------- --<br>------- ---------- ------ -- ----- -- ----- -- ---- ------<br>--- ----- --- --- ------ -------- ----- --- ------ ----- --<br>----- ----- ---------- --- --- ------ ------ ---- of ------<br>------- --- ------ ----- --- ---- ------- -- ---- --- --<br>------- ------,144299.30000007153,144298.5,143550.465,143555.70000004768,143567.136,144300.585,,41,of
screen,html.Screen,0_2_1_1_42,2021-11-19T09:55:45.974Z,,,,,,,,,,,,,,,,54,,,,,,,,,,,,,,533.9150000000081,,response,,,100,,,,,,Space,keypress(Space),,,,,-- --- ---- --- ------ ----- ------- ---- -- --- ------- --<br>------- ---------- ------ -- ----- -- ----- -- ---- ------<br>--- ----- --- --- ------ -------- ----- --- ------ ----- --<br>----- ----- ---------- --- --- ------ ------ ---- -- French<br>------- --- ------ ----- --- ---- ------- -- ---- --- --<br>------- ------,144835.30000007153,144834.5,144283.915,144299.60000002384,144300.585,144850.73,,42,French
screen,html.Screen,0_2_1_1_43,2021-11-19T09:55:46.774Z,,,,,,,,,,,,,,,,54,,,,,,,,,,,,,,783.670000095357,,response,,,100,,,,,,Space,keypress(Space),,,,,-- --- ---- --- ------ ----- ------- ---- -- --- ------- --<br>------- ---------- ------ -- ----- -- ----- -- ---- ------<br>--- ----- --- --- ------ -------- ----- --- ------ ----- --<br>----- ----- ---------- --- --- ------ ------ ---- -- ------<br>credit. --- ------ ----- --- ---- ------- -- ---- --- --<br>------- ------,145635.30000007153,145634.40000009537,144834.06,144835.5,144850.73,145651.004,,43,credit.
screen,html.Screen,0_2_1_1_44,2021-11-19T09:55:47.190Z,,,,,,,,,,,,,,,,54,,,,,,,,,,,,,,399.39600009538117,,response,,,100,,,,,,Space,keypress(Space),,,,,-- --- ---- --- ------ ----- ------- ---- -- --- ------- --<br>------- ---------- ------ -- ----- -- ----- -- ---- ------<br>--- ----- --- --- ------ -------- ----- --- ------ ----- --<br>----- ----- ---------- --- --- ------ ------ ---- -- ------<br>------- The ------ ----- --- ---- ------- -- ---- --- --<br>------- ------,146051.20000004768,146050.40000009537,145634.333,145635.60000002384,145651.004,146067.7,,44,The
screen,html.Screen,0_2_1_1_45,2021-11-19T09:55:47.830Z,,,,,,,,,,,,,,,,54,,,,,,,,,,,,,,622.7000000953558,,response,,,100,,,,,,Space,keypress(Space),,,,,-- --- ---- --- ------ ----- ------- ---- -- --- ------- --<br>------- ---------- ------ -- ----- -- ----- -- ---- ------<br>--- ----- --- --- ------ -------- ----- --- ------ ----- --<br>----- ----- ---------- --- --- ------ ------ ---- -- ------<br>------- --- French ----- --- ---- ------- -- ---- --- --<br>------- ------,146691.20000004768,146690.40000009537,146051.03,146051.40000009537,146067.7,146701.273,,45,French
screen,html.Screen,0_2_1_1_46,2021-11-19T09:55:48.390Z,,,,,,,,,,,,,,,,54,,,,,,,,,,,,,,549.0270000715391,,response,,,100,,,,,,Space,keypress(Space),,,,,-- --- ---- --- ------ ----- ------- ---- -- --- ------- --<br>------- ---------- ------ -- ----- -- ----- -- ---- ------<br>--- ----- --- --- ------ -------- ----- --- ------ ----- --<br>----- ----- ---------- --- --- ------ ------ ---- -- ------<br>------- --- ------ state --- ---- ------- -- ---- --- --<br>------- ------,147251.10000002384,147250.30000007153,146684.602,146691.40000009537,146701.273,147267.998,,46,state
screen,html.Screen,0_2_1_1_47,2021-11-19T09:55:48.910Z,,,,,,,,,,,,,,,,54,,,,,,,,,,,,,,502.4020000953751,,response,,,100,,,,,,Space,keypress(Space),,,,,-- --- ---- --- ------ ----- ------- ---- -- --- ------- --<br>------- ---------- ------ -- ----- -- ----- -- ---- ------<br>--- ----- --- --- ------ -------- ----- --- ------ ----- --<br>----- ----- ---------- --- --- ------ ------ ---- -- ------<br>------- --- ------ ----- was ---- ------- -- ---- --- --<br>------- ------,147771.10000002384,147770.40000009537,147251.328,147251.40000009537,147267.998,147784.834,,47,was
screen,html.Screen,0_2_1_1_48,2021-11-19T09:55:49.470Z,,,,,,,,,,,,,,,,54,,,,,,,,,,,,,,545.466000071523,,response,,,100,,,,,,Space,keypress(Space),,,,,-- --- ---- --- ------ ----- ------- ---- -- --- ------- --<br>------- ---------- ------ -- ----- -- ----- -- ---- ------<br>--- ----- --- --- ------ -------- ----- --- ------ ----- --<br>----- ----- ---------- --- --- ------ ------ ---- -- ------<br>------- --- ------ ----- --- left ------- -- ---- --- --<br>------- ------,148331.10000002384,148330.30000007153,147768.164,147771.40000009537,147784.834,148334.98,,48,left
screen,html.Screen,0_2_1_1_49,2021-11-19T09:55:50.086Z,,,,,,,,,,,,,,,,54,,,,,,,,,,,,,,611.3200000715151,,response,,,100,,,,,,Space,keypress(Space),,,,,-- --- ---- --- ------ ----- ------- ---- -- --- ------- --<br>------- ---------- ------ -- ----- -- ----- -- ---- ------<br>--- ----- --- --- ------ -------- ----- --- ------ ----- --<br>----- ----- ---------- --- --- ------ ------ ---- -- ------<br>------- --- ------ ----- --- ---- without -- ---- --- --<br>------- ------,148947,148946.30000007153,148318.31,148331.20000004768,148334.98,148951.764,,49,without
screen,html.Screen,0_2_1_1_50,2021-11-19T09:55:50.589Z,,,,,,,,,,,,,,,,54,,,,,,,,,,,,,,498.43600004768814,,response,,,100,,,,,,Space,keypress(Space),,,,,-- --- ---- --- ------ ----- ------- ---- -- --- ------- --<br>------- ---------- ------ -- ----- -- ----- -- ---- ------<br>--- ----- --- --- ------ -------- ----- --- ------ ----- --<br>----- ----- ---------- --- --- ------ ------ ---- -- ------<br>------- --- ------ ----- --- ---- ------- an ---- --- --<br>------- ------,149450.90000009537,149450.20000004768,148935.094,148947.20000004768,148951.764,149468.499,,50,an
screen,html.Screen,0_2_1_1_51,2021-11-19T09:55:51.102Z,,,,,,,,,,,,,,,,54,,,,,,,,,,,,,,493.701000047673,,response,,,100,,,,,,Space,keypress(Space),,,,,-- --- ---- --- ------ ----- ------- ---- -- --- ------- --<br>------- ---------- ------ -- ----- -- ----- -- ---- ------<br>--- ----- --- --- ------ -------- ----- --- ------ ----- --<br>----- ----- ---------- --- --- ------ ------ ---- -- ------<br>------- --- ------ ----- --- ---- ------- -- easy --- --<br>------- ------,149962.90000009537,149962.20000004768,149451.83,149451.20000004768,149468.499,149968.849,,51,easy
screen,html.Screen,0_2_1_1_52,2021-11-19T09:55:51.613Z,,,,,,,,,,,,,,,,54,,,,,,,,,,,,,,505.3510000476963,,response,,,100,,,,,,Space,keypress(Space),,,,,-- --- ---- --- ------ ----- ------- ---- -- --- ------- --<br>------- ---------- ------ -- ----- -- ----- -- ---- ------<br>--- ----- --- --- ------ -------- ----- --- ------ ----- --<br>----- ----- ---------- --- --- ------ ------ ---- -- ------<br>------- --- ------ ----- --- ---- ------- -- ---- way --<br>------- ------,150475,150474.20000004768,149952.177,149963.20000004768,149968.849,150485.367,,52,way
screen,html.Screen,0_2_1_1_53,2021-11-19T09:55:52.101Z,,,,,,,,,,,,,,,,54,,,,,,,,,,,,,,476.7330000238435,,response,,,100,,,,,,Space,keypress(Space),,,,,-- --- ---- --- ------ ----- ------- ---- -- --- ------- --<br>------- ---------- ------ -- ----- -- ----- -- ---- ------<br>--- ----- --- --- ------ -------- ----- --- ------ ----- --<br>----- ----- ---------- --- --- ------ ------ ---- -- ------<br>------- --- ------ ----- --- ---- ------- -- ---- --- of<br>------- ------,150962.90000009537,150962.10000002384,150468.699,150475.20000004768,150485.367,150969.08,,53,of
screen,html.Screen,0_2_1_1_54,2021-11-19T09:55:52.597Z,,,,,,,,,,,,,,,,54,,,,,,,,,,,,,,489.02000002385466,,response,,,100,,,,,,Space,keypress(Space),,,,,-- --- ---- --- ------ ----- ------- ---- -- --- ------- --<br>------- ---------- ------ -- ----- -- ----- -- ---- ------<br>--- ----- --- --- ------ -------- ----- --- ------ ----- --<br>----- ----- ---------- --- --- ------ ------ ---- -- ------<br>------- --- ------ ----- --- ---- ------- -- ---- --- --<br>raising ------,151458.90000009537,151458.10000002384,150952.408,150963.20000004768,150969.08,151469.167,,54,raising
screen,html.Screen,0_2_1_1_55,2021-11-19T09:55:53.445Z,,,,,,,,,,,,,,,,54,,,,,,,,,,,,,,836.9330000238551,,response,,,100,,,,,,Space,keypress(Space),,,,,-- --- ---- --- ------ ----- ------- ---- -- --- ------- --<br>------- ---------- ------ -- ----- -- ----- -- ---- ------<br>--- ----- --- --- ------ -------- ----- --- ------ ----- --<br>----- ----- ---------- --- --- ------ ------ ---- -- ------<br>------- --- ------ ----- --- ---- ------- -- ---- --- --<br>------- money.,152306.80000007153,152306.10000002384,151452.496,151459.10000002384,151469.167,152319.174,,55,money.
Item 100,flow.Loop,0_2_1_1,2021-11-19T09:55:53.446Z,,,,,,,,,,,,,,,,,,,,,,,,,,,,,,41631.068000023835,,completion,,,,E,,,,,,,,,,silence,,152307.30000007153,152306.10000002384,110658.363,110659.70000004768,110675.032,152319.174,,,
Question 1,html.Screen,0_2_1_2,2021-11-19T09:56:01.617Z,,,,,,,,,,,,,,,,,,,,,,,,,,,false,TRUE,,8157.726000095368,,response,,,100,E,,,,,FALSE,click #choice-2,,,,silence,,160478.20000004768,160476.90000009537,152302.505,152307.40000009537,152319.174,160487.965,,,
Question 2,html.Screen,0_2_1_3,2021-11-19T09:56:03.879Z,,,,,,,,,,,,,,,,,,,,,,,,,,,true,FALSE,,2251.6350000238454,,response,,,100,E,,,,,FALSE,click #choice-2,,,,silence,,162740.80000007153,162739.60000002384,160471.296,160478.60000002384,160487.965,162755.298,,,
Item 100,flow.Sequence,0_2_1,2021-11-19T09:56:03.880Z,,,,,,,,,,,,,,,,,,,,,,,,,,,,,,62066.909000023836,,completion,,,,,,,,,,,,,,,,162741.10000002384,162739.60000002384,100656.021,100672.30000007153,100672.691,162755.298,,,
End of Practice,html.Page,0_2_2,2021-11-19T09:56:07.015Z,,,,,,,,,,,,,,,,,,,,,,,,,,,,,,3120.70199999999,,form submission,,,,,,,,,,,,,,,,165876.60000002384,165876,162738.628,162741.40000009537,162755.298,165889.356,,,
Practice,flow.Sequence,0_2,2021-11-19T09:56:07.015Z,,,,,,,,,,,,,,,,,,,,,,,,,,,,,,133304.099,,completion,,,,,,,,,,,,,,,,165877,165876,32555.23,32568.300000071526,32571.901,165889.356,,,
Trap_instruction,html.Page,0_3_0,2021-11-19T09:56:11.607Z,,,,,,,,,,,,,,,,,,,,,,,,,,,,,,4578.544000095368,,form submission,,,,,,,,,,,,,,,,170468.5,170467.90000009537,165872.686,165877.20000004768,165889.356,170523.817,,,
trap_trial,html.Screen,0_3_1,2021-11-19T09:56:14.882Z,,,,,,,,,,,,,,,,,,,,,,,,,,,true,1,,3218.5830000953574,,response,,,,,,,,,1,click #choice-1,,,,,,173743.70000004768,173742.40000009537,170457.137,170468.90000009537,170523.817,173746.199,,,
end of trap trial,html.Page,0_3_2,2021-11-19T09:56:17.058Z,,,,,,,,,,,,,,,,,,,,,,,,,,,,,,2172.4010000238486,,form submission,,,,,,,,,,,,,,,,175919.10000002384,175918.60000002384,173729.503,173744,173746.199,175925.338,,,
Trap 1,flow.Sequence,0_3,2021-11-19T09:56:17.058Z,,,,,,,,,,,,,,,,,,,,,,,,,,,,,,10029.244000023842,,completion,,,,,,,,,,,,,,,,175919.5,175918.60000002384,165872.686,165877.20000004768,165889.356,175925.338,,,
Standby,html.Page,0_4_0,2021-11-19T09:56:25.053Z,,,,,,,,,,,,,,,,,,,,,,,,,,,,,,8002.15400000001,,timeout,,,,,,,,,,,,,,,,183911.70000004768,183910.821,175908.668,175919.80000007153,175925.338,183927.492,,,
Holding screen,html.Screen,0_4_1_0_0,2021-11-19T09:56:32.055Z,,,,,,,,,,,,,,,,,,,,,,,,,,,,,,7001.703000000009,,timeout,,,,,,,,,,,,,,,,190913.40000009537,190912.525,183910.821,183912.10000002384,183927.492,190929.195,,,
screen,html.Screen,0_4_1_0_1_0,2021-11-19T09:56:32.927Z,,,,,,,,,,,,,,,,15,,,,,,,,,,,,,,855.2050000953604,,response,,,7,E,,,,,Space,keypress(Space),,,,lyrical,Greg --------- ---------- - --- ------- -- --- ------------<br>----- -- -------- ------- ---- ------ - -------- ---- -----<br>--- ------- ---- -- --- -------- --- - ----- ------ ---- --<br>-------- --- -------- -------- --- -------- ---- -- ----- -<br>-------- ---- --- ---------- --------- -- ------- ------ -<br>--------- ----- -----,191785.40000009537,191784.40000009537,190912.525,190913.80000007153,190929.195,191796.115,,0,Greg
screen,html.Screen,0_4_1_0_1_1,2021-11-19T09:56:33.430Z,,,,,,,,,,,,,,,,15,,,,,,,,,,,,,,491.6850000715349,,response,,,7,E,,,,,Space,keypress(Space),,,,lyrical,"---- Anderson, ---------- - --- ------- -- --- ------------<br>----- -- -------- ------- ---- ------ - -------- ---- -----<br>--- ------- ---- -- --- -------- --- - ----- ------ ---- --<br>-------- --- -------- -------- --- -------- ---- -- ----- -<br>-------- ---- --- ---------- --------- -- ------- ------ -<br>--------- ----- -----",192288.70000004768,192287.80000007153,191779.445,191785.70000004768,191796.115,192296.279,,1,"Anderson,"
screen,html.Screen,0_4_1_0_1_2,2021-11-19T09:56:34.870Z,,,,,,,,,,,,,,,,15,,,,,,,,,,,,,,1431.4210000476742,,response,,,7,E,,,,,Space,keypress(Space),,,,lyrical,---- --------- considered - --- ------- -- --- ------------<br>----- -- -------- ------- ---- ------ - -------- ---- -----<br>--- ------- ---- -- --- -------- --- - ----- ------ ---- --<br>-------- --- -------- -------- --- -------- ---- -- ----- -<br>-------- ---- --- ---------- --------- -- ------- ------ -<br>--------- ----- -----,193728.70000004768,193727.70000004768,192279.609,192289,192296.279,193729.909,,2,considered
screen,html.Screen,0_4_1_0_1_3,2021-11-19T09:56:35.534Z,,,,,,,,,,,,,,,,15,,,,,,,,,,,,,,661.8910000715114,,response,,,7,E,,,,,Space,keypress(Space),,,,lyrical,---- --------- ---------- a --- ------- -- --- ------------<br>----- -- -------- ------- ---- ------ - -------- ---- -----<br>--- ------- ---- -- --- -------- --- - ----- ------ ---- --<br>-------- --- -------- -------- --- -------- ---- -- ----- -<br>-------- ---- --- ---------- --------- -- ------- ------ -<br>--------- ----- -----,194392.60000002384,194391.80000007153,193713.239,193728.90000009537,193729.909,194396.809,,3,a
screen,html.Screen,0_4_1_0_1_4,2021-11-19T09:56:36.206Z,,,,,,,,,,,,,,,,15,,,,,,,,,,,,,,666.8910000476753,,response,,,7,E,,,,,Space,keypress(Space),,,,lyrical,---- --------- ---------- - key ------- -- --- ------------<br>----- -- -------- ------- ---- ------ - -------- ---- -----<br>--- ------- ---- -- --- -------- --- - ----- ------ ---- --<br>-------- --- -------- -------- --- -------- ---- -- ----- -<br>-------- ---- --- ---------- --------- -- ------- ------ -<br>--------- ----- -----,195064.5,195063.70000004768,194380.139,194392.80000007153,194396.809,195080.397,,4,key
screen,html.Screen,0_4_1_0_1_5,2021-11-19T09:56:37.102Z,,,,,,,,,,,,,,,,15,,,,,,,,,,,,,,879.3030000476865,,response,,,7,E,,,,,Space,keypress(Space),,,,lyrical,---- --------- ---------- - --- witness -- --- ------------<br>----- -- -------- ------- ---- ------ - -------- ---- -----<br>--- ------- ---- -- --- -------- --- - ----- ------ ---- --<br>-------- --- -------- -------- --- -------- ---- -- ----- -<br>-------- ---- --- ---------- --------- -- ------- ------ -<br>--------- ----- -----,195960.40000009537,195959.70000004768,195063.726,195064.70000004768,195080.397,195963.852,,5,witness
screen,html.Screen,0_4_1_0_1_6,2021-11-19T09:56:37.638Z,,,,,,,,,,,,,,,,15,,,,,,,,,,,,,,531.7480000238284,,response,,,7,E,,,,,Space,keypress(Space),,,,lyrical,---- --------- ---------- - --- ------- by --- ------------<br>----- -- -------- ------- ---- ------ - -------- ---- -----<br>--- ------- ---- -- --- -------- --- - ----- ------ ---- --<br>-------- --- -------- -------- --- -------- ---- -- ----- -<br>-------- ---- --- ---------- --------- -- ------- ------ -<br>--------- ----- -----,196496.5,196495.60000002384,195947.182,195960.70000004768,195963.852,196513.908,,6,by
screen,html.Screen,0_4_1_0_1_7,2021-11-19T09:56:38.246Z,,,,,,,,,,,,,,,,15,,,,,,,,,,,,,,589.692000023846,,response,,,7,E,,,,,Space,keypress(Space),,,,lyrical,---- --------- ---------- - --- ------- -- the ------------<br>----- -- -------- ------- ---- ------ - -------- ---- -----<br>--- ------- ---- -- --- -------- --- - ----- ------ ---- --<br>-------- --- -------- -------- --- -------- ---- -- ----- -<br>-------- ---- --- ---------- --------- -- ------- ------ -<br>--------- ----- -----,197104.5,197103.60000002384,196497.239,196496.60000002384,196513.908,197114.139,,7,the
screen,html.Screen,0_4_1_0_1_8,2021-11-19T09:56:38.918Z,,,,,,,,,,,,,,,,15,,,,,,,,,,,,,,661.4610000238463,,response,,,7,E,,,,,Space,keypress(Space),,,,lyrical,"---- --------- ---------- - --- ------- -- --- prosecution,<br>----- -- -------- ------- ---- ------ - -------- ---- -----<br>--- ------- ---- -- --- -------- --- - ----- ------ ---- --<br>-------- --- -------- -------- --- -------- ---- -- ----- -<br>-------- ---- --- ---------- --------- -- ------- ------ -<br>--------- ----- -----",197776.30000007153,197775.60000002384,197097.469,197104.70000004768,197114.139,197781.146,,8,"prosecution,"
screen,html.Screen,0_4_1_0_1_9,2021-11-19T09:56:39.582Z,,,,,,,,,,,,,,,,15,,,,,,,,,,,,,,658.4540000238339,,response,,,7,E,,,,,Space,keypress(Space),,,,lyrical,---- --------- ---------- - --- ------- -- --- ------------<br>vowed -- -------- ------- ---- ------ - -------- ---- -----<br>--- ------- ---- -- --- -------- --- - ----- ------ ---- --<br>-------- --- -------- -------- --- -------- ---- -- ----- -<br>-------- ---- --- ---------- --------- -- ------- ------ -<br>--------- ----- -----,198440.30000007153,198439.60000002384,197764.474,197776.60000002384,197781.146,198447.758,,9,vowed
screen,html.Screen,0_4_1_0_1_10,2021-11-19T09:56:40.174Z,,,,,,,,,,,,,,,,15,,,,,,,,,,,,,,583.7419999999984,,response,,,7,E,,,,,Space,keypress(Space),,,,lyrical,---- --------- ---------- - --- ------- -- --- ------------<br>----- he -------- ------- ---- ------ - -------- ---- -----<br>--- ------- ---- -- --- -------- --- - ----- ------ ---- --<br>-------- --- -------- -------- --- -------- ---- -- ----- -<br>-------- ---- --- ---------- --------- -- ------- ------ -<br>--------- ----- -----,199032.30000007153,199031.5,198431.089,198440.5,198447.758,199048.055,,10,he
screen,html.Screen,0_4_1_0_1_11,2021-11-19T09:56:40.669Z,,,,,,,,,,,,,,,,15,,,,,,,,,,,,,,479.3450000953744,,response,,,7,E,,,,,Space,keypress(Space),,,,lyrical,---- --------- ---------- - --- ------- -- --- ------------<br>----- -- wouldn't ------- ---- ------ - -------- ---- -----<br>--- ------- ---- -- --- -------- --- - ----- ------ ---- --<br>-------- --- -------- -------- --- -------- ---- -- ----- -<br>-------- ---- --- ---------- --------- -- ------- ------ -<br>--------- ----- -----,199528.20000004768,199527.40000009537,199031.384,199032.5,199048.055,199531.433,,11,wouldn't
screen,html.Screen,0_4_1_0_1_12,2021-11-19T09:56:41.533Z,,,,,,,,,,,,,,,,15,,,,,,,,,,,,,,859.9670000953774,,response,,,7,E,,,,,Space,keypress(Space),,,,lyrical,---- --------- ---------- - --- ------- -- --- ------------<br>----- -- -------- testify ---- ------ - -------- ---- -----<br>--- ------- ---- -- --- -------- --- - ----- ------ ---- --<br>-------- --- -------- -------- --- -------- ---- -- ----- -<br>-------- ---- --- ---------- --------- -- ------- ------ -<br>--------- ----- -----,200392.20000004768,200391.40000009537,199514.763,199528.5,199531.433,200398.5,,12,testify
screen,html.Screen,0_4_1_0_1_13,2021-11-19T09:56:41.989Z,,,,,,,,,,,,,,,,15,,,,,,,,,,,,,,448.8000000715256,,response,,,7,E,,,,,Space,keypress(Space),,,,lyrical,---- --------- ---------- - --- ------- -- --- ------------<br>----- -- -------- ------- when ------ - -------- ---- -----<br>--- ------- ---- -- --- -------- --- - ----- ------ ---- --<br>-------- --- -------- -------- --- -------- ---- -- ----- -<br>-------- ---- --- ---------- --------- -- ------- ------ -<br>--------- ----- -----,200848.10000002384,200847.30000007153,200381.828,200392.40000009537,200398.5,200865.171,,13,when
screen,html.Screen,0_4_1_0_1_14,2021-11-19T09:56:42.582Z,,,,,,,,,,,,,,,,15,,,,,,,,,,,,,,574.1290000715235,,response,,,7,E,,,,,Space,keypress(Space),,,,lyrical,---- --------- ---------- - --- ------- -- --- ------------<br>----- -- -------- ------- ---- served - -------- ---- -----<br>--- ------- ---- -- --- -------- --- - ----- ------ ---- --<br>-------- --- -------- -------- --- -------- ---- -- ----- -<br>-------- ---- --- ---------- --------- -- ------- ------ -<br>--------- ----- -----,201440.30000007153,201439.30000007153,200848.501,200848.30000007153,200865.171,201448.634,,14,served
screen,html.Screen,0_4_1_0_1_15,2021-11-19T09:56:43.094Z,,,,,,,,,,,,,,,,15,,,,,,,,,,,,,,503.16600007153465,,response,,,7,E,,,,,Space,keypress(Space),,,,lyrical,---- --------- ---------- - --- ------- -- --- ------------<br>----- -- -------- ------- ---- ------ a -------- ---- -----<br>--- ------- ---- -- --- -------- --- - ----- ------ ---- --<br>-------- --- -------- -------- --- -------- ---- -- ----- -<br>-------- ---- --- ---------- --------- -- ------- ------ -<br>--------- ----- -----,201952.60000002384,201951.80000007153,201431.964,201440.60000002384,201448.634,201965.418,,15,a
screen,html.Screen,0_4_1_0_1_16,2021-11-19T09:56:43.717Z,,,,,,,,,,,,,,,,15,,,,,,,,,,,,,,609.8820000715205,,response,,,7,E,,,,,Space,keypress(Space),,,,lyrical,---- --------- ---------- - --- ------- -- --- ------------<br>----- -- -------- ------- ---- ------ - subpoena ---- -----<br>--- ------- ---- -- --- -------- --- - ----- ------ ---- --<br>-------- --- -------- -------- --- -------- ---- -- ----- -<br>-------- ---- --- ---------- --------- -- ------- ------ -<br>--------- ----- -----,202576.10000002384,202575.30000007153,201948.748,201952.80000007153,201965.418,202582.321,,16,subpoena
screen,html.Screen,0_4_1_0_1_17,2021-11-19T09:56:44.245Z,,,,,,,,,,,,,,,,15,,,,,,,,,,,,,,520.9790000715293,,response,,,7,E,,,,,Space,keypress(Space),,,,lyrical,---- --------- ---------- - --- ------- -- --- ------------<br>----- -- -------- ------- ---- ------ - -------- last -----<br>--- ------- ---- -- --- -------- --- - ----- ------ ---- --<br>-------- --- -------- -------- --- -------- ---- -- ----- -<br>-------- ---- --- ---------- --------- -- ------- ------ -<br>--------- ----- -----,203104.10000002384,203103.30000007153,202565.65,202576.40000009537,202582.321,203115.66,,17,last
screen,html.Screen,0_4_1_0_1_18,2021-11-19T09:56:45.421Z,,,,,,,,,,,,,,,,15,,,,,,,,,,,,,,1163.5400000476802,,response,,,7,E,,,,,Space,keypress(Space),,,,lyrical,---- --------- ---------- - --- ------- -- --- ------------<br>----- -- -------- ------- ---- ------ - -------- ---- week.<br>--- ------- ---- -- --- -------- --- - ----- ------ ---- --<br>-------- --- -------- -------- --- -------- ---- -- ----- -<br>-------- ---- --- ---------- --------- -- ------- ------ -<br>--------- ----- -----,204280.20000004768,204279.20000004768,203098.991,203104.30000007153,203115.66,204282.734,,18,week.
screen,html.Screen,0_4_1_0_1_19,2021-11-19T09:56:45.901Z,,,,,,,,,,,,,,,,15,,,,,,,,,,,,,,476.466000047687,,response,,,7,E,,,,,Space,keypress(Space),,,,lyrical,---- --------- ---------- - --- ------- -- --- ------------<br>----- -- -------- ------- ---- ------ - -------- ---- -----<br>His ------- ---- -- --- -------- --- - ----- ------ ---- --<br>-------- --- -------- -------- --- -------- ---- -- ----- -<br>-------- ---- --- ---------- --------- -- ------- ------ -<br>--------- ----- -----,204759.90000009537,204759.20000004768,204266.063,204280.40000009537,204282.734,204765.911,,19,His
screen,html.Screen,0_4_1_0_1_20,2021-11-19T09:56:46.669Z,,,,,,,,,,,,,,,,15,,,,,,,,,,,,,,761.1890000238491,,response,,,7,E,,,,,Space,keypress(Space),,,,lyrical,---- --------- ---------- - --- ------- -- --- ------------<br>----- -- -------- ------- ---- ------ - -------- ---- -----<br>--- lawyers ---- -- --- -------- --- - ----- ------ ---- --<br>-------- --- -------- -------- --- -------- ---- -- ----- -<br>-------- ---- --- ---------- --------- -- ------- ------ -<br>--------- ----- -----,205527.90000009537,205527.10000002384,204749.243,204760.20000004768,204765.911,205532.949,,20,lawyers
screen,html.Screen,0_4_1_0_1_21,2021-11-19T09:56:47.221Z,,,,,,,,,,,,,,,,15,,,,,,,,,,,,,,546.1510000238486,,response,,,7,E,,,,,Space,keypress(Space),,,,lyrical,---- --------- ---------- - --- ------- -- --- ------------<br>----- -- -------- ------- ---- ------ - -------- ---- -----<br>--- ------- said -- --- -------- --- - ----- ------ ---- --<br>-------- --- -------- -------- --- -------- ---- -- ----- -<br>-------- ---- --- ---------- --------- -- ------- ------ -<br>--------- ----- -----,206079.90000009537,206079.10000002384,205516.279,205528.10000002384,205532.949,206083.299,,21,said
screen,html.Screen,0_4_1_0_1_22,2021-11-19T09:56:47.749Z,,,,,,,,,,,,,,,,15,,,,,,,,,,,,,,523.7010000000009,,response,,,7,E,,,,,Space,keypress(Space),,,,lyrical,---- --------- ---------- - --- ------- -- --- ------------<br>----- -- -------- ------- ---- ------ - -------- ---- -----<br>--- ------- ---- he --- -------- --- - ----- ------ ---- --<br>-------- --- -------- -------- --- -------- ---- -- ----- -<br>-------- ---- --- ---------- --------- -- ------- ------ -<br>--------- ----- -----,206607.80000007153,206607,206066.627,206080.10000002384,206083.299,206616.507,,22,he
screen,html.Screen,0_4_1_0_1_23,2021-11-19T09:56:48.269Z,,,,,,,,,,,,,,,,15,,,,,,,,,,,,,,510.49299999998766,,response,,,7,E,,,,,Space,keypress(Space),,,,lyrical,---- --------- ---------- - --- ------- -- --- ------------<br>----- -- -------- ------- ---- ------ - -------- ---- -----<br>--- ------- ---- -- was -------- --- - ----- ------ ---- --<br>-------- --- -------- -------- --- -------- ---- -- ----- -<br>-------- ---- --- ---------- --------- -- ------- ------ -<br>--------- ----- -----,207127.80000007153,207127,206599.838,206608.10000002384,206616.507,207133.373,,23,was
screen,html.Screen,0_4_1_0_1_24,2021-11-19T09:56:49.005Z,,,,,,,,,,,,,,,,15,,,,,,,,,,,,,,729.6270000000077,,response,,,7,E,,,,,Space,keypress(Space),,,,lyrical,---- --------- ---------- - --- ------- -- --- ------------<br>----- -- -------- ------- ---- ------ - -------- ---- -----<br>--- ------- ---- -- --- prepared --- - ----- ------ ---- --<br>-------- --- -------- -------- --- -------- ---- -- ----- -<br>-------- ---- --- ---------- --------- -- ------- ------ -<br>--------- ----- -----,207863.80000007153,207863,207116.703,207128.10000002384,207133.373,207867.07,,24,prepared
screen,html.Screen,0_4_1_0_1_25,2021-11-19T09:56:49.581Z,,,,,,,,,,,,,,,,15,,,,,,,,,,,,,,571.8300000953604,,response,,,7,E,,,,,Space,keypress(Space),,,,lyrical,---- --------- ---------- - --- ------- -- --- ------------<br>----- -- -------- ------- ---- ------ - -------- ---- -----<br>--- ------- ---- -- --- -------- for - ----- ------ ---- --<br>-------- --- -------- -------- --- -------- ---- -- ----- -<br>-------- ---- --- ---------- --------- -- ------- ------ -<br>--------- ----- -----,208439.80000007153,208438.90000009537,207850.398,207864,207867.07,208450.302,,25,for
screen,html.Screen,0_4_1_0_1_26,2021-11-19T09:56:50.005Z,,,,,,,,,,,,,,,,15,,,,,,,,,,,,,,412.5980000953714,,response,,,7,E,,,,,Space,keypress(Space),,,,lyrical,---- --------- ---------- - --- ------- -- --- ------------<br>----- -- -------- ------- ---- ------ - -------- ---- -----<br>--- ------- ---- -- --- -------- --- a ----- ------ ---- --<br>-------- --- -------- -------- --- -------- ---- -- ----- -<br>-------- ---- --- ---------- --------- -- ------- ------ -<br>--------- ----- -----,208863.70000004768,208862.90000009537,208433.633,208440,208450.302,208867.321,,26,a
screen,html.Screen,0_4_1_0_1_27,2021-11-19T09:56:50.525Z,,,,,,,,,,,,,,,,15,,,,,,,,,,,,,,515.5790000953712,,response,,,7,E,,,,,Space,keypress(Space),,,,lyrical,---- --------- ---------- - --- ------- -- --- ------------<br>----- -- -------- ------- ---- ------ - -------- ---- -----<br>--- ------- ---- -- --- -------- --- - third ------ ---- --<br>-------- --- -------- -------- --- -------- ---- -- ----- -<br>-------- ---- --- ---------- --------- -- ------- ------ -<br>--------- ----- -----,209383.70000004768,209382.90000009537,208850.649,208863.90000009537,208867.321,209400.581,,27,third
screen,html.Screen,0_4_1_0_1_28,2021-11-19T09:56:51.029Z,,,,,,,,,,,,,,,,15,,,,,,,,,,,,,,486.21900007152,,response,,,7,E,,,,,Space,keypress(Space),,,,lyrical,---- --------- ---------- - --- ------- -- --- ------------<br>----- -- -------- ------- ---- ------ - -------- ---- -----<br>--- ------- ---- -- --- -------- --- - ----- prison ---- --<br>-------- --- -------- -------- --- -------- ---- -- ----- -<br>-------- ---- --- ---------- --------- -- ------- ------ -<br>--------- ----- -----,209887.60000002384,209886.80000007153,209383.912,209384,209400.581,209900.963,,28,prison
screen,html.Screen,0_4_1_0_1_29,2021-11-19T09:56:51.565Z,,,,,,,,,,,,,,,,15,,,,,,,,,,,,,,521.9370000953786,,response,,,7,E,,,,,Space,keypress(Space),,,,lyrical,---- --------- ---------- - --- ------- -- --- ------------<br>----- -- -------- ------- ---- ------ - -------- ---- -----<br>--- ------- ---- -- --- -------- --- - ----- ------ stay --<br>-------- --- -------- -------- --- -------- ---- -- ----- -<br>-------- ---- --- ---------- --------- -- ------- ------ -<br>--------- ----- -----,210423.70000004768,210422.90000009537,209884.29,209887.90000009537,209900.963,210434.121,,29,stay
screen,html.Screen,0_4_1_0_1_30,2021-11-19T09:56:52.061Z,,,,,,,,,,,,,,,,15,,,,,,,,,,,,,,484.57900004767,,response,,,7,E,,,,,Space,keypress(Space),,,,lyrical,---- --------- ---------- - --- ------- -- --- ------------<br>----- -- -------- ------- ---- ------ - -------- ---- -----<br>--- ------- ---- -- --- -------- --- - ----- ------ ---- to<br>-------- --- -------- -------- --- -------- ---- -- ----- -<br>-------- ---- --- ---------- --------- -- ------- ------ -<br>--------- ----- -----,210919.5,210918.70000004768,210417.453,210423.90000009537,210434.121,210934.377,,30,to
screen,html.Screen,0_4_1_0_1_31,2021-11-19T09:56:52.677Z,,,,,,,,,,,,,,,,15,,,,,,,,,,,,,,600.5230000953597,,response,,,7,E,,,,,Space,keypress(Space),,,,lyrical,---- --------- ---------- - --- ------- -- --- ------------<br>----- -- -------- ------- ---- ------ - -------- ---- -----<br>--- ------- ---- -- --- -------- --- - ----- ------ ---- --<br>maintain --- -------- -------- --- -------- ---- -- ----- -<br>-------- ---- --- ---------- --------- -- ------- ------ -<br>--------- ----- -----,211535.70000004768,211534.90000009537,210917.707,210919.70000004768,210934.377,211551.335,,31,maintain
screen,html.Screen,0_4_1_0_1_32,2021-11-19T09:56:53.229Z,,,,,,,,,,,,,,,,15,,,,,,,,,,,,,,535.8650000476919,,response,,,7,E,,,,,Space,keypress(Space),,,,lyrical,---- --------- ---------- - --- ------- -- --- ------------<br>----- -- -------- ------- ---- ------ - -------- ---- -----<br>--- ------- ---- -- --- -------- --- - ----- ------ ---- --<br>-------- his -------- -------- --- -------- ---- -- ----- -<br>-------- ---- --- ---------- --------- -- ------- ------ -<br>--------- ----- -----,212088,212087.20000004768,211534.663,211535.90000009537,211551.335,212101.236,,32,his
screen,html.Screen,0_4_1_0_1_33,2021-11-19T09:56:54.565Z,,,,,,,,,,,,,,,,15,,,,,,,,,,,,,,1321.4640000476793,,response,,,7,E,,,,,Space,keypress(Space),,,,lyrical,---- --------- ---------- - --- ------- -- --- ------------<br>----- -- -------- ------- ---- ------ - -------- ---- -----<br>--- ------- ---- -- --- -------- --- - ----- ------ ---- --<br>-------- --- silence. -------- --- -------- ---- -- ----- -<br>-------- ---- --- ---------- --------- -- ------- ------ -<br>--------- ----- -----,213423.60000002384,213422.70000004768,212084.567,212088.20000004768,212101.236,213434.97,,33,silence.
screen,html.Screen,0_4_1_0_1_34,2021-11-19T09:56:55.445Z,,,,,,,,,,,,,,,,15,,,,,,,,,,,,,,867.6300000238407,,response,,,7,E,,,,,Space,keypress(Space),,,,lyrical,---- --------- ---------- - --- ------- -- --- ------------<br>----- -- -------- ------- ---- ------ - -------- ---- -----<br>--- ------- ---- -- --- -------- --- - ----- ------ ---- --<br>-------- --- -------- Anderson --- -------- ---- -- ----- -<br>-------- ---- --- ---------- --------- -- ------- ------ -<br>--------- ----- -----,214303.5,214302.60000002384,213418.3,213423.80000007153,213434.97,214318.625,,34,Anderson
screen,html.Screen,0_4_1_0_1_35,2021-11-19T09:56:56.077Z,,,,,,,,,,,,,,,,15,,,,,,,,,,,,,,615.9750000238419,,response,,,7,E,,,,,Space,keypress(Space),,,,lyrical,---- --------- ---------- - --- ------- -- --- ------------<br>----- -- -------- ------- ---- ------ - -------- ---- -----<br>--- ------- ---- -- --- -------- --- - ----- ------ ---- --<br>-------- --- -------- -------- was -------- ---- -- ----- -<br>-------- ---- --- ---------- --------- -- ------- ------ -<br>--------- ----- -----,214935.5,214934.60000002384,214301.954,214303.80000007153,214318.625,214952.029,,35,was
screen,html.Screen,0_4_1_0_1_36,2021-11-19T09:56:56.845Z,,,,,,,,,,,,,,,,15,,,,,,,,,,,,,,750.5710000238323,,response,,,7,E,,,,,Space,keypress(Space),,,,lyrical,---- --------- ---------- - --- ------- -- --- ------------<br>----- -- -------- ------- ---- ------ - -------- ---- -----<br>--- ------- ---- -- --- -------- --- - ----- ------ ---- --<br>-------- --- -------- -------- --- released ---- -- ----- -<br>-------- ---- --- ---------- --------- -- ------- ------ -<br>--------- ----- -----,215703.40000009537,215702.60000002384,214935.359,214935.80000007153,214952.029,215719.118,,36,released
screen,html.Screen,0_4_1_0_1_37,2021-11-19T09:56:57.373Z,,,,,,,,,,,,,,,,15,,,,,,,,,,,,,,511.38200000001234,,response,,,7,E,,,,,Space,keypress(Space),,,,lyrical,---- --------- ---------- - --- ------- -- --- ------------<br>----- -- -------- ------- ---- ------ - -------- ---- -----<br>--- ------- ---- -- --- -------- --- - ----- ------ ---- --<br>-------- --- -------- -------- --- -------- July -- ----- -<br>-------- ---- --- ---------- --------- -- ------- ------ -<br>--------- ----- -----,216231.40000009537,216230.5,215702.446,215703.70000004768,215719.118,216235.765,,37,July
screen,html.Screen,0_4_1_0_1_38,2021-11-19T09:56:57.909Z,,,,,,,,,,,,,,,,15,,,,,,,,,,,,,,530.734999999986,,response,,,7,E,,,,,Space,keypress(Space),,,,lyrical,---- --------- ---------- - --- ------- -- --- ------------<br>----- -- -------- ------- ---- ------ - -------- ---- -----<br>--- ------- ---- -- --- -------- --- - ----- ------ ---- --<br>-------- --- -------- -------- --- -------- ---- 20 ----- -<br>-------- ---- --- ---------- --------- -- ------- ------ -<br>--------- ----- -----,216767.20000004768,216766.5,216219.095,216231.70000004768,216235.765,216769.158,,38,20
screen,html.Screen,0_4_1_0_1_39,2021-11-19T09:56:59.501Z,,,,,,,,,,,,,,,,15,,,,,,,,,,,,,,1589.3420000000042,,response,,,7,E,,,,,Space,keypress(Space),,,,lyrical,---- --------- ---------- - --- ------- -- --- ------------<br>----- -- -------- ------- ---- ------ - -------- ---- -----<br>--- ------- ---- -- --- -------- --- - ----- ------ ---- --<br>-------- --- -------- -------- --- -------- ---- -- after -<br>-------- ---- --- ---------- --------- -- ------- ------ -<br>--------- ----- -----,218359.30000007153,218358.5,216752.489,216767.60000002384,216769.158,218369.834,,39,after
screen,html.Screen,0_4_1_0_1_40,2021-11-19T09:56:59.980Z,,,,,,,,,,,,,,,,15,,,,,,,,,,,,,,468.56600009536487,,response,,,7,E,,,,,Space,keypress(Space),,,,lyrical,---- --------- ---------- - --- ------- -- --- ------------<br>----- -- -------- ------- ---- ------ - -------- ---- -----<br>--- ------- ---- -- --- -------- --- - ----- ------ ---- --<br>-------- --- -------- -------- --- -------- ---- -- ----- a<br>-------- ---- --- ---------- --------- -- ------- ------ -<br>--------- ----- -----,218839.20000004768,218838.40000009537,218353.162,218359.60000002384,218369.834,218853.039,,40,a
screen,html.Screen,0_4_1_0_1_41,2021-11-19T09:57:00.572Z,,,,,,,,,,,,,,,,15,,,,,,,,,,,,,,577.3610000953777,,response,,,7,E,,,,,Space,keypress(Space),,,,lyrical,---- --------- ---------- - --- ------- -- --- ------------<br>----- -- -------- ------- ---- ------ - -------- ---- -----<br>--- ------- ---- -- --- -------- --- - ----- ------ ---- --<br>-------- --- -------- -------- --- -------- ---- -- ----- -<br>two-week ---- --- ---------- --------- -- ------- ------ -<br>--------- ----- -----,219431.20000004768,219430.40000009537,218836.369,218839.5,218853.039,219436.591,,41,two-week
screen,html.Screen,0_4_1_0_1_42,2021-11-19T09:57:01.140Z,,,,,,,,,,,,,,,,15,,,,,,,,,,,,,,561.7090000715398,,response,,,7,E,,,,,Space,keypress(Space),,,,lyrical,---- --------- ---------- - --- ------- -- --- ------------<br>----- -- -------- ------- ---- ------ - -------- ---- -----<br>--- ------- ---- -- --- -------- --- - ----- ------ ---- --<br>-------- --- -------- -------- --- -------- ---- -- ----- -<br>-------- stay --- ---------- --------- -- ------- ------ -<br>--------- ----- -----,219999.10000002384,219998.30000007153,219419.921,219431.5,219436.591,220003.393,,42,stay
screen,html.Screen,0_4_1_0_1_43,2021-11-19T09:57:02.004Z,,,,,,,,,,,,,,,,15,,,,,,,,,,,,,,858.8070000476728,,response,,,7,E,,,,,Space,keypress(Space),,,,lyrical,---- --------- ---------- - --- ------- -- --- ------------<br>----- -- -------- ------- ---- ------ - -------- ---- -----<br>--- ------- ---- -- --- -------- --- - ----- ------ ---- --<br>-------- --- -------- -------- --- -------- ---- -- ----- -<br>-------- ---- for ---------- --------- -- ------- ------ -<br>--------- ----- -----,220863,220862.20000004768,219986.723,219999.40000009537,220003.393,220870.355,,43,for
screen,html.Screen,0_4_1_0_1_44,2021-11-19T09:57:02.860Z,,,,,,,,,,,,,,,,15,,,,,,,,,,,,,,847.8450000476732,,response,,,7,E,,,,,Space,keypress(Space),,,,lyrical,---- --------- ---------- - --- ------- -- --- ------------<br>----- -- -------- ------- ---- ------ - -------- ---- -----<br>--- ------- ---- -- --- -------- --- - ----- ------ ---- --<br>-------- --- -------- -------- --- -------- ---- -- ----- -<br>-------- ---- --- previously --------- -- ------- ------ -<br>--------- ----- -----,221719.10000002384,221718.20000004768,220853.684,220863.20000004768,220870.355,221720.32,,44,previously
screen,html.Screen,0_4_1_0_1_45,2021-11-19T09:57:03.597Z,,,,,,,,,,,,,,,,15,,,,,,,,,,,,,,734.3800000476767,,response,,,7,E,,,,,Space,keypress(Space),,,,lyrical,---- --------- ---------- - --- ------- -- --- ------------<br>----- -- -------- ------- ---- ------ - -------- ---- -----<br>--- ------- ---- -- --- -------- --- - ----- ------ ---- --<br>-------- --- -------- -------- --- -------- ---- -- ----- -<br>-------- ---- --- ---------- declining -- ------- ------ -<br>--------- ----- -----,222455.60000002384,222454.70000004768,221703.651,221719.30000007153,221720.32,222470.792,,45,declining
screen,html.Screen,0_4_1_0_1_46,2021-11-19T09:57:04.212Z,,,,,,,,,,,,,,,,15,,,,,,,,,,,,,,599.408000047697,,response,,,7,E,,,,,Space,keypress(Space),,,,lyrical,---- --------- ---------- - --- ------- -- --- ------------<br>----- -- -------- ------- ---- ------ - -------- ---- -----<br>--- ------- ---- -- --- -------- --- - ----- ------ ---- --<br>-------- --- -------- -------- --- -------- ---- -- ----- -<br>-------- ---- --- ---------- --------- to ------- ------ -<br>--------- ----- -----,223071,223070.20000004768,222454.121,222455.80000007153,222470.792,223087.536,,46,to
screen,html.Screen,0_4_1_0_1_47,2021-11-19T09:57:04.916Z,,,,,,,,,,,,,,,,15,,,,,,,,,,,,,,686.6640000476909,,response,,,7,E,,,,,Space,keypress(Space),,,,lyrical,---- --------- ---------- - --- ------- -- --- ------------<br>----- -- -------- ------- ---- ------ - -------- ---- -----<br>--- ------- ---- -- --- -------- --- - ----- ------ ---- --<br>-------- --- -------- -------- --- -------- ---- -- ----- -<br>-------- ---- --- ---------- --------- -- testify ------ -<br>--------- ----- -----,223774.90000009537,223774.20000004768,223070.866,223071.20000004768,223087.536,223787.718,,47,testify
screen,html.Screen,0_4_1_0_1_48,2021-11-19T09:57:05.484Z,,,,,,,,,,,,,,,,15,,,,,,,,,,,,,,554.3820000238484,,response,,,7,E,,,,,Space,keypress(Space),,,,lyrical,---- --------- ---------- - --- ------- -- --- ------------<br>----- -- -------- ------- ---- ------ - -------- ---- -----<br>--- ------- ---- -- --- -------- --- - ----- ------ ---- --<br>-------- --- -------- -------- --- -------- ---- -- ----- -<br>-------- ---- --- ---------- --------- -- ------- before -<br>--------- ----- -----,224343,224342.10000002384,223771.048,223775.20000004768,223787.718,224354.539,,48,before
screen,html.Screen,0_4_1_0_1_49,2021-11-19T09:57:06.124Z,,,,,,,,,,,,,,,,15,,,,,,,,,,,,,,627.5610000238521,,response,,,7,E,,,,,Space,keypress(Space),,,,lyrical,---- --------- ---------- - --- ------- -- --- ------------<br>----- -- -------- ------- ---- ------ - -------- ---- -----<br>--- ------- ---- -- --- -------- --- - ----- ------ ---- --<br>-------- --- -------- -------- --- -------- ---- -- ----- -<br>-------- ---- --- ---------- --------- -- ------- ------ a<br>--------- ----- -----,224983,224982.10000002384,224337.869,224343.30000007153,224354.539,224988.035,,49,a
screen,html.Screen,0_4_1_0_1_50,2021-11-19T09:57:06.612Z,,,,,,,,,,,,,,,,15,,,,,,,,,,,,,,482.06500002383837,,response,,,7,E,,,,,Space,keypress(Space),,,,lyrical,---- --------- ---------- - --- ------- -- --- ------------<br>----- -- -------- ------- ---- ------ - -------- ---- -----<br>--- ------- ---- -- --- -------- --- - ----- ------ ---- --<br>-------- --- -------- -------- --- -------- ---- -- ----- -<br>-------- ---- --- ---------- --------- -- ------- ------ -<br>different ----- -----,225470.80000007153,225470.10000002384,224971.365,224983.20000004768,224988.035,225488.157,,50,different
screen,html.Screen,0_4_1_0_1_51,2021-11-19T09:57:07.092Z,,,,,,,,,,,,,,,,15,,,,,,,,,,,,,,461.8429999999935,,response,,,7,E,,,,,Space,keypress(Space),,,,lyrical,---- --------- ---------- - --- ------- -- --- ------------<br>----- -- -------- ------- ---- ------ - -------- ---- -----<br>--- ------- ---- -- --- -------- --- - ----- ------ ---- --<br>-------- --- -------- -------- --- -------- ---- -- ----- -<br>-------- ---- --- ---------- --------- -- ------- ------ -<br>--------- grand -----,225950.80000007153,225950,225471.487,225471.10000002384,225488.157,225954.959,,51,grand
screen,html.Screen,0_4_1_0_1_52,2021-11-19T09:57:08.044Z,,,,,,,,,,,,,,,,15,,,,,,,,,,,,,,947.0409999999974,,response,,,7,E,,,,,Space,keypress(Space),,,,lyrical,---- --------- ---------- - --- ------- -- --- ------------<br>----- -- -------- ------- ---- ------ - -------- ---- -----<br>--- ------- ---- -- --- -------- --- - ----- ------ ---- --<br>-------- --- -------- -------- --- -------- ---- -- ----- -<br>-------- ---- --- ---------- --------- -- ------- ------ -<br>--------- ----- jury.,226902.80000007153,226902,225938.289,225951.20000004768,225954.959,226921.726,,52,jury.
