sender,sender_type,sender_id,timestamp,meta,,Blues,Classical,Country,Dance,Electronic,Folk,Gospel,Hip-Hop,Jazz,Latin,Musical/Film,New-age,Pop,Provo_ID,R&B,Rap,Reggae,Religious,Rock,Soul,Swing,Traditional,age,artist_name,correct,correctResponse,distraction,duration,education,ended_on,familiarity,gender,item,list,music_frequency,offensiveness,pleasantness,preference,response,response_action,snippet_file,song_name,song_rating,sound,text,time_commit,time_end,time_render,time_run,time_show,time_switch,url,word,word_ID
Instructions,html.Page,0_0,2021-11-19T11:18:48.114Z,"{""labjs_version"":""20.2.3"",""labjs_build"":{""flavor"":""production"",""commit"":""7ea907d66ca8aeef8054924ca5d82ffbe11e34e5""},""location"":""https://run.pavlovia.org/mvasilev/lab_music_e/"",""userAgent"":""Mozilla/5.0 (Windows NT 6.1; Win64; x64) AppleWebKit/537.36 (KHTML, like Gecko) Chrome/96.0.4664.45 Safari/537.36"",""platform"":""Win32"",""language"":""en-US"",""locale"":""en-US"",""timeZone"":""Europe/London"",""timezoneOffset"":0,""screen_width"":1920,""screen_height"":1080,""scroll_width"":1920,""scroll_height"":959,""window_innerWidth"":1920,""window_innerHeight"":1007,""devicePixelRatio"":1}",,,,,,,,,,,,,,,,,,,,,,,,,,,,,21372.644,,form submission,,,,,,,,,,,,,,,,43132.5,43131.5,21742.186,21755.300000071526,21758.856,43132.174,{},,
Headphones,html.Page,0_1,2021-11-19T11:18:50.292Z,,,,,,,,,,,,,,,,,,,,,,,,,,,,,,2177.926000023843,,form submission,,,,,,,,,,,,,,,,45310.5,45310.10000002384,43115.447,43132.800000071526,43132.174,45315.272,,,
Holding screen,html.Screen,0_2_0_0,2021-11-19T11:19:00.289Z,,,,,,,,,,,,,,,,,,,,,,,,,,,,,,10002.413,,timeout,,,,,,,,,,,,,,,,55306.800000071526,55301.015,45298.602,45311,45315.272,55317.685,,,
screen,html.Screen,0_2_0_1_0,2021-11-19T11:19:02.884Z,,,,,,,,,,,,,,,,53,,,,,,,,,,,,,,2582.515000047686,,response,,,99,,,,,,Space,keypress(Space),,,,,When -- ----- -- ------ - ------- --- ----------<br>------------- ------ ------ ---- ---- ------- ----- -- ----<br>-------- ------- -- ---------- --- - --- ----- ----- ----<br>---- --- --- ----- --- ---- ---- ------- ----- ---- -------<br>--- --- -- ----- -- --- ---- -- --- ---- -- ------ ------<br>--- ----- -- ----,57901.60000002384,57900.200000047684,55301.015,55307.300000071526,55317.685,57918.519,,0,When
screen,html.Screen,0_2_0_1_1,2021-11-19T11:19:03.715Z,,,,,,,,,,,,,,,,53,,,,,,,,,,,,,,813.5810000238416,,response,,,99,,,,,,Space,keypress(Space),,,,,---- it ----- -- ------ - ------- --- ----------<br>------------- ------ ------ ---- ---- ------- ----- -- ----<br>-------- ------- -- ---------- --- - --- ----- ----- ----<br>---- --- --- ----- --- ---- ---- ------- ----- ---- -------<br>--- --- -- ----- -- --- ---- -- --- ---- -- ------ ------<br>--- ----- -- ----,58733,58732.10000002384,57901.848,57902,57918.519,58735.2,,1,it
screen,html.Screen,0_2_0_1_2,2021-11-19T11:19:04.275Z,,,,,,,,,,,,,,,,53,,,,,,,,,,,,,,556.9000000238448,,response,,,99,,,,,,Space,keypress(Space),,,,,---- -- comes -- ------ - ------- --- ----------<br>------------- ------ ------ ---- ---- ------- ----- -- ----<br>-------- ------- -- ---------- --- - --- ----- ----- ----<br>---- --- --- ----- --- ---- ---- ------- ----- ---- -------<br>--- --- -- ----- -- --- ---- -- --- ---- -- ------ ------<br>--- ----- -- ----,59293.300000071526,59292.10000002384,58718.53,58733.300000071526,58735.2,59302.085,,2,comes
screen,html.Screen,0_2_0_1_3,2021-11-19T11:19:05.055Z,,,,,,,,,,,,,,,,53,,,,,,,,,,,,,,765.9150000000009,,response,,,99,,,,,,Space,keypress(Space),,,,,---- -- ----- to ------ - ------- --- ----------<br>------------- ------ ------ ---- ---- ------- ----- -- ----<br>-------- ------- -- ---------- --- - --- ----- ----- ----<br>---- --- --- ----- --- ---- ---- ------- ----- ---- -------<br>--- --- -- ----- -- --- ---- -- --- ---- -- ------ ------<br>--- ----- -- ----,60069,60068,59285.415,59293.5,59302.085,60085.585,,3,to
screen,html.Screen,0_2_0_1_4,2021-11-19T11:19:05.719Z,,,,,,,,,,,,,,,,53,,,,,,,,,,,,,,646.4150000000009,,response,,,99,,,,,,Space,keypress(Space),,,,,---- -- ----- -- having - ------- --- ----------<br>------------- ------ ------ ---- ---- ------- ----- -- ----<br>-------- ------- -- ---------- --- - --- ----- ----- ----<br>---- --- --- ----- --- ---- ---- ------- ----- ---- -------<br>--- --- -- ----- -- --- ---- -- --- ---- -- ------ ------<br>--- ----- -- ----,60733.10000002384,60732,60068.915,60069.5,60085.585,60735.762,,4,having
screen,html.Screen,0_2_0_1_5,2021-11-19T11:19:06.391Z,,,,,,,,,,,,,,,,53,,,,,,,,,,,,,,668.138000095365,,response,,,99,,,,,,Space,keypress(Space),,,,,---- -- ----- -- ------ a ------- --- ----------<br>------------- ------ ------ ---- ---- ------- ----- -- ----<br>-------- ------- -- ---------- --- - --- ----- ----- ----<br>---- --- --- ----- --- ---- ---- ------- ----- ---- -------<br>--- --- -- ----- -- --- ---- -- --- ---- -- ------ ------<br>--- ----- -- ----,61404.800000071526,61403.90000009537,60719.092,60733.40000009537,60735.762,61419.141,,5,a
screen,html.Screen,0_2_0_1_6,2021-11-19T11:19:07.271Z,,,,,,,,,,,,,,,,53,,,,,,,,,,,,,,864.6590000715223,,response,,,99,,,,,,Space,keypress(Space),,,,,---- -- ----- -- ------ - lasting --- ----------<br>------------- ------ ------ ---- ---- ------- ----- -- ----<br>-------- ------- -- ---------- --- - --- ----- ----- ----<br>---- --- --- ----- --- ---- ---- ------- ----- ---- -------<br>--- --- -- ----- -- --- ---- -- --- ---- -- ------ ------<br>--- ----- -- ----,62284.800000071526,62283.800000071526,61402.472,61405.300000071526,61419.141,62286.211,,6,lasting
screen,html.Screen,0_2_0_1_7,2021-11-19T11:19:08.143Z,,,,,,,,,,,,,,,,53,,,,,,,,,,,,,,869.4890000476807,,response,,,99,,,,,,Space,keypress(Space),,,,,---- -- ----- -- ------ - ------- and ----------<br>------------- ------ ------ ---- ---- ------- ----- -- ----<br>-------- ------- -- ---------- --- - --- ----- ----- ----<br>---- --- --- ----- --- ---- ---- ------- ----- ---- -------<br>--- --- -- ----- -- --- ---- -- --- ---- -- ------ ------<br>--- ----- -- ----,63156.700000047684,63155.700000047684,62269.54,62285.10000002384,62286.211,63169.698,,7,and
screen,html.Screen,0_2_0_1_8,2021-11-19T11:19:08.911Z,,,,,,,,,,,,,,,,53,,,,,,,,,,,,,,754.002000047687,,response,,,99,,,,,,Space,keypress(Space),,,,,---- -- ----- -- ------ - ------- --- fulfilling<br>------------- ------ ------ ---- ---- ------- ----- -- ----<br>-------- ------- -- ---------- --- - --- ----- ----- ----<br>---- --- --- ----- --- ---- ---- ------- ----- ---- -------<br>--- --- -- ----- -- --- ---- -- --- ---- -- ------ ------<br>--- ----- -- ----,63924.800000071526,63923.700000047684,63153.028,63156.90000009537,63169.698,63936.515,,8,fulfilling
screen,html.Screen,0_2_0_1_9,2021-11-19T11:19:09.687Z,,,,,,,,,,,,,,,,53,,,,,,,,,,,,,,763.1850000476843,,response,,,99,,,,,,Space,keypress(Space),,,,,"---- -- ----- -- ------ - ------- --- ----------<br>relationship, ------ ------ ---- ---- ------- ----- -- ----<br>-------- ------- -- ---------- --- - --- ----- ----- ----<br>---- --- --- ----- --- ---- ---- ------- ----- ---- -------<br>--- --- -- ----- -- --- ---- -- --- ---- -- ------ ------<br>--- ----- -- ----",64700.60000002384,64699.700000047684,63919.845,63925.200000047684,63936.515,64703.38,,9,"relationship,"
screen,html.Screen,0_2_0_1_10,2021-11-19T11:19:10.711Z,,,,,,,,,,,,,,,,53,,,,,,,,,,,,,,1020.6200000000026,,response,,,99,,,,,,Space,keypress(Space),,,,,---- -- ----- -- ------ - ------- --- ----------<br>------------- common ------ ---- ---- ------- ----- -- ----<br>-------- ------- -- ---------- --- - --- ----- ----- ----<br>---- --- --- ----- --- ---- ---- ------- ----- ---- -------<br>--- --- -- ----- -- --- ---- -- --- ---- -- ------ ------<br>--- ----- -- ----,65725,65724,64686.71,64700.90000009537,64703.38,65736.813,,10,common
screen,html.Screen,0_2_0_1_11,2021-11-19T11:19:11.303Z,,,,,,,,,,,,,,,,53,,,,,,,,,,,,,,578.7870000238472,,response,,,99,,,,,,Space,keypress(Space),,,,,---- -- ----- -- ------ - ------- --- ----------<br>------------- ------ wisdom ---- ---- ------- ----- -- ----<br>-------- ------- -- ---------- --- - --- ----- ----- ----<br>---- --- --- ----- --- ---- ---- ------- ----- ---- -------<br>--- --- -- ----- -- --- ---- -- --- ---- -- ------ ------<br>--- ----- -- ----,66316.5,66315.60000002384,65720.144,65725.20000004768,65736.813,66320.554,,11,wisdom
screen,html.Screen,0_2_0_1_12,2021-11-19T11:19:11.903Z,,,,,,,,,,,,,,,,53,,,,,,,,,,,,,,595.0460000238381,,response,,,99,,,,,,Space,keypress(Space),,,,,---- -- ----- -- ------ - ------- --- ----------<br>------------- ------ ------ says ---- ------- ----- -- ----<br>-------- ------- -- ---------- --- - --- ----- ----- ----<br>---- --- --- ----- --- ---- ---- ------- ----- ---- -------<br>--- --- -- ----- -- --- ---- -- --- ---- -- ------ ------<br>--- ----- -- ----,66916.40000009537,66915.60000002384,66303.883,66316.70000004768,66320.554,66920.586,,12,says
screen,html.Screen,0_2_0_1_13,2021-11-19T11:19:12.319Z,,,,,,,,,,,,,,,,53,,,,,,,,,,,,,,410.9140000000043,,response,,,99,,,,,,Space,keypress(Space),,,,,---- -- ----- -- ------ - ------- --- ----------<br>------------- ------ ------ ---- that ------- ----- -- ----<br>-------- ------- -- ---------- --- - --- ----- ----- ----<br>---- --- --- ----- --- ---- ---- ------- ----- ---- -------<br>--- --- -- ----- -- --- ---- -- --- ---- -- ------ ------<br>--- ----- -- ----,67332.40000009537,67331.5,66903.916,66916.60000002384,66920.586,67337.266,,13,that
screen,html.Screen,0_2_0_1_14,2021-11-19T11:19:12.942Z,,,,,,,,,,,,,,,,53,,,,,,,,,,,,,,618.2339999999967,,response,,,99,,,,,,Space,keypress(Space),,,,,---- -- ----- -- ------ - ------- --- ----------<br>------------- ------ ------ ---- ---- feeling ----- -- ----<br>-------- ------- -- ---------- --- - --- ----- ----- ----<br>---- --- --- ----- --- ---- ---- ------- ----- ---- -------<br>--- --- -- ----- -- --- ---- -- --- ---- -- ------ ------<br>--- ----- -- ----,67956.30000007153,67955.5,67320.597,67332.5,67337.266,67970.966,,14,feeling
screen,html.Screen,0_2_0_1_15,2021-11-19T11:19:13.438Z,,,,,,,,,,,,,,,,53,,,,,,,,,,,,,,480.53399999999965,,response,,,99,,,,,,Space,keypress(Space),,,,,---- -- ----- -- ------ - ------- --- ----------<br>------------- ------ ------ ---- ---- ------- close -- ----<br>-------- ------- -- ---------- --- - --- ----- ----- ----<br>---- --- --- ----- --- ---- ---- ------- ----- ---- -------<br>--- --- -- ----- -- --- ---- -- --- ---- -- ------ ------<br>--- ----- -- ----,68452.30000007153,68451.5,67954.294,67956.5,67970.966,68454.284,,15,close
screen,html.Screen,0_2_0_1_16,2021-11-19T11:19:13.806Z,,,,,,,,,,,,,,,,53,,,,,,,,,,,,,,365.1160000953678,,response,,,99,,,,,,Space,keypress(Space),,,,,---- -- ----- -- ------ - ------- --- ----------<br>------------- ------ ------ ---- ---- ------- ----- to ----<br>-------- ------- -- ---------- --- - --- ----- ----- ----<br>---- --- --- ----- --- ---- ---- ------- ----- ---- -------<br>--- --- -- ----- -- --- ---- -- --- ---- -- ------ ------<br>--- ----- -- ----,68820.20000004768,68819.40000009537,68437.614,68452.5,68454.284,68837.643,,16,to
screen,html.Screen,0_2_0_1_17,2021-11-19T11:19:14.294Z,,,,,,,,,,,,,,,,53,,,,,,,,,,,,,,469.75700009537104,,response,,,99,,,,,,Space,keypress(Space),,,,,---- -- ----- -- ------ - ------- --- ----------<br>------------- ------ ------ ---- ---- ------- ----- -- your<br>-------- ------- -- ---------- --- - --- ----- ----- ----<br>---- --- --- ----- --- ---- ---- ------- ----- ---- -------<br>--- --- -- ----- -- --- ---- -- --- ---- -- ------ ------<br>--- ----- -- ----,69308.20000004768,69307.40000009537,68820.974,68820.5,68837.643,69321.236,,17,your
screen,html.Screen,0_2_0_1_18,2021-11-19T11:19:14.998Z,,,,,,,,,,,,,,,,53,,,,,,,,,,,,,,690.0640000715211,,response,,,99,,,,,,Space,keypress(Space),,,,,---- -- ----- -- ------ - ------- --- ----------<br>------------- ------ ------ ---- ---- ------- ----- -- ----<br>romantic ------- -- ---------- --- - --- ----- ----- ----<br>---- --- --- ----- --- ---- ---- ------- ----- ---- -------<br>--- --- -- ----- -- --- ---- -- --- ---- -- ------ ------<br>--- ----- -- ----,70012.20000004768,70011.30000007153,69304.565,69308.40000009537,69321.236,70021.414,,18,romantic
screen,html.Screen,0_2_0_1_19,2021-11-19T11:19:15.766Z,,,,,,,,,,,,,,,,53,,,,,,,,,,,,,,757.8860000715213,,response,,,99,,,,,,Space,keypress(Space),,,,,---- -- ----- -- ------ - ------- --- ----------<br>------------- ------ ------ ---- ---- ------- ----- -- ----<br>-------- partner -- ---------- --- - --- ----- ----- ----<br>---- --- --- ----- --- ---- ---- ------- ----- ---- -------<br>--- --- -- ----- -- --- ---- -- --- ---- -- ------ ------<br>--- ----- -- ----,70780.10000002384,70779.30000007153,70004.743,70012.40000009537,70021.414,70788.181,,19,partner
screen,html.Screen,0_2_0_1_20,2021-11-19T11:19:16.150Z,,,,,,,,,,,,,,,,53,,,,,,,,,,,,,,375.01900004768686,,response,,,99,,,,,,Space,keypress(Space),,,,,---- -- ----- -- ------ - ------- --- ----------<br>------------- ------ ------ ---- ---- ------- ----- -- ----<br>-------- ------- is ---------- --- - --- ----- ----- ----<br>---- --- --- ----- --- ---- ---- ------- ----- ---- -------<br>--- --- -- ----- -- --- ---- -- --- ---- -- ------ ------<br>--- ----- -- ----,71164.10000002384,71163.20000004768,70771.511,70780.30000007153,70788.181,71171.666,,20,is
screen,html.Screen,0_2_0_1_21,2021-11-19T11:19:16.774Z,,,,,,,,,,,,,,,,53,,,,,,,,,,,,,,615.5340000476863,,response,,,99,,,,,,Space,keypress(Space),,,,,---- -- ----- -- ------ - ------- --- ----------<br>------------- ------ ------ ---- ---- ------- ----- -- ----<br>-------- ------- -- paramount. --- - --- ----- ----- ----<br>---- --- --- ----- --- ---- ---- ------- ----- ---- -------<br>--- --- -- ----- -- --- ---- -- --- ---- -- ------ ------<br>--- ----- -- ----,71788,71787.20000004768,71154.996,71164.30000007153,71171.666,71805.109,,21,paramount.
screen,html.Screen,0_2_0_1_22,2021-11-19T11:19:17.414Z,,,,,,,,,,,,,,,,53,,,,,,,,,,,,,,621.9910000238451,,response,,,99,,,,,,Space,keypress(Space),,,,,---- -- ----- -- ------ - ------- --- ----------<br>------------- ------ ------ ---- ---- ------- ----- -- ----<br>-------- ------- -- ---------- But - --- ----- ----- ----<br>---- --- --- ----- --- ---- ---- ------- ----- ---- -------<br>--- --- -- ----- -- --- ---- -- --- ---- -- ------ ------<br>--- ----- -- ----,72427.90000009537,72427.10000002384,71788.439,71788.5,71805.109,72438.67,,22,But
screen,html.Screen,0_2_0_1_23,2021-11-19T11:19:17.822Z,,,,,,,,,,,,,,,,53,,,,,,,,,,,,,,396.4300000238436,,response,,,99,,,,,,Space,keypress(Space),,,,,---- -- ----- -- ------ - ------- --- ----------<br>------------- ------ ------ ---- ---- ------- ----- -- ----<br>-------- ------- -- ---------- --- a --- ----- ----- ----<br>---- --- --- ----- --- ---- ---- ------- ----- ---- -------<br>--- --- -- ----- -- --- ---- -- --- ---- -- ------ ------<br>--- ----- -- ----,72835.90000009537,72835.10000002384,72421.999,72428.20000004768,72438.67,72838.715,,23,a
screen,html.Screen,0_2_0_1_24,2021-11-19T11:19:18.214Z,,,,,,,,,,,,,,,,53,,,,,,,,,,,,,,388.38500002384535,,response,,,99,,,,,,Space,keypress(Space),,,,,---- -- ----- -- ------ - ------- --- ----------<br>------------- ------ ------ ---- ---- ------- ----- -- ----<br>-------- ------- -- ---------- --- - new ----- ----- ----<br>---- --- --- ----- --- ---- ---- ------- ----- ---- -------<br>--- --- -- ----- -- --- ---- -- --- ---- -- ------ ------<br>--- ----- -- ----,73227.90000009537,73227.10000002384,72822.045,72836.20000004768,72838.715,73238.737,,24,new
screen,html.Screen,0_2_0_1_25,2021-11-19T11:19:18.766Z,,,,,,,,,,,,,,,,53,,,,,,,,,,,,,,540.3630000238481,,response,,,99,,,,,,Space,keypress(Space),,,,,---- -- ----- -- ------ - ------- --- ----------<br>------------- ------ ------ ---- ---- ------- ----- -- ----<br>-------- ------- -- ---------- --- - --- study ----- ----<br>---- --- --- ----- --- ---- ---- ------- ----- ---- -------<br>--- --- -- ----- -- --- ---- -- --- ---- -- ------ ------<br>--- ----- -- ----,73779.90000009537,73779.10000002384,73222.068,73228.20000004768,73238.737,73789,,25,study
screen,html.Screen,0_2_0_1_26,2021-11-19T11:19:19.246Z,,,,,,,,,,,,,,,,53,,,,,,,,,,,,,,470,,response,,,99,,,,,,Space,keypress(Space),,,,,---- -- ----- -- ------ - ------- --- ----------<br>------------- ------ ------ ---- ---- ------- ----- -- ----<br>-------- ------- -- ---------- --- - --- ----- finds ----<br>---- --- --- ----- --- ---- ---- ------- ----- ---- -------<br>--- --- -- ----- -- --- ---- -- --- ---- -- ------ ------<br>--- ----- -- ----,74259.90000009537,74259,73772.329,73780.10000002384,73789,74272.395,,26,finds
screen,html.Screen,0_2_0_1_27,2021-11-19T11:19:19.710Z,,,,,,,,,,,,,,,,53,,,,,,,,,,,,,,450.7050000238378,,response,,,99,,,,,,Space,keypress(Space),,,,,---- -- ----- -- ------ - ------- --- ----------<br>------------- ------ ------ ---- ---- ------- ----- -- ----<br>-------- ------- -- ---------- --- - --- ----- ----- that<br>---- --- --- ----- --- ---- ---- ------- ----- ---- -------<br>--- --- -- ----- -- --- ---- -- --- ---- -- ------ ------<br>--- ----- -- ----,74723.90000009537,74723.10000002384,74255.725,74260.10000002384,74272.395,74739.16,,27,that
screen,html.Screen,0_2_0_1_28,2021-11-19T11:19:20.366Z,,,,,,,,,,,,,,,,53,,,,,,,,,,,,,,639.7400000953639,,response,,,99,,,,,,Space,keypress(Space),,,,,---- -- ----- -- ------ - ------- --- ----------<br>------------- ------ ------ ---- ---- ------- ----- -- ----<br>-------- ------- -- ---------- --- - --- ----- ----- ----<br>it's --- --- ----- --- ---- ---- ------- ----- ---- -------<br>--- --- -- ----- -- --- ---- -- --- ---- -- ------ ------<br>--- ----- -- ----,75379.70000004768,75378.90000009537,74722.49,74724.10000002384,74739.16,75389.289,,28,it's
screen,html.Screen,0_2_0_1_29,2021-11-19T11:19:20.750Z,,,,,,,,,,,,,,,,53,,,,,,,,,,,,,,374.01100007152127,,response,,,99,,,,,,Space,keypress(Space),,,,,---- -- ----- -- ------ - ------- --- ----------<br>------------- ------ ------ ---- ---- ------- ----- -- ----<br>-------- ------- -- ---------- --- - --- ----- ----- ----<br>---- not --- ----- --- ---- ---- ------- ----- ---- -------<br>--- --- -- ----- -- --- ---- -- --- ---- -- ------ ------<br>--- ----- -- ----,75764.10000002384,75763.30000007153,75372.619,75380,75389.289,75772.808,,29,not
screen,html.Screen,0_2_0_1_30,2021-11-19T11:19:21.142Z,,,,,,,,,,,,,,,,53,,,,,,,,,,,,,,382.0920000953629,,response,,,99,,,,,,Space,keypress(Space),,,,,---- -- ----- -- ------ - ------- --- ----------<br>------------- ------ ------ ---- ---- ------- ----- -- ----<br>-------- ------- -- ---------- --- - --- ----- ----- ----<br>---- --- how ----- --- ---- ---- ------- ----- ---- -------<br>--- --- -- ----- -- --- ---- -- --- ---- -- ------ ------<br>--- ----- -- ----,76155.80000007153,76154.90000009537,75756.137,75764.30000007153,75772.808,76172.875,,30,how
screen,html.Screen,0_2_0_1_31,2021-11-19T11:19:21.574Z,,,,,,,,,,,,,,,,53,,,,,,,,,,,,,,414.02500009536743,,response,,,99,,,,,,Space,keypress(Space),,,,,---- -- ----- -- ------ - ------- --- ----------<br>------------- ------ ------ ---- ---- ------- ----- -- ----<br>-------- ------- -- ---------- --- - --- ----- ----- ----<br>---- --- --- close --- ---- ---- ------- ----- ---- -------<br>--- --- -- ----- -- --- ---- -- --- ---- -- ------ ------<br>--- ----- -- ----,76587.70000004768,76586.90000009537,76156.205,76156.10000002384,76172.875,76589.428,,31,close
screen,html.Screen,0_2_0_1_32,2021-11-19T11:19:22.030Z,,,,,,,,,,,,,,,,53,,,,,,,,,,,,,,453.3720000715257,,response,,,99,,,,,,Space,keypress(Space),,,,,---- -- ----- -- ------ - ------- --- ----------<br>------------- ------ ------ ---- ---- ------- ----- -- ----<br>-------- ------- -- ---------- --- - --- ----- ----- ----<br>---- --- --- ----- you ---- ---- ------- ----- ---- -------<br>--- --- -- ----- -- --- ---- -- --- ---- -- ------ ------<br>--- ----- -- ----,77043.60000002384,77042.80000007153,76572.761,76587.90000009537,76589.428,77056.515,,32,you
screen,html.Screen,0_2_0_1_33,2021-11-19T11:19:22.606Z,,,,,,,,,,,,,,,,53,,,,,,,,,,,,,,562.2850000715262,,response,,,99,,,,,,Space,keypress(Space),,,,,---- -- ----- -- ------ - ------- --- ----------<br>------------- ------ ------ ---- ---- ------- ----- -- ----<br>-------- ------- -- ---------- --- - --- ----- ----- ----<br>---- --- --- ----- --- feel ---- ------- ----- ---- -------<br>--- --- -- ----- -- --- ---- -- --- ---- -- ------ ------<br>--- ----- -- ----,77619.60000002384,77618.80000007153,77039.843,77043.80000007153,77056.515,77623.27,,33,feel
screen,html.Screen,0_2_0_1_34,2021-11-19T11:19:23.086Z,,,,,,,,,,,,,,,,53,,,,,,,,,,,,,,475.5300000715215,,response,,,99,,,,,,Space,keypress(Space),,,,,---- -- ----- -- ------ - ------- --- ----------<br>------------- ------ ------ ---- ---- ------- ----- -- ----<br>-------- ------- -- ---------- --- - --- ----- ----- ----<br>---- --- --- ----- --- ---- that ------- ----- ---- -------<br>--- --- -- ----- -- --- ---- -- --- ---- -- ------ ------<br>--- ----- -- ----,78099.5,78098.80000007153,77606.599,77619.80000007153,77623.27,78106.562,,34,that
screen,html.Screen,0_2_0_1_35,2021-11-19T11:19:23.646Z,,,,,,,,,,,,,,,,53,,,,,,,,,,,,,,552.1380000476784,,response,,,99,,,,,,Space,keypress(Space),,,,,---- -- ----- -- ------ - ------- --- ----------<br>------------- ------ ------ ---- ---- ------- ----- -- ----<br>-------- ------- -- ---------- --- - --- ----- ----- ----<br>---- --- --- ----- --- ---- ---- matters ----- ---- -------<br>--- --- -- ----- -- --- ---- -- --- ---- -- ------ ------<br>--- ----- -- ----,78659.5,78658.70000004768,78089.893,78099.70000004768,78106.562,78673.463,,35,matters
screen,html.Screen,0_2_0_1_36,2021-11-19T11:19:24.182Z,,,,,,,,,,,,,,,,53,,,,,,,,,,,,,,521.2370000476803,,response,,,99,,,,,,Space,keypress(Space),,,,,"---- -- ----- -- ------ - ------- --- ----------<br>------------- ------ ------ ---- ---- ------- ----- -- ----<br>-------- ------- -- ---------- --- - --- ----- ----- ----<br>---- --- --- ----- --- ---- ---- ------- most, ---- -------<br>--- --- -- ----- -- --- ---- -- --- ---- -- ------ ------<br>--- ----- -- ----",79195.70000004768,79194.70000004768,78656.793,78659.70000004768,78673.463,79206.905,,36,"most,"
screen,html.Screen,0_2_0_1_37,2021-11-19T11:19:24.742Z,,,,,,,,,,,,,,,,53,,,,,,,,,,,,,,547.7950000476849,,response,,,99,,,,,,Space,keypress(Space),,,,,---- -- ----- -- ------ - ------- --- ----------<br>------------- ------ ------ ---- ---- ------- ----- -- ----<br>-------- ------- -- ---------- --- - --- ----- ----- ----<br>---- --- --- ----- --- ---- ---- ------- ----- it's -------<br>--- --- -- ----- -- --- ---- -- --- ---- -- ------ ------<br>--- ----- -- ----,79755.40000009537,79754.70000004768,79190.235,79196,79206.905,79757.029,,37,it's
screen,html.Screen,0_2_0_1_38,2021-11-19T11:19:25.342Z,,,,,,,,,,,,,,,,53,,,,,,,,,,,,,,597.471000000005,,response,,,99,,,,,,Space,keypress(Space),,,,,---- -- ----- -- ------ - ------- --- ----------<br>------------- ------ ------ ---- ---- ------- ----- -- ----<br>-------- ------- -- ---------- --- - --- ----- ----- ----<br>---- --- --- ----- --- ---- ---- ------- ----- ---- whether<br>--- --- -- ----- -- --- ---- -- --- ---- -- ------ ------<br>--- ----- -- ----,80355.30000007153,80354.5,79740.359,79755.70000004768,79757.029,80357.261,,38,whether
screen,html.Screen,0_2_0_1_39,2021-11-19T11:19:25.853Z,,,,,,,,,,,,,,,,53,,,,,,,,,,,,,,509.2390000000014,,response,,,99,,,,,,Space,keypress(Space),,,,,---- -- ----- -- ------ - ------- --- ----------<br>------------- ------ ------ ---- ---- ------- ----- -- ----<br>-------- ------- -- ---------- --- - --- ----- ----- ----<br>---- --- --- ----- --- ---- ---- ------- ----- ---- -------<br>you --- -- ----- -- --- ---- -- --- ---- -- ------ ------<br>--- ----- -- ----,80867.30000007153,80866.5,80340.59,80355.60000002384,80357.261,80873.988,,39,you
screen,html.Screen,0_2_0_1_40,2021-11-19T11:19:26.278Z,,,,,,,,,,,,,,,,53,,,,,,,,,,,,,,416.51200000000244,,response,,,99,,,,,,Space,keypress(Space),,,,,---- -- ----- -- ------ - ------- --- ----------<br>------------- ------ ------ ---- ---- ------- ----- -- ----<br>-------- ------- -- ---------- --- - --- ----- ----- ----<br>---- --- --- ----- --- ---- ---- ------- ----- ---- -------<br>--- are -- ----- -- --- ---- -- --- ---- -- ------ ------<br>--- ----- -- ----,81291.30000007153,81290.5,80857.318,80867.5,80873.988,81307.44,,40,are
screen,html.Screen,0_2_0_1_41,2021-11-19T11:19:26.701Z,,,,,,,,,,,,,,,,53,,,,,,,,,,,,,,407.0599999999977,,response,,,99,,,,,,Space,keypress(Space),,,,,---- -- ----- -- ------ - ------- --- ----------<br>------------- ------ ------ ---- ---- ------- ----- -- ----<br>-------- ------- -- ---------- --- - --- ----- ----- ----<br>---- --- --- ----- --- ---- ---- ------- ----- ---- -------<br>--- --- as ----- -- --- ---- -- --- ---- -- ------ ------<br>--- ----- -- ----,81715.20000004768,81714.5,81290.77,81291.5,81307.44,81724.196,,41,as
screen,html.Screen,0_2_0_1_42,2021-11-19T11:19:27.165Z,,,,,,,,,,,,,,,,53,,,,,,,,,,,,,,454.3040000000037,,response,,,99,,,,,,Space,keypress(Space),,,,,---- -- ----- -- ------ - ------- --- ----------<br>------------- ------ ------ ---- ---- ------- ----- -- ----<br>-------- ------- -- ---------- --- - --- ----- ----- ----<br>---- --- --- ----- --- ---- ---- ------- ----- ---- -------<br>--- --- -- close -- --- ---- -- --- ---- -- ------ ------<br>--- ----- -- ----,82179.30000007153,82178.5,81707.526,81715.5,81724.196,82190.971,,42,close
screen,html.Screen,0_2_0_1_43,2021-11-19T11:19:27.629Z,,,,,,,,,,,,,,,,53,,,,,,,,,,,,,,451.32900007152057,,response,,,99,,,,,,Space,keypress(Space),,,,,---- -- ----- -- ------ - ------- --- ----------<br>------------- ------ ------ ---- ---- ------- ----- -- ----<br>-------- ------- -- ---------- --- - --- ----- ----- ----<br>---- --- --- ----- --- ---- ---- ------- ----- ---- -------<br>--- --- -- ----- as --- ---- -- --- ---- -- ------ ------<br>--- ----- -- ----,82643.20000004768,82642.30000007153,82174.301,82179.5,82190.971,82657.772,,43,as
screen,html.Screen,0_2_0_1_44,2021-11-19T11:19:28.045Z,,,,,,,,,,,,,,,,53,,,,,,,,,,,,,,400.6280000953702,,response,,,99,,,,,,Space,keypress(Space),,,,,---- -- ----- -- ------ - ------- --- ----------<br>------------- ------ ------ ---- ---- ------- ----- -- ----<br>-------- ------- -- ---------- --- - --- ----- ----- ----<br>---- --- --- ----- --- ---- ---- ------- ----- ---- -------<br>--- --- -- ----- -- you ---- -- --- ---- -- ------ ------<br>--- ----- -- ----,83059.20000004768,83058.40000009537,82641.102,82643.30000007153,82657.772,83074.535,,44,you
screen,html.Screen,0_2_0_1_45,2021-11-19T11:19:28.509Z,,,,,,,,,,,,,,,,53,,,,,,,,,,,,,,447.86500009536394,,response,,,99,,,,,,Space,keypress(Space),,,,,---- -- ----- -- ------ - ------- --- ----------<br>------------- ------ ------ ---- ---- ------- ----- -- ----<br>-------- ------- -- ---------- --- - --- ----- ----- ----<br>---- --- --- ----- --- ---- ---- ------- ----- ---- -------<br>--- --- -- ----- -- --- want -- --- ---- -- ------ ------<br>--- ----- -- ----,83523.20000004768,83522.40000009537,83057.865,83059.40000009537,83074.535,83524.63,,45,want
screen,html.Screen,0_2_0_1_46,2021-11-19T11:19:28.933Z,,,,,,,,,,,,,,,,53,,,,,,,,,,,,,,421.6700000715209,,response,,,99,,,,,,Space,keypress(Space),,,,,---- -- ----- -- ------ - ------- --- ----------<br>------------- ------ ------ ---- ---- ------- ----- -- ----<br>-------- ------- -- ---------- --- - --- ----- ----- ----<br>---- --- --- ----- --- ---- ---- ------- ----- ---- -------<br>--- --- -- ----- -- --- ---- to --- ---- -- ------ ------<br>--- ----- -- ----,83947.10000002384,83946.30000007153,83507.96,83523.40000009537,83524.63,83958.081,,46,to
screen,html.Screen,0_2_0_1_47,2021-11-19T11:19:29.373Z,,,,,,,,,,,,,,,,53,,,,,,,,,,,,,,428.21900007152,,response,,,99,,,,,,Space,keypress(Space),,,,,"---- -- ----- -- ------ - ------- --- ----------<br>------------- ------ ------ ---- ---- ------- ----- -- ----<br>-------- ------- -- ---------- --- - --- ----- ----- ----<br>---- --- --- ----- --- ---- ---- ------- ----- ---- -------<br>--- --- -- ----- -- --- ---- -- be, ---- -- ------ ------<br>--- ----- -- ----",84387.10000002384,84386.30000007153,83941.411,83947.30000007153,83958.081,84391.43,,47,"be,"
screen,html.Screen,0_2_0_1_48,2021-11-19T11:19:30.061Z,,,,,,,,,,,,,,,,53,,,,,,,,,,,,,,682.8700000715326,,response,,,99,,,,,,Space,keypress(Space),,,,,---- -- ----- -- ------ - ------- --- ----------<br>------------- ------ ------ ---- ---- ------- ----- -- ----<br>-------- ------- -- ---------- --- - --- ----- ----- ----<br>---- --- --- ----- --- ---- ---- ------- ----- ---- -------<br>--- --- -- ----- -- --- ---- -- --- even -- ------ ------<br>--- ----- -- ----,85075,85074.30000007153,84374.761,84387.30000007153,84391.43,85091.803,,48,even
screen,html.Screen,0_2_0_1_49,2021-11-19T11:19:30.541Z,,,,,,,,,,,,,,,,53,,,,,,,,,,,,,,462.4970000715257,,response,,,99,,,,,,Space,keypress(Space),,,,,---- -- ----- -- ------ - ------- --- ----------<br>------------- ------ ------ ---- ---- ------- ----- -- ----<br>-------- ------- -- ---------- --- - --- ----- ----- ----<br>---- --- --- ----- --- ---- ---- ------- ----- ---- -------<br>--- --- -- ----- -- --- ---- -- --- ---- if ------ ------<br>--- ----- -- ----,85555.10000002384,85554.30000007153,85075.131,85075.30000007153,85091.803,85558.47,,49,if
screen,html.Screen,0_2_0_1_50,2021-11-19T11:19:31.054Z,,,,,,,,,,,,,,,,53,,,,,,,,,,,,,,508.1300000238407,,response,,,99,,,,,,Space,keypress(Space),,,,,---- -- ----- -- ------ - ------- --- ----------<br>------------- ------ ------ ---- ---- ------- ----- -- ----<br>-------- ------- -- ---------- --- - --- ----- ----- ----<br>---- --- --- ----- --- ---- ---- ------- ----- ---- -------<br>--- --- -- ----- -- --- ---- -- --- ---- -- that's ------<br>--- ----- -- ----,86067.40000009537,86066.60000002384,85541.8,85555.20000004768,85558.47,86075.249,,50,that's
screen,html.Screen,0_2_0_1_51,2021-11-19T11:19:31.597Z,,,,,,,,,,,,,,,,53,,,,,,,,,,,,,,534.8510000238457,,response,,,99,,,,,,Space,keypress(Space),,,,,---- -- ----- -- ------ - ------- --- ----------<br>------------- ------ ------ ---- ---- ------- ----- -- ----<br>-------- ------- -- ---------- --- - --- ----- ----- ----<br>---- --- --- ----- --- ---- ---- ------- ----- ---- -------<br>--- --- -- ----- -- --- ---- -- --- ---- -- ------ really<br>--- ----- -- ----,86611,86610.10000002384,86058.579,86067.60000002384,86075.249,86625.404,,51,really
screen,html.Screen,0_2_0_1_52,2021-11-19T11:19:32.109Z,,,,,,,,,,,,,,,,53,,,,,,,,,,,,,,496.7960000476887,,response,,,99,,,,,,Space,keypress(Space),,,,,---- -- ----- -- ------ - ------- --- ----------<br>------------- ------ ------ ---- ---- ------- ----- -- ----<br>-------- ------- -- ---------- --- - --- ----- ----- ----<br>---- --- --- ----- --- ---- ---- ------- ----- ---- -------<br>--- --- -- ----- -- --- ---- -- --- ---- -- ------ ------<br>not ----- -- ----,87123,87122.20000004768,86608.734,86611.20000004768,86625.404,87125.504,,52,not
screen,html.Screen,0_2_0_1_53,2021-11-19T11:19:32.653Z,,,,,,,,,,,,,,,,53,,,,,,,,,,,,,,540.596000023841,,response,,,99,,,,,,Space,keypress(Space),,,,,---- -- ----- -- ------ - ------- --- ----------<br>------------- ------ ------ ---- ---- ------- ----- -- ----<br>-------- ------- -- ---------- --- - --- ----- ----- ----<br>---- --- --- ----- --- ---- ---- ------- ----- ---- -------<br>--- --- -- ----- -- --- ---- -- --- ---- -- ------ ------<br>--- close -- ----,87666.90000009537,87666.10000002384,87108.834,87123.10000002384,87125.504,87675.649,,53,close
screen,html.Screen,0_2_0_1_54,2021-11-19T11:19:33.229Z,,,,,,,,,,,,,,,,53,,,,,,,,,,,,,,566.451000023837,,response,,,99,,,,,,Space,keypress(Space),,,,,---- -- ----- -- ------ - ------- --- ----------<br>------------- ------ ------ ---- ---- ------- ----- -- ----<br>-------- ------- -- ---------- --- - --- ----- ----- ----<br>---- --- --- ----- --- ---- ---- ------- ----- ---- -------<br>--- --- -- ----- -- --- ---- -- --- ---- -- ------ ------<br>--- ----- at ----,88242.80000007153,88242.10000002384,87658.979,87667.10000002384,87675.649,88259.124,,54,at
screen,html.Screen,0_2_0_1_55,2021-11-19T11:19:34.773Z,,,,,,,,,,,,,,,,53,,,,,,,,,,,,,,1526.8760000000038,,response,,,99,,,,,,Space,keypress(Space),,,,,---- -- ----- -- ------ - ------- --- ----------<br>------------- ------ ------ ---- ---- ------- ----- -- ----<br>-------- ------- -- ---------- --- - --- ----- ----- ----<br>---- --- --- ----- --- ---- ---- ------- ----- ---- -------<br>--- --- -- ----- -- --- ---- -- --- ---- -- ------ ------<br>--- ----- -- all.,89786.80000007153,89786,88242.454,88243,88259.124,89792.774,,55,all.
Item 99,flow.Loop,0_2_0_1,2021-11-19T11:19:34.777Z,,,,,,,,,,,,,,,,,,,,,,,,,,,,,,34468.315,,completion,,,,E,,,,,,,,,,silence,,89791.20000004768,89786,55301.015,55307.200000047684,55317.685,89792.774,,,
Question 1,html.Screen,0_2_0_2,2021-11-19T11:19:39.653Z,,,,,,,,,,,,,,,,,,,,,,,,,,,true,FALSE,,4872.526000071521,,response,,,99,E,,,,,FALSE,click #choice-2,,,,silence,,94666.70000004768,94665.30000007153,89776.104,89791.5,89792.774,94677.307,,,
Question 2,html.Screen,0_2_0_3,2021-11-19T11:19:43.580Z,,,,,,,,,,,,,,,,,,,,,,,,,,,true,TRUE,,3915.793000023841,,response,,,99,E,,,,,TRUE,click #choice-1,,,,silence,,98594.30000007153,98593.10000002384,94660.637,94666.90000009537,94677.307,98594.952,,,
Item 99,flow.Sequence,0_2_0,2021-11-19T11:19:43.581Z,,,,,,,,,,,,,,,,,,,,,,,,,,,,,,53277.828000023845,,completion,,,,,,,,,,,,,,,,98594.70000004768,98593.10000002384,45298.602,45310.90000009537,45315.272,98594.952,,,
Holding screen,html.Screen,0_2_1_0,2021-11-19T11:19:53.569Z,,,,,,,,,,,,,,,,,,,,,,,,,,,,,,10002.361999999994,,timeout,,,,,,,,,,,,,,,,108582.40000009537,108580.644,98578.282,98595.10000002384,98594.952,108597.314,,,
screen,html.Screen,0_2_1_1_0,2021-11-19T11:19:54.972Z,,,,,,,,,,,,,,,,54,,,,,,,,,,,,,,1387.6860000000015,,response,,,100,,,,,,Space,keypress(Space),,,,,At --- ---- --- ------ ----- ------- ---- -- --- ------- --<br>------- ---------- ------ -- ----- -- ----- -- ---- ------<br>--- ----- --- --- ------ -------- ----- --- ------ ----- --<br>----- ----- ---------- --- --- ------ ------ ---- -- ------<br>------- --- ------ ----- --- ---- ------- -- ---- --- --<br>------- ------,109985.80000007153,109985,108580.644,108582.90000009537,108597.314,109997.794,,0,At
screen,html.Screen,0_2_1_1_1,2021-11-19T11:19:55.452Z,,,,,,,,,,,,,,,,54,,,,,,,,,,,,,,466.7060000000056,,response,,,100,,,,,,Space,keypress(Space),,,,,-- the ---- --- ------ ----- ------- ---- -- --- ------- --<br>------- ---------- ------ -- ----- -- ----- -- ---- ------<br>--- ----- --- --- ------ -------- ----- --- ------ ----- --<br>----- ----- ---------- --- --- ------ ------ ---- -- ------<br>------- --- ------ ----- --- ---- ------- -- ---- --- --<br>------- ------,110465.30000007153,110464.5,109981.123,109986,109997.794,110481.151,,1,the
screen,html.Screen,0_2_1_1_2,2021-11-19T11:19:56.123Z,,,,,,,,,,,,,,,,54,,,,,,,,,,,,,,655.2490000953694,,response,,,100,,,,,,Space,keypress(Space),,,,,-- --- time --- ------ ----- ------- ---- -- --- ------- --<br>------- ---------- ------ -- ----- -- ----- -- ---- ------<br>--- ----- --- --- ------ -------- ----- --- ------ ----- --<br>----- ----- ---------- --- --- ------ ------ ---- -- ------<br>------- --- ------ ----- --- ---- ------- -- ---- --- --<br>------- ------,111137.20000004768,111136.40000009537,110464.481,110465.60000002384,110481.151,111147.949,,2,time
screen,html.Screen,0_2_1_1_3,2021-11-19T11:19:56.603Z,,,,,,,,,,,,,,,,54,,,,,,,,,,,,,,468.4510000953742,,response,,,100,,,,,,Space,keypress(Space),,,,,-- --- ---- the ------ ----- ------- ---- -- --- ------- --<br>------- ---------- ------ -- ----- -- ----- -- ---- ------<br>--- ----- --- --- ------ -------- ----- --- ------ ----- --<br>----- ----- ---------- --- --- ------ ------ ---- -- ------<br>------- --- ------ ----- --- ---- ------- -- ---- --- --<br>------- ------,111617.20000004768,111616.40000009537,111131.279,111137.5,111147.949,111631.577,,3,the
screen,html.Screen,0_2_1_1_4,2021-11-19T11:19:57.211Z,,,,,,,,,,,,,,,,54,,,,,,,,,,,,,,592.8230000953627,,response,,,100,,,,,,Space,keypress(Space),,,,,-- --- ---- --- French ----- ------- ---- -- --- ------- --<br>------- ---------- ------ -- ----- -- ----- -- ---- ------<br>--- ----- --- --- ------ -------- ----- --- ------ ----- --<br>----- ----- ---------- --- --- ------ ------ ---- -- ------<br>------- --- ------ ----- --- ---- ------- -- ---- --- --<br>------- ------,112225.20000004768,112224.40000009537,111614.905,111617.40000009537,111631.577,112231.495,,4,French
screen,html.Screen,0_2_1_1_5,2021-11-19T11:19:58.099Z,,,,,,,,,,,,,,,,54,,,,,,,,,,,,,,880.9050000953721,,response,,,100,,,,,,Space,keypress(Space),,,,,-- --- ---- --- ------ crown ------- ---- -- --- ------- --<br>------- ---------- ------ -- ----- -- ----- -- ---- ------<br>--- ----- --- --- ------ -------- ----- --- ------ ----- --<br>----- ----- ---------- --- --- ------ ------ ---- -- ------<br>------- --- ------ ----- --- ---- ------- -- ---- --- --<br>------- ------,113113.10000002384,113112.40000009537,112214.826,112225.40000009537,112231.495,113115.301,,5,crown
screen,html.Screen,0_2_1_1_6,2021-11-19T11:19:58.875Z,,,,,,,,,,,,,,,,54,,,,,,,,,,,,,,772.9990000715188,,response,,,100,,,,,,Space,keypress(Space),,,,,-- --- ---- --- ------ ----- secured ---- -- --- ------- --<br>------- ---------- ------ -- ----- -- ----- -- ---- ------<br>--- ----- --- --- ------ -------- ----- --- ------ ----- --<br>----- ----- ---------- --- --- ------ ------ ---- -- ------<br>------- --- ------ ----- --- ---- ------- -- ---- --- --<br>------- ------,113889.10000002384,113888.30000007153,113098.629,113113.40000009537,113115.301,113898.669,,6,secured
screen,html.Screen,0_2_1_1_7,2021-11-19T11:19:59.595Z,,,,,,,,,,,,,,,,54,,,,,,,,,,,,,,709.5310000476893,,response,,,100,,,,,,Space,keypress(Space),,,,,-- --- ---- --- ------ ----- ------- much -- --- ------- --<br>------- ---------- ------ -- ----- -- ----- -- ---- ------<br>--- ----- --- --- ------ -------- ----- --- ------ ----- --<br>----- ----- ---------- --- --- ------ ------ ---- -- ------<br>------- --- ------ ----- --- ---- ------- -- ---- --- --<br>------- ------,114609,114608.20000004768,113881.999,113889.30000007153,113898.669,114615.544,,7,much
screen,html.Screen,0_2_1_1_8,2021-11-19T11:20:00.083Z,,,,,,,,,,,,,,,,54,,,,,,,,,,,,,,480.6560000476893,,response,,,100,,,,,,Space,keypress(Space),,,,,-- --- ---- --- ------ ----- ------- ---- of --- ------- --<br>------- ---------- ------ -- ----- -- ----- -- ---- ------<br>--- ----- --- --- ------ -------- ----- --- ------ ----- --<br>----- ----- ---------- --- --- ------ ------ ---- -- ------<br>------- --- ------ ----- --- ---- ------- -- ---- --- --<br>------- ------,115096.90000009537,115096.20000004768,114598.874,114609.20000004768,114615.544,115098.969,,8,of
screen,html.Screen,0_2_1_1_9,2021-11-19T11:20:00.499Z,,,,,,,,,,,,,,,,54,,,,,,,,,,,,,,413.13100002384454,,response,,,100,,,,,,Space,keypress(Space),,,,,-- --- ---- --- ------ ----- ------- ---- -- its ------- --<br>------- ---------- ------ -- ----- -- ----- -- ---- ------<br>--- ----- --- --- ------ -------- ----- --- ------ ----- --<br>----- ----- ---------- --- --- ------ ------ ---- -- ------<br>------- --- ------ ----- --- ---- ------- -- ---- --- --<br>------- ------,115512.90000009537,115512.10000002384,115082.299,115097.10000002384,115098.969,115515.751,,9,its
screen,html.Screen,0_2_1_1_10,2021-11-19T11:20:01.155Z,,,,,,,,,,,,,,,,54,,,,,,,,,,,,,,652.2489999999962,,response,,,100,,,,,,Space,keypress(Space),,,,,-- --- ---- --- ------ ----- ------- ---- -- --- revenue --<br>------- ---------- ------ -- ----- -- ----- -- ---- ------<br>--- ----- --- --- ------ -------- ----- --- ------ ----- --<br>----- ----- ---------- --- --- ------ ------ ---- -- ------<br>------- --- ------ ----- --- ---- ------- -- ---- --- --<br>------- ------,116168.80000007153,116168,115499.081,115513.20000004768,115515.751,116182.557,,10,revenue
screen,html.Screen,0_2_1_1_11,2021-11-19T11:20:01.587Z,,,,,,,,,,,,,,,,54,,,,,,,,,,,,,,417.4429999999993,,response,,,100,,,,,,Space,keypress(Space),,,,,-- --- ---- --- ------ ----- ------- ---- -- --- ------- by<br>------- ---------- ------ -- ----- -- ----- -- ---- ------<br>--- ----- --- --- ------ -------- ----- --- ------ ----- --<br>----- ----- ---------- --- --- ------ ------ ---- -- ------<br>------- --- ------ ----- --- ---- ------- -- ---- --- --<br>------- ------,116600.80000007153,116600,116165.887,116169.10000002384,116182.557,116616.01,,11,by
screen,html.Screen,0_2_1_1_12,2021-11-19T11:20:02.267Z,,,,,,,,,,,,,,,,54,,,,,,,,,,,,,,664.0900000238471,,response,,,100,,,,,,Space,keypress(Space),,,,,-- --- ---- --- ------ ----- ------- ---- -- --- ------- --<br>issuing ---------- ------ -- ----- -- ----- -- ---- ------<br>--- ----- --- --- ------ -------- ----- --- ------ ----- --<br>----- ----- ---------- --- --- ------ ------ ---- -- ------<br>------- --- ------ ----- --- ---- ------- -- ---- --- --<br>------- ------,117280.80000007153,117280.10000002384,116599.34,116601,116616.01,117282.845,,12,issuing
screen,html.Screen,0_2_1_1_13,2021-11-19T11:20:02.915Z,,,,,,,,,,,,,,,,54,,,,,,,,,,,,,,645.1549999999988,,response,,,100,,,,,,Space,keypress(Space),,,,,-- --- ---- --- ------ ----- ------- ---- -- --- ------- --<br>------- government ------ -- ----- -- ----- -- ---- ------<br>--- ----- --- --- ------ -------- ----- --- ------ ----- --<br>----- ----- ---------- --- --- ------ ------ ---- -- ------<br>------- --- ------ ----- --- ---- ------- -- ---- --- --<br>------- ------,117928.80000007153,117928,117266.175,117281,117282.845,117932.961,,13,government
screen,html.Screen,0_2_1_1_14,2021-11-19T11:20:03.891Z,,,,,,,,,,,,,,,,54,,,,,,,,,,,,,,971.0390000000043,,response,,,100,,,,,,Space,keypress(Space),,,,,-- --- ---- --- ------ ----- ------- ---- -- --- ------- --<br>------- ---------- bonds. -- ----- -- ----- -- ---- ------<br>--- ----- --- --- ------ -------- ----- --- ------ ----- --<br>----- ----- ---------- --- --- ------ ------ ---- -- ------<br>------- --- ------ ----- --- ---- ------- -- ---- --- --<br>------- ------,118904.70000004768,118904,117916.291,117929,117932.961,118916.567,,14,bonds.
screen,html.Screen,0_2_1_1_15,2021-11-19T11:20:04.339Z,,,,,,,,,,,,,,,,54,,,,,,,,,,,,,,435.43300000000454,,response,,,100,,,,,,Space,keypress(Space),,,,,-- --- ---- --- ------ ----- ------- ---- -- --- ------- --<br>------- ---------- ------ In ----- -- ----- -- ---- ------<br>--- ----- --- --- ------ -------- ----- --- ------ ----- --<br>----- ----- ---------- --- --- ------ ------ ---- -- ------<br>------- --- ------ ----- --- ---- ------- -- ---- --- --<br>------- ------,119352.70000004768,119352,118899.897,118905,118916.567,119366.664,,15,In
screen,html.Screen,0_2_1_1_16,2021-11-19T11:20:05.984Z,,,,,,,,,,,,,,,,54,,,,,,,,,,,,,,1625.5360000476794,,response,,,100,,,,,,Space,keypress(Space),,,,,"-- --- ---- --- ------ ----- ------- ---- -- --- ------- --<br>------- ---------- ------ -- 1727, -- ----- -- ---- ------<br>--- ----- --- --- ------ -------- ----- --- ------ ----- --<br>----- ----- ---------- --- --- ------ ------ ---- -- ------<br>------- --- ------ ----- --- ---- ------- -- ---- --- --<br>------- ------",120992.90000009537,120992.20000004768,119349.994,119352.90000009537,119366.664,121000.367,,16,"1727,"
screen,html.Screen,0_2_1_1_17,2021-11-19T11:20:06.575Z,,,,,,,,,,,,,,,,54,,,,,,,,,,,,,,583.4330000715272,,response,,,100,,,,,,Space,keypress(Space),,,,,-- --- ---- --- ------ ----- ------- ---- -- --- ------- --<br>------- ---------- ------ -- ----- in ----- -- ---- ------<br>--- ----- --- --- ------ -------- ----- --- ------ ----- --<br>----- ----- ---------- --- --- ------ ------ ---- -- ------<br>------- --- ------ ----- --- ---- ------- -- ---- --- --<br>------- ------,121584.5,121583.80000007153,120983.697,120993.20000004768,121000.367,121600.516,,17,in
screen,html.Screen,0_2_1_1_18,2021-11-19T11:20:07.047Z,,,,,,,,,,,,,,,,54,,,,,,,,,,,,,,455.18400004768046,,response,,,100,,,,,,Space,keypress(Space),,,,,-- --- ---- --- ------ ----- ------- ---- -- --- ------- --<br>------- ---------- ------ -- ----- -- order -- ---- ------<br>--- ----- --- --- ------ -------- ----- --- ------ ----- --<br>----- ----- ---------- --- --- ------ ------ ---- -- ------<br>------- --- ------ ----- --- ---- ------- -- ---- --- --<br>------- ------,122056.5,122055.70000004768,121583.846,121584.80000007153,121600.516,122067.332,,18,order
screen,html.Screen,0_2_1_1_19,2021-11-19T11:20:07.447Z,,,,,,,,,,,,,,,,54,,,,,,,,,,,,,,388.36800004768884,,response,,,100,,,,,,Space,keypress(Space),,,,,-- --- ---- --- ------ ----- ------- ---- -- --- ------- --<br>------- ---------- ------ -- ----- -- ----- to ---- ------<br>--- ----- --- --- ------ -------- ----- --- ------ ----- --<br>----- ----- ---------- --- --- ------ ------ ---- -- ------<br>------- --- ------ ----- --- ---- ------- -- ---- --- --<br>------- ------,122456.40000009537,122455.70000004768,122050.662,122056.70000004768,122067.332,122467.45,,19,to
screen,html.Screen,0_2_1_1_20,2021-11-19T11:20:07.831Z,,,,,,,,,,,,,,,,54,,,,,,,,,,,,,,372.2500000476866,,response,,,100,,,,,,Space,keypress(Space),,,,,-- --- ---- --- ------ ----- ------- ---- -- --- ------- --<br>------- ---------- ------ -- ----- -- ----- -- save ------<br>--- ----- --- --- ------ -------- ----- --- ------ ----- --<br>----- ----- ---------- --- --- ------ ------ ---- -- ------<br>------- --- ------ ----- --- ---- ------- -- ---- --- --<br>------- ------,122840.5,122839.70000004768,122450.78,122456.70000004768,122467.45,122850.853,,20,save
screen,html.Screen,0_2_1_1_21,2021-11-19T11:20:08.455Z,,,,,,,,,,,,,,,,54,,,,,,,,,,,,,,612.7470000238391,,response,,,100,,,,,,Space,keypress(Space),,,,,"-- --- ---- --- ------ ----- ------- ---- -- --- ------- --<br>------- ---------- ------ -- ----- -- ----- -- ---- money,<br>--- ----- --- --- ------ -------- ----- --- ------ ----- --<br>----- ----- ---------- --- --- ------ ------ ---- -- ------<br>------- --- ------ ----- --- ---- ------- -- ---- --- --<br>------- ------",123464.40000009537,123463.60000002384,122834.183,122840.60000002384,122850.853,123467.667,,21,"money,"
screen,html.Screen,0_2_1_1_22,2021-11-19T11:20:08.983Z,,,,,,,,,,,,,,,,54,,,,,,,,,,,,,,523.9330000238406,,response,,,100,,,,,,Space,keypress(Space),,,,,-- --- ---- --- ------ ----- ------- ---- -- --- ------- --<br>------- ---------- ------ -- ----- -- ----- -- ---- ------<br>the ----- --- --- ------ -------- ----- --- ------ ----- --<br>----- ----- ---------- --- --- ------ ------ ---- -- ------<br>------- --- ------ ----- --- ---- ------- -- ---- --- --<br>------- ------,123992.40000009537,123991.60000002384,123450.997,123464.60000002384,123467.667,124001.013,,22,the
screen,html.Screen,0_2_1_1_23,2021-11-19T11:20:09.791Z,,,,,,,,,,,,,,,,54,,,,,,,,,,,,,,798.4869999999937,,response,,,100,,,,,,Space,keypress(Space),,,,,-- --- ---- --- ------ ----- ------- ---- -- --- ------- --<br>------- ---------- ------ -- ----- -- ----- -- ---- ------<br>--- state --- --- ------ -------- ----- --- ------ ----- --<br>----- ----- ---------- --- --- ------ ------ ---- -- ------<br>------- --- ------ ----- --- ---- ------- -- ---- --- --<br>------- ------,124800.30000007153,124799.5,123984.344,123992.60000002384,124001.013,124801.393,,23,state
screen,html.Screen,0_2_1_1_24,2021-11-19T11:20:10.431Z,,,,,,,,,,,,,,,,54,,,,,,,,,,,,,,638.1070000000036,,response,,,100,,,,,,Space,keypress(Space),,,,,-- --- ---- --- ------ ----- ------- ---- -- --- ------- --<br>------- ---------- ------ -- ----- -- ----- -- ---- ------<br>--- ----- cut --- ------ -------- ----- --- ------ ----- --<br>----- ----- ---------- --- --- ------ ------ ---- -- ------<br>------- --- ------ ----- --- ---- ------- -- ---- --- --<br>------- ------,125440.20000004768,125439.5,124784.722,124800.60000002384,124801.393,125451.503,,24,cut
screen,html.Screen,0_2_1_1_25,2021-11-19T11:20:11.127Z,,,,,,,,,,,,,,,,54,,,,,,,,,,,,,,683.997000000003,,response,,,100,,,,,,Space,keypress(Space),,,,,-- --- ---- --- ------ ----- ------- ---- -- --- ------- --<br>------- ---------- ------ -- ----- -- ----- -- ---- ------<br>--- ----- --- the ------ -------- ----- --- ------ ----- --<br>----- ----- ---------- --- --- ------ ------ ---- -- ------<br>------- --- ------ ----- --- ---- ------- -- ---- --- --<br>------- ------,126136.30000007153,126135.5,125434.833,125440.5,125451.503,126151.652,,25,the
screen,html.Screen,0_2_1_1_26,2021-11-19T11:20:11.831Z,,,,,,,,,,,,,,,,54,,,,,,,,,,,,,,687.7480000953656,,response,,,100,,,,,,Space,keypress(Space),,,,,-- --- ---- --- ------ ----- ------- ---- -- --- ------- --<br>------- ---------- ------ -- ----- -- ----- -- ---- ------<br>--- ----- --- --- bonds' -------- ----- --- ------ ----- --<br>----- ----- ---------- --- --- ------ ------ ---- -- ------<br>------- --- ------ ----- --- ---- ------- -- ---- --- --<br>------- ------,126840.20000004768,126839.40000009537,126134.982,126136.5,126151.652,126851.819,,26,bonds'
screen,html.Screen,0_2_1_1_27,2021-11-19T11:20:12.815Z,,,,,,,,,,,,,,,,54,,,,,,,,,,,,,,971.4810000715224,,response,,,100,,,,,,Space,keypress(Space),,,,,-- --- ---- --- ------ ----- ------- ---- -- --- ------- --<br>------- ---------- ------ -- ----- -- ----- -- ---- ------<br>--- ----- --- --- ------ interest ----- --- ------ ----- --<br>----- ----- ---------- --- --- ------ ------ ---- -- ------<br>------- --- ------ ----- --- ---- ------- -- ---- --- --<br>------- ------,127824.10000002384,127823.30000007153,126835.149,126840.40000009537,126851.819,127835.385,,27,interest
screen,html.Screen,0_2_1_1_28,2021-11-19T11:20:13.303Z,,,,,,,,,,,,,,,,54,,,,,,,,,,,,,,475.9150000715308,,response,,,100,,,,,,Space,keypress(Space),,,,,-- --- ---- --- ------ ----- ------- ---- -- --- ------- --<br>------- ---------- ------ -- ----- -- ----- -- ---- ------<br>--- ----- --- --- ------ -------- rate. --- ------ ----- --<br>----- ----- ---------- --- --- ------ ------ ---- -- ------<br>------- --- ------ ----- --- ---- ------- -- ---- --- --<br>------- ------,128312.10000002384,128311.30000007153,127818.715,127824.30000007153,127835.385,128318.828,,28,rate.
screen,html.Screen,0_2_1_1_29,2021-11-19T11:20:14.183Z,,,,,,,,,,,,,,,,54,,,,,,,,,,,,,,872.4720000715315,,response,,,100,,,,,,Space,keypress(Space),,,,,-- --- ---- --- ------ ----- ------- ---- -- --- ------- --<br>------- ---------- ------ -- ----- -- ----- -- ---- ------<br>--- ----- --- --- ------ -------- ----- The ------ ----- --<br>----- ----- ---------- --- --- ------ ------ ---- -- ------<br>------- --- ------ ----- --- ---- ------- -- ---- --- --<br>------- ------,129192,129191.30000007153,128302.158,128312.30000007153,128318.828,129202.389,,29,The
screen,html.Screen,0_2_1_1_30,2021-11-19T11:20:14.791Z,,,,,,,,,,,,,,,,54,,,,,,,,,,,,,,596.8110000476881,,response,,,100,,,,,,Space,keypress(Space),,,,,-- --- ---- --- ------ ----- ------- ---- -- --- ------- --<br>------- ---------- ------ -- ----- -- ----- -- ---- ------<br>--- ----- --- --- ------ -------- ----- --- market ----- --<br>----- ----- ---------- --- --- ------ ------ ---- -- ------<br>------- --- ------ ----- --- ---- ------- -- ---- --- --<br>------- ------,129800,129799.20000004768,129185.719,129192.30000007153,129202.389,129802.523,,30,market
screen,html.Screen,0_2_1_1_31,2021-11-19T11:20:15.263Z,,,,,,,,,,,,,,,,54,,,,,,,,,,,,,,468.67700004768267,,response,,,100,,,,,,Space,keypress(Space),,,,,-- --- ---- --- ------ ----- ------- ---- -- --- ------- --<br>------- ---------- ------ -- ----- -- ----- -- ---- ------<br>--- ----- --- --- ------ -------- ----- --- ------ value --<br>----- ----- ---------- --- --- ------ ------ ---- -- ------<br>------- --- ------ ----- --- ---- ------- -- ---- --- --<br>------- ------,130271.90000009537,130271.20000004768,129785.853,129800.20000004768,129802.523,130285.998,,31,value
screen,html.Screen,0_2_1_1_32,2021-11-19T11:20:15.794Z,,,,,,,,,,,,,,,,54,,,,,,,,,,,,,,513.102000023835,,response,,,100,,,,,,Space,keypress(Space),,,,,-- --- ---- --- ------ ----- ------- ---- -- --- ------- --<br>------- ---------- ------ -- ----- -- ----- -- ---- ------<br>--- ----- --- --- ------ -------- ----- --- ------ ----- of<br>----- ----- ---------- --- --- ------ ------ ---- -- ------<br>------- --- ------ ----- --- ---- ------- -- ---- --- --<br>------- ------,130802.80000007153,130799.10000002384,130269.328,130272.20000004768,130285.998,130819.456,,32,of
screen,html.Screen,0_2_1_1_33,2021-11-19T11:20:16.287Z,,,,,,,,,,,,,,,,54,,,,,,,,,,,,,,475.94400009536184,,response,,,100,,,,,,Space,keypress(Space),,,,,-- --- ---- --- ------ ----- ------- ---- -- --- ------- --<br>------- ---------- ------ -- ----- -- ----- -- ---- ------<br>--- ----- --- --- ------ -------- ----- --- ------ ----- --<br>these ----- ---------- --- --- ------ ------ ---- -- ------<br>------- --- ------ ----- --- ---- ------- -- ---- --- --<br>------- ------,131296.20000004768,131295.40000009537,130802.786,130803,130819.456,131302.908,,33,these
screen,html.Screen,0_2_1_1_34,2021-11-19T11:20:16.823Z,,,,,,,,,,,,,,,,54,,,,,,,,,,,,,,528.0920000000042,,response,,,100,,,,,,Space,keypress(Space),,,,,-- --- ---- --- ------ ----- ------- ---- -- --- ------- --<br>------- ---------- ------ -- ----- -- ----- -- ---- ------<br>--- ----- --- --- ------ -------- ----- --- ------ ----- --<br>----- bonds ---------- --- --- ------ ------ ---- -- ------<br>------- --- ------ ----- --- ---- ------- -- ---- --- --<br>------- ------,131831.80000007153,131831,131286.238,131296.40000009537,131302.908,131836.371,,34,bonds
screen,html.Screen,0_2_1_1_35,2021-11-19T11:20:17.543Z,,,,,,,,,,,,,,,,54,,,,,,,,,,,,,,714.5290000953537,,response,,,100,,,,,,Space,keypress(Space),,,,,"-- --- ---- --- ------ ----- ------- ---- -- --- ------- --<br>------- ---------- ------ -- ----- -- ----- -- ---- ------<br>--- ----- --- --- ------ -------- ----- --- ------ ----- --<br>----- ----- plummeted, --- --- ------ ------ ---- -- ------<br>------- --- ------ ----- --- ---- ------- -- ---- --- --<br>------- ------",132551.80000007153,132550.90000009537,131819.701,131832.10000002384,131836.371,132553.223,,35,"plummeted,"
screen,html.Screen,0_2_1_1_36,2021-11-19T11:20:17.991Z,,,,,,,,,,,,,,,,54,,,,,,,,,,,,,,445.6770000953693,,response,,,100,,,,,,Space,keypress(Space),,,,,-- --- ---- --- ------ ----- ------- ---- -- --- ------- --<br>------- ---------- ------ -- ----- -- ----- -- ---- ------<br>--- ----- --- --- ------ -------- ----- --- ------ ----- --<br>----- ----- ---------- and --- ------ ------ ---- -- ------<br>------- --- ------ ----- --- ---- ------- -- ---- --- --<br>------- ------,132999.70000004768,132998.90000009537,132536.553,132552,132553.223,133003.313,,36,and
screen,html.Screen,0_2_1_1_37,2021-11-19T11:20:18.438Z,,,,,,,,,,,,,,,,54,,,,,,,,,,,,,,443.5870000953728,,response,,,100,,,,,,Space,keypress(Space),,,,,-- --- ---- --- ------ ----- ------- ---- -- --- ------- --<br>------- ---------- ------ -- ----- -- ----- -- ---- ------<br>--- ----- --- --- ------ -------- ----- --- ------ ----- --<br>----- ----- ---------- --- the ------ ------ ---- -- ------<br>------- --- ------ ----- --- ---- ------- -- ---- --- --<br>------- ------,133447.70000004768,133446.90000009537,132986.643,132999.90000009537,133003.313,133453.443,,37,the
screen,html.Screen,0_2_1_1_38,2021-11-19T11:20:18.975Z,,,,,,,,,,,,,,,,54,,,,,,,,,,,,,,529.3570000715263,,response,,,100,,,,,,Space,keypress(Space),,,,,-- --- ---- --- ------ ----- ------- ---- -- --- ------- --<br>------- ---------- ------ -- ----- -- ----- -- ---- ------<br>--- ----- --- --- ------ -------- ----- --- ------ ----- --<br>----- ----- ---------- --- --- market ------ ---- -- ------<br>------- --- ------ ----- --- ---- ------- -- ---- --- --<br>------- ------,133983.80000007153,133982.80000007153,133436.773,133447.90000009537,133453.443,133986.829,,38,market
screen,html.Screen,0_2_1_1_39,2021-11-19T11:20:19.462Z,,,,,,,,,,,,,,,,54,,,,,,,,,,,,,,483.97100007152767,,response,,,100,,,,,,Space,keypress(Space),,,,,-- --- ---- --- ------ ----- ------- ---- -- --- ------- --<br>------- ---------- ------ -- ----- -- ----- -- ---- ------<br>--- ----- --- --- ------ -------- ----- --- ------ ----- --<br>----- ----- ---------- --- --- ------ became ---- -- ------<br>------- --- ------ ----- --- ---- ------- -- ---- --- --<br>------- ------,134471.60000002384,134470.80000007153,133970.16,133984.10000002384,133986.829,134487.022,,39,became
screen,html.Screen,0_2_1_1_40,2021-11-19T11:20:19.974Z,,,,,,,,,,,,,,,,54,,,,,,,,,,,,,,495.6780000476865,,response,,,100,,,,,,Space,keypress(Space),,,,,-- --- ---- --- ------ ----- ------- ---- -- --- ------- --<br>------- ---------- ------ -- ----- -- ----- -- ---- ------<br>--- ----- --- --- ------ -------- ----- --- ------ ----- --<br>----- ----- ---------- --- --- ------ ------ wary -- ------<br>------- --- ------ ----- --- ---- ------- -- ---- --- --<br>------- ------,134983.5,134982.70000004768,134470.352,134471.80000007153,134487.022,134987.154,,40,wary
screen,html.Screen,0_2_1_1_41,2021-11-19T11:20:20.438Z,,,,,,,,,,,,,,,,54,,,,,,,,,,,,,,459.646000071516,,response,,,100,,,,,,Space,keypress(Space),,,,,-- --- ---- --- ------ ----- ------- ---- -- --- ------- --<br>------- ---------- ------ -- ----- -- ----- -- ---- ------<br>--- ----- --- --- ------ -------- ----- --- ------ ----- --<br>----- ----- ---------- --- --- ------ ------ ---- of ------<br>------- --- ------ ----- --- ---- ------- -- ---- --- --<br>------- ------,135447.5,135446.80000007153,134970.484,134983.80000007153,134987.154,135453.91,,41,of
screen,html.Screen,0_2_1_1_42,2021-11-19T11:20:20.982Z,,,,,,,,,,,,,,,,54,,,,,,,,,,,,,,536.8900000715221,,response,,,100,,,,,,Space,keypress(Space),,,,,-- --- ---- --- ------ ----- ------- ---- -- --- ------- --<br>------- ---------- ------ -- ----- -- ----- -- ---- ------<br>--- ----- --- --- ------ -------- ----- --- ------ ----- --<br>----- ----- ---------- --- --- ------ ------ ---- -- French<br>------- --- ------ ----- --- ---- ------- -- ---- --- --<br>------- ------,135991.60000002384,135990.80000007153,135437.24,135447.70000004768,135453.91,136004.049,,42,French
screen,html.Screen,0_2_1_1_43,2021-11-19T11:20:21.758Z,,,,,,,,,,,,,,,,54,,,,,,,,,,,,,,762.6510000476846,,response,,,100,,,,,,Space,keypress(Space),,,,,-- --- ---- --- ------ ----- ------- ---- -- --- ------- --<br>------- ---------- ------ -- ----- -- ----- -- ---- ------<br>--- ----- --- --- ------ -------- ----- --- ------ ----- --<br>----- ----- ---------- --- --- ------ ------ ---- -- ------<br>credit. --- ------ ----- --- ---- ------- -- ---- --- --<br>------- ------,136767.60000002384,136766.70000004768,135987.379,135991.80000007153,136004.049,136770.796,,43,credit.
screen,html.Screen,0_2_1_1_44,2021-11-19T11:20:22.301Z,,,,,,,,,,,,,,,,54,,,,,,,,,,,,,,539.5040000715235,,response,,,100,,,,,,Space,keypress(Space),,,,,-- --- ---- --- ------ ----- ------- ---- -- --- ------- --<br>------- ---------- ------ -- ----- -- ----- -- ---- ------<br>--- ----- --- --- ------ -------- ----- --- ------ ----- --<br>----- ----- ---------- --- --- ------ ------ ---- -- ------<br>------- The ------ ----- --- ---- ------- -- ---- --- --<br>------- ------,137310.70000004768,137310.30000007153,136754.127,136767.90000009537,136770.796,137321.117,,44,The
screen,html.Screen,0_2_1_1_45,2021-11-19T11:20:22.853Z,,,,,,,,,,,,,,,,54,,,,,,,,,,,,,,541.1830000715272,,response,,,100,,,,,,Space,keypress(Space),,,,,-- --- ---- --- ------ ----- ------- ---- -- --- ------- --<br>------- ---------- ------ -- ----- -- ----- -- ---- ------<br>--- ----- --- --- ------ -------- ----- --- ------ ----- --<br>----- ----- ---------- --- --- ------ ------ ---- -- ------<br>------- --- French ----- --- ---- ------- -- ---- --- --<br>------- ------,137862.5,137862.30000007153,137304.446,137310.70000004768,137321.117,137871.134,,45,French
screen,html.Screen,0_2_1_1_46,2021-11-19T11:20:23.350Z,,,,,,,,,,,,,,,,54,,,,,,,,,,,,,,487.46600002385094,,response,,,100,,,,,,Space,keypress(Space),,,,,-- --- ---- --- ------ ----- ------- ---- -- --- ------- --<br>------- ---------- ------ -- ----- -- ----- -- ---- ------<br>--- ----- --- --- ------ -------- ----- --- ------ ----- --<br>----- ----- ---------- --- --- ------ ------ ---- -- ------<br>------- --- ------ state --- ---- ------- -- ---- --- --<br>------- ------,138359.30000007153,138358.60000002384,137854.464,137862.60000002384,137871.134,138371.109,,46,state
screen,html.Screen,0_2_1_1_47,2021-11-19T11:20:23.926Z,,,,,,,,,,,,,,,,54,,,,,,,,,,,,,,563.4910000238451,,response,,,100,,,,,,Space,keypress(Space),,,,,-- --- ---- --- ------ ----- ------- ---- -- --- ------- --<br>------- ---------- ------ -- ----- -- ----- -- ---- ------<br>--- ----- --- --- ------ -------- ----- --- ------ ----- --<br>----- ----- ---------- --- --- ------ ------ ---- -- ------<br>------- --- ------ ----- was ---- ------- -- ---- --- --<br>------- ------,138935.40000009537,138934.60000002384,138354.441,138359.60000002384,138371.109,138938.027,,47,was
screen,html.Screen,0_2_1_1_48,2021-11-19T11:20:24.582Z,,,,,,,,,,,,,,,,54,,,,,,,,,,,,,,652.4729999999981,,response,,,100,,,,,,Space,keypress(Space),,,,,-- --- ---- --- ------ ----- ------- ---- -- --- ------- --<br>------- ---------- ------ -- ----- -- ----- -- ---- ------<br>--- ----- --- --- ------ -------- ----- --- ------ ----- --<br>----- ----- ---------- --- --- ------ ------ ---- -- ------<br>------- --- ------ ----- --- left ------- -- ---- --- --<br>------- ------,139591.30000007153,139590.5,138921.357,138935.60000002384,138938.027,139605.057,,48,left
screen,html.Screen,0_2_1_1_49,2021-11-19T11:20:25.142Z,,,,,,,,,,,,,,,,54,,,,,,,,,,,,,,545.4429999999993,,response,,,100,,,,,,Space,keypress(Space),,,,,-- --- ---- --- ------ ----- ------- ---- -- --- ------- --<br>------- ---------- ------ -- ----- -- ----- -- ---- ------<br>--- ----- --- --- ------ -------- ----- --- ------ ----- --<br>----- ----- ---------- --- --- ------ ------ ---- -- ------<br>------- --- ------ ----- --- ---- without -- ---- --- --<br>------- ------,140151.20000004768,140150.5,139588.385,139591.70000004768,139605.057,140155.062,,49,without
screen,html.Screen,0_2_1_1_50,2021-11-19T11:20:25.686Z,,,,,,,,,,,,,,,,54,,,,,,,,,,,,,,539.3380000953621,,response,,,100,,,,,,Space,keypress(Space),,,,,-- --- ---- --- ------ ----- ------- ---- -- --- ------- --<br>------- ---------- ------ -- ----- -- ----- -- ---- ------<br>--- ----- --- --- ------ -------- ----- --- ------ ----- --<br>----- ----- ---------- --- --- ------ ------ ---- -- ------<br>------- --- ------ ----- --- ---- ------- an ---- --- --<br>------- ------,140695.20000004768,140694.40000009537,140138.392,140151.5,140155.062,140705.18,,50,an
screen,html.Screen,0_2_1_1_51,2021-11-19T11:20:26.254Z,,,,,,,,,,,,,,,,54,,,,,,,,,,,,,,557.1200000715326,,response,,,100,,,,,,Space,keypress(Space),,,,,-- --- ---- --- ------ ----- ------- ---- -- --- ------- --<br>------- ---------- ------ -- ----- -- ----- -- ---- ------<br>--- ----- --- --- ------ -------- ----- --- ------ ----- --<br>----- ----- ---------- --- --- ------ ------ ---- -- ------<br>------- --- ------ ----- --- ---- ------- -- easy --- --<br>------- ------,141263.10000002384,141262.30000007153,140688.51,140695.40000009537,140705.18,141272.013,,51,easy
screen,html.Screen,0_2_1_1_52,2021-11-19T11:20:26.878Z,,,,,,,,,,,,,,,,54,,,,,,,,,,,,,,614.5870000238356,,response,,,100,,,,,,Space,keypress(Space),,,,,-- --- ---- --- ------ ----- ------- ---- -- --- ------- --<br>------- ---------- ------ -- ----- -- ----- -- ---- ------<br>--- ----- --- --- ------ -------- ----- --- ------ ----- --<br>----- ----- ---------- --- --- ------ ------ ---- -- ------<br>------- --- ------ ----- --- ---- ------- -- ---- way --<br>------- ------,141887.5,141886.60000002384,141255.343,141263.40000009537,141272.013,141888.8,,52,way
screen,html.Screen,0_2_1_1_53,2021-11-19T11:20:27.542Z,,,,,,,,,,,,,,,,54,,,,,,,,,,,,,,661.4000000476954,,response,,,100,,,,,,Space,keypress(Space),,,,,-- --- ---- --- ------ ----- ------- ---- -- --- ------- --<br>------- ---------- ------ -- ----- -- ----- -- ---- ------<br>--- ----- --- --- ------ -------- ----- --- ------ ----- --<br>----- ----- ---------- --- --- ------ ------ ---- -- ------<br>------- --- ------ ----- --- ---- ------- -- ---- --- of<br>------- ------,142551,142550.20000004768,141872.13,141887.70000004768,141888.8,142555.657,,53,of
screen,html.Screen,0_2_1_1_54,2021-11-19T11:20:28.126Z,,,,,,,,,,,,,,,,54,,,,,,,,,,,,,,578.643000071519,,response,,,100,,,,,,Space,keypress(Space),,,,,-- --- ---- --- ------ ----- ------- ---- -- --- ------- --<br>------- ---------- ------ -- ----- -- ----- -- ---- ------<br>--- ----- --- --- ------ -------- ----- --- ------ ----- --<br>----- ----- ---------- --- --- ------ ------ ---- -- ------<br>------- --- ------ ----- --- ---- ------- -- ---- --- --<br>raising ------,143135,143134.30000007153,142538.987,142551.30000007153,142555.657,143139.107,,54,raising
screen,html.Screen,0_2_1_1_55,2021-11-19T11:20:29.006Z,,,,,,,,,,,,,,,,54,,,,,,,,,,,,,,875.0930000476947,,response,,,100,,,,,,Space,keypress(Space),,,,,-- --- ---- --- ------ ----- ------- ---- -- --- ------- --<br>------- ---------- ------ -- ----- -- ----- -- ---- ------<br>--- ----- --- --- ------ -------- ----- --- ------ ----- --<br>----- ----- ---------- --- --- ------ ------ ---- -- ------<br>------- --- ------ ----- --- ---- ------- -- ---- --- --<br>------- money.,144015,144014.20000004768,143122.437,143135.20000004768,143139.107,144022.64,,55,money.
Item 100,flow.Loop,0_2_1_1,2021-11-19T11:20:29.006Z,,,,,,,,,,,,,,,,,,,,,,,,,,,,,,35416.886000047685,,completion,,,,E,,,,,,,,,,silence,,144015.5,144014.20000004768,108580.644,108582.80000007153,108597.314,144022.64,,,
Question 1,html.Screen,0_2_1_2,2021-11-19T11:20:31.398Z,,,,,,,,,,,,,,,,,,,,,,,,,,,true,TRUE,,2383.1600000715116,,response,,,100,E,,,,,TRUE,click #choice-1,,,,silence,,146406.90000009537,146405.80000007153,144005.97,144015.70000004768,144022.64,146423.221,,,
Question 2,html.Screen,0_2_1_3,2021-11-19T11:20:33.814Z,,,,,,,,,,,,,,,,,,,,,,,,,,,true,FALSE,,2398.679000095377,,response,,,100,E,,,,,FALSE,click #choice-2,,,,silence,,148823,148821.90000009537,146406.551,146407.30000007153,146423.221,148823.843,,,
Item 100,flow.Sequence,0_2_1,2021-11-19T11:20:33.814Z,,,,,,,,,,,,,,,,,,,,,,,,,,,,,,50226.94800009536,,completion,,,,,,,,,,,,,,,,148823.40000009537,148821.90000009537,98578.282,98595,98594.952,148823.843,,,
End of Practice,html.Page,0_2_2,2021-11-19T11:20:38.014Z,,,,,,,,,,,,,,,,,,,,,,,,,,,,,,4198.957000071532,,form submission,,,,,,,,,,,,,,,,153023.40000009537,153022.80000007153,148807.173,148823.5,148823.843,153040.891,,,
Practice,flow.Sequence,0_2,2021-11-19T11:20:38.015Z,,,,,,,,,,,,,,,,,,,,,,,,,,,,,,107707.52800007153,,completion,,,,,,,,,,,,,,,,153024,153022.80000007153,45298.602,45310.800000071526,45315.272,153040.891,,,
Trap_instruction,html.Page,0_3_0,2021-11-19T11:20:42.510Z,,,,,,,,,,,,,,,,,,,,,,,,,,,,,,4477.608999999997,,form submission,,,,,,,,,,,,,,,,157519,157518.5,153024.223,153024.30000007153,153040.891,157542.396,,,
trap_trial,html.Screen,0_3_1,2021-11-19T11:20:45.293Z,,,,,,,,,,,,,,,,,,,,,,,,,,,true,1,,2758.5040000953595,,response,,,,,,,,,1,click #choice-1,,,,,,160302.10000002384,160300.90000009537,157509.056,157519.20000004768,157542.396,160309.807,,,
end of trap trial,html.Page,0_3_2,2021-11-19T11:20:47.030Z,,,,,,,,,,,,,,,,,,,,,,,,,,,,,,1728.5930000953667,,form submission,,,,,,,,,,,,,,,,162038.90000009537,162038.40000009537,160293.137,160302.40000009537,160309.807,162043.679,,,
Trap 1,flow.Sequence,0_3,2021-11-19T11:20:47.030Z,,,,,,,,,,,,,,,,,,,,,,,,,,,,,,8997.509000095364,,completion,,,,,,,,,,,,,,,,162039.30000007153,162038.40000009537,153024.223,153024.20000004768,153040.891,162043.679,,,
Standby,html.Page,0_4_0,2021-11-19T11:20:55.021Z,,,,,,,,,,,,,,,,,,,,,,,,,,,,,,8001.6509999999835,,timeout,,,,,,,,,,,,,,,,170030.40000009537,170028.66,162027.009,162039.70000004768,162043.679,170045.33,,,
Holding screen,html.Screen,0_4_1_0_0,2021-11-19T11:21:02.023Z,,,,,,,,,,,,,,,,,,,,,,,,,,,,,,7001.982000000018,,timeout,,,,,,,,,,,,,,,,177031.90000009537,177030.642,170028.66,170030.80000007153,170045.33,177047.312,,,
screen,html.Screen,0_4_1_0_1_0,2021-11-19T11:21:04.492Z,,,,,,,,,,,,,,,,48,,,,,,,,,,,,,,2452.7880000238365,,response,,,10,E,,,,,Space,keypress(Space),,,,lyrical,As -- --- ------ ------- --------- ----------- --------<br>--------- -------- --- ------- -- ------- ---- -- ------<br>-- --- -------- -------- ---------- ---- ---- ---- ------<br>-- --------- -- ---- -- --- -- --- ------- -- - -----<br>---------- -- -- -- ---- ----- -- ------ -- --- ------<br>-------,179501.20000004768,179500.10000002384,177030.642,177032.40000009537,177047.312,179514.501,,0,As
screen,html.Screen,0_4_1_0_1_1,2021-11-19T11:21:05.019Z,,,,,,,,,,,,,,,,48,,,,,,,,,,,,,,513.0990000238526,,response,,,10,E,,,,,Space,keypress(Space),,,,lyrical,-- in --- ------ ------- --------- ----------- --------<br>--------- -------- --- ------- -- ------- ---- -- ------<br>-- --- -------- -------- ---------- ---- ---- ---- ------<br>-- --------- -- ---- -- --- -- --- ------- -- - -----<br>---------- -- -- -- ---- ----- -- ------ -- --- ------<br>-------,180028.40000009537,180027.60000002384,179497.831,179501.5,179514.501,180031.376,,1,in
screen,html.Screen,0_4_1_0_1_2,2021-11-19T11:21:05.475Z,,,,,,,,,,,,,,,,48,,,,,,,,,,,,,,452.3240000476944,,response,,,10,E,,,,,Space,keypress(Space),,,,lyrical,-- -- the ------ ------- --------- ----------- --------<br>--------- -------- --- ------- -- ------- ---- -- ------<br>-- --- -------- -------- ---------- ---- ---- ---- ------<br>-- --------- -- ---- -- --- -- --- ------- -- - -----<br>---------- -- -- -- ---- ----- -- ------ -- --- ------<br>-------,180484.5,180483.70000004768,180014.706,180028.60000002384,180031.376,180498.137,,2,the
screen,html.Screen,0_4_1_0_1_3,2021-11-19T11:21:06.166Z,,,,,,,,,,,,,,,,48,,,,,,,,,,,,,,681.463000023854,,response,,,10,E,,,,,Space,keypress(Space),,,,lyrical,-- -- --- United ------- --------- ----------- --------<br>--------- -------- --- ------- -- ------- ---- -- ------<br>-- --- -------- -------- ---------- ---- ---- ---- ------<br>-- --------- -- ---- -- --- -- --- ------- -- - -----<br>---------- -- -- -- ---- ----- -- ------ -- --- ------<br>-------,181180.5,181179.60000002384,180481.467,180484.90000009537,180498.137,181181.796,,3,United
screen,html.Screen,0_4_1_0_1_4,2021-11-19T11:21:06.710Z,,,,,,,,,,,,,,,,48,,,,,,,,,,,,,,541.7039999999979,,response,,,10,E,,,,,Space,keypress(Space),,,,lyrical,"-- -- --- ------ States, --------- ----------- --------<br>--------- -------- --- ------- -- ------- ---- -- ------<br>-- --- -------- -------- ---------- ---- ---- ---- ------<br>-- --------- -- ---- -- --- -- --- ------- -- - -----<br>---------- -- -- -- ---- ----- -- ------ -- --- ------<br>-------",181724.40000009537,181723.5,181165.124,181180.70000004768,181181.796,181731.775,,4,"States,"
screen,html.Screen,0_4_1_0_1_5,2021-11-19T11:21:07.462Z,,,,,,,,,,,,,,,,48,,,,,,,,,,,,,,743.7250000000058,,response,,,10,E,,,,,Space,keypress(Space),,,,lyrical,-- -- --- ------ ------- Colombian ----------- --------<br>--------- -------- --- ------- -- ------- ---- -- ------<br>-- --- -------- -------- ---------- ---- ---- ---- ------<br>-- --------- -- ---- -- --- -- --- ------- -- - -----<br>---------- -- -- -- ---- ----- -- ------ -- --- ------<br>-------,182476.30000007153,182475.5,181715.105,181724.70000004768,181731.775,182482.066,,5,Colombian
screen,html.Screen,0_4_1_0_1_6,2021-11-19T11:21:08.142Z,,,,,,,,,,,,,,,,48,,,,,,,,,,,,,,673.4340000000084,,response,,,10,E,,,,,Space,keypress(Space),,,,lyrical,-- -- --- ------ ------- --------- legislation --------<br>--------- -------- --- ------- -- ------- ---- -- ------<br>-- --- -------- -------- ---------- ---- ---- ---- ------<br>-- --------- -- ---- -- --- -- --- ------- -- - -----<br>---------- -- -- -- ---- ----- -- ------ -- --- ------<br>-------,183156.20000004768,183155.5,182465.395,182476.5,182482.066,183165.504,,6,legislation
screen,html.Screen,0_4_1_0_1_7,2021-11-19T11:21:08.774Z,,,,,,,,,,,,,,,,48,,,,,,,,,,,,,,621.9960000000137,,response,,,10,E,,,,,Space,keypress(Space),,,,lyrical,-- -- --- ------ ------- --------- ----------- requires<br>--------- -------- --- ------- -- ------- ---- -- ------<br>-- --- -------- -------- ---------- ---- ---- ---- ------<br>-- --------- -- ---- -- --- -- --- ------- -- - -----<br>---------- -- -- -- ---- ----- -- ------ -- --- ------<br>-------,183788.30000007153,183787.5,183148.834,183156.40000009537,183165.504,183798.994,,7,requires
screen,html.Screen,0_4_1_0_1_8,2021-11-19T11:21:09.622Z,,,,,,,,,,,,,,,,48,,,,,,,,,,,,,,836.3060000715195,,response,,,10,E,,,,,Space,keypress(Space),,,,lyrical,-- -- --- ------ ------- --------- ----------- --------<br>travelers -------- --- ------- -- ------- ---- -- ------<br>-- --- -------- -------- ---------- ---- ---- ---- ------<br>-- --------- -- ---- -- --- -- --- ------- -- - -----<br>---------- -- -- -- ---- ----- -- ------ -- --- ------<br>-------,184636.10000002384,184635.30000007153,183782.324,183788.5,183798.994,184649.192,,8,travelers
screen,html.Screen,0_4_1_0_1_9,2021-11-19T11:21:10.182Z,,,,,,,,,,,,,,,,48,,,,,,,,,,,,,,546.2080000953574,,response,,,10,E,,,,,Space,keypress(Space),,,,lyrical,-- -- --- ------ ------- --------- ----------- --------<br>--------- entering --- ------- -- ------- ---- -- ------<br>-- --- -------- -------- ---------- ---- ---- ---- ------<br>-- --------- -- ---- -- --- -- --- ------- -- - -----<br>---------- -- -- -- ---- ----- -- ------ -- --- ------<br>-------,185196.20000004768,185195.40000009537,184632.522,184636.30000007153,184649.192,185199.29,,9,entering
screen,html.Screen,0_4_1_0_1_10,2021-11-19T11:21:10.734Z,,,,,,,,,,,,,,,,48,,,,,,,,,,,,,,548.0100000715174,,response,,,10,E,,,,,Space,keypress(Space),,,,lyrical,-- -- --- ------ ------- --------- ----------- --------<br>--------- -------- the ------- -- ------- ---- -- ------<br>-- --- -------- -------- ---------- ---- ---- ---- ------<br>-- --------- -- ---- -- --- -- --- ------- -- - -----<br>---------- -- -- -- ---- ----- -- ------ -- --- ------<br>-------,185748.10000002384,185747.30000007153,185182.62,185196.40000009537,185199.29,185749.489,,10,the
screen,html.Screen,0_4_1_0_1_11,2021-11-19T11:21:11.446Z,,,,,,,,,,,,,,,,48,,,,,,,,,,,,,,709.7110000476823,,response,,,10,E,,,,,Space,keypress(Space),,,,lyrical,-- -- --- ------ ------- --------- ----------- --------<br>--------- -------- --- country -- ------- ---- -- ------<br>-- --- -------- -------- ---------- ---- ---- ---- ------<br>-- --------- -- ---- -- --- -- --- ------- -- - -----<br>---------- -- -- -- ---- ----- -- ------ -- --- ------<br>-------,186460,186459.20000004768,185732.819,185748.30000007153,185749.489,186466.178,,11,country
screen,html.Screen,0_4_1_0_1_12,2021-11-19T11:21:12.206Z,,,,,,,,,,,,,,,,48,,,,,,,,,,,,,,753.0220000476693,,response,,,10,E,,,,,Space,keypress(Space),,,,lyrical,-- -- --- ------ ------- --------- ----------- --------<br>--------- -------- --- ------- to ------- ---- -- ------<br>-- --- -------- -------- ---------- ---- ---- ---- ------<br>-- --------- -- ---- -- --- -- --- ------- -- - -----<br>---------- -- -- -- ---- ----- -- ------ -- --- ------<br>-------,187219.90000009537,187219.20000004768,186449.509,186460.20000004768,186466.178,187233.225,,12,to
screen,html.Screen,0_4_1_0_1_13,2021-11-19T11:21:12.918Z,,,,,,,,,,,,,,,,48,,,,,,,,,,,,,,697.875000023836,,response,,,10,E,,,,,Space,keypress(Space),,,,lyrical,-- -- --- ------ ------- --------- ----------- --------<br>--------- -------- --- ------- -- declare ---- -- ------<br>-- --- -------- -------- ---------- ---- ---- ---- ------<br>-- --------- -- ---- -- --- -- --- ------- -- - -----<br>---------- -- -- -- ---- ----- -- ------ -- --- ------<br>-------,187932,187931.10000002384,187216.554,187220.20000004768,187233.225,187933.326,,13,declare
screen,html.Screen,0_4_1_0_1_14,2021-11-19T11:21:13.422Z,,,,,,,,,,,,,,,,48,,,,,,,,,,,,,,501.8740000476828,,response,,,10,E,,,,,Space,keypress(Space),,,,lyrical,-- -- --- ------ ------- --------- ----------- --------<br>--------- -------- --- ------- -- ------- cash -- ------<br>-- --- -------- -------- ---------- ---- ---- ---- ------<br>-- --------- -- ---- -- --- -- --- ------- -- - -----<br>---------- -- -- -- ---- ----- -- ------ -- --- ------<br>-------,188435.90000009537,188435.20000004768,187916.656,187932.20000004768,187933.326,188450.129,,14,cash
screen,html.Screen,0_4_1_0_1_15,2021-11-19T11:21:13.846Z,,,,,,,,,,,,,,,,48,,,,,,,,,,,,,,408.9710000238556,,response,,,10,E,,,,,Space,keypress(Space),,,,lyrical,-- -- --- ------ ------- --------- ----------- --------<br>--------- -------- --- ------- -- ------- ---- in ------<br>-- --- -------- -------- ---------- ---- ---- ---- ------<br>-- --------- -- ---- -- --- -- --- ------- -- - -----<br>---------- -- -- -- ---- ----- -- ------ -- --- ------<br>-------,188859.80000007153,188859.10000002384,188433.459,188436.10000002384,188450.129,188866.888,,15,in
screen,html.Screen,0_4_1_0_1_16,2021-11-19T11:21:14.478Z,,,,,,,,,,,,,,,,48,,,,,,,,,,,,,,624.1119999999937,,response,,,10,E,,,,,Space,keypress(Space),,,,lyrical,-- -- --- ------ ------- --------- ----------- --------<br>--------- -------- --- ------- -- ------- ---- -- excess<br>-- --- -------- -------- ---------- ---- ---- ---- ------<br>-- --------- -- ---- -- --- -- --- ------- -- - -----<br>---------- -- -- -- ---- ----- -- ------ -- --- ------<br>-------,189491.80000007153,189491,188850.218,188860,188866.888,189500.388,,16,excess
screen,html.Screen,0_4_1_0_1_17,2021-11-19T11:21:14.990Z,,,,,,,,,,,,,,,,48,,,,,,,,,,,,,,503.01200009536115,,response,,,10,E,,,,,Space,keypress(Space),,,,lyrical,-- -- --- ------ ------- --------- ----------- --------<br>--------- -------- --- ------- -- ------- ---- -- ------<br>of --- -------- -------- ---------- ---- ---- ---- ------<br>-- --------- -- ---- -- --- -- --- ------- -- - -----<br>---------- -- -- -- ---- ----- -- ------ -- --- ------<br>-------,190004,190003.40000009537,189483.718,189492.10000002384,189500.388,190017.243,,17,of
screen,html.Screen,0_4_1_0_1_18,2021-11-19T11:21:15.502Z,,,,,,,,,,,,,,,,48,,,,,,,,,,,,,,497.6570000953798,,response,,,10,E,,,,,Space,keypress(Space),,,,lyrical,-- -- --- ------ ------- --------- ----------- --------<br>--------- -------- --- ------- -- ------- ---- -- ------<br>-- ten -------- -------- ---------- ---- ---- ---- ------<br>-- --------- -- ---- -- --- -- --- ------- -- - -----<br>---------- -- -- -- ---- ----- -- ------ -- --- ------<br>-------,190515.60000002384,190514.90000009537,190000.572,190004.20000004768,190017.243,190517.142,,18,ten
screen,html.Screen,0_4_1_0_1_19,2021-11-19T11:21:16.102Z,,,,,,,,,,,,,,,,48,,,,,,,,,,,,,,597.7580000953749,,response,,,10,E,,,,,Space,keypress(Space),,,,lyrical,-- -- --- ------ ------- --------- ----------- --------<br>--------- -------- --- ------- -- ------- ---- -- ------<br>-- --- thousand -------- ---------- ---- ---- ---- ------<br>-- --------- -- ---- -- --- -- --- ------- -- - -----<br>---------- -- -- -- ---- ----- -- ------ -- --- ------<br>-------,191115.70000004768,191114.90000009537,190500.474,190515.90000009537,190517.142,191117.395,,19,thousand
screen,html.Screen,0_4_1_0_1_20,2021-11-19T11:21:17.181Z,,,,,,,,,,,,,,,,48,,,,,,,,,,,,,,1077.3050000476942,,response,,,10,E,,,,,Space,keypress(Space),,,,lyrical,-- -- --- ------ ------- --------- ----------- --------<br>--------- -------- --- ------- -- ------- ---- -- ------<br>-- --- -------- dollars. ---------- ---- ---- ---- ------<br>-- --------- -- ---- -- --- -- --- ------- -- - -----<br>---------- -- -- -- ---- ----- -- ------ -- --- ------<br>-------,192195.5,192194.70000004768,191100.725,191115.90000009537,191117.395,192201.184,,20,dollars.
screen,html.Screen,0_4_1_0_1_21,2021-11-19T11:21:17.877Z,,,,,,,,,,,,,,,,48,,,,,,,,,,,,,,689.6160000715172,,response,,,10,E,,,,,Space,keypress(Space),,,,lyrical,-- -- --- ------ ------- --------- ----------- --------<br>--------- -------- --- ------- -- ------- ---- -- ------<br>-- --- -------- -------- Concealing ---- ---- ---- ------<br>-- --------- -- ---- -- --- -- --- ------- -- - -----<br>---------- -- -- -- ---- ----- -- ------ -- --- ------<br>-------,192891.60000002384,192890.80000007153,192184.512,192195.80000007153,192201.184,192901.177,,21,Concealing
screen,html.Screen,0_4_1_0_1_22,2021-11-19T11:21:18.301Z,,,,,,,,,,,,,,,,48,,,,,,,,,,,,,,413.5230000476877,,response,,,10,E,,,,,Space,keypress(Space),,,,lyrical,-- -- --- ------ ------- --------- ----------- --------<br>--------- -------- --- ------- -- ------- ---- -- ------<br>-- --- -------- -------- ---------- more ---- ---- ------<br>-- --------- -- ---- -- --- -- --- ------- -- - -----<br>---------- -- -- -- ---- ----- -- ------ -- --- ------<br>-------,193315.40000009537,193314.70000004768,192884.507,192891.80000007153,192901.177,193317.985,,22,more
screen,html.Screen,0_4_1_0_1_23,2021-11-19T11:21:18.709Z,,,,,,,,,,,,,,,,48,,,,,,,,,,,,,,404.7150000476977,,response,,,10,E,,,,,Space,keypress(Space),,,,lyrical,-- -- --- ------ ------- --------- ----------- --------<br>--------- -------- --- ------- -- ------- ---- -- ------<br>-- --- -------- -------- ---------- ---- than ---- ------<br>-- --------- -- ---- -- --- -- --- ------- -- - -----<br>---------- -- -- -- ---- ----- -- ------ -- --- ------<br>-------,193723.5,193722.70000004768,193301.315,193315.60000002384,193317.985,193734.761,,23,than
screen,html.Screen,0_4_1_0_1_24,2021-11-19T11:21:19.077Z,,,,,,,,,,,,,,,,48,,,,,,,,,,,,,,355.9390000476851,,response,,,10,E,,,,,Space,keypress(Space),,,,lyrical,-- -- --- ------ ------- --------- ----------- --------<br>--------- -------- --- ------- -- ------- ---- -- ------<br>-- --- -------- -------- ---------- ---- ---- that ------<br>-- --------- -- ---- -- --- -- --- ------- -- - -----<br>---------- -- -- -- ---- ----- -- ------ -- --- ------<br>-------,194091.70000004768,194090.70000004768,193718.091,193723.80000007153,193734.761,194101.49,,24,that
screen,html.Screen,0_4_1_0_1_25,2021-11-19T11:21:19.837Z,,,,,,,,,,,,,,,,48,,,,,,,,,,,,,,749.210000047693,,response,,,10,E,,,,,Space,keypress(Space),,,,lyrical,-- -- --- ------ ------- --------- ----------- --------<br>--------- -------- --- ------- -- ------- ---- -- ------<br>-- --- -------- -------- ---------- ---- ---- ---- amount<br>-- --------- -- ---- -- --- -- --- ------- -- - -----<br>---------- -- -- -- ---- ----- -- ------ -- --- ------<br>-------,194851.5,194850.70000004768,194084.82,194091.80000007153,194101.49,194868.354,,25,amount
screen,html.Screen,0_4_1_0_1_26,2021-11-19T11:21:20.917Z,,,,,,,,,,,,,,,,48,,,,,,,,,,,,,,1062.3460000476916,,response,,,10,E,,,,,Space,keypress(Space),,,,lyrical,-- -- --- ------ ------- --------- ----------- --------<br>--------- -------- --- ------- -- ------- ---- -- ------<br>-- --- -------- -------- ---------- ---- ---- ---- ------<br>to --------- -- ---- -- --- -- --- ------- -- - -----<br>---------- -- -- -- ---- ----- -- ------ -- --- ------<br>-------,195931.40000009537,195930.70000004768,194851.684,194851.70000004768,194868.354,195935.24,,26,to
screen,html.Screen,0_4_1_0_1_27,2021-11-19T11:21:21.541Z,,,,,,,,,,,,,,,,48,,,,,,,,,,,,,,619.1600000953767,,response,,,10,E,,,,,Space,keypress(Space),,,,lyrical,-- -- --- ------ ------- --------- ----------- --------<br>--------- -------- --- ------- -- ------- ---- -- ------<br>-- --- -------- -------- ---------- ---- ---- ---- ------<br>-- transport -- ---- -- --- -- --- ------- -- - -----<br>---------- -- -- -- ---- ----- -- ------ -- --- ------<br>-------,196555.20000004768,196554.40000009537,195918.57,195931.60000002384,195935.24,196568.754,,27,transport
screen,html.Screen,0_4_1_0_1_28,2021-11-19T11:21:21.949Z,,,,,,,,,,,,,,,,48,,,,,,,,,,,,,,393.64600009538117,,response,,,10,E,,,,,Space,keypress(Space),,,,lyrical,-- -- --- ------ ------- --------- ----------- --------<br>--------- -------- --- ------- -- ------- ---- -- ------<br>-- --- -------- -------- ---------- ---- ---- ---- ------<br>-- --------- it ---- -- --- -- --- ------- -- - -----<br>---------- -- -- -- ---- ----- -- ------ -- --- ------<br>-------,196963.20000004768,196962.40000009537,196552.084,196555.5,196568.754,196968.87,,28,it
screen,html.Screen,0_4_1_0_1_29,2021-11-19T11:21:22.413Z,,,,,,,,,,,,,,,,48,,,,,,,,,,,,,,457.5300000953721,,response,,,10,E,,,,,Space,keypress(Space),,,,lyrical,-- -- --- ------ ------- --------- ----------- --------<br>--------- -------- --- ------- -- ------- ---- -- ------<br>-- --- -------- -------- ---------- ---- ---- ---- ------<br>-- --------- -- into -- --- -- --- ------- -- - -----<br>---------- -- -- -- ---- ----- -- ------ -- --- ------<br>-------,197427.30000007153,197426.40000009537,196952.2,196963.5,196968.87,197435.656,,29,into
screen,html.Screen,0_4_1_0_1_30,2021-11-19T11:21:22.845Z,,,,,,,,,,,,,,,,48,,,,,,,,,,,,,,422.7440000953793,,response,,,10,E,,,,,Space,keypress(Space),,,,lyrical,-- -- --- ------ ------- --------- ----------- --------<br>--------- -------- --- ------- -- ------- ---- -- ------<br>-- --- -------- -------- ---------- ---- ---- ---- ------<br>-- --------- -- ---- or --- -- --- ------- -- - -----<br>---------- -- -- -- ---- ----- -- ------ -- --- ------<br>-------,197859.20000004768,197858.40000009537,197418.986,197427.5,197435.656,197868.952,,30,or
screen,html.Screen,0_4_1_0_1_31,2021-11-19T11:21:23.269Z,,,,,,,,,,,,,,,,48,,,,,,,,,,,,,,413.4480000953772,,response,,,10,E,,,,,Space,keypress(Space),,,,lyrical,-- -- --- ------ ------- --------- ----------- --------<br>--------- -------- --- ------- -- ------- ---- -- ------<br>-- --- -------- -------- ---------- ---- ---- ---- ------<br>-- --------- -- ---- -- out -- --- ------- -- - -----<br>---------- -- -- -- ---- ----- -- ------ -- --- ------<br>-------,198283.20000004768,198282.40000009537,197852.284,197859.40000009537,197868.952,198285.905,,31,out
screen,html.Screen,0_4_1_0_1_32,2021-11-19T11:21:23.669Z,,,,,,,,,,,,,,,,48,,,,,,,,,,,,,,396.39500007152674,,response,,,10,E,,,,,Space,keypress(Space),,,,lyrical,-- -- --- ------ ------- --------- ----------- --------<br>--------- -------- --- ------- -- ------- ---- -- ------<br>-- --- -------- -------- ---------- ---- ---- ---- ------<br>-- --------- -- ---- -- --- of --- ------- -- - -----<br>---------- -- -- -- ---- ----- -- ------ -- --- ------<br>-------,198683.10000002384,198682.30000007153,198269.234,198283.40000009537,198285.905,198685.873,,32,of
screen,html.Screen,0_4_1_0_1_33,2021-11-19T11:21:24.045Z,,,,,,,,,,,,,,,,48,,,,,,,,,,,,,,372.5270000953751,,response,,,10,E,,,,,Space,keypress(Space),,,,lyrical,-- -- --- ------ ------- --------- ----------- --------<br>--------- -------- --- ------- -- ------- ---- -- ------<br>-- --- -------- -------- ---------- ---- ---- ---- ------<br>-- --------- -- ---- -- --- -- the ------- -- - -----<br>---------- -- -- -- ---- ----- -- ------ -- --- ------<br>-------,199059.20000004768,199058.40000009537,198669.204,198683.40000009537,198685.873,199069.434,,33,the
screen,html.Screen,0_4_1_0_1_34,2021-11-19T11:21:24.533Z,,,,,,,,,,,,,,,,48,,,,,,,,,,,,,,476.96600009535905,,response,,,10,E,,,,,Space,keypress(Space),,,,lyrical,-- -- --- ------ ------- --------- ----------- --------<br>--------- -------- --- ------- -- ------- ---- -- ------<br>-- --- -------- -------- ---------- ---- ---- ---- ------<br>-- --------- -- ---- -- --- -- --- country -- - -----<br>---------- -- -- -- ---- ----- -- ------ -- --- ------<br>-------,199547.10000002384,199546.40000009537,199052.763,199059.30000007153,199069.434,199552.817,,34,country
screen,html.Screen,0_4_1_0_1_35,2021-11-19T11:21:24.981Z,,,,,,,,,,,,,,,,48,,,,,,,,,,,,,,441.48300007151556,,response,,,10,E,,,,,Space,keypress(Space),,,,lyrical,-- -- --- ------ ------- --------- ----------- --------<br>--------- -------- --- ------- -- ------- ---- -- ------<br>-- --- -------- -------- ---------- ---- ---- ---- ------<br>-- --------- -- ---- -- --- -- --- ------- is - -----<br>---------- -- -- -- ---- ----- -- ------ -- --- ------<br>-------,199995.10000002384,199994.30000007153,199536.147,199547.30000007153,199552.817,200002.932,,35,is
screen,html.Screen,0_4_1_0_1_36,2021-11-19T11:21:25.357Z,,,,,,,,,,,,,,,,48,,,,,,,,,,,,,,367.66800002384116,,response,,,10,E,,,,,Space,keypress(Space),,,,lyrical,-- -- --- ------ ------- --------- ----------- --------<br>--------- -------- --- ------- -- ------- ---- -- ------<br>-- --- -------- -------- ---------- ---- ---- ---- ------<br>-- --------- -- ---- -- --- -- --- ------- -- a -----<br>---------- -- -- -- ---- ----- -- ------ -- --- ------<br>-------,200371.40000009537,200370.60000002384,199986.262,199995.30000007153,200002.932,200386.378,,36,a
screen,html.Screen,0_4_1_0_1_37,2021-11-19T11:21:25.853Z,,,,,,,,,,,,,,,,48,,,,,,,,,,,,,,479.82200004768674,,response,,,10,E,,,,,Space,keypress(Space),,,,lyrical,-- -- --- ------ ------- --------- ----------- --------<br>--------- -------- --- ------- -- ------- ---- -- ------<br>-- --- -------- -------- ---------- ---- ---- ---- ------<br>-- --------- -- ---- -- --- -- --- ------- -- - crime<br>---------- -- -- -- ---- ----- -- ------ -- --- ------<br>-------,200867,200866.20000004768,200369.708,200371.70000004768,200386.378,200869.821,,37,crime
screen,html.Screen,0_4_1_0_1_38,2021-11-19T11:21:26.645Z,,,,,,,,,,,,,,,,48,,,,,,,,,,,,,,788.3790000476874,,response,,,10,E,,,,,Space,keypress(Space),,,,lyrical,-- -- --- ------ ------- --------- ----------- --------<br>--------- -------- --- ------- -- ------- ---- -- ------<br>-- --- -------- -------- ---------- ---- ---- ---- ------<br>-- --------- -- ---- -- --- -- --- ------- -- - -----<br>punishable -- -- -- ---- ----- -- ------ -- --- ------<br>-------,201658.90000009537,201658.20000004768,200853.151,200867.20000004768,200869.821,201669.803,,38,punishable
screen,html.Screen,0_4_1_0_1_39,2021-11-19T11:21:27.109Z,,,,,,,,,,,,,,,,48,,,,,,,,,,,,,,452.2970000238274,,response,,,10,E,,,,,Space,keypress(Space),,,,lyrical,-- -- --- ------ ------- --------- ----------- --------<br>--------- -------- --- ------- -- ------- ---- -- ------<br>-- --- -------- -------- ---------- ---- ---- ---- ------<br>-- --------- -- ---- -- --- -- --- ------- -- - -----<br>---------- by -- -- ---- ----- -- ------ -- --- ------<br>-------,202122.90000009537,202122.10000002384,201653.135,201659.20000004768,201669.803,202136.864,,39,by
screen,html.Screen,0_4_1_0_1_40,2021-11-19T11:21:27.565Z,,,,,,,,,,,,,,,,48,,,,,,,,,,,,,,441.23600002384046,,response,,,10,E,,,,,Space,keypress(Space),,,,lyrical,-- -- --- ------ ------- --------- ----------- --------<br>--------- -------- --- ------- -- ------- ---- -- ------<br>-- --- -------- -------- ---------- ---- ---- ---- ------<br>-- --------- -- ---- -- --- -- --- ------- -- - -----<br>---------- -- up -- ---- ----- -- ------ -- --- ------<br>-------,202578.90000009537,202578.10000002384,202120.193,202123.10000002384,202136.864,202586.898,,40,up
screen,html.Screen,0_4_1_0_1_41,2021-11-19T11:21:27.941Z,,,,,,,,,,,,,,,,48,,,,,,,,,,,,,,367.20200002385536,,response,,,10,E,,,,,Space,keypress(Space),,,,lyrical,-- -- --- ------ ------- --------- ----------- --------<br>--------- -------- --- ------- -- ------- ---- -- ------<br>-- --- -------- -------- ---------- ---- ---- ---- ------<br>-- --------- -- ---- -- --- -- --- ------- -- - -----<br>---------- -- -- to ---- ----- -- ------ -- --- ------<br>-------,202954.90000009537,202954.10000002384,202570.228,202579.10000002384,202586.898,202970.24,,41,to
screen,html.Screen,0_4_1_0_1_42,2021-11-19T11:21:28.405Z,,,,,,,,,,,,,,,,48,,,,,,,,,,,,,,447.86000002385117,,response,,,10,E,,,,,Space,keypress(Space),,,,lyrical,-- -- --- ------ ------- --------- ----------- --------<br>--------- -------- --- ------- -- ------- ---- -- ------<br>-- --- -------- -------- ---------- ---- ---- ---- ------<br>-- --------- -- ---- -- --- -- --- ------- -- - -----<br>---------- -- -- -- five ----- -- ------ -- --- ------<br>-------,203418.80000007153,203418.10000002384,202953.571,202955.10000002384,202970.24,203420.528,,42,five
screen,html.Screen,0_4_1_0_1_43,2021-11-19T11:21:28.925Z,,,,,,,,,,,,,,,,48,,,,,,,,,,,,,,517.4720000000088,,response,,,10,E,,,,,Space,keypress(Space),,,,lyrical,-- -- --- ------ ------- --------- ----------- --------<br>--------- -------- --- ------- -- ------- ---- -- ------<br>-- --- -------- -------- ---------- ---- ---- ---- ------<br>-- --------- -- ---- -- --- -- --- ------- -- - -----<br>---------- -- -- -- ---- years -- ------ -- --- ------<br>-------,203938.70000004768,203938,203403.856,203419.10000002384,203420.528,203953.876,,43,years
screen,html.Screen,0_4_1_0_1_44,2021-11-19T11:21:29.301Z,,,,,,,,,,,,,,,,48,,,,,,,,,,,,,,360.22400002385257,,response,,,10,E,,,,,Space,keypress(Space),,,,lyrical,-- -- --- ------ ------- --------- ----------- --------<br>--------- -------- --- ------- -- ------- ---- -- ------<br>-- --- -------- -------- ---------- ---- ---- ---- ------<br>-- --------- -- ---- -- --- -- --- ------- -- - -----<br>---------- -- -- -- ---- ----- in ------ -- --- ------<br>-------,204314.80000007153,204314.10000002384,203937.206,203939,203953.876,204320.652,,44,in
screen,html.Screen,0_4_1_0_1_45,2021-11-19T11:21:29.749Z,,,,,,,,,,,,,,,,48,,,,,,,,,,,,,,441.24800009536557,,response,,,10,E,,,,,Space,keypress(Space),,,,lyrical,-- -- --- ------ ------- --------- ----------- --------<br>--------- -------- --- ------- -- ------- ---- -- ------<br>-- --- -------- -------- ---------- ---- ---- ---- ------<br>-- --------- -- ---- -- --- -- --- ------- -- - -----<br>---------- -- -- -- ---- ----- -- prison -- --- ------<br>-------,204762.70000004768,204761.90000009537,204303.982,204315,204320.652,204770.763,,45,prison
screen,html.Screen,0_4_1_0_1_46,2021-11-19T11:21:30.180Z,,,,,,,,,,,,,,,,48,,,,,,,,,,,,,,423.0370000715193,,response,,,10,E,,,,,Space,keypress(Space),,,,lyrical,-- -- --- ------ ------- --------- ----------- --------<br>--------- -------- --- ------- -- ------- ---- -- ------<br>-- --- -------- -------- ---------- ---- ---- ---- ------<br>-- --------- -- ---- -- --- -- --- ------- -- - -----<br>---------- -- -- -- ---- ----- -- ------ in --- ------<br>-------,205194.60000002384,205193.80000007153,204754.093,204763,204770.763,205204.213,,46,in
screen,html.Screen,0_4_1_0_1_47,2021-11-19T11:21:30.573Z,,,,,,,,,,,,,,,,48,,,,,,,,,,,,,,381.6870000953786,,response,,,10,E,,,,,Space,keypress(Space),,,,lyrical,-- -- --- ------ ------- --------- ----------- --------<br>--------- -------- --- ------- -- ------- ---- -- ------<br>-- --- -------- -------- ---------- ---- ---- ---- ------<br>-- --------- -- ---- -- --- -- --- ------- -- - -----<br>---------- -- -- -- ---- ----- -- ------ -- the ------<br>-------,205586.70000004768,205585.90000009537,205187.543,205194.90000009537,205204.213,205604.303,,47,the
screen,html.Screen,0_4_1_0_1_48,2021-11-19T11:21:31.020Z,,,,,,,,,,,,,,,,48,,,,,,,,,,,,,,429.49700007151114,,response,,,10,E,,,,,Space,keypress(Space),,,,lyrical,-- -- --- ------ ------- --------- ----------- --------<br>--------- -------- --- ------- -- ------- ---- -- ------<br>-- --- -------- -------- ---------- ---- ---- ---- ------<br>-- --------- -- ---- -- --- -- --- ------- -- - -----<br>---------- -- -- -- ---- ----- -- ------ -- --- United<br>-------,206034.5,206033.80000007153,205587.633,205586.90000009537,205604.303,206037.753,,48,United
screen,html.Screen,0_4_1_0_1_49,2021-11-19T11:21:31.436Z,,,,,,,,,,,,,,,,48,,,,,,,,,,,,,,412.14700009537046,,response,,,10,E,,,,,Space,keypress(Space),,,,lyrical,-- -- --- ------ ------- --------- ----------- --------<br>--------- -------- --- ------- -- ------- ---- -- ------<br>-- --- -------- -------- ---------- ---- ---- ---- ------<br>-- --------- -- ---- -- --- -- --- ------- -- - -----<br>---------- -- -- -- ---- ----- -- ------ -- --- ------<br>States.,206450.70000004768,206449.90000009537,206021.083,206034.80000007153,206037.753,206454.49,,49,States.
Item 10,flow.Loop,0_4_1_0_1,2021-11-19T11:21:31.437Z,,,,,,,,,,,,,,,,,,,,,,,,,,,,,,29402.588000095362,,completion,,,,,,,,,,,,,,,,206451.10000002384,206449.90000009537,177030.642,177032.20000004768,177047.312,206454.49,,,
Question 1,html.Screen,0_4_1_0_2,2021-11-19T11:21:33.988Z,,,,,,,,,,,,,,,,,,,,,,,,,,,true,TRUE,,2546.9100000953767,,response,,,10,E,,,,,TRUE,click #choice-1,,,,lyrical,,209002.5,209001.40000009537,206437.82,206451.20000004768,206454.49,209021.719,,,
Question 2,html.Screen,0_4_1_0_3,2021-11-19T11:21:37.516Z,,,,,,,,,,,,,,,,,,,,,,,,,,,true,TRUE,,3507.5810000715137,,response,,,10,E,,,,,TRUE,click #choice-1,,,,lyrical,,212530.30000007153,212529.30000007153,209005.052,209002.90000009537,209021.719,212539.243,,,
Item 10,flow.Sequence,0_4_1_0,2021-11-19T11:21:37.517Z,,,,,,,,,,,,,,,,,,,,,,,,,,,,,,42483.97000007154,,completion,,,,,,,,,,,,,,,,212530.80000007153,212529.30000007153,170028.66,170030.70000004768,170045.33,212539.243,,,
Holding screen,html.Screen,0_4_1_1_0,2021-11-19T11:21:44.512Z,,,,,,,,,,,,,,,,,,,,,,,,,,,,,,7001.843000000023,,timeout,,,,,,,,,,,,,,,,219526.10000002384,219524.415,212522.573,212531,212539.243,219541.086,,,
screen,html.Screen,0_4_1_1_1_0,2021-11-19T11:21:46.532Z,,,,,,,,,,,,,,,,11,,,,,,,,,,,,,,2003.8140000953572,,response,,,4,E,,,,,Space,keypress(Space),,,,lyrical,Known -- ---- --- -- --- -------- ------------ ---------- --<br>- ------- ------ --------- -- ------------ -- --- ---- -----<br>------ ---- ---- ------ ------ ------- --- ----- ---------<br>---- --- -------- -------- --- --- -- ------- --- --- -----<br>-- --- ------ ------- --- --- -------- ---- --------- --<br>---------- -- -------- ----------------,221545.70000004768,221544.90000009537,219524.415,219526.70000004768,219541.086,221557.857,,0,Known
screen,html.Screen,0_4_1_1_1_1,2021-11-19T11:21:47.139Z,,,,,,,,,,,,,,,,11,,,,,,,,,,,,,,594.9430000715365,,response,,,4,E,,,,,Space,keypress(Space),,,,lyrical,----- as ---- --- -- --- -------- ------------ ---------- --<br>- ------- ------ --------- -- ------------ -- --- ---- -----<br>------ ---- ---- ------ ------ ------- --- ----- ---------<br>---- --- -------- -------- --- --- -- ------- --- --- -----<br>-- --- ------ ------- --- --- -------- ---- --------- --<br>---------- -- -------- ----------------,222153.5,222152.80000007153,221541.188,221546.10000002384,221557.857,222158.251,,1,as
screen,html.Screen,0_4_1_1_1_2,2021-11-19T11:21:47.764Z,,,,,,,,,,,,,,,,11,,,,,,,,,,,,,,618.7490000000107,,response,,,4,E,,,,,Space,keypress(Space),,,,lyrical,----- -- Rapa --- -- --- -------- ------------ ---------- --<br>- ------- ------ --------- -- ------------ -- --- ---- -----<br>------ ---- ---- ------ ------ ------- --- ----- ---------<br>---- --- -------- -------- --- --- -- ------- --- --- -----<br>-- --- ------ ------- --- --- -------- ---- --------- --<br>---------- -- -------- ----------------,222777.90000009537,222777,222141.581,222153.80000007153,222158.251,222791.809,,2,Rapa
screen,html.Screen,0_4_1_1_1_3,2021-11-19T11:21:48.611Z,,,,,,,,,,,,,,,,11,,,,,,,,,,,,,,832.7910000238335,,response,,,4,E,,,,,Space,keypress(Space),,,,lyrical,----- -- ---- Nui -- --- -------- ------------ ---------- --<br>- ------- ------ --------- -- ------------ -- --- ---- -----<br>------ ---- ---- ------ ------ ------- --- ----- ---------<br>---- --- -------- -------- --- --- -- ------- --- --- -----<br>-- --- ------ ------- --- --- -------- ---- --------- --<br>---------- -- -------- ----------------,223625.5,223624.60000002384,222775.139,222778.20000004768,222791.809,223641.859,,3,Nui
