sender,sender_type,sender_id,timestamp,meta,,Blues,Classical,Country,Dance,Electronic,Folk,Gospel,Hip-Hop,Jazz,Latin,Musical/Film,New-age,Pop,Provo_ID,R&B,Rap,Reggae,Religious,Rock,Soul,Swing,Traditional,age,artist_name,correct,correctResponse,distraction,duration,education,ended_on,familiarity,gender,item,list,music_frequency,offensiveness,pleasantness,preference,response,response_action,snippet_file,song_name,song_rating,sound,text,time_commit,time_end,time_render,time_run,time_show,time_switch,url,word,word_ID
Instructions,html.Page,0_0,2021-12-02T09:59:25.468Z,"{""labjs_version"":""20.2.3"",""labjs_build"":{""flavor"":""production"",""commit"":""7ea907d66ca8aeef8054924ca5d82ffbe11e34e5""},""location"":""https://run.pavlovia.org/mvasilev/lab_music_e/"",""userAgent"":""Mozilla/5.0 (Windows NT 6.1; Win64; x64) AppleWebKit/537.36 (KHTML, like Gecko) Chrome/96.0.4664.45 Safari/537.36"",""platform"":""Win32"",""language"":""en-US"",""locale"":""en-US"",""timeZone"":""Europe/London"",""timezoneOffset"":0,""screen_width"":1920,""screen_height"":1080,""scroll_width"":1920,""scroll_height"":959,""window_innerWidth"":1920,""window_innerHeight"":1007,""devicePixelRatio"":1}",,,,,,,,,,,,,,,,,,,,,,,,,,,,,12397.497999999814,,form submission,,,,,,,,,,,,,,,,20241.89999999944,20240.799999999814,7709.942,7701.399999999441,7843.302,20246.225,{},,
Headphones,html.Page,0_1,2021-12-02T09:59:28.925Z,,,,,,,,,,,,,,,,,,,,,,,,,,,,,,3452.2750000000015,,form submission,,,,,,,,,,,,,,,,23699,23698.5,20229.556,20242.700000000186,20246.225,23714.492,,,
Holding screen,html.Screen,0_2_0_0,2021-12-02T09:59:38.933Z,,,,,,,,,,,,,,,,,,,,,,,,,,,,,,10002.344000000005,,timeout,,,,,,,,,,,,,,,,33706.59999999963,33700.167,23697.819,23699.39999999944,23714.492,33716.836,,,
screen,html.Screen,0_2_0_1_0,2021-12-02T09:59:40.021Z,,,,,,,,,,,,,,,,53,,,,,,,,,,,,,,1076.4639999998108,,response,,,99,,,,,,Space,keypress(Space),,,,,When -- ----- -- ------ - ------- --- ----------<br>------------- ------ ------ ---- ---- ------- ----- -- ----<br>-------- ------- -- ---------- --- - --- ----- ----- ----<br>---- --- --- ----- --- ---- ---- ------- ----- ---- -------<br>--- --- -- ----- -- --- ---- -- --- ---- -- ------ ------<br>--- ----- -- ----,34794.700000000186,34793.299999999814,33700.167,33707,33716.836,34800.798,,0,When
screen,html.Screen,0_2_0_1_1,2021-12-02T09:59:40.596Z,,,,,,,,,,,,,,,,53,,,,,,,,,,,,,,567.9020000001838,,response,,,99,,,,,,Space,keypress(Space),,,,,---- it ----- -- ------ - ------- --- ----------<br>------------- ------ ------ ---- ---- ------- ----- -- ----<br>-------- ------- -- ---------- --- - --- ----- ----- ----<br>---- --- --- ----- --- ---- ---- ------- ----- ---- -------<br>--- --- -- ----- -- --- ---- -- --- ---- -- ------ ------<br>--- ----- -- ----,35369.700000000186,35368.700000000186,34784.127,34795.09999999963,34800.798,35384.208,,1,it
screen,html.Screen,0_2_0_1_2,2021-12-02T09:59:41.244Z,,,,,,,,,,,,,,,,53,,,,,,,,,,,,,,632.591999999815,,response,,,99,,,,,,Space,keypress(Space),,,,,---- -- comes -- ------ - ------- --- ----------<br>------------- ------ ------ ---- ---- ------- ----- -- ----<br>-------- ------- -- ---------- --- - --- ----- ----- ----<br>---- --- --- ----- --- ---- ---- ------- ----- ---- -------<br>--- --- -- ----- -- --- ---- -- --- ---- -- ------ ------<br>--- ----- -- ----,36017.59999999963,36016.799999999814,35367.538,35370,35384.208,36034.376,,2,comes
screen,html.Screen,0_2_0_1_3,2021-12-02T09:59:41.764Z,,,,,,,,,,,,,,,,53,,,,,,,,,,,,,,502.3240000001897,,response,,,99,,,,,,Space,keypress(Space),,,,,---- -- ----- to ------ - ------- --- ----------<br>------------- ------ ------ ---- ---- ------- ----- -- ----<br>-------- ------- -- ---------- --- - --- ----- ----- ----<br>---- --- --- ----- --- ---- ---- ------- ----- ---- -------<br>--- --- -- ----- -- --- ---- -- --- ---- -- ------ ------<br>--- ----- -- ----,36537.59999999963,36536.700000000186,36017.706,36017.89999999944,36034.376,36551.262,,3,to
screen,html.Screen,0_2_0_1_4,2021-12-02T09:59:42.516Z,,,,,,,,,,,,,,,,53,,,,,,,,,,,,,,737.4380000001838,,response,,,99,,,,,,Space,keypress(Space),,,,,---- -- ----- -- having - ------- --- ----------<br>------------- ------ ------ ---- ---- ------- ----- -- ----<br>-------- ------- -- ---------- --- - --- ----- ----- ----<br>---- --- --- ----- --- ---- ---- ------- ----- ---- -------<br>--- --- -- ----- -- --- ---- -- --- ---- -- ------ ------<br>--- ----- -- ----,37289.799999999814,37288.700000000186,36534.591,36538.09999999963,36551.262,37301.377,,4,having
screen,html.Screen,0_2_0_1_5,2021-12-02T09:59:43.204Z,,,,,,,,,,,,,,,,53,,,,,,,,,,,,,,675.3230000001859,,response,,,99,,,,,,Space,keypress(Space),,,,,---- -- ----- -- ------ a ------- --- ----------<br>------------- ------ ------ ---- ---- ------- ----- -- ----<br>-------- ------- -- ---------- --- - --- ----- ----- ----<br>---- --- --- ----- --- ---- ---- ------- ----- ---- -------<br>--- --- -- ----- -- --- ---- -- --- ---- -- ------ ------<br>--- ----- -- ----,37977.59999999963,37976.700000000186,37284.707,37290.09999999963,37301.377,37984.907,,5,a
screen,html.Screen,0_2_0_1_6,2021-12-02T09:59:44.116Z,,,,,,,,,,,,,,,,53,,,,,,,,,,,,,,903.793000000187,,response,,,99,,,,,,Space,keypress(Space),,,,,---- -- ----- -- ------ - lasting --- ----------<br>------------- ------ ------ ---- ---- ------- ----- -- ----<br>-------- ------- -- ---------- --- - --- ----- ----- ----<br>---- --- --- ----- --- ---- ---- ------- ----- ---- -------<br>--- --- -- ----- -- --- ---- -- --- ---- -- ------ ------<br>--- ----- -- ----,38889.59999999963,38888.700000000186,37968.237,37978,37984.907,38901.81,,6,lasting
screen,html.Screen,0_2_0_1_7,2021-12-02T09:59:44.764Z,,,,,,,,,,,,,,,,53,,,,,,,,,,,,,,634.7899999996298,,response,,,99,,,,,,Space,keypress(Space),,,,,---- -- ----- -- ------ - ------- and ----------<br>------------- ------ ------ ---- ---- ------- ----- -- ----<br>-------- ------- -- ---------- --- - --- ----- ----- ----<br>---- --- --- ----- --- ---- ---- ------- ----- ---- -------<br>--- --- -- ----- -- --- ---- -- --- ---- -- ------ ------<br>--- ----- -- ----,39537.5,39536.59999999963,38885.14,38889.89999999944,38901.81,39551.949,,7,and
screen,html.Screen,0_2_0_1_8,2021-12-02T09:59:46.012Z,,,,,,,,,,,,,,,,53,,,,,,,,,,,,,,1232.650999999627,,response,,,99,,,,,,Space,keypress(Space),,,,,---- -- ----- -- ------ - ------- --- fulfilling<br>------------- ------ ------ ---- ---- ------- ----- -- ----<br>-------- ------- -- ---------- --- - --- ----- ----- ----<br>---- --- --- ----- --- ---- ---- ------- ----- ---- -------<br>--- --- -- ----- -- --- ---- -- --- ---- -- ------ ------<br>--- ----- -- ----,40785.59999999963,40784.59999999963,39535.279,39537.799999999814,39551.949,40802.277,,8,fulfilling
screen,html.Screen,0_2_0_1_9,2021-12-02T09:59:46.660Z,,,,,,,,,,,,,,,,53,,,,,,,,,,,,,,630.2229999999981,,response,,,99,,,,,,Space,keypress(Space),,,,,"---- -- ----- -- ------ - ------- --- ----------<br>relationship, ------ ------ ---- ---- ------- ----- -- ----<br>-------- ------- -- ---------- --- - --- ----- ----- ----<br>---- --- --- ----- --- ---- ---- ------- ----- ---- -------<br>--- --- -- ----- -- --- ---- -- --- ---- -- ------ ------<br>--- ----- -- ----",41433.5,41432.5,40785.607,40786,40802.277,41435.816,,9,"relationship,"
screen,html.Screen,0_2_0_1_10,2021-12-02T09:59:47.532Z,,,,,,,,,,,,,,,,53,,,,,,,,,,,,,,868.6840000000011,,response,,,99,,,,,,Space,keypress(Space),,,,,---- -- ----- -- ------ - ------- --- ----------<br>------------- common ------ ---- ---- ------- ----- -- ----<br>-------- ------- -- ---------- --- - --- ----- ----- ----<br>---- --- --- ----- --- ---- ---- ------- ----- ---- -------<br>--- --- -- ----- -- --- ---- -- --- ---- -- ------ ------<br>--- ----- -- ----,42305.39999999944,42304.5,41419.146,41433.799999999814,41435.816,42319.384,,10,common
screen,html.Screen,0_2_0_1_11,2021-12-02T09:59:48.156Z,,,,,,,,,,,,,,,,53,,,,,,,,,,,,,,609.1160000000018,,response,,,99,,,,,,Space,keypress(Space),,,,,---- -- ----- -- ------ - ------- --- ----------<br>------------- ------ wisdom ---- ---- ------- ----- -- ----<br>-------- ------- -- ---------- --- - --- ----- ----- ----<br>---- --- --- ----- --- ---- ---- ------- ----- ---- -------<br>--- --- -- ----- -- --- ---- -- --- ---- -- ------ ------<br>--- ----- -- ----,42929.39999999944,42928.5,42302.714,42305.59999999963,42319.384,42936.091,,11,wisdom
screen,html.Screen,0_2_0_1_12,2021-12-02T09:59:48.788Z,,,,,,,,,,,,,,,,53,,,,,,,,,,,,,,624.3089999994409,,response,,,99,,,,,,Space,keypress(Space),,,,,---- -- ----- -- ------ - ------- --- ----------<br>------------- ------ ------ says ---- ------- ----- -- ----<br>-------- ------- -- ---------- --- - --- ----- ----- ----<br>---- --- --- ----- --- ---- ---- ------- ----- ---- -------<br>--- --- -- ----- -- --- ---- -- --- ---- -- ------ ------<br>--- ----- -- ----,43561.200000000186,43560.39999999944,42919.422,42929.59999999963,42936.091,43569.807,,12,says
screen,html.Screen,0_2_0_1_13,2021-12-02T09:59:49.427Z,,,,,,,,,,,,,,,,53,,,,,,,,,,,,,,630.5929999994405,,response,,,99,,,,,,Space,keypress(Space),,,,,---- -- ----- -- ------ - ------- --- ----------<br>------------- ------ ------ ---- that ------- ----- -- ----<br>-------- ------- -- ---------- --- - --- ----- ----- ----<br>---- --- --- ----- --- ---- ---- ------- ----- ---- -------<br>--- --- -- ----- -- --- ---- -- --- ---- -- ------ ------<br>--- ----- -- ----,44201.200000000186,44200.39999999944,43553.136,43561.5,43569.807,44203.201,,13,that
screen,html.Screen,0_2_0_1_14,2021-12-02T09:59:50.060Z,,,,,,,,,,,,,,,,53,,,,,,,,,,,,,,629.5989999998128,,response,,,99,,,,,,Space,keypress(Space),,,,,---- -- ----- -- ------ - ------- --- ----------<br>------------- ------ ------ ---- ---- feeling ----- -- ----<br>-------- ------- -- ---------- --- - --- ----- ----- ----<br>---- --- --- ----- --- ---- ---- ------- ----- ---- -------<br>--- --- -- ----- -- --- ---- -- --- ---- -- ------ ------<br>--- ----- -- ----,44833.59999999963,44832.799999999814,44186.531,44201.5,44203.201,44836.738,,14,feeling
screen,html.Screen,0_2_0_1_15,2021-12-02T09:59:50.611Z,,,,,,,,,,,,,,,,53,,,,,,,,,,,,,,547.5619999998162,,response,,,99,,,,,,Space,keypress(Space),,,,,---- -- ----- -- ------ - ------- --- ----------<br>------------- ------ ------ ---- ---- ------- close -- ----<br>-------- ------- -- ---------- --- - --- ----- ----- ----<br>---- --- --- ----- --- ---- ---- ------- ----- ---- -------<br>--- --- -- ----- -- --- ---- -- --- ---- -- ------ ------<br>--- ----- -- ----,45385.09999999963,45384.299999999814,44820.068,44833.799999999814,44836.738,45386.873,,15,close
screen,html.Screen,0_2_0_1_16,2021-12-02T09:59:51.091Z,,,,,,,,,,,,,,,,53,,,,,,,,,,,,,,477.42699999981414,,response,,,99,,,,,,Space,keypress(Space),,,,,---- -- ----- -- ------ - ------- --- ----------<br>------------- ------ ------ ---- ---- ------- ----- to ----<br>-------- ------- -- ---------- --- - --- ----- ----- ----<br>---- --- --- ----- --- ---- ---- ------- ----- ---- -------<br>--- --- -- ----- -- --- ---- -- --- ---- -- ------ ------<br>--- ----- -- ----,45865.09999999963,45864.299999999814,45370.203,45385.299999999814,45386.873,45870.334,,16,to
screen,html.Screen,0_2_0_1_17,2021-12-02T09:59:51.587Z,,,,,,,,,,,,,,,,53,,,,,,,,,,,,,,489.9659999998112,,response,,,99,,,,,,Space,keypress(Space),,,,,---- -- ----- -- ------ - ------- --- ----------<br>------------- ------ ------ ---- ---- ------- ----- -- your<br>-------- ------- -- ---------- --- - --- ----- ----- ----<br>---- --- --- ----- --- ---- ---- ------- ----- ---- -------<br>--- --- -- ----- -- --- ---- -- --- ---- -- ------ ------<br>--- ----- -- ----,46361,46360.299999999814,45853.664,45865.299999999814,45870.334,46370.381,,17,your
screen,html.Screen,0_2_0_1_18,2021-12-02T09:59:52.211Z,,,,,,,,,,,,,,,,53,,,,,,,,,,,,,,613.9189999998125,,response,,,99,,,,,,Space,keypress(Space),,,,,---- -- ----- -- ------ - ------- --- ----------<br>------------- ------ ------ ---- ---- ------- ----- -- ----<br>romantic ------- -- ---------- --- - --- ----- ----- ----<br>---- --- --- ----- --- ---- ---- ------- ----- ---- -------<br>--- --- -- ----- -- --- ---- -- --- ---- -- ------ ------<br>--- ----- -- ----,46985,46984.299999999814,46353.712,46361.299999999814,46370.381,46987.404,,18,romantic
screen,html.Screen,0_2_0_1_19,2021-12-02T09:59:52.771Z,,,,,,,,,,,,,,,,53,,,,,,,,,,,,,,556.8959999998115,,response,,,99,,,,,,Space,keypress(Space),,,,,---- -- ----- -- ------ - ------- --- ----------<br>------------- ------ ------ ---- ---- ------- ----- -- ----<br>-------- partner -- ---------- --- - --- ----- ----- ----<br>---- --- --- ----- --- ---- ---- ------- ----- ---- -------<br>--- --- -- ----- -- --- ---- -- --- ---- -- ------ ------<br>--- ----- -- ----,47545,47544.299999999814,46970.732,46985.299999999814,46987.404,47554.171,,19,partner
screen,html.Screen,0_2_0_1_20,2021-12-02T09:59:53.259Z,,,,,,,,,,,,,,,,53,,,,,,,,,,,,,,478.02900000018417,,response,,,99,,,,,,Space,keypress(Space),,,,,---- -- ----- -- ------ - ------- --- ----------<br>------------- ------ ------ ---- ---- ------- ----- -- ----<br>-------- ------- is ---------- --- - --- ----- ----- ----<br>---- --- --- ----- --- ---- ---- ------- ----- ---- -------<br>--- --- -- ----- -- --- ---- -- --- ---- -- ------ ------<br>--- ----- -- ----,48033,48032.200000000186,47537.5,47545.200000000186,47554.171,48037.575,,20,is
screen,html.Screen,0_2_0_1_21,2021-12-02T09:59:54.171Z,,,,,,,,,,,,,,,,53,,,,,,,,,,,,,,906.6250000001892,,response,,,99,,,,,,Space,keypress(Space),,,,,---- -- ----- -- ------ - ------- --- ----------<br>------------- ------ ------ ---- ---- ------- ----- -- ----<br>-------- ------- -- paramount. --- - --- ----- ----- ----<br>---- --- --- ----- --- ---- ---- ------- ----- ---- -------<br>--- --- -- ----- -- --- ---- -- --- ---- -- ------ ------<br>--- ----- -- ----,48944.89999999944,48944.200000000186,48020.905,48033.200000000186,48037.575,48954.541,,21,paramount.
screen,html.Screen,0_2_0_1_22,2021-12-02T09:59:54.747Z,,,,,,,,,,,,,,,,53,,,,,,,,,,,,,,565.55899999963,,response,,,99,,,,,,Space,keypress(Space),,,,,---- -- ----- -- ------ - ------- --- ----------<br>------------- ------ ------ ---- ---- ------- ----- -- ----<br>-------- ------- -- ---------- But - --- ----- ----- ----<br>---- --- --- ----- --- ---- ---- ------- ----- ---- -------<br>--- --- -- ----- -- --- ---- -- --- ---- -- ------ ------<br>--- ----- -- ----,49520.89999999944,49520.09999999963,48937.87,48945.39999999944,48954.541,49537.932,,22,But
screen,html.Screen,0_2_0_1_23,2021-12-02T09:59:55.187Z,,,,,,,,,,,,,,,,53,,,,,,,,,,,,,,422.1679999996268,,response,,,99,,,,,,Space,keypress(Space),,,,,---- -- ----- -- ------ - ------- --- ----------<br>------------- ------ ------ ---- ---- ------- ----- -- ----<br>-------- ------- -- ---------- --- a --- ----- ----- ----<br>---- --- --- ----- --- ---- ---- ------- ----- ---- -------<br>--- --- -- ----- -- --- ---- -- --- ---- -- ------ ------<br>--- ----- -- ----,49960.89999999944,49960.09999999963,49521.262,49521.200000000186,49537.932,49971.425,,23,a
screen,html.Screen,0_2_0_1_24,2021-12-02T09:59:55.651Z,,,,,,,,,,,,,,,,53,,,,,,,,,,,,,,452.5749999999971,,response,,,99,,,,,,Space,keypress(Space),,,,,---- -- ----- -- ------ - ------- --- ----------<br>------------- ------ ------ ---- ---- ------- ----- -- ----<br>-------- ------- -- ---------- --- - new ----- ----- ----<br>---- --- --- ----- --- ---- ---- ------- ----- ---- -------<br>--- --- -- ----- -- --- ---- -- --- ---- -- ------ ------<br>--- ----- -- ----,50424.799999999814,50424,49954.755,49961.200000000186,49971.425,50438.23,,24,new
screen,html.Screen,0_2_0_1_25,2021-12-02T09:59:56.091Z,,,,,,,,,,,,,,,,53,,,,,,,,,,,,,,425.7699999999968,,response,,,99,,,,,,Space,keypress(Space),,,,,---- -- ----- -- ------ - ------- --- ----------<br>------------- ------ ------ ---- ---- ------- ----- -- ----<br>-------- ------- -- ---------- --- - --- study ----- ----<br>---- --- --- ----- --- ---- ---- ------- ----- ---- -------<br>--- --- -- ----- -- --- ---- -- --- ---- -- ------ ------<br>--- ----- -- ----,50864.799999999814,50864,50421.56,50425.09999999963,50438.23,50871.648,,25,study
screen,html.Screen,0_2_0_1_26,2021-12-02T09:59:56.539Z,,,,,,,,,,,,,,,,53,,,,,,,,,,,,,,440.35199999999895,,response,,,99,,,,,,Space,keypress(Space),,,,,---- -- ----- -- ------ - ------- --- ----------<br>------------- ------ ------ ---- ---- ------- ----- -- ----<br>-------- ------- -- ---------- --- - --- ----- finds ----<br>---- --- --- ----- --- ---- ---- ------- ----- ---- -------<br>--- --- -- ----- -- --- ---- -- --- ---- -- ------ ------<br>--- ----- -- ----,51312.799999999814,51312,50854.978,50865.09999999963,50871.648,51321.835,,26,finds
screen,html.Screen,0_2_0_1_27,2021-12-02T09:59:56.891Z,,,,,,,,,,,,,,,,53,,,,,,,,,,,,,,342.1650000000009,,response,,,99,,,,,,Space,keypress(Space),,,,,---- -- ----- -- ------ - ------- --- ----------<br>------------- ------ ------ ---- ---- ------- ----- -- ----<br>-------- ------- -- ---------- --- - --- ----- ----- that<br>---- --- --- ----- --- ---- ---- ------- ----- ---- -------<br>--- --- -- ----- -- --- ---- -- --- ---- -- ------ ------<br>--- ----- -- ----,51664.700000000186,51664,51305.164,51313,51321.835,51671.9,,27,that
screen,html.Screen,0_2_0_1_28,2021-12-02T09:59:57.443Z,,,,,,,,,,,,,,,,53,,,,,,,,,,,,,,544.0999999999985,,response,,,99,,,,,,Space,keypress(Space),,,,,---- -- ----- -- ------ - ------- --- ----------<br>------------- ------ ------ ---- ---- ------- ----- -- ----<br>-------- ------- -- ---------- --- - --- ----- ----- ----<br>it's --- --- ----- --- ---- ---- ------- ----- ---- -------<br>--- --- -- ----- -- --- ---- -- --- ---- -- ------ ------<br>--- ----- -- ----,52216.700000000186,52216,51655.23,51665,51671.9,52222.037,,28,it's
screen,html.Screen,0_2_0_1_29,2021-12-02T09:59:57.843Z,,,,,,,,,,,,,,,,53,,,,,,,,,,,,,,393.8629999994446,,response,,,99,,,,,,Space,keypress(Space),,,,,---- -- ----- -- ------ - ------- --- ----------<br>------------- ------ ------ ---- ---- ------- ----- -- ----<br>-------- ------- -- ---------- --- - --- ----- ----- ----<br>---- not --- ----- --- ---- ---- ------- ----- ---- -------<br>--- --- -- ----- -- --- ---- -- --- ---- -- ------ ------<br>--- ----- -- ----,52616.700000000186,52615.89999999944,52205.367,52217,52222.037,52622.151,,29,not
screen,html.Screen,0_2_0_1_30,2021-12-02T09:59:58.267Z,,,,,,,,,,,,,,,,53,,,,,,,,,,,,,,417.849000000002,,response,,,99,,,,,,Space,keypress(Space),,,,,---- -- ----- -- ------ - ------- --- ----------<br>------------- ------ ------ ---- ---- ------- ----- -- ----<br>-------- ------- -- ---------- --- - --- ----- ----- ----<br>---- --- how ----- --- ---- ---- ------- ----- ---- -------<br>--- --- -- ----- -- --- ---- -- --- ---- -- ------ ------<br>--- ----- -- ----,53040.799999999814,53040,52605.481,52617.09999999963,52622.151,53055.579,,30,how
screen,html.Screen,0_2_0_1_31,2021-12-02T09:59:58.659Z,,,,,,,,,,,,,,,,53,,,,,,,,,,,,,,376.4210000000021,,response,,,99,,,,,,Space,keypress(Space),,,,,---- -- ----- -- ------ - ------- --- ----------<br>------------- ------ ------ ---- ---- ------- ----- -- ----<br>-------- ------- -- ---------- --- - --- ----- ----- ----<br>---- --- --- close --- ---- ---- ------- ----- ---- -------<br>--- --- -- ----- -- --- ---- -- --- ---- -- ------ ------<br>--- ----- -- ----,53432.700000000186,53432,53038.909,53041.09999999963,53055.579,53439.062,,31,close
screen,html.Screen,0_2_0_1_32,2021-12-02T09:59:59.035Z,,,,,,,,,,,,,,,,53,,,,,,,,,,,,,,368.8379999994431,,response,,,99,,,,,,Space,keypress(Space),,,,,---- -- ----- -- ------ - ------- --- ----------<br>------------- ------ ------ ---- ---- ------- ----- -- ----<br>-------- ------- -- ---------- --- - --- ----- ----- ----<br>---- --- --- ----- you ---- ---- ------- ----- ---- -------<br>--- --- -- ----- -- --- ---- -- --- ---- -- ------ ------<br>--- ----- -- ----,53808.700000000186,53807.89999999944,53422.391,53432.89999999944,53439.062,53822.454,,32,you
screen,html.Screen,0_2_0_1_33,2021-12-02T09:59:59.435Z,,,,,,,,,,,,,,,,53,,,,,,,,,,,,,,385.4459999994433,,response,,,99,,,,,,Space,keypress(Space),,,,,---- -- ----- -- ------ - ------- --- ----------<br>------------- ------ ------ ---- ---- ------- ----- -- ----<br>-------- ------- -- ---------- --- - --- ----- ----- ----<br>---- --- --- ----- --- feel ---- ------- ----- ---- -------<br>--- --- -- ----- -- --- ---- -- --- ---- -- ------ ------<br>--- ----- -- ----,54208.59999999963,54207.89999999944,53805.784,53808.89999999944,53822.454,54222.55,,33,feel
screen,html.Screen,0_2_0_1_34,2021-12-02T09:59:59.811Z,,,,,,,,,,,,,,,,53,,,,,,,,,,,,,,361.3499999994383,,response,,,99,,,,,,Space,keypress(Space),,,,,---- -- ----- -- ------ - ------- --- ----------<br>------------- ------ ------ ---- ---- ------- ----- -- ----<br>-------- ------- -- ---------- --- - --- ----- ----- ----<br>---- --- --- ----- --- ---- that ------- ----- ---- -------<br>--- --- -- ----- -- --- ---- -- --- ---- -- ------ ------<br>--- ----- -- ----,54584.700000000186,54583.89999999944,54205.88,54208.89999999944,54222.55,54589.384,,34,that
screen,html.Screen,0_2_0_1_35,2021-12-02T10:00:00.219Z,,,,,,,,,,,,,,,,53,,,,,,,,,,,,,,402.81600000018807,,response,,,99,,,,,,Space,keypress(Space),,,,,---- -- ----- -- ------ - ------- --- ----------<br>------------- ------ ------ ---- ---- ------- ----- -- ----<br>-------- ------- -- ---------- --- - --- ----- ----- ----<br>---- --- --- ----- --- ---- ---- matters ----- ---- -------<br>--- --- -- ----- -- --- ---- -- --- ---- -- ------ ------<br>--- ----- -- ----,54992.89999999944,54992.200000000186,54572.713,54584.89999999944,54589.384,55006.156,,35,matters
screen,html.Screen,0_2_0_1_36,2021-12-02T10:00:00.594Z,,,,,,,,,,,,,,,,53,,,,,,,,,,,,,,361.24399999943853,,response,,,99,,,,,,Space,keypress(Space),,,,,"---- -- ----- -- ------ - ------- --- ----------<br>------------- ------ ------ ---- ---- ------- ----- -- ----<br>-------- ------- -- ---------- --- - --- ----- ----- ----<br>---- --- --- ----- --- ---- ---- ------- most, ---- -------<br>--- --- -- ----- -- --- ---- -- --- ---- -- ------ ------<br>--- ----- -- ----",55367.799999999814,55367.39999999944,54989.485,54993.200000000186,55006.156,55372.863,,36,"most,"
screen,html.Screen,0_2_0_1_37,2021-12-02T10:00:01.018Z,,,,,,,,,,,,,,,,53,,,,,,,,,,,,,,418.63700000000244,,response,,,99,,,,,,Space,keypress(Space),,,,,---- -- ----- -- ------ - ------- --- ----------<br>------------- ------ ------ ---- ---- ------- ----- -- ----<br>-------- ------- -- ---------- --- - --- ----- ----- ----<br>---- --- --- ----- --- ---- ---- ------- ----- it's -------<br>--- --- -- ----- -- --- ---- -- --- ---- -- ------ ------<br>--- ----- -- ----,55791.89999999944,55791.5,55356.193,55367.799999999814,55372.863,55806.276,,37,it's
screen,html.Screen,0_2_0_1_38,2021-12-02T10:00:01.459Z,,,,,,,,,,,,,,,,53,,,,,,,,,,,,,,425.5239999998157,,response,,,99,,,,,,Space,keypress(Space),,,,,---- -- ----- -- ------ - ------- --- ----------<br>------------- ------ ------ ---- ---- ------- ----- -- ----<br>-------- ------- -- ---------- --- - --- ----- ----- ----<br>---- --- --- ----- --- ---- ---- ------- ----- ---- whether<br>--- --- -- ----- -- --- ---- -- --- ---- -- ------ ------<br>--- ----- -- ----,56232.59999999963,56231.799999999814,55789.606,55792,55806.276,56239.608,,38,whether
screen,html.Screen,0_2_0_1_39,2021-12-02T10:00:01.875Z,,,,,,,,,,,,,,,,53,,,,,,,,,,,,,,408.0920000001861,,response,,,99,,,,,,Space,keypress(Space),,,,,---- -- ----- -- ------ - ------- --- ----------<br>------------- ------ ------ ---- ---- ------- ----- -- ----<br>-------- ------- -- ---------- --- - --- ----- ----- ----<br>---- --- --- ----- --- ---- ---- ------- ----- ---- -------<br>you --- -- ----- -- --- ---- -- --- ---- -- ------ ------<br>--- ----- -- ----,56648.5,56647.700000000186,56222.94,56232.799999999814,56239.608,56656.601,,39,you
screen,html.Screen,0_2_0_1_40,2021-12-02T10:00:02.267Z,,,,,,,,,,,,,,,,53,,,,,,,,,,,,,,383.19899999981135,,response,,,99,,,,,,Space,keypress(Space),,,,,---- -- ----- -- ------ - ------- --- ----------<br>------------- ------ ------ ---- ---- ------- ----- -- ----<br>-------- ------- -- ---------- --- - --- ----- ----- ----<br>---- --- --- ----- --- ---- ---- ------- ----- ---- -------<br>--- are -- ----- -- --- ---- -- --- ---- -- ------ ------<br>--- ----- -- ----,57040.700000000186,57039.799999999814,56639.929,56648.799999999814,56656.601,57056.679,,40,are
screen,html.Screen,0_2_0_1_41,2021-12-02T10:00:02.643Z,,,,,,,,,,,,,,,,53,,,,,,,,,,,,,,359.0210000001898,,response,,,99,,,,,,Space,keypress(Space),,,,,---- -- ----- -- ------ - ------- --- ----------<br>------------- ------ ------ ---- ---- ------- ----- -- ----<br>-------- ------- -- ---------- --- - --- ----- ----- ----<br>---- --- --- ----- --- ---- ---- ------- ----- ---- -------<br>--- --- as ----- -- --- ---- -- --- ---- -- ------ ------<br>--- ----- -- ----,57416.39999999944,57415.700000000186,57040.008,57041,57056.679,57423.425,,41,as
screen,html.Screen,0_2_0_1_42,2021-12-02T10:00:02.979Z,,,,,,,,,,,,,,,,53,,,,,,,,,,,,,,328.27500000018335,,response,,,99,,,,,,Space,keypress(Space),,,,,---- -- ----- -- ------ - ------- --- ----------<br>------------- ------ ------ ---- ---- ------- ----- -- ----<br>-------- ------- -- ---------- --- - --- ----- ----- ----<br>---- --- --- ----- --- ---- ---- ------- ----- ---- -------<br>--- --- -- close -- --- ---- -- --- ---- -- ------ ------<br>--- ----- -- ----,57752.5,57751.700000000186,57406.755,57416.700000000186,57423.425,57756.825,,42,close
screen,html.Screen,0_2_0_1_43,2021-12-02T10:00:03.371Z,,,,,,,,,,,,,,,,53,,,,,,,,,,,,,,386.7749999996304,,response,,,99,,,,,,Space,keypress(Space),,,,,---- -- ----- -- ------ - ------- --- ----------<br>------------- ------ ------ ---- ---- ------- ----- -- ----<br>-------- ------- -- ---------- --- - --- ----- ----- ----<br>---- --- --- ----- --- ---- ---- ------- ----- ---- -------<br>--- --- -- ----- as --- ---- -- --- ---- -- ------ ------<br>--- ----- -- ----,58144.39999999944,58143.59999999963,57740.155,57752.700000000186,57756.825,58156.953,,43,as
screen,html.Screen,0_2_0_1_44,2021-12-02T10:00:03.683Z,,,,,,,,,,,,,,,,53,,,,,,,,,,,,,,298.7470000001849,,response,,,99,,,,,,Space,keypress(Space),,,,,---- -- ----- -- ------ - ------- --- ----------<br>------------- ------ ------ ---- ---- ------- ----- -- ----<br>-------- ------- -- ---------- --- - --- ----- ----- ----<br>---- --- --- ----- --- ---- ---- ------- ----- ---- -------<br>--- --- -- ----- -- you ---- -- --- ---- -- ------ ------<br>--- ----- -- ----,58456.39999999944,58455.700000000186,58140.283,58144.700000000186,58156.953,58473.737,,44,you
screen,html.Screen,0_2_0_1_45,2021-12-02T10:00:04.003Z,,,,,,,,,,,,,,,,53,,,,,,,,,,,,,,301.8629999996265,,response,,,99,,,,,,Space,keypress(Space),,,,,---- -- ----- -- ------ - ------- --- ----------<br>------------- ------ ------ ---- ---- ------- ----- -- ----<br>-------- ------- -- ---------- --- - --- ----- ----- ----<br>---- --- --- ----- --- ---- ---- ------- ----- ---- -------<br>--- --- -- ----- -- --- want -- --- ---- -- ------ ------<br>--- ----- -- ----,58776.299999999814,58775.59999999963,58457.066,58456.700000000186,58473.737,58790.462,,45,want
screen,html.Screen,0_2_0_1_46,2021-12-02T10:00:04.323Z,,,,,,,,,,,,,,,,53,,,,,,,,,,,,,,305.13799999962794,,response,,,99,,,,,,Space,keypress(Space),,,,,---- -- ----- -- ------ - ------- --- ----------<br>------------- ------ ------ ---- ---- ------- ----- -- ----<br>-------- ------- -- ---------- --- - --- ----- ----- ----<br>---- --- --- ----- --- ---- ---- ------- ----- ---- -------<br>--- --- -- ----- -- --- ---- to --- ---- -- ------ ------<br>--- ----- -- ----,59096.39999999944,59095.59999999963,58773.792,58776.59999999963,58790.462,59107.201,,46,to
screen,html.Screen,0_2_0_1_47,2021-12-02T10:00:04.675Z,,,,,,,,,,,,,,,,53,,,,,,,,,,,,,,340.49900000018533,,response,,,99,,,,,,Space,keypress(Space),,,,,"---- -- ----- -- ------ - ------- --- ----------<br>------------- ------ ------ ---- ---- ------- ----- -- ----<br>-------- ------- -- ---------- --- - --- ----- ----- ----<br>---- --- --- ----- --- ---- ---- ------- ----- ---- -------<br>--- --- -- ----- -- --- ---- -- be, ---- -- ------ ------<br>--- ----- -- ----",59448.39999999944,59447.700000000186,59090.531,59096.59999999963,59107.201,59457.289,,47,"be,"
screen,html.Screen,0_2_0_1_48,2021-12-02T10:00:05.003Z,,,,,,,,,,,,,,,,53,,,,,,,,,,,,,,318.31099999963044,,response,,,99,,,,,,Space,keypress(Space),,,,,---- -- ----- -- ------ - ------- --- ----------<br>------------- ------ ------ ---- ---- ------- ----- -- ----<br>-------- ------- -- ---------- --- - --- ----- ----- ----<br>---- --- --- ----- --- ---- ---- ------- ----- ---- -------<br>--- --- -- ----- -- --- ---- -- --- even -- ------ ------<br>--- ----- -- ----,59776.5,59775.59999999963,59440.619,59448.700000000186,59457.289,59790.757,,48,even
screen,html.Screen,0_2_0_1_49,2021-12-02T10:00:05.373Z,,,,,,,,,,,,,,,,53,,,,,,,,,,,,,,352.8429999996297,,response,,,99,,,,,,Space,keypress(Space),,,,,---- -- ----- -- ------ - ------- --- ----------<br>------------- ------ ------ ---- ---- ------- ----- -- ----<br>-------- ------- -- ---------- --- - --- ----- ----- ----<br>---- --- --- ----- --- ---- ---- ------- ----- ---- -------<br>--- --- -- ----- -- --- ---- -- --- ---- if ------ ------<br>--- ----- -- ----,60144.39999999944,60143.59999999963,59774.086,59776.700000000186,59790.757,60157.488,,49,if
screen,html.Screen,0_2_0_1_50,2021-12-02T10:00:05.709Z,,,,,,,,,,,,,,,,53,,,,,,,,,,,,,,322.1119999996299,,response,,,99,,,,,,Space,keypress(Space),,,,,---- -- ----- -- ------ - ------- --- ----------<br>------------- ------ ------ ---- ---- ------- ----- -- ----<br>-------- ------- -- ---------- --- - --- ----- ----- ----<br>---- --- --- ----- --- ---- ---- ------- ----- ---- -------<br>--- --- -- ----- -- --- ---- -- --- ---- -- that's ------<br>--- ----- -- ----,60480.39999999944,60479.59999999963,60140.818,60144.59999999963,60157.488,60490.893,,50,that's
screen,html.Screen,0_2_0_1_51,2021-12-02T10:00:06.085Z,,,,,,,,,,,,,,,,53,,,,,,,,,,,,,,364.7069999996311,,response,,,99,,,,,,Space,keypress(Space),,,,,---- -- ----- -- ------ - ------- --- ----------<br>------------- ------ ------ ---- ---- ------- ----- -- ----<br>-------- ------- -- ---------- --- - --- ----- ----- ----<br>---- --- --- ----- --- ---- ---- ------- ----- ---- -------<br>--- --- -- ----- -- --- ---- -- --- ---- -- ------ really<br>--- ----- -- ----,60856.299999999814,60855.59999999963,60474.223,60480.5,60490.893,60857.667,,51,really
screen,html.Screen,0_2_0_1_52,2021-12-02T10:00:06.525Z,,,,,,,,,,,,,,,,53,,,,,,,,,,,,,,437.9329999996262,,response,,,99,,,,,,Space,keypress(Space),,,,,---- -- ----- -- ------ - ------- --- ----------<br>------------- ------ ------ ---- ---- ------- ----- -- ----<br>-------- ------- -- ---------- --- - --- ----- ----- ----<br>---- --- --- ----- --- ---- ---- ------- ----- ---- -------<br>--- --- -- ----- -- --- ---- -- --- ---- -- ------ ------<br>not ----- -- ----,61296.200000000186,61295.59999999963,60840.997,60856.59999999963,60857.667,61307.824,,52,not
screen,html.Screen,0_2_0_1_53,2021-12-02T10:00:06.909Z,,,,,,,,,,,,,,,,53,,,,,,,,,,,,,,371.77599999962695,,response,,,99,,,,,,Space,keypress(Space),,,,,---- -- ----- -- ------ - ------- --- ----------<br>------------- ------ ------ ---- ---- ------- ----- -- ----<br>-------- ------- -- ---------- --- - --- ----- ----- ----<br>---- --- --- ----- --- ---- ---- ------- ----- ---- -------<br>--- --- -- ----- -- --- ---- -- --- ---- -- ------ ------<br>--- close -- ----,61680.299999999814,61679.59999999963,61291.153,61296.5,61307.824,61691.19,,53,close
screen,html.Screen,0_2_0_1_54,2021-12-02T10:00:07.285Z,,,,,,,,,,,,,,,,53,,,,,,,,,,,,,,364.3099999999977,,response,,,99,,,,,,Space,keypress(Space),,,,,---- -- ----- -- ------ - ------- --- ----------<br>------------- ------ ------ ---- ---- ------- ----- -- ----<br>-------- ------- -- ---------- --- - --- ----- ----- ----<br>---- --- --- ----- --- ---- ---- ------- ----- ---- -------<br>--- --- -- ----- -- --- ---- -- --- ---- -- ------ ------<br>--- ----- at ----,62056.200000000186,62055.5,61674.52,61680.59999999963,61691.19,62058.032,,54,at
screen,html.Screen,0_2_0_1_55,2021-12-02T10:00:07.717Z,,,,,,,,,,,,,,,,53,,,,,,,,,,,,,,429.5679999996282,,response,,,99,,,,,,Space,keypress(Space),,,,,---- -- ----- -- ------ - ------- --- ----------<br>------------- ------ ------ ---- ---- ------- ----- -- ----<br>-------- ------- -- ---------- --- - --- ----- ----- ----<br>---- --- --- ----- --- ---- ---- ------- ----- ---- -------<br>--- --- -- ----- -- --- ---- -- --- ---- -- ------ ------<br>--- ----- -- all.,62488.299999999814,62487.59999999963,62041.361,62056.5,62058.032,62508.089,,55,all.
Item 99,flow.Loop,0_2_0_1,2021-12-02T10:00:07.721Z,,,,,,,,,,,,,,,,,,,,,,,,,,,,,,28770.763999999625,,completion,,,,E,,,,,,,,,,silence,,62492.700000000186,62487.59999999963,33700.167,33706.89999999944,33716.836,62508.089,,,
Question 1,html.Screen,0_2_0_2,2021-12-02T10:00:13.181Z,,,,,,,,,,,,,,,,,,,,,,,,,,,true,FALSE,,5443.0109999996275,,response,,,99,E,,,,,FALSE,click #choice-2,,,,silence,,67952.5,67951.09999999963,62491.419,62492.89999999944,62508.089,67959.513,,,
Question 2,html.Screen,0_2_0_3,2021-12-02T10:00:20.845Z,,,,,,,,,,,,,,,,,,,,,,,,,,,true,TRUE,,7655.18700000018,,response,,,99,E,,,,,TRUE,click #choice-1,,,,silence,,75616,75614.70000000019,67942.843,67952.89999999944,67959.513,75628.163,,,
Item 99,flow.Sequence,0_2_0,2021-12-02T10:00:20.845Z,,,,,,,,,,,,,,,,,,,,,,,,,,,,,,51900.20800000019,,completion,,,,,,,,,,,,,,,,75616.5,75614.70000000019,23697.819,23699.299999999814,23714.492,75628.163,,,
Holding screen,html.Screen,0_2_1_0,2021-12-02T10:00:30.844Z,,,,,,,,,,,,,,,,,,,,,,,,,,,,,,10002.600999999995,,timeout,,,,,,,,,,,,,,,,85615.59999999963,85614.094,75611.494,75616.89999999944,75628.163,85630.764,,,
screen,html.Screen,0_2_1_1_0,2021-12-02T10:00:31.710Z,,,,,,,,,,,,,,,,54,,,,,,,,,,,,,,848.1359999994456,,response,,,100,,,,,,Space,keypress(Space),,,,,At --- ---- --- ------ ----- ------- ---- -- --- ------- --<br>------- ---------- ------ -- ----- -- ----- -- ---- ------<br>--- ----- --- --- ------ -------- ----- --- ------ ----- --<br>----- ----- ---------- --- --- ------ ------ ---- -- ------<br>------- --- ------ ----- --- ---- ------- -- ---- --- --<br>------- ------,86480.89999999944,86478.89999999944,85614.094,85616,85630.764,86497.845,,0,At
screen,html.Screen,0_2_1_1_1,2021-12-02T10:00:32.284Z,,,,,,,,,,,,,,,,54,,,,,,,,,,,,,,556.55499999944,,response,,,100,,,,,,Space,keypress(Space),,,,,-- the ---- --- ------ ----- ------- ---- -- --- ------- --<br>------- ---------- ------ -- ----- -- ----- -- ---- ------<br>--- ----- --- --- ------ -------- ----- --- ------ ----- --<br>----- ----- ---------- --- --- ------ ------ ---- -- ------<br>------- --- ------ ----- --- ---- ------- -- ---- --- --<br>------- ------,87055.29999999981,87054.39999999944,86481.174,86481.29999999981,86497.845,87064.536,,1,the
screen,html.Screen,0_2_1_1_2,2021-12-02T10:00:32.764Z,,,,,,,,,,,,,,,,54,,,,,,,,,,,,,,469.8639999994484,,response,,,100,,,,,,Space,keypress(Space),,,,,-- --- time --- ------ ----- ------- ---- -- --- ------- --<br>------- ---------- ------ -- ----- -- ----- -- ---- ------<br>--- ----- --- --- ------ -------- ----- --- ------ ----- --<br>----- ----- ---------- --- --- ------ ------ ---- -- ------<br>------- --- ------ ----- --- ---- ------- -- ---- --- --<br>------- ------,87535.09999999963,87534.39999999944,87047.866,87055.5,87064.536,87548.193,,2,time
screen,html.Screen,0_2_1_1_3,2021-12-02T10:00:33.196Z,,,,,,,,,,,,,,,,54,,,,,,,,,,,,,,418.2069999994419,,response,,,100,,,,,,Space,keypress(Space),,,,,-- --- ---- the ------ ----- ------- ---- -- --- ------- --<br>------- ---------- ------ -- ----- -- ----- -- ---- ------<br>--- ----- --- --- ------ -------- ----- --- ------ ----- --<br>----- ----- ---------- --- --- ------ ------ ---- -- ------<br>------- --- ------ ----- --- ---- ------- -- ---- --- --<br>------- ------,87967.09999999963,87966.39999999944,87531.521,87535.39999999944,87548.193,87981.536,,3,the
screen,html.Screen,0_2_1_1_4,2021-12-02T10:00:33.676Z,,,,,,,,,,,,,,,,54,,,,,,,,,,,,,,464.76399999982095,,response,,,100,,,,,,Space,keypress(Space),,,,,-- --- ---- --- French ----- ------- ---- -- --- ------- --<br>------- ---------- ------ -- ----- -- ----- -- ---- ------<br>--- ----- --- --- ------ -------- ----- --- ------ ----- --<br>----- ----- ---------- --- --- ------ ------ ---- -- ------<br>------- --- ------ ----- --- ---- ------- -- ---- --- --<br>------- ------,88447.09999999963,88446.29999999981,87964.866,87967.29999999981,87981.536,88448.382,,4,French
screen,html.Screen,0_2_1_1_5,2021-12-02T10:00:34.108Z,,,,,,,,,,,,,,,,54,,,,,,,,,,,,,,429.91799999981595,,response,,,100,,,,,,Space,keypress(Space),,,,,-- --- ---- --- ------ crown ------- ---- -- --- ------- --<br>------- ---------- ------ -- ----- -- ----- -- ---- ------<br>--- ----- --- --- ------ -------- ----- --- ------ ----- --<br>----- ----- ---------- --- --- ------ ------ ---- -- ------<br>------- --- ------ ----- --- ---- ------- -- ---- --- --<br>------- ------,88879.09999999963,88878.29999999981,88431.711,88447.29999999981,88448.382,88881.785,,5,crown
screen,html.Screen,0_2_1_1_6,2021-12-02T10:00:34.604Z,,,,,,,,,,,,,,,,54,,,,,,,,,,,,,,492.51499999981024,,response,,,100,,,,,,Space,keypress(Space),,,,,-- --- ---- --- ------ ----- secured ---- -- --- ------- --<br>------- ---------- ------ -- ----- -- ----- -- ---- ------<br>--- ----- --- --- ------ -------- ----- --- ------ ----- --<br>----- ----- ---------- --- --- ------ ------ ---- -- ------<br>------- --- ------ ----- --- ---- ------- -- ---- --- --<br>------- ------,89375.09999999963,89374.29999999981,88865.115,88879.39999999944,88881.785,89381.907,,6,secured
screen,html.Screen,0_2_1_1_7,2021-12-02T10:00:35.324Z,,,,,,,,,,,,,,,,54,,,,,,,,,,,,,,712.3929999998072,,response,,,100,,,,,,Space,keypress(Space),,,,,-- --- ---- --- ------ ----- ------- much -- --- ------- --<br>------- ---------- ------ -- ----- -- ----- -- ---- ------<br>--- ----- --- --- ------ -------- ----- --- ------ ----- --<br>----- ----- ---------- --- --- ------ ------ ---- -- ------<br>------- --- ------ ----- --- ---- ------- -- ---- --- --<br>------- ------,90095,90094.29999999981,89365.237,89375.39999999944,89381.907,90098.722,,7,much
screen,html.Screen,0_2_1_1_8,2021-12-02T10:00:35.828Z,,,,,,,,,,,,,,,,54,,,,,,,,,,,,,,499.47800000019197,,response,,,100,,,,,,Space,keypress(Space),,,,,-- --- ---- --- ------ ----- ------- ---- of --- ------- --<br>------- ---------- ------ -- ----- -- ----- -- ---- ------<br>--- ----- --- --- ------ -------- ----- --- ------ ----- --<br>----- ----- ---------- --- --- ------ ------ ---- -- ------<br>------- --- ------ ----- --- ---- ------- -- ---- --- --<br>------- ------,90599,90598.20000000019,90082.052,90095.29999999981,90098.722,90615.572,,8,of
screen,html.Screen,0_2_1_1_9,2021-12-02T10:00:36.236Z,,,,,,,,,,,,,,,,54,,,,,,,,,,,,,,390.62800000018615,,response,,,100,,,,,,Space,keypress(Space),,,,,-- --- ---- --- ------ ----- ------- ---- -- its ------- --<br>------- ---------- ------ -- ----- -- ----- -- ---- ------<br>--- ----- --- --- ------ -------- ----- --- ------ ----- --<br>----- ----- ---------- --- --- ------ ------ ---- -- ------<br>------- --- ------ ----- --- ---- ------- -- ---- --- --<br>------- ------,91007,91006.20000000019,90598.902,90599.20000000019,90615.572,91015.668,,9,its
screen,html.Screen,0_2_1_1_10,2021-12-02T10:00:36.596Z,,,,,,,,,,,,,,,,54,,,,,,,,,,,,,,350.53200000018114,,response,,,100,,,,,,Space,keypress(Space),,,,,-- --- ---- --- ------ ----- ------- ---- -- --- revenue --<br>------- ---------- ------ -- ----- -- ----- -- ---- ------<br>--- ----- --- --- ------ -------- ----- --- ------ ----- --<br>----- ----- ---------- --- --- ------ ------ ---- -- ------<br>------- --- ------ ----- --- ---- ------- -- ---- --- --<br>------- ------,91366.89999999944,91366.20000000019,90998.998,91007.20000000019,91015.668,91382.474,,10,revenue
screen,html.Screen,0_2_1_1_11,2021-12-02T10:00:37.020Z,,,,,,,,,,,,,,,,54,,,,,,,,,,,,,,407.7260000001843,,response,,,100,,,,,,Space,keypress(Space),,,,,-- --- ---- --- ------ ----- ------- ---- -- --- ------- by<br>------- ---------- ------ -- ----- -- ----- -- ---- ------<br>--- ----- --- --- ------ -------- ----- --- ------ ----- --<br>----- ----- ---------- --- --- ------ ------ ---- -- ------<br>------- --- ------ ----- --- ---- ------- -- ---- --- --<br>------- ------,91791,91790.20000000019,91365.803,91367.09999999963,91382.474,91799.225,,11,by
screen,html.Screen,0_2_1_1_12,2021-12-02T10:00:37.668Z,,,,,,,,,,,,,,,,54,,,,,,,,,,,,,,638.8749999996217,,response,,,100,,,,,,Space,keypress(Space),,,,,-- --- ---- --- ------ ----- ------- ---- -- --- ------- --<br>issuing ---------- ------ -- ----- -- ----- -- ---- ------<br>--- ----- --- --- ------ -------- ----- --- ------ ----- --<br>----- ----- ---------- --- --- ------ ------ ---- -- ------<br>------- --- ------ ----- --- ---- ------- -- ---- --- --<br>------- ------,92439,92438.09999999963,91782.555,91791.09999999963,91799.225,92449.36,,12,issuing
screen,html.Screen,0_2_1_1_13,2021-12-02T10:00:38.156Z,,,,,,,,,,,,,,,,54,,,,,,,,,,,,,,476.7399999996269,,response,,,100,,,,,,Space,keypress(Space),,,,,-- --- ---- --- ------ ----- ------- ---- -- --- ------- --<br>------- government ------ -- ----- -- ----- -- ---- ------<br>--- ----- --- --- ------ -------- ----- --- ------ ----- --<br>----- ----- ---------- --- --- ------ ------ ---- -- ------<br>------- --- ------ ----- --- ---- ------- -- ---- --- --<br>------- ------,92926.89999999944,92926.09999999963,92432.69,92439.20000000019,92449.36,92932.754,,13,government
screen,html.Screen,0_2_1_1_14,2021-12-02T10:00:38.700Z,,,,,,,,,,,,,,,,54,,,,,,,,,,,,,,537.3459999996267,,response,,,100,,,,,,Space,keypress(Space),,,,,-- --- ---- --- ------ ----- ------- ---- -- --- ------- --<br>------- ---------- bonds. -- ----- -- ----- -- ---- ------<br>--- ----- --- --- ------ -------- ----- --- ------ ----- --<br>----- ----- ---------- --- --- ------ ------ ---- -- ------<br>------- --- ------ ----- --- ---- ------- -- ---- --- --<br>------- ------,93470.89999999944,93470.09999999963,92916.085,92927.09999999963,92932.754,93483.043,,14,bonds.
screen,html.Screen,0_2_1_1_15,2021-12-02T10:00:39.316Z,,,,,,,,,,,,,,,,54,,,,,,,,,,,,,,603.0569999996223,,response,,,100,,,,,,Space,keypress(Space),,,,,-- --- ---- --- ------ ----- ------- ---- -- --- ------- --<br>------- ---------- ------ In ----- -- ----- -- ---- ------<br>--- ----- --- --- ------ -------- ----- --- ------ ----- --<br>----- ----- ---------- --- --- ------ ------ ---- -- ------<br>------- --- ------ ----- --- ---- ------- -- ---- --- --<br>------- ------,94086.89999999944,94086.09999999963,93466.372,93471.09999999963,93483.043,94099.698,,15,In
screen,html.Screen,0_2_1_1_16,2021-12-02T10:00:40.180Z,,,,,,,,,,,,,,,,54,,,,,,,,,,,,,,850.4019999996235,,response,,,100,,,,,,Space,keypress(Space),,,,,"-- --- ---- --- ------ ----- ------- ---- -- --- ------- --<br>------- ---------- ------ -- 1727, -- ----- -- ---- ------<br>--- ----- --- --- ------ -------- ----- --- ------ ----- --<br>----- ----- ---------- --- --- ------ ------ ---- -- ------<br>------- --- ------ ----- --- ---- ------- -- ---- --- --<br>------- ------",94950.79999999981,94950.09999999963,94083.029,94087,94099.698,94966.868,,16,"1727,"
screen,html.Screen,0_2_1_1_17,2021-12-02T10:00:40.684Z,,,,,,,,,,,,,,,,54,,,,,,,,,,,,,,487.1319999999978,,response,,,100,,,,,,Space,keypress(Space),,,,,-- --- ---- --- ------ ----- ------- ---- -- --- ------- --<br>------- ---------- ------ -- ----- in ----- -- ---- ------<br>--- ----- --- --- ------ -------- ----- --- ------ ----- --<br>----- ----- ---------- --- --- ------ ------ ---- -- ------<br>------- --- ------ ----- --- ---- ------- -- ---- --- --<br>------- ------,95454.79999999981,95454,94950.196,94951,94966.868,95466.84,,17,in
screen,html.Screen,0_2_1_1_18,2021-12-02T10:00:41.812Z,,,,,,,,,,,,,,,,54,,,,,,,,,,,,,,1115.5599999994447,,response,,,100,,,,,,Space,keypress(Space),,,,,-- --- ---- --- ------ ----- ------- ---- -- --- ------- --<br>------- ---------- ------ -- ----- -- order -- ---- ------<br>--- ----- --- --- ------ -------- ----- --- ------ ----- --<br>----- ----- ---------- --- --- ------ ------ ---- -- ------<br>------- --- ------ ----- --- ---- ------- -- ---- --- --<br>------- ------,96583.20000000019,96582.39999999944,95450.17,95455,95466.84,96600.454,,18,order
screen,html.Screen,0_2_1_1_19,2021-12-02T10:00:42.380Z,,,,,,,,,,,,,,,,54,,,,,,,,,,,,,,549.4459999994433,,response,,,100,,,,,,Space,keypress(Space),,,,,-- --- ---- --- ------ ----- ------- ---- -- --- ------- --<br>------- ---------- ------ -- ----- -- ----- to ---- ------<br>--- ----- --- --- ------ -------- ----- --- ------ ----- --<br>----- ----- ---------- --- --- ------ ------ ---- -- ------<br>------- --- ------ ----- --- ---- ------- -- ---- --- --<br>------- ------,97150.79999999981,97149.89999999944,96583.784,96583.39999999944,96600.454,97167.305,,19,to
screen,html.Screen,0_2_1_1_20,2021-12-02T10:00:42.844Z,,,,,,,,,,,,,,,,54,,,,,,,,,,,,,,446.5949999994482,,response,,,100,,,,,,Space,keypress(Space),,,,,-- --- ---- --- ------ ----- ------- ---- -- --- ------- --<br>------- ---------- ------ -- ----- -- ----- -- save ------<br>--- ----- --- --- ------ -------- ----- --- ------ ----- --<br>----- ----- ---------- --- --- ------ ------ ---- -- ------<br>------- --- ------ ----- --- ---- ------- -- ---- --- --<br>------- ------,97614.70000000019,97613.89999999944,97150.635,97151.09999999963,97167.305,97617.357,,20,save
screen,html.Screen,0_2_1_1_21,2021-12-02T10:00:43.299Z,,,,,,,,,,,,,,,,54,,,,,,,,,,,,,,452.5429999994376,,response,,,100,,,,,,Space,keypress(Space),,,,,"-- --- ---- --- ------ ----- ------- ---- -- --- ------- --<br>------- ---------- ------ -- ----- -- ----- -- ---- money,<br>--- ----- --- --- ------ -------- ----- --- ------ ----- --<br>----- ----- ---------- --- --- ------ ------ ---- -- ------<br>------- --- ------ ----- --- ---- ------- -- ---- --- --<br>------- ------",98070.70000000019,98069.89999999944,97600.687,97615.09999999963,97617.357,98084.218,,21,"money,"
screen,html.Screen,0_2_1_1_22,2021-12-02T10:00:43.723Z,,,,,,,,,,,,,,,,54,,,,,,,,,,,,,,409.58199999982025,,response,,,100,,,,,,Space,keypress(Space),,,,,-- --- ---- --- ------ ----- ------- ---- -- --- ------- --<br>------- ---------- ------ -- ----- -- ----- -- ---- ------<br>the ----- --- --- ------ -------- ----- --- ------ ----- --<br>----- ----- ---------- --- --- ------ ------ ---- -- ------<br>------- --- ------ ----- --- ---- ------- -- ---- --- --<br>------- ------,98494.79999999981,98493.79999999981,98067.547,98071,98084.218,98501.096,,22,the
screen,html.Screen,0_2_1_1_23,2021-12-02T10:00:44.132Z,,,,,,,,,,,,,,,,54,,,,,,,,,,,,,,400.70399999980873,,response,,,100,,,,,,Space,keypress(Space),,,,,-- --- ---- --- ------ ----- ------- ---- -- --- ------- --<br>------- ---------- ------ -- ----- -- ----- -- ---- ------<br>--- state --- --- ------ -------- ----- --- ------ ----- --<br>----- ----- ---------- --- --- ------ ------ ---- -- ------<br>------- --- ------ ----- --- ---- ------- -- ---- --- --<br>------- ------,98902.70000000019,98901.79999999981,98484.424,98495.09999999963,98501.096,98917.77,,23,state
screen,html.Screen,0_2_1_1_24,2021-12-02T10:00:44.539Z,,,,,,,,,,,,,,,,54,,,,,,,,,,,,,,392.12999999943713,,response,,,100,,,,,,Space,keypress(Space),,,,,-- --- ---- --- ------ ----- ------- ---- -- --- ------- --<br>------- ---------- ------ -- ----- -- ----- -- ---- ------<br>--- ----- cut --- ------ -------- ----- --- ------ ----- --<br>----- ----- ---------- --- --- ------ ------ ---- -- ------<br>------- --- ------ ----- --- ---- ------- -- ---- --- --<br>------- ------,99310.70000000019,99309.89999999944,98901.1,98903,98917.77,99317.926,,24,cut
screen,html.Screen,0_2_1_1_25,2021-12-02T10:00:44.971Z,,,,,,,,,,,,,,,,54,,,,,,,,,,,,,,423.873999999807,,response,,,100,,,,,,Space,keypress(Space),,,,,-- --- ---- --- ------ ----- ------- ---- -- --- ------- --<br>------- ---------- ------ -- ----- -- ----- -- ---- ------<br>--- ----- --- the ------ -------- ----- --- ------ ----- --<br>----- ----- ---------- --- --- ------ ------ ---- -- ------<br>------- --- ------ ----- --- ---- ------- -- ---- --- --<br>------- ------,99742.59999999963,99741.79999999981,99301.255,99311,99317.926,99751.329,,25,the
screen,html.Screen,0_2_1_1_26,2021-12-02T10:00:45.395Z,,,,,,,,,,,,,,,,54,,,,,,,,,,,,,,414.37100000018836,,response,,,100,,,,,,Space,keypress(Space),,,,,-- --- ---- --- ------ ----- ------- ---- -- --- ------- --<br>------- ---------- ------ -- ----- -- ----- -- ---- ------<br>--- ----- --- --- bonds' -------- ----- --- ------ ----- --<br>----- ----- ---------- --- --- ------ ------ ---- -- ------<br>------- --- ------ ----- --- ---- ------- -- ---- --- --<br>------- ------,100166.39999999944,100165.70000000019,99734.659,99742.89999999944,99751.329,100168.092,,26,bonds'
screen,html.Screen,0_2_1_1_27,2021-12-02T10:00:45.827Z,,,,,,,,,,,,,,,,54,,,,,,,,,,,,,,429.70799999980954,,response,,,100,,,,,,Space,keypress(Space),,,,,-- --- ---- --- ------ ----- ------- ---- -- --- ------- --<br>------- ---------- ------ -- ----- -- ----- -- ---- ------<br>--- ----- --- --- ------ interest ----- --- ------ ----- --<br>----- ----- ---------- --- --- ------ ------ ---- -- ------<br>------- --- ------ ----- --- ---- ------- -- ---- --- --<br>------- ------,100598.5,100597.79999999981,100151.422,100166.70000000019,100168.092,100601.565,,27,interest
screen,html.Screen,0_2_1_1_28,2021-12-02T10:00:46.323Z,,,,,,,,,,,,,,,,54,,,,,,,,,,,,,,492.13500000018394,,response,,,100,,,,,,Space,keypress(Space),,,,,-- --- ---- --- ------ ----- ------- ---- -- --- ------- --<br>------- ---------- ------ -- ----- -- ----- -- ---- ------<br>--- ----- --- --- ------ -------- rate. --- ------ ----- --<br>----- ----- ---------- --- --- ------ ------ ---- -- ------<br>------- --- ------ ----- --- ---- ------- -- ---- --- --<br>------- ------,101094.39999999944,101093.70000000019,100584.895,100598.70000000019,100601.565,101101.694,,28,rate.
screen,html.Screen,0_2_1_1_29,2021-12-02T10:00:46.931Z,,,,,,,,,,,,,,,,54,,,,,,,,,,,,,,600.0060000001831,,response,,,100,,,,,,Space,keypress(Space),,,,,-- --- ---- --- ------ ----- ------- ---- -- --- ------- --<br>------- ---------- ------ -- ----- -- ----- -- ---- ------<br>--- ----- --- --- ------ -------- ----- The ------ ----- --<br>----- ----- ---------- --- --- ------ ------ ---- -- ------<br>------- --- ------ ----- --- ---- ------- -- ---- --- --<br>------- ------,101702.5,101701.70000000019,101085.024,101094.70000000019,101101.694,101718.492,,29,The
screen,html.Screen,0_2_1_1_30,2021-12-02T10:00:47.451Z,,,,,,,,,,,,,,,,54,,,,,,,,,,,,,,503.2080000001879,,response,,,100,,,,,,Space,keypress(Space),,,,,-- --- ---- --- ------ ----- ------- ---- -- --- ------- --<br>------- ---------- ------ -- ----- -- ----- -- ---- ------<br>--- ----- --- --- ------ -------- ----- --- market ----- --<br>----- ----- ---------- --- --- ------ ------ ---- -- ------<br>------- --- ------ ----- --- ---- ------- -- ---- --- --<br>------- ------,102222.39999999944,102221.70000000019,101701.822,101702.70000000019,101718.492,102235.29,,30,market
screen,html.Screen,0_2_1_1_31,2021-12-02T10:00:47.891Z,,,,,,,,,,,,,,,,54,,,,,,,,,,,,,,426.41000000019267,,response,,,100,,,,,,Space,keypress(Space),,,,,-- --- ---- --- ------ ----- ------- ---- -- --- ------- --<br>------- ---------- ------ -- ----- -- ----- -- ---- ------<br>--- ----- --- --- ------ -------- ----- --- ------ value --<br>----- ----- ---------- --- --- ------ ------ ---- -- ------<br>------- --- ------ ----- --- ---- ------- -- ---- --- --<br>------- ------,102662.39999999944,102661.70000000019,102218.62,102222.70000000019,102235.29,102668.776,,31,value
screen,html.Screen,0_2_1_1_32,2021-12-02T10:00:48.339Z,,,,,,,,,,,,,,,,54,,,,,,,,,,,,,,440.92400000018824,,response,,,100,,,,,,Space,keypress(Space),,,,,-- --- ---- --- ------ ----- ------- ---- -- --- ------- --<br>------- ---------- ------ -- ----- -- ----- -- ---- ------<br>--- ----- --- --- ------ -------- ----- --- ------ ----- of<br>----- ----- ---------- --- --- ------ ------ ---- -- ------<br>------- --- ------ ----- --- ---- ------- -- ---- --- --<br>------- ------,103110.5,103109.70000000019,102652.106,102662.79999999981,102668.776,103118.941,,32,of
screen,html.Screen,0_2_1_1_33,2021-12-02T10:00:48.803Z,,,,,,,,,,,,,,,,54,,,,,,,,,,,,,,454.6589999996213,,response,,,100,,,,,,Space,keypress(Space),,,,,-- --- ---- --- ------ ----- ------- ---- -- --- ------- --<br>------- ---------- ------ -- ----- -- ----- -- ---- ------<br>--- ----- --- --- ------ -------- ----- --- ------ ----- --<br>these ----- ---------- --- --- ------ ------ ---- -- ------<br>------- --- ------ ----- --- ---- ------- -- ---- --- --<br>------- ------,103574.39999999944,103573.59999999963,103102.27,103110.79999999981,103118.941,103585.668,,33,these
screen,html.Screen,0_2_1_1_34,2021-12-02T10:00:49.179Z,,,,,,,,,,,,,,,,54,,,,,,,,,,,,,,363.93199999962235,,response,,,100,,,,,,Space,keypress(Space),,,,,-- --- ---- --- ------ ----- ------- ---- -- --- ------- --<br>------- ---------- ------ -- ----- -- ----- -- ---- ------<br>--- ----- --- --- ------ -------- ----- --- ------ ----- --<br>----- bonds ---------- --- --- ------ ------ ---- -- ------<br>------- --- ------ ----- --- ---- ------- -- ---- --- --<br>------- ------,103950.39999999944,103949.59999999963,103568.998,103574.59999999963,103585.668,103952.452,,34,bonds
screen,html.Screen,0_2_1_1_35,2021-12-02T10:00:49.643Z,,,,,,,,,,,,,,,,54,,,,,,,,,,,,,,461.1479999996227,,response,,,100,,,,,,Space,keypress(Space),,,,,"-- --- ---- --- ------ ----- ------- ---- -- --- ------- --<br>------- ---------- ------ -- ----- -- ----- -- ---- ------<br>--- ----- --- --- ------ -------- ----- --- ------ ----- --<br>----- ----- plummeted, --- --- ------ ------ ---- -- ------<br>------- --- ------ ----- --- ---- ------- -- ---- --- --<br>------- ------",104414.29999999981,104413.59999999963,103935.782,103950.70000000019,103952.452,104419.286,,35,"plummeted,"
screen,html.Screen,0_2_1_1_36,2021-12-02T10:00:50.163Z,,,,,,,,,,,,,,,,54,,,,,,,,,,,,,,514.3139999996347,,response,,,100,,,,,,Space,keypress(Space),,,,,-- --- ---- --- ------ ----- ------- ---- -- --- ------- --<br>------- ---------- ------ -- ----- -- ----- -- ---- ------<br>--- ----- --- --- ------ -------- ----- --- ------ ----- --<br>----- ----- ---------- and --- ------ ------ ---- -- ------<br>------- --- ------ ----- --- ---- ------- -- ---- --- --<br>------- ------,104934.29999999981,104933.59999999963,104402.615,104414.59999999963,104419.286,104936.025,,36,and
screen,html.Screen,0_2_1_1_37,2021-12-02T10:00:50.603Z,,,,,,,,,,,,,,,,54,,,,,,,,,,,,,,437.4750000000058,,response,,,100,,,,,,Space,keypress(Space),,,,,-- --- ---- --- ------ ----- ------- ---- -- --- ------- --<br>------- ---------- ------ -- ----- -- ----- -- ---- ------<br>--- ----- --- --- ------ -------- ----- --- ------ ----- --<br>----- ----- ---------- --- the ------ ------ ---- -- ------<br>------- --- ------ ----- --- ---- ------- -- ---- --- --<br>------- ------,105374.29999999981,105373.5,104919.355,104934.5,104936.025,105386.115,,37,the
screen,html.Screen,0_2_1_1_38,2021-12-02T10:00:51.067Z,,,,,,,,,,,,,,,,54,,,,,,,,,,,,,,451.48499999962223,,response,,,100,,,,,,Space,keypress(Space),,,,,-- --- ---- --- ------ ----- ------- ---- -- --- ------- --<br>------- ---------- ------ -- ----- -- ----- -- ---- ------<br>--- ----- --- --- ------ -------- ----- --- ------ ----- --<br>----- ----- ---------- --- --- market ------ ---- -- ------<br>------- --- ------ ----- --- ---- ------- -- ---- --- --<br>------- ------,105838.29999999981,105837.59999999963,105369.445,105374.5,105386.115,105853.05,,38,market
screen,html.Screen,0_2_1_1_39,2021-12-02T10:00:51.579Z,,,,,,,,,,,,,,,,54,,,,,,,,,,,,,,496.3499999994383,,response,,,100,,,,,,Space,keypress(Space),,,,,-- --- ---- --- ------ ----- ------- ---- -- --- ------- --<br>------- ---------- ------ -- ----- -- ----- -- ---- ------<br>--- ----- --- --- ------ -------- ----- --- ------ ----- --<br>----- ----- ---------- --- --- ------ became ---- -- ------<br>------- --- ------ ----- --- ---- ------- -- ---- --- --<br>------- ------,106350.29999999981,106349.39999999944,105836.378,105838.59999999963,105853.05,106353.084,,39,became
screen,html.Screen,0_2_1_1_40,2021-12-02T10:00:52.083Z,,,,,,,,,,,,,,,,54,,,,,,,,,,,,,,500.81599999943865,,response,,,100,,,,,,Space,keypress(Space),,,,,-- --- ---- --- ------ ----- ------- ---- -- --- ------- --<br>------- ---------- ------ -- ----- -- ----- -- ---- ------<br>--- ----- --- --- ------ -------- ----- --- ------ ----- --<br>----- ----- ---------- --- --- ------ ------ wary -- ------<br>------- --- ------ ----- --- ---- ------- -- ---- --- --<br>------- ------,106854.70000000019,106853.89999999944,106336.414,106350.5,106353.084,106869.764,,40,wary
screen,html.Screen,0_2_1_1_41,2021-12-02T10:00:52.499Z,,,,,,,,,,,,,,,,54,,,,,,,,,,,,,,399.63599999944563,,response,,,100,,,,,,Space,keypress(Space),,,,,-- --- ---- --- ------ ----- ------- ---- -- --- ------- --<br>------- ---------- ------ -- ----- -- ----- -- ---- ------<br>--- ----- --- --- ------ -------- ----- --- ------ ----- --<br>----- ----- ---------- --- --- ------ ------ ---- of ------<br>------- --- ------ ----- --- ---- ------- -- ---- --- --<br>------- ------,107270.20000000019,107269.39999999944,106853.095,106854.79999999981,106869.764,107286.768,,41,of
screen,html.Screen,0_2_1_1_42,2021-12-02T10:00:52.899Z,,,,,,,,,,,,,,,,54,,,,,,,,,,,,,,382.6319999994448,,response,,,100,,,,,,Space,keypress(Space),,,,,-- --- ---- --- ------ ----- ------- ---- -- --- ------- --<br>------- ---------- ------ -- ----- -- ----- -- ---- ------<br>--- ----- --- --- ------ -------- ----- --- ------ ----- --<br>----- ----- ---------- --- --- ------ ------ ---- -- French<br>------- --- ------ ----- --- ---- ------- -- ---- --- --<br>------- ------,107670.20000000019,107669.39999999944,107270.096,107270.39999999944,107286.768,107686.788,,42,French
screen,html.Screen,0_2_1_1_43,2021-12-02T10:00:53.307Z,,,,,,,,,,,,,,,,54,,,,,,,,,,,,,,390.61199999944074,,response,,,100,,,,,,Space,keypress(Space),,,,,-- --- ---- --- ------ ----- ------- ---- -- --- ------- --<br>------- ---------- ------ -- ----- -- ----- -- ---- ------<br>--- ----- --- --- ------ -------- ----- --- ------ ----- --<br>----- ----- ---------- --- --- ------ ------ ---- -- ------<br>credit. --- ------ ----- --- ---- ------- -- ---- --- --<br>------- ------,108078.09999999963,108077.39999999944,107670.118,107670.39999999944,107686.788,108086.878,,43,credit.
screen,html.Screen,0_2_1_1_44,2021-12-02T10:00:53.771Z,,,,,,,,,,,,,,,,54,,,,,,,,,,,,,,454.42199999981676,,response,,,100,,,,,,Space,keypress(Space),,,,,-- --- ---- --- ------ ----- ------- ---- -- --- ------- --<br>------- ---------- ------ -- ----- -- ----- -- ---- ------<br>--- ----- --- --- ------ -------- ----- --- ------ ----- --<br>----- ----- ---------- --- --- ------ ------ ---- -- ------<br>------- The ------ ----- --- ---- ------- -- ---- --- --<br>------- ------,108542.29999999981,108541.29999999981,108070.208,108078.39999999944,108086.878,108553.649,,44,The
screen,html.Screen,0_2_1_1_45,2021-12-02T10:00:54.163Z,,,,,,,,,,,,,,,,54,,,,,,,,,,,,,,379.65099999980885,,response,,,100,,,,,,Space,keypress(Space),,,,,-- --- ---- --- ------ ----- ------- ---- -- --- ------- --<br>------- ---------- ------ -- ----- -- ----- -- ---- ------<br>--- ----- --- --- ------ -------- ----- --- ------ ----- --<br>----- ----- ---------- --- --- ------ ------ ---- -- ------<br>------- --- French ----- --- ---- ------- -- ---- --- --<br>------- ------,108934.09999999963,108933.29999999981,108536.979,108542.5,108553.649,108937.154,,45,French
screen,html.Screen,0_2_1_1_46,2021-12-02T10:00:54.587Z,,,,,,,,,,,,,,,,54,,,,,,,,,,,,,,420.14599999981874,,response,,,100,,,,,,Space,keypress(Space),,,,,-- --- ---- --- ------ ----- ------- ---- -- --- ------- --<br>------- ---------- ------ -- ----- -- ----- -- ---- ------<br>--- ----- --- --- ------ -------- ----- --- ------ ----- --<br>----- ----- ---------- --- --- ------ ------ ---- -- ------<br>------- --- ------ state --- ---- ------- -- ---- --- --<br>------- ------,109358,109357.29999999981,108920.483,108934.29999999981,108937.154,109370.57,,46,state
screen,html.Screen,0_2_1_1_47,2021-12-02T10:00:55.011Z,,,,,,,,,,,,,,,,54,,,,,,,,,,,,,,410.72999999980675,,response,,,100,,,,,,Space,keypress(Space),,,,,-- --- ---- --- ------ ----- ------- ---- -- --- ------- --<br>------- ---------- ------ -- ----- -- ----- -- ---- ------<br>--- ----- --- --- ------ -------- ----- --- ------ ----- --<br>----- ----- ---------- --- --- ------ ------ ---- -- ------<br>------- --- ------ ----- was ---- ------- -- ---- --- --<br>------- ------,109782,109781.29999999981,109353.9,109358.20000000019,109370.57,109787.319,,47,was
screen,html.Screen,0_2_1_1_48,2021-12-02T10:00:55.403Z,,,,,,,,,,,,,,,,54,,,,,,,,,,,,,,385.9809999998106,,response,,,100,,,,,,Space,keypress(Space),,,,,-- --- ---- --- ------ ----- ------- ---- -- --- ------- --<br>------- ---------- ------ -- ----- -- ----- -- ---- ------<br>--- ----- --- --- ------ -------- ----- --- ------ ----- --<br>----- ----- ---------- --- --- ------ ------ ---- -- ------<br>------- --- ------ ----- --- left ------- -- ---- --- --<br>------- ------,110174,110173.29999999981,109770.649,109782.09999999963,109787.319,110187.494,,48,left
screen,html.Screen,0_2_1_1_49,2021-12-02T10:00:55.795Z,,,,,,,,,,,,,,,,54,,,,,,,,,,,,,,377.8059999998077,,response,,,100,,,,,,Space,keypress(Space),,,,,-- --- ---- --- ------ ----- ------- ---- -- --- ------- --<br>------- ---------- ------ -- ----- -- ----- -- ---- ------<br>--- ----- --- --- ------ -------- ----- --- ------ ----- --<br>----- ----- ---------- --- --- ------ ------ ---- -- ------<br>------- --- ------ ----- --- ---- without -- ---- --- --<br>------- ------,110566.09999999963,110565.29999999981,110170.823,110174.20000000019,110187.494,110570.786,,49,without
screen,html.Screen,0_2_1_1_50,2021-12-02T10:00:56.163Z,,,,,,,,,,,,,,,,54,,,,,,,,,,,,,,362.4140000001935,,response,,,100,,,,,,Space,keypress(Space),,,,,-- --- ---- --- ------ ----- ------- ---- -- --- ------- --<br>------- ---------- ------ -- ----- -- ----- -- ---- ------<br>--- ----- --- --- ------ -------- ----- --- ------ ----- --<br>----- ----- ---------- --- --- ------ ------ ---- -- ------<br>------- --- ------ ----- --- ---- ------- an ---- --- --<br>------- ------,110934,110933.20000000019,110554.117,110566.20000000019,110570.786,110937.726,,50,an
screen,html.Screen,0_2_1_1_51,2021-12-02T10:00:56.531Z,,,,,,,,,,,,,,,,54,,,,,,,,,,,,,,363.47400000019115,,response,,,100,,,,,,Space,keypress(Space),,,,,-- --- ---- --- ------ ----- ------- ---- -- --- ------- --<br>------- ---------- ------ -- ----- -- ----- -- ---- ------<br>--- ----- --- --- ------ -------- ----- --- ------ ----- --<br>----- ----- ---------- --- --- ------ ------ ---- -- ------<br>------- --- ------ ----- --- ---- ------- -- easy --- --<br>------- ------,111302,111301.20000000019,110921.054,110934.20000000019,110937.726,111304.404,,51,easy
screen,html.Screen,0_2_1_1_52,2021-12-02T10:00:56.867Z,,,,,,,,,,,,,,,,54,,,,,,,,,,,,,,332.79600000019127,,response,,,100,,,,,,Space,keypress(Space),,,,,-- --- ---- --- ------ ----- ------- ---- -- --- ------- --<br>------- ---------- ------ -- ----- -- ----- -- ---- ------<br>--- ----- --- --- ------ -------- ----- --- ------ ----- --<br>----- ----- ---------- --- --- ------ ------ ---- -- ------<br>------- --- ------ ----- --- ---- ------- -- ---- way --<br>------- ------,111638,111637.20000000019,111287.734,111302.20000000019,111304.404,111654.506,,52,way
screen,html.Screen,0_2_1_1_53,2021-12-02T10:00:57.227Z,,,,,,,,,,,,,,,,54,,,,,,,,,,,,,,342.6940000001923,,response,,,100,,,,,,Space,keypress(Space),,,,,-- --- ---- --- ------ ----- ------- ---- -- --- ------- --<br>------- ---------- ------ -- ----- -- ----- -- ---- ------<br>--- ----- --- --- ------ -------- ----- --- ------ ----- --<br>----- ----- ---------- --- --- ------ ------ ---- -- ------<br>------- --- ------ ----- --- ---- ------- -- ---- --- of<br>------- ------,111998,111997.20000000019,111637.836,111638.20000000019,111654.506,112004.531,,53,of
screen,html.Screen,0_2_1_1_54,2021-12-02T10:00:57.611Z,,,,,,,,,,,,,,,,54,,,,,,,,,,,,,,376.76899999981106,,response,,,100,,,,,,Space,keypress(Space),,,,,-- --- ---- --- ------ ----- ------- ---- -- --- ------- --<br>------- ---------- ------ -- ----- -- ----- -- ---- ------<br>--- ----- --- --- ------ -------- ----- --- ------ ----- --<br>----- ----- ---------- --- --- ------ ------ ---- -- ------<br>------- --- ------ ----- --- ---- ------- -- ---- --- --<br>raising ------,112382,112381.29999999981,111987.862,111998.20000000019,112004.531,112388.097,,54,raising
screen,html.Screen,0_2_1_1_55,2021-12-02T10:00:58.011Z,,,,,,,,,,,,,,,,54,,,,,,,,,,,,,,393.10300000019197,,response,,,100,,,,,,Space,keypress(Space),,,,,-- --- ---- --- ------ ----- ------- ---- -- --- ------- --<br>------- ---------- ------ -- ----- -- ----- -- ---- ------<br>--- ----- --- --- ------ -------- ----- --- ------ ----- --<br>----- ----- ---------- --- --- ------ ------ ---- -- ------<br>------- --- ------ ----- --- ---- ------- -- ---- --- --<br>------- money.,112782,112781.20000000019,112371.425,112382.20000000019,112388.097,112788.174,,55,money.
Item 100,flow.Loop,0_2_1_1,2021-12-02T10:00:58.011Z,,,,,,,,,,,,,,,,,,,,,,,,,,,,,,27150.43600000019,,completion,,,,E,,,,,,,,,,silence,,112782.39999999944,112781.20000000019,85614.094,85615.89999999944,85630.764,112788.174,,,
Question 1,html.Screen,0_2_1_2,2021-12-02T10:01:01.475Z,,,,,,,,,,,,,,,,,,,,,,,,,,,true,TRUE,,3456.6259999998147,,response,,,100,E,,,,,TRUE,click #choice-1,,,,silence,,116245.89999999944,116244.79999999981,112771.503,112782.59999999963,112788.174,116255.648,,,
Question 2,html.Screen,0_2_1_3,2021-12-02T10:01:03.811Z,,,,,,,,,,,,,,,,,,,,,,,,,,,true,FALSE,,2325.1519999998127,,response,,,100,E,,,,,FALSE,click #choice-2,,,,silence,,118581.89999999944,118580.79999999981,116238.979,116246.20000000019,116255.648,118590.183,,,
Item 100,flow.Sequence,0_2_1,2021-12-02T10:01:03.811Z,,,,,,,,,,,,,,,,,,,,,,,,,,,,,,42952.63699999981,,completion,,,,,,,,,,,,,,,,118582.29999999981,118580.79999999981,75611.494,75616.79999999981,75628.163,118590.183,,,
End of Practice,html.Page,0_2_2,2021-12-02T10:01:09.286Z,,,,,,,,,,,,,,,,,,,,,,,,,,,,,,5463.916999999623,,form submission,,,,,,,,,,,,,,,,124054.70000000019,124054.09999999963,118573.491,118582.39999999944,118590.183,124057.593,,,
Practice,flow.Sequence,0_2,2021-12-02T10:01:09.287Z,,,,,,,,,,,,,,,,,,,,,,,,,,,,,,100339.60799999963,,completion,,,,,,,,,,,,,,,,124055.09999999963,124054.09999999963,23697.819,23699.200000000186,23714.492,124057.593,,,
Trap_instruction,html.Page,0_3_0,2021-12-02T10:01:15.302Z,,,,,,,,,,,,,,,,,,,,,,,,,,,,,,6012.006999999634,,form submission,,,,,,,,,,,,,,,,130070.09999999963,130069.59999999963,124040.923,124055.5,124057.593,130143.895,,,
trap_trial,html.Screen,0_3_1,2021-12-02T10:01:19.773Z,,,,,,,,,,,,,,,,,,,,,,,,,,,true,1,,4396.104999999996,,response,,,,,,,,,1,click #choice-1,,,,,,134541.2999999998,134540,130060.47,130070.29999999981,130143.895,134555.781,,,
end of trap trial,html.Page,0_3_2,2021-12-02T10:01:21.965Z,,,,,,,,,,,,,,,,,,,,,,,,,,,,,,2177.419000000198,,form submission,,,,,,,,,,,,,,,,136733.7000000002,136733.2000000002,134539.064,134541.5,134555.781,136744.331,,,
Trap 1,flow.Sequence,0_3,2021-12-02T10:01:21.966Z,,,,,,,,,,,,,,,,,,,,,,,,,,,,,,12675.607000000193,,completion,,,,,,,,,,,,,,,,136734.2000000002,136733.2000000002,124040.923,124055.39999999944,124057.593,136744.331,,,
Standby,html.Page,0_4_0,2021-12-02T10:01:29.962Z,,,,,,,,,,,,,,,,,,,,,,,,,,,,,,8001.750999999989,,timeout,,,,,,,,,,,,,,,,144730.7000000002,144729.412,136727.661,136734.5,136744.331,144746.082,,,
Holding screen,html.Screen,0_4_1_0_0,2021-12-02T10:01:36.965Z,,,,,,,,,,,,,,,,,,,,,,,,,,,,,,7002.573999999993,,timeout,,,,,,,,,,,,,,,,151733.2000000002,151732.259,144729.412,144731.09999999963,144746.082,151748.656,,,
screen,html.Screen,0_4_1_0_1_0,2021-12-02T10:01:37.661Z,,,,,,,,,,,,,,,,15,,,,,,,,,,,,,,679.1439999998256,,response,,,7,E,,,,,Space,keypress(Space),,,,lyrical,Greg --------- ---------- - --- ------- -- --- ------------<br>----- -- -------- ------- ---- ------ - -------- ---- -----<br>--- ------- ---- -- --- -------- --- - ----- ------ ---- --<br>-------- --- -------- -------- --- -------- ---- -- ----- -<br>-------- ---- --- ---------- --------- -- ------- ------ -<br>--------- ----- -----,152428.89999999944,152427.7999999998,151732.259,151733.59999999963,151748.656,152437.961,,0,Greg
screen,html.Screen,0_4_1_0_1_1,2021-12-02T10:01:38.052Z,,,,,,,,,,,,,,,,15,,,,,,,,,,,,,,381.3389999998035,,response,,,7,E,,,,,Space,keypress(Space),,,,lyrical,"---- Anderson, ---------- - --- ------- -- --- ------------<br>----- -- -------- ------- ---- ------ - -------- ---- -----<br>--- ------- ---- -- --- -------- --- - ----- ------ ---- --<br>-------- --- -------- -------- --- -------- ---- -- ----- -<br>-------- ---- --- ---------- --------- -- ------- ------ -<br>--------- ----- -----",152820.09999999963,152819.2999999998,152421.56,152429.2000000002,152437.961,152831.807,,1,"Anderson,"
screen,html.Screen,0_4_1_0_1_2,2021-12-02T10:01:38.492Z,,,,,,,,,,,,,,,,15,,,,,,,,,,,,,,427.49299999981304,,response,,,7,E,,,,,Space,keypress(Space),,,,lyrical,---- --------- considered - --- ------- -- --- ------------<br>----- -- -------- ------- ---- ------ - -------- ---- -----<br>--- ------- ---- -- --- -------- --- - ----- ------ ---- --<br>-------- --- -------- -------- --- -------- ---- -- ----- -<br>-------- ---- --- ---------- --------- -- ------- ------ -<br>--------- ----- -----,153260,153259.2999999998,152815.405,152820.2999999998,152831.807,153271.344,,2,considered
screen,html.Screen,0_4_1_0_1_3,2021-12-02T10:01:38.860Z,,,,,,,,,,,,,,,,15,,,,,,,,,,,,,,355.95599999980186,,response,,,7,E,,,,,Space,keypress(Space),,,,lyrical,---- --------- ---------- a --- ------- -- --- ------------<br>----- -- -------- ------- ---- ------ - -------- ---- -----<br>--- ------- ---- -- --- -------- --- - ----- ------ ---- --<br>-------- --- -------- -------- --- -------- ---- -- ----- -<br>-------- ---- --- ---------- --------- -- ------- ------ -<br>--------- ----- -----,153628.09999999963,153627.2999999998,153255.079,153260.2999999998,153271.344,153631.548,,3,a
screen,html.Screen,0_4_1_0_1_4,2021-12-02T10:01:39.172Z,,,,,,,,,,,,,,,,15,,,,,,,,,,,,,,307.75199999980396,,response,,,7,E,,,,,Space,keypress(Space),,,,lyrical,---- --------- ---------- - key ------- -- --- ------------<br>----- -- -------- ------- ---- ------ - -------- ---- -----<br>--- ------- ---- -- --- -------- --- - ----- ------ ---- --<br>-------- --- -------- -------- --- -------- ---- -- ----- -<br>-------- ---- --- ---------- --------- -- ------- ------ -<br>--------- ----- -----,153940.09999999963,153939.2999999998,153615.573,153628.2000000002,153631.548,153942.017,,4,key
screen,html.Screen,0_4_1_0_1_5,2021-12-02T10:01:39.572Z,,,,,,,,,,,,,,,,15,,,,,,,,,,,,,,397.1830000001937,,response,,,7,E,,,,,Space,keypress(Space),,,,lyrical,---- --------- ---------- - --- witness -- --- ------------<br>----- -- -------- ------- ---- ------ - -------- ---- -----<br>--- ------- ---- -- --- -------- --- - ----- ------ ---- --<br>-------- --- -------- -------- --- -------- ---- -- ----- -<br>-------- ---- --- ---------- --------- -- ------- ------ -<br>--------- ----- -----,154340,154339.2000000002,153925.94,153940.2999999998,153942.017,154347.825,,5,witness
screen,html.Screen,0_4_1_0_1_6,2021-12-02T10:01:40.068Z,,,,,,,,,,,,,,,,15,,,,,,,,,,,,,,487.3750000001746,,response,,,7,E,,,,,Space,keypress(Space),,,,lyrical,---- --------- ---------- - --- ------- by --- ------------<br>----- -- -------- ------- ---- ------ - -------- ---- -----<br>--- ------- ---- -- --- -------- --- - ----- ------ ---- --<br>-------- --- -------- -------- --- -------- ---- -- ----- -<br>-------- ---- --- ---------- --------- -- ------- ------ -<br>--------- ----- -----,154836,154835.2000000002,154331.879,154340.2000000002,154347.825,154850.203,,6,by
screen,html.Screen,0_4_1_0_1_7,2021-12-02T10:01:40.468Z,,,,,,,,,,,,,,,,15,,,,,,,,,,,,,,384.99700000017765,,response,,,7,E,,,,,Space,keypress(Space),,,,lyrical,---- --------- ---------- - --- ------- -- the ------------<br>----- -- -------- ------- ---- ------ - -------- ---- -----<br>--- ------- ---- -- --- -------- --- - ----- ------ ---- --<br>-------- --- -------- -------- --- -------- ---- -- ----- -<br>-------- ---- --- ---------- --------- -- ------- ------ -<br>--------- ----- -----,155235.89999999944,155235.2000000002,154834.41,154836.2999999998,154850.203,155246.075,,7,the
screen,html.Screen,0_4_1_0_1_8,2021-12-02T10:01:41.172Z,,,,,,,,,,,,,,,,15,,,,,,,,,,,,,,693.1250000001746,,response,,,7,E,,,,,Space,keypress(Space),,,,lyrical,"---- --------- ---------- - --- ------- -- --- prosecution,<br>----- -- -------- ------- ---- ------ - -------- ---- -----<br>--- ------- ---- -- --- -------- --- - ----- ------ ---- --<br>-------- --- -------- -------- --- -------- ---- -- ----- -<br>-------- ---- --- ---------- --------- -- ------- ------ -<br>--------- ----- -----",155940,155939.2000000002,155230.072,155236.2000000002,155246.075,155943.267,,8,"prosecution,"
screen,html.Screen,0_4_1_0_1_9,2021-12-02T10:01:42.268Z,,,,,,,,,,,,,,,,15,,,,,,,,,,,,,,1091.832999999635,,response,,,7,E,,,,,Space,keypress(Space),,,,lyrical,---- --------- ---------- - --- ------- -- --- ------------<br>vowed -- -------- ------- ---- ------ - -------- ---- -----<br>--- ------- ---- -- --- -------- --- - ----- ------ ---- --<br>-------- --- -------- -------- --- -------- ---- -- ----- -<br>-------- ---- --- ---------- --------- -- ------- ------ -<br>--------- ----- -----,157035.89999999944,157035.09999999963,155927.134,155940.2999999998,155943.267,157038,,9,vowed
screen,html.Screen,0_4_1_0_1_10,2021-12-02T10:01:42.628Z,,,,,,,,,,,,,,,,15,,,,,,,,,,,,,,357.09999999962747,,response,,,7,E,,,,,Space,keypress(Space),,,,lyrical,---- --------- ---------- - --- ------- -- --- ------------<br>----- he -------- ------- ---- ------ - -------- ---- -----<br>--- ------- ---- -- --- -------- --- - ----- ------ ---- --<br>-------- --- -------- -------- --- -------- ---- -- ----- -<br>-------- ---- --- ---------- --------- -- ------- ------ -<br>--------- ----- -----,157395.7999999998,157395.09999999963,157021.996,157036.09999999963,157038,157398.312,,10,he
screen,html.Screen,0_4_1_0_1_11,2021-12-02T10:01:43.004Z,,,,,,,,,,,,,,,,15,,,,,,,,,,,,,,372.7879999996221,,response,,,7,E,,,,,Space,keypress(Space),,,,lyrical,---- --------- ---------- - --- ------- -- --- ------------<br>----- -- wouldn't ------- ---- ------ - -------- ---- -----<br>--- ------- ---- -- --- -------- --- - ----- ------ ---- --<br>-------- --- -------- -------- --- -------- ---- -- ----- -<br>-------- ---- --- ---------- --------- -- ------- ------ -<br>--------- ----- -----,157771.89999999944,157771.09999999963,157382.401,157396.09999999963,157398.312,157783.534,,11,wouldn't
screen,html.Screen,0_4_1_0_1_12,2021-12-02T10:01:43.364Z,,,,,,,,,,,,,,,,15,,,,,,,,,,,,,,347.56599999961327,,response,,,7,E,,,,,Space,keypress(Space),,,,lyrical,---- --------- ---------- - --- ------- -- --- ------------<br>----- -- -------- testify ---- ------ - -------- ---- -----<br>--- ------- ---- -- --- -------- --- - ----- ------ ---- --<br>-------- --- -------- -------- --- -------- ---- -- ----- -<br>-------- ---- --- ---------- --------- -- ------- ------ -<br>--------- ----- -----,158131.89999999944,158131.09999999963,157767.588,157772.2000000002,157783.534,158134.29,,12,testify
screen,html.Screen,0_4_1_0_1_13,2021-12-02T10:01:43.732Z,,,,,,,,,,,,,,,,15,,,,,,,,,,,,,,364.70999999999185,,response,,,7,E,,,,,Space,keypress(Space),,,,lyrical,---- --------- ---------- - --- ------- -- --- ------------<br>----- -- -------- ------- when ------ - -------- ---- -----<br>--- ------- ---- -- --- -------- --- - ----- ------ ---- --<br>-------- --- -------- -------- --- -------- ---- -- ----- -<br>-------- ---- --- ---------- --------- -- ------- ------ -<br>--------- ----- -----,158499.7999999998,158499,158118.346,158132.09999999963,158134.29,158501.146,,13,when
screen,html.Screen,0_4_1_0_1_14,2021-12-02T10:01:44.075Z,,,,,,,,,,,,,,,,15,,,,,,,,,,,,,,341.8539999999921,,response,,,7,E,,,,,Space,keypress(Space),,,,lyrical,---- --------- ---------- - --- ------- -- --- ------------<br>----- -- -------- ------- ---- served - -------- ---- -----<br>--- ------- ---- -- --- -------- --- - ----- ------ ---- --<br>-------- --- -------- -------- --- -------- ---- -- ----- -<br>-------- ---- --- ---------- --------- -- ------- ------ -<br>--------- ----- -----,158843.7999999998,158843,158485.198,158500.09999999963,158501.146,158851.945,,14,served
screen,html.Screen,0_4_1_0_1_15,2021-12-02T10:01:44.444Z,,,,,,,,,,,,,,,,15,,,,,,,,,,,,,,359.054999999993,,response,,,7,E,,,,,Space,keypress(Space),,,,lyrical,---- --------- ---------- - --- ------- -- --- ------------<br>----- -- -------- ------- ---- ------ a -------- ---- -----<br>--- ------- ---- -- --- -------- --- - ----- ------ ---- --<br>-------- --- -------- -------- --- -------- ---- -- ----- -<br>-------- ---- --- ---------- --------- -- ------- ------ -<br>--------- ----- -----,159211.7999999998,159211,158835.999,158844,158851.945,159219.281,,15,a
screen,html.Screen,0_4_1_0_1_16,2021-12-02T10:01:44.787Z,,,,,,,,,,,,,,,,15,,,,,,,,,,,,,,335.7190000000119,,response,,,7,E,,,,,Space,keypress(Space),,,,lyrical,---- --------- ---------- - --- ------- -- --- ------------<br>----- -- -------- ------- ---- ------ - subpoena ---- -----<br>--- ------- ---- -- --- -------- --- - ----- ------ ---- --<br>-------- --- -------- -------- --- -------- ---- -- ----- -<br>-------- ---- --- ---------- --------- -- ------- ------ -<br>--------- ----- -----,159555.7999999998,159555,159203.336,159212.09999999963,159219.281,159567.883,,16,subpoena
screen,html.Screen,0_4_1_0_1_17,2021-12-02T10:01:45.499Z,,,,,,,,,,,,,,,,15,,,,,,,,,,,,,,699.0169999994396,,response,,,7,E,,,,,Space,keypress(Space),,,,lyrical,---- --------- ---------- - --- ------- -- --- ------------<br>----- -- -------- ------- ---- ------ - -------- last -----<br>--- ------- ---- -- --- -------- --- - ----- ------ ---- --<br>-------- --- -------- -------- --- -------- ---- -- ----- -<br>-------- ---- --- ---------- --------- -- ------- ------ -<br>--------- ----- -----,160267.7999999998,160266.89999999944,159551.972,159556,159567.883,160268.989,,17,last
screen,html.Screen,0_4_1_0_1_18,2021-12-02T10:01:46.067Z,,,,,,,,,,,,,,,,15,,,,,,,,,,,,,,566.0109999999986,,response,,,7,E,,,,,Space,keypress(Space),,,,lyrical,---- --------- ---------- - --- ------- -- --- ------------<br>----- -- -------- ------- ---- ------ - -------- ---- week.<br>--- ------- ---- -- --- -------- --- - ----- ------ ---- --<br>-------- --- -------- -------- --- -------- ---- -- ----- -<br>-------- ---- --- ---------- --------- -- ------- ------ -<br>--------- ----- -----,160835.7000000002,160835,160253.043,160268,160268.989,160838.429,,18,week.
screen,html.Screen,0_4_1_0_1_19,2021-12-02T10:01:46.571Z,,,,,,,,,,,,,,,,15,,,,,,,,,,,,,,500.5709999999963,,response,,,7,E,,,,,Space,keypress(Space),,,,lyrical,---- --------- ---------- - --- ------- -- --- ------------<br>----- -- -------- ------- ---- ------ - -------- ---- -----<br>His ------- ---- -- --- -------- --- - ----- ------ ---- --<br>-------- --- -------- -------- --- -------- ---- -- ----- -<br>-------- ---- --- ---------- --------- -- ------- ------ -<br>--------- ----- -----,161339.7000000002,161339,160822.55,160835.89999999944,160838.429,161352.117,,19,His
screen,html.Screen,0_4_1_0_1_20,2021-12-02T10:01:47.028Z,,,,,,,,,,,,,,,,15,,,,,,,,,,,,,,442.78299999944284,,response,,,7,E,,,,,Space,keypress(Space),,,,lyrical,---- --------- ---------- - --- ------- -- --- ------------<br>----- -- -------- ------- ---- ------ - -------- ---- -----<br>--- lawyers ---- -- --- -------- --- - ----- ------ ---- --<br>-------- --- -------- -------- --- -------- ---- -- ----- -<br>-------- ---- --- ---------- --------- -- ------- ------ -<br>--------- ----- -----,161795.7999999998,161794.89999999944,161336.188,161339.89999999944,161352.117,161812.253,,20,lawyers
screen,html.Screen,0_4_1_0_1_21,2021-12-02T10:01:47.451Z,,,,,,,,,,,,,,,,15,,,,,,,,,,,,,,406.64699999944423,,response,,,7,E,,,,,Space,keypress(Space),,,,lyrical,---- --------- ---------- - --- ------- -- --- ------------<br>----- -- -------- ------- ---- ------ - -------- ---- -----<br>--- ------- said -- --- -------- --- - ----- ------ ---- --<br>-------- --- -------- -------- --- -------- ---- -- ----- -<br>-------- ---- --- ---------- --------- -- ------- ------ -<br>--------- ----- -----,162219.59999999963,162218.89999999944,161796.509,161796,161812.253,162227.348,,21,said
screen,html.Screen,0_4_1_0_1_22,2021-12-02T10:01:47.812Z,,,,,,,,,,,,,,,,15,,,,,,,,,,,,,,351.9519999998156,,response,,,7,E,,,,,Space,keypress(Space),,,,lyrical,---- --------- ---------- - --- ------- -- --- ------------<br>----- -- -------- ------- ---- ------ - -------- ---- -----<br>--- ------- ---- he --- -------- --- - ----- ------ ---- --<br>-------- --- -------- -------- --- -------- ---- -- ----- -<br>-------- ---- --- ---------- --------- -- ------- ------ -<br>--------- ----- -----,162580,162579.2999999998,162211.719,162219.89999999944,162227.348,162592.587,,22,he
screen,html.Screen,0_4_1_0_1_23,2021-12-02T10:01:48.179Z,,,,,,,,,,,,,,,,15,,,,,,,,,,,,,,354.3129999994417,,response,,,7,E,,,,,Space,keypress(Space),,,,lyrical,---- --------- ---------- - --- ------- -- --- ------------<br>----- -- -------- ------- ---- ------ - -------- ---- -----<br>--- ------- ---- -- was -------- --- - ----- ------ ---- --<br>-------- --- -------- -------- --- -------- ---- -- ----- -<br>-------- ---- --- ---------- --------- -- ------- ------ -<br>--------- ----- -----,162947.59999999963,162946.89999999944,162577.028,162580.2999999998,162592.587,162961.33,,23,was
screen,html.Screen,0_4_1_0_1_24,2021-12-02T10:01:48.595Z,,,,,,,,,,,,,,,,15,,,,,,,,,,,,,,401.37000000019907,,response,,,7,E,,,,,Space,keypress(Space),,,,lyrical,---- --------- ---------- - --- ------- -- --- ------------<br>----- -- -------- ------- ---- ------ - -------- ---- -----<br>--- ------- ---- -- --- prepared --- - ----- ------ ---- --<br>-------- --- -------- -------- --- -------- ---- -- ----- -<br>-------- ---- --- ---------- --------- -- ------- ------ -<br>--------- ----- -----,163363.59999999963,163362.7000000002,162945.895,162947.89999999944,162961.33,163366.836,,24,prepared
screen,html.Screen,0_4_1_0_1_25,2021-12-02T10:01:48.955Z,,,,,,,,,,,,,,,,15,,,,,,,,,,,,,,355.864000000176,,response,,,7,E,,,,,Space,keypress(Space),,,,lyrical,---- --------- ---------- - --- ------- -- --- ------------<br>----- -- -------- ------- ---- ------ - -------- ---- -----<br>--- ------- ---- -- --- -------- for - ----- ------ ---- --<br>-------- --- -------- -------- --- -------- ---- -- ----- -<br>-------- ---- --- ---------- --------- -- ------- ------ -<br>--------- ----- -----,163723.5,163722.7000000002,163351.555,163363.7000000002,163366.836,163733.673,,25,for
screen,html.Screen,0_4_1_0_1_26,2021-12-02T10:01:49.307Z,,,,,,,,,,,,,,,,15,,,,,,,,,,,,,,341.12699999980396,,response,,,7,E,,,,,Space,keypress(Space),,,,lyrical,---- --------- ---------- - --- ------- -- --- ------------<br>----- -- -------- ------- ---- ------ - -------- ---- -----<br>--- ------- ---- -- --- -------- --- a ----- ------ ---- --<br>-------- --- -------- -------- --- -------- ---- -- ----- -<br>-------- ---- --- ---------- --------- -- ------- ------ -<br>--------- ----- -----,164075.59999999963,164074.7999999998,163718.391,163723.7000000002,163733.673,164090.041,,26,a
screen,html.Screen,0_4_1_0_1_27,2021-12-02T10:01:49.691Z,,,,,,,,,,,,,,,,15,,,,,,,,,,,,,,368.6590000001888,,response,,,7,E,,,,,Space,keypress(Space),,,,lyrical,---- --------- ---------- - --- ------- -- --- ------------<br>----- -- -------- ------- ---- ------ - -------- ---- -----<br>--- ------- ---- -- --- -------- --- - third ------ ---- --<br>-------- --- -------- -------- --- -------- ---- -- ----- -<br>-------- ---- --- ---------- --------- -- ------- ------ -<br>--------- ----- -----,164459.5,164458.7000000002,164074.608,164075.7999999998,164090.041,164465.793,,27,third
screen,html.Screen,0_4_1_0_1_28,2021-12-02T10:01:50.107Z,,,,,,,,,,,,,,,,15,,,,,,,,,,,,,,408.80699999962235,,response,,,7,E,,,,,Space,keypress(Space),,,,lyrical,---- --------- ---------- - --- ------- -- --- ------------<br>----- -- -------- ------- ---- ------ - -------- ---- -----<br>--- ------- ---- -- --- -------- --- - ----- prison ---- --<br>-------- --- -------- -------- --- -------- ---- -- ----- -<br>-------- ---- --- ---------- --------- -- ------- ------ -<br>--------- ----- -----,164875,164874.59999999963,164450.57,164459.7999999998,164465.793,164878.087,,28,prison
screen,html.Screen,0_4_1_0_1_29,2021-12-02T10:01:50.571Z,,,,,,,,,,,,,,,,15,,,,,,,,,,,,,,460.61300000018673,,response,,,7,E,,,,,Space,keypress(Space),,,,lyrical,---- --------- ---------- - --- ------- -- --- ------------<br>----- -- -------- ------- ---- ------ - -------- ---- -----<br>--- ------- ---- -- --- -------- --- - ----- ------ stay --<br>-------- --- -------- -------- --- -------- ---- -- ----- -<br>-------- ---- --- ---------- --------- -- ------- ------ -<br>--------- ----- -----,165339.39999999944,165338.7000000002,164862.866,164875.2000000002,164878.087,165344.128,,29,stay
screen,html.Screen,0_4_1_0_1_30,2021-12-02T10:01:51.107Z,,,,,,,,,,,,,,,,15,,,,,,,,,,,,,,530.5720000001893,,response,,,7,E,,,,,Space,keypress(Space),,,,lyrical,---- --------- ---------- - --- ------- -- --- ------------<br>----- -- -------- ------- ---- ------ - -------- ---- -----<br>--- ------- ---- -- --- -------- --- - ----- ------ ---- to<br>-------- --- -------- -------- --- -------- ---- -- ----- -<br>-------- ---- --- ---------- --------- -- ------- ------ -<br>--------- ----- -----,165875.5,165874.7000000002,165328.791,165339.59999999963,165344.128,165889.764,,30,to
screen,html.Screen,0_4_1_0_1_31,2021-12-02T10:01:51.555Z,,,,,,,,,,,,,,,,15,,,,,,,,,,,,,,432.8359999996319,,response,,,7,E,,,,,Space,keypress(Space),,,,lyrical,---- --------- ---------- - --- ------- -- --- ------------<br>----- -- -------- ------- ---- ------ - -------- ---- -----<br>--- ------- ---- -- --- -------- --- - ----- ------ ---- --<br>maintain --- -------- -------- --- -------- ---- -- ----- -<br>-------- ---- --- ---------- --------- -- ------- ------ -<br>--------- ----- -----,166323.39999999944,166322.59999999963,165874.33,165875.7999999998,165889.764,166333.605,,31,maintain
screen,html.Screen,0_4_1_0_1_32,2021-12-02T10:01:51.907Z,,,,,,,,,,,,,,,,15,,,,,,,,,,,,,,340.994999999617,,response,,,7,E,,,,,Space,keypress(Space),,,,lyrical,---- --------- ---------- - --- ------- -- --- ------------<br>----- -- -------- ------- ---- ------ - -------- ---- -----<br>--- ------- ---- -- --- -------- --- - ----- ------ ---- --<br>-------- his -------- -------- --- -------- ---- -- ----- -<br>-------- ---- --- ---------- --------- -- ------- ------ -<br>--------- ----- -----,166675.39999999944,166674.59999999963,166318.044,166323.59999999963,166333.605,166680.964,,32,his
screen,html.Screen,0_4_1_0_1_33,2021-12-02T10:01:52.267Z,,,,,,,,,,,,,,,,15,,,,,,,,,,,,,,353.73600000017905,,response,,,7,E,,,,,Space,keypress(Space),,,,lyrical,---- --------- ---------- - --- ------- -- --- ------------<br>----- -- -------- ------- ---- ------ - -------- ---- -----<br>--- ------- ---- -- --- -------- --- - ----- ------ ---- --<br>-------- --- silence. -------- --- -------- ---- -- ----- -<br>-------- ---- --- ---------- --------- -- ------- ------ -<br>--------- ----- -----,167035.39999999944,167034.7000000002,166665.276,166675.7000000002,166680.964,167050.811,,33,silence.
screen,html.Screen,0_4_1_0_1_34,2021-12-02T10:01:52.683Z,,,,,,,,,,,,,,,,15,,,,,,,,,,,,,,399.8890000001993,,response,,,7,E,,,,,Space,keypress(Space),,,,lyrical,---- --------- ---------- - --- ------- -- --- ------------<br>----- -- -------- ------- ---- ------ - -------- ---- -----<br>--- ------- ---- -- --- -------- --- - ----- ------ ---- --<br>-------- --- -------- Anderson --- -------- ---- -- ----- -<br>-------- ---- --- ---------- --------- -- ------- ------ -<br>--------- ----- -----,167451.39999999944,167450.7000000002,167035.29,167035.59999999963,167050.811,167463.511,,34,Anderson
screen,html.Screen,0_4_1_0_1_35,2021-12-02T10:01:53.075Z,,,,,,,,,,,,,,,,15,,,,,,,,,,,,,,378.9890000000014,,response,,,7,E,,,,,Space,keypress(Space),,,,lyrical,---- --------- ---------- - --- ------- -- --- ------------<br>----- -- -------- ------- ---- ------ - -------- ---- -----<br>--- ------- ---- -- --- -------- --- - ----- ------ ---- --<br>-------- --- -------- -------- was -------- ---- -- ----- -<br>-------- ---- --- ---------- --------- -- ------- ------ -<br>--------- ----- -----,167843.2999999998,167842.5,167448.29,167451.7000000002,167463.511,167848.694,,35,was
screen,html.Screen,0_4_1_0_1_36,2021-12-02T10:01:53.451Z,,,,,,,,,,,,,,,,15,,,,,,,,,,,,,,369.9059999996389,,response,,,7,E,,,,,Space,keypress(Space),,,,lyrical,---- --------- ---------- - --- ------- -- --- ------------<br>----- -- -------- ------- ---- ------ - -------- ---- -----<br>--- ------- ---- -- --- -------- --- - ----- ------ ---- --<br>-------- --- -------- -------- --- released ---- -- ----- -<br>-------- ---- --- ---------- --------- -- ------- ------ -<br>--------- ----- -----,168219.39999999944,168218.59999999963,167833.411,167843.59999999963,167848.694,168223.248,,36,released
screen,html.Screen,0_4_1_0_1_37,2021-12-02T10:01:53.843Z,,,,,,,,,,,,,,,,15,,,,,,,,,,,,,,387.2520000000077,,response,,,7,E,,,,,Space,keypress(Space),,,,lyrical,---- --------- ---------- - --- ------- -- --- ------------<br>----- -- -------- ------- ---- ------ - -------- ---- -----<br>--- ------- ---- -- --- -------- --- - ----- ------ ---- --<br>-------- --- -------- -------- --- -------- July -- ----- -<br>-------- ---- --- ---------- --------- -- ------- ------ -<br>--------- ----- -----,168611.2999999998,168610.5,168207.813,168219.59999999963,168223.248,168619.752,,37,July
screen,html.Screen,0_4_1_0_1_38,2021-12-02T10:01:54.211Z,,,,,,,,,,,,,,,,15,,,,,,,,,,,,,,358.8479999996198,,response,,,7,E,,,,,Space,keypress(Space),,,,lyrical,---- --------- ---------- - --- ------- -- --- ------------<br>----- -- -------- ------- ---- ------ - -------- ---- -----<br>--- ------- ---- -- --- -------- --- - ----- ------ ---- --<br>-------- --- -------- -------- --- -------- ---- 20 ----- -<br>-------- ---- --- ---------- --------- -- ------- ------ -<br>--------- ----- -----,168979.2999999998,168978.59999999963,168604.415,168611.5,168619.752,168988.947,,38,20
screen,html.Screen,0_4_1_0_1_39,2021-12-02T10:01:54.587Z,,,,,,,,,,,,,,,,15,,,,,,,,,,,,,,365.55300000001444,,response,,,7,E,,,,,Space,keypress(Space),,,,lyrical,---- --------- ---------- - --- ------- -- --- ------------<br>----- -- -------- ------- ---- ------ - -------- ---- -----<br>--- ------- ---- -- --- -------- --- - ----- ------ ---- --<br>-------- --- -------- -------- --- -------- ---- -- after -<br>-------- ---- --- ---------- --------- -- ------- ------ -<br>--------- ----- -----,169355.39999999944,169354.5,168973.612,168979.59999999963,168988.947,169360.821,,39,after
screen,html.Screen,0_4_1_0_1_40,2021-12-02T10:01:55.083Z,,,,,,,,,,,,,,,,15,,,,,,,,,,,,,,489.6790000000037,,response,,,7,E,,,,,Space,keypress(Space),,,,lyrical,---- --------- ---------- - --- ------- -- --- ------------<br>----- -- -------- ------- ---- ------ - -------- ---- -----<br>--- ------- ---- -- --- -------- --- - ----- ------ ---- --<br>-------- --- -------- -------- --- -------- ---- -- ----- a<br>-------- ---- --- ---------- --------- -- ------- ------ -<br>--------- ----- -----,169851.2999999998,169850.5,169345.433,169355.59999999963,169360.821,169858.972,,40,a
screen,html.Screen,0_4_1_0_1_41,2021-12-02T10:01:55.483Z,,,,,,,,,,,,,,,,15,,,,,,,,,,,,,,391.52799999999115,,response,,,7,E,,,,,Space,keypress(Space),,,,lyrical,---- --------- ---------- - --- ------- -- --- ------------<br>----- -- -------- ------- ---- ------ - -------- ---- -----<br>--- ------- ---- -- --- -------- --- - ----- ------ ---- --<br>-------- --- -------- -------- --- -------- ---- -- ----- -<br>two-week ---- --- ---------- --------- -- ------- ------ -<br>--------- ----- -----,170251.2999999998,170250.5,169843.691,169851.5,169858.972,170257.683,,41,two-week
screen,html.Screen,0_4_1_0_1_42,2021-12-02T10:01:55.875Z,,,,,,,,,,,,,,,,15,,,,,,,,,,,,,,384.7169999994512,,response,,,7,E,,,,,Space,keypress(Space),,,,lyrical,---- --------- ---------- - --- ------- -- --- ------------<br>----- -- -------- ------- ---- ------ - -------- ---- -----<br>--- ------- ---- -- --- -------- --- - ----- ------ ---- --<br>-------- --- -------- -------- --- -------- ---- -- ----- -<br>-------- stay --- ---------- --------- -- ------- ------ -<br>--------- ----- -----,170643.2000000002,170642.39999999944,170242.4,170251.5,170257.683,170644.345,,42,stay
screen,html.Screen,0_4_1_0_1_43,2021-12-02T10:01:56.219Z,,,,,,,,,,,,,,,,15,,,,,,,,,,,,,,342.15499999999884,,response,,,7,E,,,,,Space,keypress(Space),,,,lyrical,---- --------- ---------- - --- ------- -- --- ------------<br>----- -- -------- ------- ---- ------ - -------- ---- -----<br>--- ------- ---- -- --- -------- --- - ----- ------ ---- --<br>-------- --- -------- -------- --- -------- ---- -- ----- -<br>-------- ---- for ---------- --------- -- ------- ------ -<br>--------- ----- -----,170987.2999999998,170986.5,170629.191,170643.39999999944,170644.345,170992.165,,43,for
screen,html.Screen,0_4_1_0_1_44,2021-12-02T10:01:56.587Z,,,,,,,,,,,,,,,,15,,,,,,,,,,,,,,362.23499999943306,,response,,,7,E,,,,,Space,keypress(Space),,,,lyrical,---- --------- ---------- - --- ------- -- --- ------------<br>----- -- -------- ------- ---- ------ - -------- ---- -----<br>--- ------- ---- -- --- -------- --- - ----- ------ ---- --<br>-------- --- -------- -------- --- -------- ---- -- ----- -<br>-------- ---- --- previously --------- -- ------- ------ -<br>--------- ----- -----,171355.2000000002,171354.39999999944,170976.776,170987.5,170992.165,171356.471,,44,previously
screen,html.Screen,0_4_1_0_1_45,2021-12-02T10:01:56.939Z,,,,,,,,,,,,,,,,15,,,,,,,,,,,,,,349.92899999945075,,response,,,7,E,,,,,Space,keypress(Space),,,,lyrical,---- --------- ---------- - --- ------- -- --- ------------<br>----- -- -------- ------- ---- ------ - -------- ---- -----<br>--- ------- ---- -- --- -------- --- - ----- ------ ---- --<br>-------- --- -------- -------- --- -------- ---- -- ----- -<br>-------- ---- --- ---------- declining -- ------- ------ -<br>--------- ----- -----,171707.2000000002,171706.39999999944,171341.134,171355.5,171356.471,171720.5,,45,declining
screen,html.Screen,0_4_1_0_1_46,2021-12-02T10:01:57.323Z,,,,,,,,,,,,,,,,15,,,,,,,,,,,,,,369.8999999994412,,response,,,7,E,,,,,Space,keypress(Space),,,,lyrical,---- --------- ---------- - --- ------- -- --- ------------<br>----- -- -------- ------- ---- ------ - -------- ---- -----<br>--- ------- ---- -- --- -------- --- - ----- ------ ---- --<br>-------- --- -------- -------- --- -------- ---- -- ----- -<br>-------- ---- --- ---------- --------- to ------- ------ -<br>--------- ----- -----,172091.2000000002,172090.39999999944,171705.279,171707.5,171720.5,172102.633,,46,to
screen,html.Screen,0_4_1_0_1_47,2021-12-02T10:01:57.659Z,,,,,,,,,,,,,,,,15,,,,,,,,,,,,,,323.86699999999837,,response,,,7,E,,,,,Space,keypress(Space),,,,lyrical,---- --------- ---------- - --- ------- -- --- ------------<br>----- -- -------- ------- ---- ------ - -------- ---- -----<br>--- ------- ---- -- --- -------- --- - ----- ------ ---- --<br>-------- --- -------- -------- --- -------- ---- -- ----- -<br>-------- ---- --- ---------- --------- -- testify ------ -<br>--------- ----- -----,172427.09999999963,172426.5,172087.352,172091.39999999944,172102.633,172437.295,,47,testify
screen,html.Screen,0_4_1_0_1_48,2021-12-02T10:01:57.995Z,,,,,,,,,,,,,,,,15,,,,,,,,,,,,,,325.50499999980093,,response,,,7,E,,,,,Space,keypress(Space),,,,lyrical,---- --------- ---------- - --- ------- -- --- ------------<br>----- -- -------- ------- ---- ------ - -------- ---- -----<br>--- ------- ---- -- --- -------- --- - ----- ------ ---- --<br>-------- --- -------- -------- --- -------- ---- -- ----- -<br>-------- ---- --- ---------- --------- -- ------- before -<br>--------- ----- -----,172763.59999999963,172762.7999999998,172422.075,172427.39999999944,172437.295,172774.831,,48,before
screen,html.Screen,0_4_1_0_1_49,2021-12-02T10:01:58.355Z,,,,,,,,,,,,,,,,15,,,,,,,,,,,,,,347.46899999980815,,response,,,7,E,,,,,Space,keypress(Space),,,,lyrical,---- --------- ---------- - --- ------- -- --- ------------<br>----- -- -------- ------- ---- ------ - -------- ---- -----<br>--- ------- ---- -- --- -------- --- - ----- ------ ---- --<br>-------- --- -------- -------- --- -------- ---- -- ----- -<br>-------- ---- --- ---------- --------- -- ------- ------ a<br>--------- ----- -----,173123.09999999963,173122.2999999998,172759.495,172763.7000000002,172774.831,173135.913,,49,a
screen,html.Screen,0_4_1_0_1_50,2021-12-02T10:01:58.763Z,,,,,,,,,,,,,,,,15,,,,,,,,,,,,,,394.48699999944074,,response,,,7,E,,,,,Space,keypress(Space),,,,lyrical,---- --------- ---------- - --- ------- -- --- ------------<br>----- -- -------- ------- ---- ------ - -------- ---- -----<br>--- ------- ---- -- --- -------- --- - ----- ------ ---- --<br>-------- --- -------- -------- --- -------- ---- -- ----- -<br>-------- ---- --- ---------- --------- -- ------- ------ -<br>different ----- -----,173531.09999999963,173530.39999999944,173120.759,173123.2999999998,173135.913,173533.442,,50,different
screen,html.Screen,0_4_1_0_1_51,2021-12-02T10:01:59.099Z,,,,,,,,,,,,,,,,15,,,,,,,,,,,,,,332.8579999998037,,response,,,7,E,,,,,Space,keypress(Space),,,,lyrical,---- --------- ---------- - --- ------- -- --- ------------<br>----- -- -------- ------- ---- ------ - -------- ---- -----<br>--- ------- ---- -- --- -------- --- - ----- ------ ---- --<br>-------- --- -------- -------- --- -------- ---- -- ----- -<br>-------- ---- --- ---------- --------- -- ------- ------ -<br>--------- grand -----,173867.09999999963,173866.2999999998,173518.219,173531.39999999944,173533.442,173869.597,,51,grand
screen,html.Screen,0_4_1_0_1_52,2021-12-02T10:01:59.603Z,,,,,,,,,,,,,,,,15,,,,,,,,,,,,,,500.7029999998049,,response,,,7,E,,,,,Space,keypress(Space),,,,lyrical,---- --------- ---------- - --- ------- -- --- ------------<br>----- -- -------- ------- ---- ------ - -------- ---- -----<br>--- ------- ---- -- --- -------- --- - ----- ------ ---- --<br>-------- --- -------- -------- --- -------- ---- -- ----- -<br>-------- ---- --- ---------- --------- -- ------- ------ -<br>--------- ----- jury.,174371.09999999963,174370.2999999998,173854.376,173867.2999999998,173869.597,174373.739,,52,jury.
Item 7,flow.Loop,0_4_1_0_1,2021-12-02T10:01:59.603Z,,,,,,,,,,,,,,,,,,,,,,,,,,,,,,22621.643999999826,,completion,,,,,,,,,,,,,,,,174371.39999999944,174370.2999999998,151732.259,151733.5,151748.656,174373.739,,,
