sender,sender_type,sender_id,timestamp,meta,,Blues,Classical,Country,Dance,Electronic,Folk,Gospel,Hip-Hop,Jazz,Latin,Musical/Film,New-age,Pop,Provo_ID,R&B,Rap,Reggae,Religious,Rock,Soul,Swing,Traditional,age,artist_name,correct,correctResponse,distraction,duration,education,ended_on,familiarity,gender,item,list,music_frequency,offensiveness,pleasantness,preference,response,response_action,snippet_file,song_name,song_rating,sound,text,time_commit,time_end,time_render,time_run,time_show,time_switch,url,word,word_ID
Instructions,html.Page,0_0,2021-11-26T12:38:51.058Z,"{""labjs_version"":""20.2.3"",""labjs_build"":{""flavor"":""production"",""commit"":""7ea907d66ca8aeef8054924ca5d82ffbe11e34e5""},""location"":""https://run.pavlovia.org/mvasilev/lab_music_c/"",""userAgent"":""Mozilla/5.0 (Windows NT 6.1; Win64; x64) AppleWebKit/537.36 (KHTML, like Gecko) Chrome/96.0.4664.45 Safari/537.36"",""platform"":""Win32"",""language"":""en-US"",""locale"":""en-US"",""timeZone"":""Europe/London"",""timezoneOffset"":0,""screen_width"":1920,""screen_height"":1080,""scroll_width"":1920,""scroll_height"":959,""window_innerWidth"":1920,""window_innerHeight"":1007,""devicePixelRatio"":1}",,,,,,,,,,,,,,,,,,,,,,,,,,,,,26187.241,,form submission,,,,,,,,,,,,,,,,34933.700000047684,34932.5,8711.919,8724.700000047684,8745.259,34934.757,{},,
Headphones,html.Page,0_1,2021-11-26T12:38:54.732Z,,,,,,,,,,,,,,,,,,,,,,,,,,,,,,3672.3430001430534,,form submission,,,,,,,,,,,,,,,,38607.60000014305,38607.10000014305,34918.122,34934.40000009537,34934.757,38619.079,,,
Holding screen,html.Screen,0_2_0_0,2021-11-26T12:39:04.735Z,,,,,,,,,,,,,,,,,,,,,,,,,,,,,,10002.650000000001,,timeout,,,,,,,,,,,,,,,,48611.200000047684,48605.059,38602.41,38608.299999952316,38619.079,48621.729,,,
screen,html.Screen,0_2_0_1_0,2021-11-26T12:39:06.635Z,,,,,,,,,,,,,,,,53,,,,,,,,,,,,,,1887.2710000000006,,response,,,99,,,,,,Space,keypress(Space),,,,,When -- ----- -- ------ - ------- --- ----------<br>------------- ------ ------ ---- ---- ------- ----- -- ----<br>-------- ------- -- ---------- --- - --- ----- ----- ----<br>---- --- --- ----- --- ---- ---- ------- ----- ---- -------<br>--- --- -- ----- -- --- ---- -- --- ---- -- ------ ------<br>--- ----- -- ----,50510.299999952316,50509,48605.059,48611.60000014305,48621.729,50522.385,,0,When
screen,html.Screen,0_2_0_1_1,2021-11-26T12:39:07.122Z,,,,,,,,,,,,,,,,53,,,,,,,,,,,,,,474.61499999999796,,response,,,99,,,,,,Space,keypress(Space),,,,,---- it ----- -- ------ - ------- --- ----------<br>------------- ------ ------ ---- ---- ------- ----- -- ----<br>-------- ------- -- ---------- --- - --- ----- ----- ----<br>---- --- --- ----- --- ---- ---- ------- ----- ---- -------<br>--- --- -- ----- -- --- ---- -- --- ---- -- ------ ------<br>--- ----- -- ----,50997.90000009537,50997,50505.714,50510.700000047684,50522.385,51005.73,,1,it
screen,html.Screen,0_2_0_1_2,2021-11-26T12:39:07.650Z,,,,,,,,,,,,,,,,53,,,,,,,,,,,,,,519.2699999999968,,response,,,99,,,,,,Space,keypress(Space),,,,,---- -- comes -- ------ - ------- --- ----------<br>------------- ------ ------ ---- ---- ------- ----- -- ----<br>-------- ------- -- ---------- --- - --- ----- ----- ----<br>---- --- --- ----- --- ---- ---- ------- ----- ---- -------<br>--- --- -- ----- -- --- ---- -- --- ---- -- ------ ------<br>--- ----- -- ----,51525.90000009537,51525,50989.06,50998.200000047684,51005.73,51539.151,,2,comes
screen,html.Screen,0_2_0_1_3,2021-11-26T12:39:08.026Z,,,,,,,,,,,,,,,,53,,,,,,,,,,,,,,361.849000000002,,response,,,99,,,,,,Space,keypress(Space),,,,,---- -- ----- to ------ - ------- --- ----------<br>------------- ------ ------ ---- ---- ------- ----- -- ----<br>-------- ------- -- ---------- --- - --- ----- ----- ----<br>---- --- --- ----- --- ---- ---- ------- ----- ---- -------<br>--- --- -- ----- -- --- ---- -- --- ---- -- ------ ------<br>--- ----- -- ----,51901.90000009537,51901,51522.481,51526.10000014305,51539.151,51906.053,,3,to
screen,html.Screen,0_2_0_1_4,2021-11-26T12:39:08.466Z,,,,,,,,,,,,,,,,53,,,,,,,,,,,,,,434.9470000000001,,response,,,99,,,,,,Space,keypress(Space),,,,,---- -- ----- -- having - ------- --- ----------<br>------------- ------ ------ ---- ---- ------- ----- -- ----<br>-------- ------- -- ---------- --- - --- ----- ----- ----<br>---- --- --- ----- --- ---- ---- ------- ----- ---- -------<br>--- --- -- ----- -- --- ---- -- --- ---- -- ------ ------<br>--- ----- -- ----,52342.10000014305,52341,51889.381,51902.40000009537,51906.053,52356.061,,4,having
screen,html.Screen,0_2_0_1_5,2021-11-26T12:39:08.858Z,,,,,,,,,,,,,,,,53,,,,,,,,,,,,,,376.8390000953659,,response,,,99,,,,,,Space,keypress(Space),,,,,---- -- ----- -- ------ a ------- --- ----------<br>------------- ------ ------ ---- ---- ------- ----- -- ----<br>-------- ------- -- ---------- --- - --- ----- ----- ----<br>---- --- --- ----- --- ---- ---- ------- ----- ---- -------<br>--- --- -- ----- -- --- ---- -- --- ---- -- ------ ------<br>--- ----- -- ----,52733.799999952316,52732.90000009537,52339.391,52342.40000009537,52356.061,52739.551,,5,a
screen,html.Screen,0_2_0_1_6,2021-11-26T12:39:09.362Z,,,,,,,,,,,,,,,,53,,,,,,,,,,,,,,497.64900004768424,,response,,,99,,,,,,Space,keypress(Space),,,,,---- -- ----- -- ------ - lasting --- ----------<br>------------- ------ ------ ---- ---- ------- ----- -- ----<br>-------- ------- -- ---------- --- - --- ----- ----- ----<br>---- --- --- ----- --- ---- ---- ------- ----- ---- -------<br>--- --- -- ----- -- --- ---- -- --- ---- -- ------ ------<br>--- ----- -- ----,53238.10000014305,53237.200000047684,52722.88,52734.299999952316,52739.551,53239.614,,6,lasting
screen,html.Screen,0_2_0_1_7,2021-11-26T12:39:09.858Z,,,,,,,,,,,,,,,,53,,,,,,,,,,,,,,493.28600009536603,,response,,,99,,,,,,Space,keypress(Space),,,,,---- -- ----- -- ------ - ------- and ----------<br>------------- ------ ------ ---- ---- ------- ----- -- ----<br>-------- ------- -- ---------- --- - --- ----- ----- ----<br>---- --- --- ----- --- ---- ---- ------- ----- ---- -------<br>--- --- -- ----- -- --- ---- -- --- ---- -- ------ ------<br>--- ----- -- ----,53733.799999952316,53732.90000009537,53222.944,53238.40000009537,53239.614,53739.728,,7,and
screen,html.Screen,0_2_0_1_8,2021-11-26T12:39:10.386Z,,,,,,,,,,,,,,,,53,,,,,,,,,,,,,,521.0719999523135,,response,,,99,,,,,,Space,keypress(Space),,,,,---- -- ----- -- ------ - ------- --- fulfilling<br>------------- ------ ------ ---- ---- ------- ----- -- ----<br>-------- ------- -- ---------- --- - --- ----- ----- ----<br>---- --- --- ----- --- ---- ---- ------- ----- ---- -------<br>--- --- -- ----- -- --- ---- -- --- ---- -- ------ ------<br>--- ----- -- ----,54261.90000009537,54260.799999952316,53723.058,53734.10000014305,53739.728,54273.212,,8,fulfilling
screen,html.Screen,0_2_0_1_9,2021-11-26T12:39:11.026Z,,,,,,,,,,,,,,,,53,,,,,,,,,,,,,,627.5879999523167,,response,,,99,,,,,,Space,keypress(Space),,,,,"---- -- ----- -- ------ - ------- --- ----------<br>relationship, ------ ------ ---- ---- ------- ----- -- ----<br>-------- ------- -- ---------- --- - --- ----- ----- ----<br>---- --- --- ----- --- ---- ---- ------- ----- ---- -------<br>--- --- -- ----- -- --- ---- -- --- ---- -- ------ ------<br>--- ----- -- ----",54901.700000047684,54900.799999952316,54256.542,54262.200000047684,54273.212,54906.672,,9,"relationship,"
screen,html.Screen,0_2_0_1_10,2021-11-26T12:39:11.594Z,,,,,,,,,,,,,,,,53,,,,,,,,,,,,,,562.028000047685,,response,,,99,,,,,,Space,keypress(Space),,,,,---- -- ----- -- ------ - ------- --- ----------<br>------------- common ------ ---- ---- ------- ----- -- ----<br>-------- ------- -- ---------- --- - --- ----- ----- ----<br>---- --- --- ----- --- ---- ---- ------- ----- ---- -------<br>--- --- -- ----- -- --- ---- -- --- ---- -- ------ ------<br>--- ----- -- ----,55469.799999952316,55468.700000047684,54890.002,54902,54906.672,55473.508,,10,common
screen,html.Screen,0_2_0_1_11,2021-11-26T12:39:12.098Z,,,,,,,,,,,,,,,,53,,,,,,,,,,,,,,499.1920000476821,,response,,,99,,,,,,Space,keypress(Space),,,,,---- -- ----- -- ------ - ------- --- ----------<br>------------- ------ wisdom ---- ---- ------- ----- -- ----<br>-------- ------- -- ---------- --- - --- ----- ----- ----<br>---- --- --- ----- --- ---- ---- ------- ----- ---- -------<br>--- --- -- ----- -- --- ---- -- --- ---- -- ------ ------<br>--- ----- -- ----,55973.700000047684,55972.700000047684,55456.838,55470,55473.508,55990.295,,11,wisdom
screen,html.Screen,0_2_0_1_12,2021-11-26T12:39:12.586Z,,,,,,,,,,,,,,,,53,,,,,,,,,,,,,,470.3050001430529,,response,,,99,,,,,,Space,keypress(Space),,,,,---- -- ----- -- ------ - ------- --- ----------<br>------------- ------ ------ says ---- ------- ----- -- ----<br>-------- ------- -- ---------- --- - --- ----- ----- ----<br>---- --- --- ----- --- ---- ---- ------- ----- ---- -------<br>--- --- -- ----- -- --- ---- -- --- ---- -- ------ ------<br>--- ----- -- ----,56461.5,56460.60000014305,55973.625,55973.90000009537,55990.295,56473.746,,12,says
screen,html.Screen,0_2_0_1_13,2021-11-26T12:39:12.962Z,,,,,,,,,,,,,,,,53,,,,,,,,,,,,,,362.95400004768453,,response,,,99,,,,,,Space,keypress(Space),,,,,---- -- ----- -- ------ - ------- --- ----------<br>------------- ------ ------ ---- that ------- ----- -- ----<br>-------- ------- -- ---------- --- - --- ----- ----- ----<br>---- --- --- ----- --- ---- ---- ------- ----- ---- -------<br>--- --- -- ----- -- --- ---- -- --- ---- -- ------ ------<br>--- ----- -- ----,56837.5,56836.700000047684,56457.076,56461.700000047684,56473.746,56840.489,,13,that
screen,html.Screen,0_2_0_1_14,2021-11-26T12:39:13.370Z,,,,,,,,,,,,,,,,53,,,,,,,,,,,,,,404.11100014304975,,response,,,99,,,,,,Space,keypress(Space),,,,,---- -- ----- -- ------ - ------- --- ----------<br>------------- ------ ------ ---- ---- feeling ----- -- ----<br>-------- ------- -- ---------- --- - --- ----- ----- ----<br>---- --- --- ----- --- ---- ---- ------- ----- ---- -------<br>--- --- -- ----- -- --- ---- -- --- ---- -- ------ ------<br>--- ----- -- ----,57245.5,57244.60000014305,56823.819,56837.799999952316,56840.489,57257.246,,14,feeling
screen,html.Screen,0_2_0_1_15,2021-11-26T12:39:13.922Z,,,,,,,,,,,,,,,,53,,,,,,,,,,,,,,539.354000143052,,response,,,99,,,,,,Space,keypress(Space),,,,,---- -- ----- -- ------ - ------- --- ----------<br>------------- ------ ------ ---- ---- ------- close -- ----<br>-------- ------- -- ---------- --- - --- ----- ----- ----<br>---- --- --- ----- --- ---- ---- ------- ----- ---- -------<br>--- --- -- ----- -- --- ---- -- --- ---- -- ------ ------<br>--- ----- -- ----,57797.299999952316,57796.60000014305,57240.576,57245.799999952316,57257.246,57807.282,,15,close
screen,html.Screen,0_2_0_1_16,2021-11-26T12:39:14.210Z,,,,,,,,,,,,,,,,53,,,,,,,,,,,,,,277.3180001430519,,response,,,99,,,,,,Space,keypress(Space),,,,,---- -- ----- -- ------ - ------- --- ----------<br>------------- ------ ------ ---- ---- ------- ----- to ----<br>-------- ------- -- ---------- --- - --- ----- ----- ----<br>---- --- --- ----- --- ---- ---- ------- ----- ---- -------<br>--- --- -- ----- -- --- ---- -- --- ---- -- ------ ------<br>--- ----- -- ----,58085.40000009537,58084.60000014305,57790.613,57797.60000014305,57807.282,58090.912,,16,to
screen,html.Screen,0_2_0_1_17,2021-11-26T12:39:14.786Z,,,,,,,,,,,,,,,,53,,,,,,,,,,,,,,569.5880000000034,,response,,,99,,,,,,Space,keypress(Space),,,,,---- -- ----- -- ------ - ------- --- ----------<br>------------- ------ ------ ---- ---- ------- ----- -- your<br>-------- ------- -- ---------- --- - --- ----- ----- ----<br>---- --- --- ----- --- ---- ---- ------- ----- ---- -------<br>--- --- -- ----- -- --- ---- -- --- ---- -- ------ ------<br>--- ----- -- ----,58661.299999952316,58660.5,58074.24,58085.60000014305,58090.912,58674.279,,17,your
screen,html.Screen,0_2_0_1_18,2021-11-26T12:39:15.282Z,,,,,,,,,,,,,,,,53,,,,,,,,,,,,,,482.22099999999773,,response,,,99,,,,,,Space,keypress(Space),,,,,---- -- ----- -- ------ - ------- --- ----------<br>------------- ------ ------ ---- ---- ------- ----- -- ----<br>romantic ------- -- ---------- --- - --- ----- ----- ----<br>---- --- --- ----- --- ---- ---- ------- ----- ---- -------<br>--- --- -- ----- -- --- ---- -- --- ---- -- ------ ------<br>--- ----- -- ----,59157.299999952316,59156.5,58657.609,58661.60000014305,58674.279,59174.388,,18,romantic
screen,html.Screen,0_2_0_1_19,2021-11-26T12:39:15.825Z,,,,,,,,,,,,,,,,53,,,,,,,,,,,,,,526.112000000001,,response,,,99,,,,,,Space,keypress(Space),,,,,---- -- ----- -- ------ - ------- --- ----------<br>------------- ------ ------ ---- ---- ------- ----- -- ----<br>-------- partner -- ---------- --- - --- ----- ----- ----<br>---- --- --- ----- --- ---- ---- ------- ----- ---- -------<br>--- --- -- ----- -- --- ---- -- --- ---- -- ------ ------<br>--- ----- -- ----,59701.200000047684,59700.5,59157.718,59157.5,59174.388,59707.845,,19,partner
screen,html.Screen,0_2_0_1_20,2021-11-26T12:39:16.430Z,,,,,,,,,,,,,,,,53,,,,,,,,,,,,,,592.5550000953663,,response,,,99,,,,,,Space,keypress(Space),,,,,---- -- ----- -- ------ - ------- --- ----------<br>------------- ------ ------ ---- ---- ------- ----- -- ----<br>-------- ------- is ---------- --- - --- ----- ----- ----<br>---- --- --- ----- --- ---- ---- ------- ----- ---- -------<br>--- --- -- ----- -- --- ---- -- --- ---- -- ------ ------<br>--- ----- -- ----,60301.200000047684,60300.40000009537,59691.175,59701.5,59707.845,60307.994,,20,is
screen,html.Screen,0_2_0_1_21,2021-11-26T12:39:17.174Z,,,,,,,,,,,,,,,,53,,,,,,,,,,,,,,736.3059999523175,,response,,,99,,,,,,Space,keypress(Space),,,,,---- -- ----- -- ------ - ------- --- ----------<br>------------- ------ ------ ---- ---- ------- ----- -- ----<br>-------- ------- -- paramount. --- - --- ----- ----- ----<br>---- --- --- ----- --- ---- ---- ------- ----- ---- -------<br>--- --- -- ----- -- --- ---- -- --- ---- -- ------ ------<br>--- ----- -- ----,61045.10000014305,61044.299999952316,60291.324,60301.5,60307.994,61058.175,,21,paramount.
screen,html.Screen,0_2_0_1_22,2021-11-26T12:39:17.654Z,,,,,,,,,,,,,,,,53,,,,,,,,,,,,,,466.1249999523134,,response,,,99,,,,,,Space,keypress(Space),,,,,---- -- ----- -- ------ - ------- --- ----------<br>------------- ------ ------ ---- ---- ------- ----- -- ----<br>-------- ------- -- ---------- But - --- ----- ----- ----<br>---- --- --- ----- --- ---- ---- ------- ----- ---- -------<br>--- --- -- ----- -- --- ---- -- --- ---- -- ------ ------<br>--- ----- -- ----,61525.10000014305,61524.299999952316,61041.505,61045.60000014305,61058.175,61541.593,,22,But
screen,html.Screen,0_2_0_1_23,2021-11-26T12:39:18.030Z,,,,,,,,,,,,,,,,53,,,,,,,,,,,,,,358.7069999523155,,response,,,99,,,,,,Space,keypress(Space),,,,,---- -- ----- -- ------ - ------- --- ----------<br>------------- ------ ------ ---- ---- ------- ----- -- ----<br>-------- ------- -- ---------- --- a --- ----- ----- ----<br>---- --- --- ----- --- ---- ---- ------- ----- ---- -------<br>--- --- -- ----- -- --- ---- -- --- ---- -- ------ ------<br>--- ----- -- ----,61901,61900.299999952316,61524.923,61525.40000009537,61541.593,61908.401,,23,a
screen,html.Screen,0_2_0_1_24,2021-11-26T12:39:18.318Z,,,,,,,,,,,,,,,,53,,,,,,,,,,,,,,279.89899995231826,,response,,,99,,,,,,Space,keypress(Space),,,,,---- -- ----- -- ------ - ------- --- ----------<br>------------- ------ ------ ---- ---- ------- ----- -- ----<br>-------- ------- -- ---------- --- - new ----- ----- ----<br>---- --- --- ----- --- ---- ---- ------- ----- ---- -------<br>--- --- -- ----- -- --- ---- -- --- ---- -- ------ ------<br>--- ----- -- ----,62189.10000014305,62188.299999952316,61891.731,61901.299999952316,61908.401,62191.785,,24,new
screen,html.Screen,0_2_0_1_25,2021-11-26T12:39:18.646Z,,,,,,,,,,,,,,,,53,,,,,,,,,,,,,,324.5149999523128,,response,,,99,,,,,,Space,keypress(Space),,,,,---- -- ----- -- ------ - ------- --- ----------<br>------------- ------ ------ ---- ---- ------- ----- -- ----<br>-------- ------- -- ---------- --- - --- study ----- ----<br>---- --- --- ----- --- ---- ---- ------- ----- ---- -------<br>--- --- -- ----- -- --- ---- -- --- ---- -- ------ ------<br>--- ----- -- ----,62517,62516.299999952316,62175.115,62189.299999952316,62191.785,62525.219,,25,study
screen,html.Screen,0_2_0_1_26,2021-11-26T12:39:19.069Z,,,,,,,,,,,,,,,,53,,,,,,,,,,,,,,414.9810000476864,,response,,,99,,,,,,Space,keypress(Space),,,,,---- -- ----- -- ------ - ------- --- ----------<br>------------- ------ ------ ---- ---- ------- ----- -- ----<br>-------- ------- -- ---------- --- - --- ----- finds ----<br>---- --- --- ----- --- ---- ---- ------- ----- ---- -------<br>--- --- -- ----- -- --- ---- -- --- ---- -- ------ ------<br>--- ----- -- ----,62941,62940.200000047684,62508.549,62517.299999952316,62525.219,62942.022,,26,finds
screen,html.Screen,0_2_0_1_27,2021-11-26T12:39:19.454Z,,,,,,,,,,,,,,,,53,,,,,,,,,,,,,,382.4780000000028,,response,,,99,,,,,,Space,keypress(Space),,,,,---- -- ----- -- ------ - ------- --- ----------<br>------------- ------ ------ ---- ---- ------- ----- -- ----<br>-------- ------- -- ---------- --- - --- ----- ----- that<br>---- --- --- ----- --- ---- ---- ------- ----- ---- -------<br>--- --- -- ----- -- --- ---- -- --- ---- -- ------ ------<br>--- ----- -- ----,63325.200000047684,63324.5,62925.351,62941.200000047684,62942.022,63342.059,,27,that
screen,html.Screen,0_2_0_1_28,2021-11-26T12:39:19.829Z,,,,,,,,,,,,,,,,53,,,,,,,,,,,,,,357.9409999999989,,response,,,99,,,,,,Space,keypress(Space),,,,,---- -- ----- -- ------ - ------- --- ----------<br>------------- ------ ------ ---- ---- ------- ----- -- ----<br>-------- ------- -- ---------- --- - --- ----- ----- ----<br>it's --- --- ----- --- ---- ---- ------- ----- ---- -------<br>--- --- -- ----- -- --- ---- -- --- ---- -- ------ ------<br>--- ----- -- ----,63700.90000009537,63700,63325.389,63325.5,63342.059,63708.82,,28,it's
screen,html.Screen,0_2_0_1_29,2021-11-26T12:39:20.205Z,,,,,,,,,,,,,,,,53,,,,,,,,,,,,,,367.28000014305144,,response,,,99,,,,,,Space,keypress(Space),,,,,---- -- ----- -- ------ - ------- --- ----------<br>------------- ------ ------ ---- ---- ------- ----- -- ----<br>-------- ------- -- ---------- --- - --- ----- ----- ----<br>---- not --- ----- --- ---- ---- ------- ----- ---- -------<br>--- --- -- ----- -- --- ---- -- --- ---- -- ------ ------<br>--- ----- -- ----,64077,64076.10000014305,63692.15,63701.200000047684,63708.82,64092.303,,29,not
screen,html.Screen,0_2_0_1_30,2021-11-26T12:39:20.533Z,,,,,,,,,,,,,,,,53,,,,,,,,,,,,,,311.79700014305126,,response,,,99,,,,,,Space,keypress(Space),,,,,---- -- ----- -- ------ - ------- --- ----------<br>------------- ------ ------ ---- ---- ------- ----- -- ----<br>-------- ------- -- ---------- --- - --- ----- ----- ----<br>---- --- how ----- --- ---- ---- ------- ----- ---- -------<br>--- --- -- ----- -- --- ---- -- --- ---- -- ------ ------<br>--- ----- -- ----,64404.90000009537,64404.10000014305,64075.632,64077.10000014305,64092.303,64408.992,,30,how
screen,html.Screen,0_2_0_1_31,2021-11-26T12:39:20.885Z,,,,,,,,,,,,,,,,53,,,,,,,,,,,,,,347.00800000000163,,response,,,99,,,,,,Space,keypress(Space),,,,,---- -- ----- -- ------ - ------- --- ----------<br>------------- ------ ------ ---- ---- ------- ----- -- ----<br>-------- ------- -- ---------- --- - --- ----- ----- ----<br>---- --- --- close --- ---- ---- ------- ----- ---- -------<br>--- --- -- ----- -- --- ---- -- --- ---- -- ------ ------<br>--- ----- -- ----,64756.90000009537,64756,64392.322,64405.10000014305,64408.992,64759.091,,31,close
screen,html.Screen,0_2_0_1_32,2021-11-26T12:39:21.197Z,,,,,,,,,,,,,,,,53,,,,,,,,,,,,,,309.0090001430508,,response,,,99,,,,,,Space,keypress(Space),,,,,---- -- ----- -- ------ - ------- --- ----------<br>------------- ------ ------ ---- ---- ------- ----- -- ----<br>-------- ------- -- ---------- --- - --- ----- ----- ----<br>---- --- --- ----- you ---- ---- ------- ----- ---- -------<br>--- --- -- ----- -- --- ---- -- --- ---- -- ------ ------<br>--- ----- -- ----,65069,65068.10000014305,64742.421,64757.10000014305,64759.091,65075.847,,32,you
screen,html.Screen,0_2_0_1_33,2021-11-26T12:39:21.613Z,,,,,,,,,,,,,,,,53,,,,,,,,,,,,,,408.2530001430496,,response,,,99,,,,,,Space,keypress(Space),,,,,---- -- ----- -- ------ - ------- --- ----------<br>------------- ------ ------ ---- ---- ------- ----- -- ----<br>-------- ------- -- ---------- --- - --- ----- ----- ----<br>---- --- --- ----- --- feel ---- ------- ----- ---- -------<br>--- --- -- ----- -- --- ---- -- --- ---- -- ------ ------<br>--- ----- -- ----,65484.799999952316,65484.10000014305,65059.177,65069.299999952316,65075.847,65492.582,,33,feel
screen,html.Screen,0_2_0_1_34,2021-11-26T12:39:21.997Z,,,,,,,,,,,,,,,,53,,,,,,,,,,,,,,375.41799999999785,,response,,,99,,,,,,Space,keypress(Space),,,,,---- -- ----- -- ------ - ------- --- ----------<br>------------- ------ ------ ---- ---- ------- ----- -- ----<br>-------- ------- -- ---------- --- - --- ----- ----- ----<br>---- --- --- ----- --- ---- that ------- ----- ---- -------<br>--- --- -- ----- -- --- ---- -- --- ---- -- ------ ------<br>--- ----- -- ----,65868.70000004768,65868,65475.912,65485.10000014305,65492.582,65875.947,,34,that
screen,html.Screen,0_2_0_1_35,2021-11-26T12:39:22.245Z,,,,,,,,,,,,,,,,53,,,,,,,,,,,,,,240.05299999999988,,response,,,99,,,,,,Space,keypress(Space),,,,,---- -- ----- -- ------ - ------- --- ----------<br>------------- ------ ------ ---- ---- ------- ----- -- ----<br>-------- ------- -- ---------- --- - --- ----- ----- ----<br>---- --- --- ----- --- ---- ---- matters ----- ---- -------<br>--- --- -- ----- -- --- ---- -- --- ---- -- ------ ------<br>--- ----- -- ----,66116.79999995232,66116,65859.278,65869,65875.947,66126.133,,35,matters
screen,html.Screen,0_2_0_1_36,2021-11-26T12:39:22.741Z,,,,,,,,,,,,,,,,53,,,,,,,,,,,,,,485.7670000953658,,response,,,99,,,,,,Space,keypress(Space),,,,,"---- -- ----- -- ------ - ------- --- ----------<br>------------- ------ ------ ---- ---- ------- ----- -- ----<br>-------- ------- -- ---------- --- - --- ----- ----- ----<br>---- --- --- ----- --- ---- ---- ------- most, ---- -------<br>--- --- -- ----- -- --- ---- -- --- ---- -- ------ ------<br>--- ----- -- ----",66612.79999995232,66611.90000009537,66109.462,66117,66126.133,66626.207,,36,"most,"
screen,html.Screen,0_2_0_1_37,2021-11-26T12:39:23.189Z,,,,,,,,,,,,,,,,53,,,,,,,,,,,,,,433.69300009537255,,response,,,99,,,,,,Space,keypress(Space),,,,,---- -- ----- -- ------ - ------- --- ----------<br>------------- ------ ------ ---- ---- ------- ----- -- ----<br>-------- ------- -- ---------- --- - --- ----- ----- ----<br>---- --- --- ----- --- ---- ---- ------- ----- it's -------<br>--- --- -- ----- -- --- ---- -- --- ---- -- ------ ------<br>--- ----- -- ----,67060.60000014305,67059.90000009537,66609.537,66613.10000014305,66626.207,67076.032,,37,it's
screen,html.Screen,0_2_0_1_38,2021-11-26T12:39:23.581Z,,,,,,,,,,,,,,,,53,,,,,,,,,,,,,,375.76799995230976,,response,,,99,,,,,,Space,keypress(Space),,,,,---- -- ----- -- ------ - ------- --- ----------<br>------------- ------ ------ ---- ---- ------- ----- -- ----<br>-------- ------- -- ---------- --- - --- ----- ----- ----<br>---- --- --- ----- --- ---- ---- ------- ----- ---- whether<br>--- --- -- ----- -- --- ---- -- --- ---- -- ------ ------<br>--- ----- -- ----,67452.70000004768,67451.79999995232,67059.366,67060.79999995232,67076.032,67459.834,,38,whether
screen,html.Screen,0_2_0_1_39,2021-11-26T12:39:23.917Z,,,,,,,,,,,,,,,,53,,,,,,,,,,,,,,327.9659999523137,,response,,,99,,,,,,Space,keypress(Space),,,,,---- -- ----- -- ------ - ------- --- ----------<br>------------- ------ ------ ---- ---- ------- ----- -- ----<br>-------- ------- -- ---------- --- - --- ----- ----- ----<br>---- --- --- ----- --- ---- ---- ------- ----- ---- -------<br>you --- -- ----- -- --- ---- -- --- ---- -- ------ ------<br>--- ----- -- ----,67788.60000014305,67787.79999995232,67443.162,67452.90000009537,67459.834,67793.172,,39,you
screen,html.Screen,0_2_0_1_40,2021-11-26T12:39:24.269Z,,,,,,,,,,,,,,,,53,,,,,,,,,,,,,,346.62799995231035,,response,,,99,,,,,,Space,keypress(Space),,,,,---- -- ----- -- ------ - ------- --- ----------<br>------------- ------ ------ ---- ---- ------- ----- -- ----<br>-------- ------- -- ---------- --- - --- ----- ----- ----<br>---- --- --- ----- --- ---- ---- ------- ----- ---- -------<br>--- are -- ----- -- --- ---- -- --- ---- -- ------ ------<br>--- ----- -- ----,68140.60000014305,68139.79999995232,67776.502,67788.90000009537,67793.172,68143.252,,40,are
screen,html.Screen,0_2_0_1_41,2021-11-26T12:39:24.637Z,,,,,,,,,,,,,,,,53,,,,,,,,,,,,,,364.54799995232315,,response,,,99,,,,,,Space,keypress(Space),,,,,---- -- ----- -- ------ - ------- --- ----------<br>------------- ------ ------ ---- ---- ------- ----- -- ----<br>-------- ------- -- ---------- --- - --- ----- ----- ----<br>---- --- --- ----- --- ---- ---- ------- ----- ---- -------<br>--- --- as ----- -- --- ---- -- --- ---- -- ------ ------<br>--- ----- -- ----,68508.5,68507.79999995232,68126.582,68140.79999995232,68143.252,68509.997,,41,as
screen,html.Screen,0_2_0_1_42,2021-11-26T12:39:25.037Z,,,,,,,,,,,,,,,,53,,,,,,,,,,,,,,397.7030000476807,,response,,,99,,,,,,Space,keypress(Space),,,,,---- -- ----- -- ------ - ------- --- ----------<br>------------- ------ ------ ---- ---- ------- ----- -- ----<br>-------- ------- -- ---------- --- - --- ----- ----- ----<br>---- --- --- ----- --- ---- ---- ------- ----- ---- -------<br>--- --- -- close -- --- ---- -- --- ---- -- ------ ------<br>--- ----- -- ----,68908.60000014305,68907.70000004768,68493.327,68508.90000009537,68509.997,68910.097,,42,close
screen,html.Screen,0_2_0_1_43,2021-11-26T12:39:25.381Z,,,,,,,,,,,,,,,,53,,,,,,,,,,,,,,341.6030000476894,,response,,,99,,,,,,Space,keypress(Space),,,,,---- -- ----- -- ------ - ------- --- ----------<br>------------- ------ ------ ---- ---- ------- ----- -- ----<br>-------- ------- -- ---------- --- - --- ----- ----- ----<br>---- --- --- ----- --- ---- ---- ------- ----- ---- -------<br>--- --- -- ----- as --- ---- -- --- ---- -- ------ ------<br>--- ----- -- ----,69252.60000014305,69251.70000004768,68893.427,68908.79999995232,68910.097,69260.186,,43,as
screen,html.Screen,0_2_0_1_44,2021-11-26T12:39:25.789Z,,,,,,,,,,,,,,,,53,,,,,,,,,,,,,,399.5140000476822,,response,,,99,,,,,,Space,keypress(Space),,,,,---- -- ----- -- ------ - ------- --- ----------<br>------------- ------ ------ ---- ---- ------- ----- -- ----<br>-------- ------- -- ---------- --- - --- ----- ----- ----<br>---- --- --- ----- --- ---- ---- ------- ----- ---- -------<br>--- --- -- ----- -- you ---- -- --- ---- -- ------ ------<br>--- ----- -- ----,69660.60000014305,69659.70000004768,69243.516,69252.79999995232,69260.186,69676.942,,44,you
screen,html.Screen,0_2_0_1_45,2021-11-26T12:39:26.141Z,,,,,,,,,,,,,,,,53,,,,,,,,,,,,,,334.75800004768826,,response,,,99,,,,,,Space,keypress(Space),,,,,---- -- ----- -- ------ - ------- --- ----------<br>------------- ------ ------ ---- ---- ------- ----- -- ----<br>-------- ------- -- ---------- --- - --- ----- ----- ----<br>---- --- --- ----- --- ---- ---- ------- ----- ---- -------<br>--- --- -- ----- -- --- want -- --- ---- -- ------ ------<br>--- ----- -- ----,70012.5,70011.70000004768,69660.272,69660.90000009537,69676.942,70027.026,,45,want
screen,html.Screen,0_2_0_1_46,2021-11-26T12:39:26.501Z,,,,,,,,,,,,,,,,53,,,,,,,,,,,,,,344.6740000476857,,response,,,99,,,,,,Space,keypress(Space),,,,,---- -- ----- -- ------ - ------- --- ----------<br>------------- ------ ------ ---- ---- ------- ----- -- ----<br>-------- ------- -- ---------- --- - --- ----- ----- ----<br>---- --- --- ----- --- ---- ---- ------- ----- ---- -------<br>--- --- -- ----- -- --- ---- to --- ---- -- ------ ------<br>--- ----- -- ----,70372.5,70371.70000004768,70010.356,70012.79999995232,70027.026,70377.12,,46,to
screen,html.Screen,0_2_0_1_47,2021-11-26T12:39:26.965Z,,,,,,,,,,,,,,,,53,,,,,,,,,,,,,,458.4800001430558,,response,,,99,,,,,,Space,keypress(Space),,,,,"---- -- ----- -- ------ - ------- --- ----------<br>------------- ------ ------ ---- ---- ------- ----- -- ----<br>-------- ------- -- ---------- --- - --- ----- ----- ----<br>---- --- --- ----- --- ---- ---- ------- ----- ---- -------<br>--- --- -- ----- -- --- ---- -- be, ---- -- ------ ------<br>--- ----- -- ----",70836.5,70835.60000014305,70360.45,70372.70000004768,70377.12,70843.899,,47,"be,"
screen,html.Screen,0_2_0_1_48,2021-11-26T12:39:27.445Z,,,,,,,,,,,,,,,,53,,,,,,,,,,,,,,471.8010000476788,,response,,,99,,,,,,Space,keypress(Space),,,,,---- -- ----- -- ------ - ------- --- ----------<br>------------- ------ ------ ---- ---- ------- ----- -- ----<br>-------- ------- -- ---------- --- - --- ----- ----- ----<br>---- --- --- ----- --- ---- ---- ------- ----- ---- -------<br>--- --- -- ----- -- --- ---- -- --- even -- ------ ------<br>--- ----- -- ----,71316.40000009537,71315.70000004768,70827.229,70836.79999995232,70843.899,71327.334,,48,even
screen,html.Screen,0_2_0_1_49,2021-11-26T12:39:27.621Z,,,,,,,,,,,,,,,,53,,,,,,,,,,,,,,164.2660001430486,,response,,,99,,,,,,Space,keypress(Space),,,,,---- -- ----- -- ------ - ------- --- ----------<br>------------- ------ ------ ---- ---- ------- ----- -- ----<br>-------- ------- -- ---------- --- - --- ----- ----- ----<br>---- --- --- ----- --- ---- ---- ------- ----- ---- -------<br>--- --- -- ----- -- --- ---- -- --- ---- if ------ ------<br>--- ----- -- ----,71492.5,71491.60000014305,71310.664,71316.70000004768,71327.334,71494.06,,49,if
screen,html.Screen,0_2_0_1_50,2021-11-26T12:39:27.949Z,,,,,,,,,,,,,,,,53,,,,,,,,,,,,,,325.5400001430535,,response,,,99,,,,,,Space,keypress(Space),,,,,---- -- ----- -- ------ - ------- --- ----------<br>------------- ------ ------ ---- ---- ------- ----- -- ----<br>-------- ------- -- ---------- --- - --- ----- ----- ----<br>---- --- --- ----- --- ---- ---- ------- ----- ---- -------<br>--- --- -- ----- -- --- ---- -- --- ---- -- that's ------<br>--- ----- -- ----,71820.29999995232,71819.60000014305,71477.39,71492.70000004768,71494.06,71827.508,,50,that's
screen,html.Screen,0_2_0_1_51,2021-11-26T12:39:28.341Z,,,,,,,,,,,,,,,,53,,,,,,,,,,,,,,384.0920001430495,,response,,,99,,,,,,Space,keypress(Space),,,,,---- -- ----- -- ------ - ------- --- ----------<br>------------- ------ ------ ---- ---- ------- ----- -- ----<br>-------- ------- -- ---------- --- - --- ----- ----- ----<br>---- --- --- ----- --- ---- ---- ------- ----- ---- -------<br>--- --- -- ----- -- --- ---- -- --- ---- -- ------ really<br>--- ----- -- ----,72212.29999995232,72211.60000014305,71810.837,71820.60000014305,71827.508,72227.568,,51,really
screen,html.Screen,0_2_0_1_52,2021-11-26T12:39:28.685Z,,,,,,,,,,,,,,,,53,,,,,,,,,,,,,,328.03200014305185,,response,,,99,,,,,,Space,keypress(Space),,,,,---- -- ----- -- ------ - ------- --- ----------<br>------------- ------ ------ ---- ---- ------- ----- -- ----<br>-------- ------- -- ---------- --- - --- ----- ----- ----<br>---- --- --- ----- --- ---- ---- ------- ----- ---- -------<br>--- --- -- ----- -- --- ---- -- --- ---- -- ------ ------<br>not ----- -- ----,72556.29999995232,72555.60000014305,72210.898,72212.60000014305,72227.568,72560.979,,52,not
screen,html.Screen,0_2_0_1_53,2021-11-26T12:39:29.005Z,,,,,,,,,,,,,,,,53,,,,,,,,,,,,,,314.4210000953608,,response,,,99,,,,,,Space,keypress(Space),,,,,---- -- ----- -- ------ - ------- --- ----------<br>------------- ------ ------ ---- ---- ------- ----- -- ----<br>-------- ------- -- ---------- --- - --- ----- ----- ----<br>---- --- --- ----- --- ---- ---- ------- ----- ---- -------<br>--- --- -- ----- -- --- ---- -- --- ---- -- ------ ------<br>--- close -- ----,72876.10000014305,72875.40000009537,72544.309,72556.60000014305,72560.979,72877.61,,53,close
screen,html.Screen,0_2_0_1_54,2021-11-26T12:39:29.349Z,,,,,,,,,,,,,,,,53,,,,,,,,,,,,,,341.8899999999994,,response,,,99,,,,,,Space,keypress(Space),,,,,---- -- ----- -- ------ - ------- --- ----------<br>------------- ------ ------ ---- ---- ------- ----- -- ----<br>-------- ------- -- ---------- --- - --- ----- ----- ----<br>---- --- --- ----- --- ---- ---- ------- ----- ---- -------<br>--- --- -- ----- -- --- ---- -- --- ---- -- ------ ------<br>--- ----- at ----,73220.29999995232,73219.5,72860.942,72876.40000009537,72877.61,73227.881,,54,at
screen,html.Screen,0_2_0_1_55,2021-11-26T12:39:29.893Z,,,,,,,,,,,,,,,,53,,,,,,,,,,,,,,535.9189999523223,,response,,,99,,,,,,Space,keypress(Space),,,,,---- -- ----- -- ------ - ------- --- ----------<br>------------- ------ ------ ---- ---- ------- ----- -- ----<br>-------- ------- -- ---------- --- - --- ----- ----- ----<br>---- --- --- ----- --- ---- ---- ------- ----- ---- -------<br>--- --- -- ----- -- --- ---- -- --- ---- -- ------ ------<br>--- ----- -- all.,73764.5,73763.79999995232,73211.209,73220.5,73227.881,73777.99,,55,all.
Item 99,flow.Loop,0_2_0_1,2021-11-26T12:39:29.897Z,,,,,,,,,,,,,,,,,,,,,,,,,,,,,,25142.070999952317,,completion,,,,C,,,,,,,,,,silence,,73768.90000009537,73763.79999995232,48605.059,48611.5,48621.729,73777.99,,,
Question 1,html.Screen,0_2_0_2,2021-11-26T12:39:34.229Z,,,,,,,,,,,,,,,,,,,,,,,,,,,true,FALSE,,4321.009999999995,,response,,,99,C,,,,,FALSE,click #choice-2,,,,silence,,78100.29999995232,78099,73761.319,73769.20000004768,73777.99,78112.383,,,
Question 2,html.Screen,0_2_0_3,2021-11-26T12:39:42.237Z,,,,,,,,,,,,,,,,,,,,,,,,,,,true,TRUE,,7994.017000095366,,response,,,99,C,,,,,TRUE,click #choice-1,,,,silence,,86108.10000014305,86106.40000009537,78095.712,78100.60000014305,78112.383,86114.16,,,
Item 99,flow.Sequence,0_2_0,2021-11-26T12:39:42.237Z,,,,,,,,,,,,,,,,,,,,,,,,,,,,,,47487.32100009537,,completion,,,,,,,,,,,,,,,,86108.5,86106.40000009537,38602.41,38608.200000047684,38619.079,86114.16,,,
Holding screen,html.Screen,0_2_1_0,2021-11-26T12:39:52.229Z,,,,,,,,,,,,,,,,,,,,,,,,,,,,,,10002.356,,timeout,,,,,,,,,,,,,,,,96100.90000009537,96099.847,86097.491,86108.90000009537,86114.16,96116.516,,,
screen,html.Screen,0_2_1_1_0,2021-11-26T12:39:53.707Z,,,,,,,,,,,,,,,,54,,,,,,,,,,,,,,1461.283999952313,,response,,,100,,,,,,Space,keypress(Space),,,,,At --- ---- --- ------ ----- ------- ---- -- --- ------- --<br>------- ---------- ------ -- ----- -- ----- -- ---- ------<br>--- ----- --- --- ------ -------- ----- --- ------ ----- --<br>----- ----- ---------- --- --- ------ ------ ---- -- ------<br>------- --- ------ ----- --- ---- ------- -- ---- --- --<br>------- ------,97578.60000014305,97577.79999995232,96099.847,96101.40000009537,96116.516,97583.767,,0,At
screen,html.Screen,0_2_1_1_1,2021-11-26T12:39:54.259Z,,,,,,,,,,,,,,,,54,,,,,,,,,,,,,,546.0329999523092,,response,,,100,,,,,,Space,keypress(Space),,,,,-- the ---- --- ------ ----- ------- ---- -- --- ------- --<br>------- ---------- ------ -- ----- -- ----- -- ---- ------<br>--- ----- --- --- ------ -------- ----- --- ------ ----- --<br>----- ----- ---------- --- --- ------ ------ ---- -- ------<br>------- --- ------ ----- --- ---- ------- -- ---- --- --<br>------- ------,98130.70000004768,98129.79999995232,97567.096,97578.79999995232,97583.767,98133.823,,1,the
screen,html.Screen,0_2_1_1_2,2021-11-26T12:39:54.651Z,,,,,,,,,,,,,,,,54,,,,,,,,,,,,,,387.7770001430472,,response,,,100,,,,,,Space,keypress(Space),,,,,-- --- time --- ------ ----- ------- ---- -- --- ------- --<br>------- ---------- ------ -- ----- -- ----- -- ---- ------<br>--- ----- --- --- ------ -------- ----- --- ------ ----- --<br>----- ----- ---------- --- --- ------ ------ ---- -- ------<br>------- --- ------ ----- --- ---- ------- -- ---- --- --<br>------- ------,98522.40000009537,98521.60000014305,98117.153,98130.90000009537,98133.823,98533.889,,2,time
screen,html.Screen,0_2_1_1_3,2021-11-26T12:39:55.027Z,,,,,,,,,,,,,,,,54,,,,,,,,,,,,,,363.81100004768814,,response,,,100,,,,,,Space,keypress(Space),,,,,-- --- ---- the ------ ----- ------- ---- -- --- ------- --<br>------- ---------- ------ -- ----- -- ----- -- ---- ------<br>--- ----- --- --- ------ -------- ----- --- ------ ----- --<br>----- ----- ---------- --- --- ------ ------ ---- -- ------<br>------- --- ------ ----- --- ---- ------- -- ---- --- --<br>------- ------,98898.60000014305,98897.70000004768,98517.219,98522.79999995232,98533.889,98900.769,,3,the
screen,html.Screen,0_2_1_1_4,2021-11-26T12:39:55.477Z,,,,,,,,,,,,,,,,54,,,,,,,,,,,,,,444.9310000476835,,response,,,100,,,,,,Space,keypress(Space),,,,,-- --- ---- --- French ----- ------- ---- -- --- ------- --<br>------- ---------- ------ -- ----- -- ----- -- ---- ------<br>--- ----- --- --- ------ -------- ----- --- ------ ----- --<br>----- ----- ---------- --- --- ------ ------ ---- -- ------<br>------- --- ------ ----- --- ---- ------- -- ---- --- --<br>------- ------,99349,99345.70000004768,98884.097,98898.90000009537,98900.769,99350.824,,4,French
screen,html.Screen,0_2_1_1_5,2021-11-26T12:39:55.955Z,,,,,,,,,,,,,,,,54,,,,,,,,,,,,,,474.7760001430579,,response,,,100,,,,,,Space,keypress(Space),,,,,-- --- ---- --- ------ crown ------- ---- -- --- ------- --<br>------- ---------- ------ -- ----- -- ----- -- ---- ------<br>--- ----- --- --- ------ -------- ----- --- ------ ----- --<br>----- ----- ---------- --- --- ------ ------ ---- -- ------<br>------- --- ------ ----- --- ---- ------- -- ---- --- --<br>------- ------,99826.40000009537,99825.60000014305,99334.154,99349.29999995232,99350.824,99834.248,,5,crown
screen,html.Screen,0_2_1_1_6,2021-11-26T12:39:56.395Z,,,,,,,,,,,,,,,,54,,,,,,,,,,,,,,431.3520001430443,,response,,,100,,,,,,Space,keypress(Space),,,,,-- --- ---- --- ------ ----- secured ---- -- --- ------- --<br>------- ---------- ------ -- ----- -- ----- -- ---- ------<br>--- ----- --- --- ------ -------- ----- --- ------ ----- --<br>----- ----- ---------- --- --- ------ ------ ---- -- ------<br>------- --- ------ ----- --- ---- ------- -- ---- --- --<br>------- ------,100266.29999995232,100265.60000014305,99817.578,99826.79999995232,99834.248,100267.722,,6,secured
screen,html.Screen,0_2_1_1_7,2021-11-26T12:39:56.835Z,,,,,,,,,,,,,,,,54,,,,,,,,,,,,,,437.87800014305685,,response,,,100,,,,,,Space,keypress(Space),,,,,-- --- ---- --- ------ ----- ------- much -- --- ------- --<br>------- ---------- ------ -- ----- -- ----- -- ---- ------<br>--- ----- --- --- ------ -------- ----- --- ------ ----- --<br>----- ----- ---------- --- --- ------ ------ ---- -- ------<br>------- --- ------ ----- --- ---- ------- -- ---- --- --<br>------- ------,100706.29999995232,100705.60000014305,100251.052,100266.5,100267.722,100717.821,,7,much
screen,html.Screen,0_2_1_1_8,2021-11-26T12:39:57.195Z,,,,,,,,,,,,,,,,54,,,,,,,,,,,,,,347.7790001430549,,response,,,100,,,,,,Space,keypress(Space),,,,,-- --- ---- --- ------ ----- ------- ---- of --- ------- --<br>------- ---------- ------ -- ----- -- ----- -- ---- ------<br>--- ----- --- --- ------ -------- ----- --- ------ ----- --<br>----- ----- ---------- --- --- ------ ------ ---- -- ------<br>------- --- ------ ----- --- ---- ------- -- ---- --- --<br>------- ------,101066.40000009537,101065.60000014305,100701.151,100706.60000014305,100717.821,101067.781,,8,of
screen,html.Screen,0_2_1_1_9,2021-11-26T12:39:57.499Z,,,,,,,,,,,,,,,,54,,,,,,,,,,,,,,301.7189999999973,,response,,,100,,,,,,Space,keypress(Space),,,,,-- --- ---- --- ------ ----- ------- ---- -- its ------- --<br>------- ---------- ------ -- ----- -- ----- -- ---- ------<br>--- ----- --- --- ------ -------- ----- --- ------ ----- --<br>----- ----- ---------- --- --- ------ ------ ---- -- ------<br>------- --- ------ ----- --- ---- ------- -- ---- --- --<br>------- ------,101370.29999995232,101369.5,101051.113,101066.5,101067.781,101384.734,,9,its
screen,html.Screen,0_2_1_1_10,2021-11-26T12:39:57.979Z,,,,,,,,,,,,,,,,54,,,,,,,,,,,,,,464.76600000000326,,response,,,100,,,,,,Space,keypress(Space),,,,,-- --- ---- --- ------ ----- ------- ---- -- --- revenue --<br>------- ---------- ------ -- ----- -- ----- -- ---- ------<br>--- ----- --- --- ------ -------- ----- --- ------ ----- --<br>----- ----- ---------- --- --- ------ ------ ---- -- ------<br>------- --- ------ ----- --- ---- ------- -- ---- --- --<br>------- ------,101850.5,101849.5,101368.062,101370.60000014305,101384.734,101851.415,,10,revenue
screen,html.Screen,0_2_1_1_11,2021-11-26T12:39:58.435Z,,,,,,,,,,,,,,,,54,,,,,,,,,,,,,,454.0850000000064,,response,,,100,,,,,,Space,keypress(Space),,,,,-- --- ---- --- ------ ----- ------- ---- -- --- ------- by<br>------- ---------- ------ -- ----- -- ----- -- ---- ------<br>--- ----- --- --- ------ -------- ----- --- ------ ----- --<br>----- ----- ---------- --- --- ------ ------ ---- -- ------<br>------- --- ------ ----- --- ---- ------- -- ---- --- --<br>------- ------,102306.29999995232,102305.5,101834.745,101850.70000004768,101851.415,102318.204,,11,by
screen,html.Screen,0_2_1_1_12,2021-11-26T12:39:59.003Z,,,,,,,,,,,,,,,,54,,,,,,,,,,,,,,555.0959999523184,,response,,,100,,,,,,Space,keypress(Space),,,,,-- --- ---- --- ------ ----- ------- ---- -- --- ------- --<br>issuing ---------- ------ -- ----- -- ----- -- ---- ------<br>--- ----- --- --- ------ -------- ----- --- ------ ----- --<br>----- ----- ---------- --- --- ------ ------ ---- -- ------<br>------- --- ------ ----- --- ---- ------- -- ---- --- --<br>------- ------,102874,102873.29999995232,102301.534,102306.60000014305,102318.204,102885.071,,12,issuing
screen,html.Screen,0_2_1_1_13,2021-11-26T12:39:59.467Z,,,,,,,,,,,,,,,,54,,,,,,,,,,,,,,452.32900009537116,,response,,,100,,,,,,Space,keypress(Space),,,,,-- --- ---- --- ------ ----- ------- ---- -- --- ------- --<br>------- government ------ -- ----- -- ----- -- ---- ------<br>--- ----- --- --- ------ -------- ----- --- ------ ----- --<br>----- ----- ---------- --- --- ------ ------ ---- -- ------<br>------- --- ------ ----- --- ---- ------- -- ---- --- --<br>------- ------,103338.20000004768,103337.40000009537,102868.4,102874.29999995232,102885.071,103351.69,,13,government
screen,html.Screen,0_2_1_1_14,2021-11-26T12:40:00.195Z,,,,,,,,,,,,,,,,54,,,,,,,,,,,,,,713.7100000953651,,response,,,100,,,,,,Space,keypress(Space),,,,,-- --- ---- --- ------ ----- ------- ---- -- --- ------- --<br>------- ---------- bonds. -- ----- -- ----- -- ---- ------<br>--- ----- --- --- ------ -------- ----- --- ------ ----- --<br>----- ----- ---------- --- --- ------ ------ ---- -- ------<br>------- --- ------ ----- --- ---- ------- -- ---- --- --<br>------- ------,104066.10000014305,104065.40000009537,103335.021,103338.40000009537,103351.69,104068.504,,14,bonds.
screen,html.Screen,0_2_1_1_15,2021-11-26T12:40:00.899Z,,,,,,,,,,,,,,,,54,,,,,,,,,,,,,,700.8960000953666,,response,,,100,,,,,,Space,keypress(Space),,,,,-- --- ---- --- ------ ----- ------- ---- -- --- ------- --<br>------- ---------- ------ In ----- -- ----- -- ---- ------<br>--- ----- --- --- ------ -------- ----- --- ------ ----- --<br>----- ----- ---------- --- --- ------ ------ ---- -- ------<br>------- --- ------ ----- --- ---- ------- -- ---- --- --<br>------- ------,104770.10000014305,104769.40000009537,104051.835,104066.40000009537,104068.504,104785.637,,15,In
screen,html.Screen,0_2_1_1_16,2021-11-26T12:40:01.267Z,,,,,,,,,,,,,,,,54,,,,,,,,,,,,,,351.66299995231384,,response,,,100,,,,,,Space,keypress(Space),,,,,"-- --- ---- --- ------ ----- ------- ---- -- --- ------- --<br>------- ---------- ------ -- 1727, -- ----- -- ---- ------<br>--- ----- --- --- ------ -------- ----- --- ------ ----- --<br>----- ----- ---------- --- --- ------ ------ ---- -- ------<br>------- --- ------ ----- --- ---- ------- -- ---- --- --<br>------- ------",105138.10000014305,105137.29999995232,104768.965,104770.29999995232,104785.637,105152.12,,16,"1727,"
screen,html.Screen,0_2_1_1_17,2021-11-26T12:40:02.411Z,,,,,,,,,,,,,,,,54,,,,,,,,,,,,,,1129.4800001430558,,response,,,100,,,,,,Space,keypress(Space),,,,,-- --- ---- --- ------ ----- ------- ---- -- --- ------- --<br>------- ---------- ------ -- ----- in ----- -- ---- ------<br>--- ----- --- --- ------ -------- ----- --- ------ ----- --<br>----- ----- ---------- --- --- ------ ------ ---- -- ------<br>------- --- ------ ----- --- ---- ------- -- ---- --- --<br>------- ------,106282.40000009537,106281.60000014305,105135.451,105138.40000009537,105152.12,106285.892,,17,in
screen,html.Screen,0_2_1_1_18,2021-11-26T12:40:02.850Z,,,,,,,,,,,,,,,,54,,,,,,,,,,,,,,435.3080000476766,,response,,,100,,,,,,Space,keypress(Space),,,,,-- --- ---- --- ------ ----- ------- ---- -- --- ------- --<br>------- ---------- ------ -- ----- -- order -- ---- ------<br>--- ----- --- --- ------ -------- ----- --- ------ ----- --<br>----- ----- ---------- --- --- ------ ------ ---- -- ------<br>------- --- ------ ----- --- ---- ------- -- ---- --- --<br>------- ------,106721.90000009537,106721.20000004768,106269.221,106282.70000004768,106285.892,106735.731,,18,order
screen,html.Screen,0_2_1_1_19,2021-11-26T12:40:03.098Z,,,,,,,,,,,,,,,,54,,,,,,,,,,,,,,233.46900004768395,,response,,,100,,,,,,Space,keypress(Space),,,,,-- --- ---- --- ------ ----- ------- ---- -- --- ------- --<br>------- ---------- ------ -- ----- -- ----- to ---- ------<br>--- ----- --- --- ------ -------- ----- --- ------ ----- --<br>----- ----- ---------- --- --- ------ ------ ---- -- ------<br>------- --- ------ ----- --- ---- ------- -- ---- --- --<br>------- ------,106969.90000009537,106969.20000004768,106719.063,106722.20000004768,106735.731,106986.054,,19,to
screen,html.Screen,0_2_1_1_20,2021-11-26T12:40:03.442Z,,,,,,,,,,,,,,,,54,,,,,,,,,,,,,,327.0460001430474,,response,,,100,,,,,,Space,keypress(Space),,,,,-- --- ---- --- ------ ----- ------- ---- -- --- ------- --<br>------- ---------- ------ -- ----- -- ----- -- save ------<br>--- ----- --- --- ------ -------- ----- --- ------ ----- --<br>----- ----- ---------- --- --- ------ ------ ---- -- ------<br>------- --- ------ ----- --- ---- ------- -- ---- --- --<br>------- ------,107313.79999995232,107313.10000014305,106969.383,106970.10000014305,106986.054,107319.425,,20,save
screen,html.Screen,0_2_1_1_21,2021-11-26T12:40:03.850Z,,,,,,,,,,,,,,,,54,,,,,,,,,,,,,,401.5749999999971,,response,,,100,,,,,,Space,keypress(Space),,,,,"-- --- ---- --- ------ ----- ------- ---- -- --- ------- --<br>------- ---------- ------ -- ----- -- ----- -- ---- money,<br>--- ----- --- --- ------ -------- ----- --- ------ ----- --<br>----- ----- ---------- --- --- ------ ------ ---- -- ------<br>------- --- ------ ----- --- ---- ------- -- ---- --- --<br>------- ------",107721.79999995232,107721,107302.755,107314.20000004768,107319.425,107736.194,,21,"money,"
screen,html.Screen,0_2_1_1_22,2021-11-26T12:40:04.474Z,,,,,,,,,,,,,,,,54,,,,,,,,,,,,,,608.8059999999969,,response,,,100,,,,,,Space,keypress(Space),,,,,-- --- ---- --- ------ ----- ------- ---- -- --- ------- --<br>------- ---------- ------ -- ----- -- ----- -- ---- ------<br>the ----- --- --- ------ -------- ----- --- ------ ----- --<br>----- ----- ---------- --- --- ------ ------ ---- -- ------<br>------- --- ------ ----- --- ---- ------- -- ---- --- --<br>------- ------,108345.79999995232,108345,107719.524,107722,107736.194,108353.012,,22,the
screen,html.Screen,0_2_1_1_23,2021-11-26T12:40:04.858Z,,,,,,,,,,,,,,,,54,,,,,,,,,,,,,,375.98799999999756,,response,,,100,,,,,,Space,keypress(Space),,,,,-- --- ---- --- ------ ----- ------- ---- -- --- ------- --<br>------- ---------- ------ -- ----- -- ----- -- ---- ------<br>--- state --- --- ------ -------- ----- --- ------ ----- --<br>----- ----- ---------- --- --- ------ ------ ---- -- ------<br>------- --- ------ ----- --- ---- ------- -- ---- --- --<br>------- ------,108729.90000009537,108729,108336.342,108346.10000014305,108353.012,108736.332,,23,state
screen,html.Screen,0_2_1_1_24,2021-11-26T12:40:05.274Z,,,,,,,,,,,,,,,,54,,,,,,,,,,,,,,408.6680000000051,,response,,,100,,,,,,Space,keypress(Space),,,,,-- --- ---- --- ------ ----- ------- ---- -- --- ------- --<br>------- ---------- ------ -- ----- -- ----- -- ---- ------<br>--- ----- cut --- ------ -------- ----- --- ------ ----- --<br>----- ----- ---------- --- --- ------ ------ ---- -- ------<br>------- --- ------ ----- --- ---- ------- -- ---- --- --<br>------- ------,109145.79999995232,109145,108719.663,108730.20000004768,108736.332,109153.25,,24,cut
screen,html.Screen,0_2_1_1_25,2021-11-26T12:40:05.634Z,,,,,,,,,,,,,,,,54,,,,,,,,,,,,,,351.75,,response,,,100,,,,,,Space,keypress(Space),,,,,-- --- ---- --- ------ ----- ------- ---- -- --- ------- --<br>------- ---------- ------ -- ----- -- ----- -- ---- ------<br>--- ----- --- the ------ -------- ----- --- ------ ----- --<br>----- ----- ---------- --- --- ------ ------ ---- -- ------<br>------- --- ------ ----- --- ---- ------- -- ---- --- --<br>------- ------,109505.79999995232,109505,109136.579,109146.10000014305,109153.25,109519.966,,25,the
screen,html.Screen,0_2_1_1_26,2021-11-26T12:40:06.138Z,,,,,,,,,,,,,,,,54,,,,,,,,,,,,,,488.9340000953671,,response,,,100,,,,,,Space,keypress(Space),,,,,-- --- ---- --- ------ ----- ------- ---- -- --- ------- --<br>------- ---------- ------ -- ----- -- ----- -- ---- ------<br>--- ----- --- --- bonds' -------- ----- --- ------ ----- --<br>----- ----- ---------- --- --- ------ ------ ---- -- ------<br>------- --- ------ ----- --- ---- ------- -- ---- --- --<br>------- ------,110009.79999995232,110008.90000009537,109503.296,109506.10000014305,109519.966,110020.093,,26,bonds'
screen,html.Screen,0_2_1_1_27,2021-11-26T12:40:06.706Z,,,,,,,,,,,,,,,,54,,,,,,,,,,,,,,556.9070000000065,,response,,,100,,,,,,Space,keypress(Space),,,,,-- --- ---- --- ------ ----- ------- ---- -- --- ------- --<br>------- ---------- ------ -- ----- -- ----- -- ---- ------<br>--- ----- --- --- ------ interest ----- --- ------ ----- --<br>----- ----- ---------- --- --- ------ ------ ---- -- ------<br>------- --- ------ ----- --- ---- ------- -- ---- --- --<br>------- ------,110577.70000004768,110577,110003.423,110010,110020.093,110586.888,,27,interest
screen,html.Screen,0_2_1_1_28,2021-11-26T12:40:07.154Z,,,,,,,,,,,,,,,,54,,,,,,,,,,,,,,438.01200009536115,,response,,,100,,,,,,Space,keypress(Space),,,,,-- --- ---- --- ------ ----- ------- ---- -- --- ------- --<br>------- ---------- ------ -- ----- -- ----- -- ---- ------<br>--- ----- --- --- ------ -------- rate. --- ------ ----- --<br>----- ----- ---------- --- --- ------ ------ ---- -- ------<br>------- --- ------ ----- --- ---- ------- -- ---- --- --<br>------- ------,111025.70000004768,111024.90000009537,110570.218,110578,110586.888,111036.983,,28,rate.
screen,html.Screen,0_2_1_1_29,2021-11-26T12:40:07.634Z,,,,,,,,,,,,,,,,54,,,,,,,,,,,,,,467.8169999523234,,response,,,100,,,,,,Space,keypress(Space),,,,,-- --- ---- --- ------ ----- ------- ---- -- --- ------- --<br>------- ---------- ------ -- ----- -- ----- -- ---- ------<br>--- ----- --- --- ------ -------- ----- The ------ ----- --<br>----- ----- ---------- --- --- ------ ------ ---- -- ------<br>------- --- ------ ----- --- ---- ------- -- ---- --- --<br>------- ------,111505.70000004768,111504.79999995232,111020.313,111026,111036.983,111520.46,,29,The
screen,html.Screen,0_2_1_1_30,2021-11-26T12:40:08.154Z,,,,,,,,,,,,,,,,54,,,,,,,,,,,,,,504.3399999523099,,response,,,100,,,,,,Space,keypress(Space),,,,,-- --- ---- --- ------ ----- ------- ---- -- --- ------- --<br>------- ---------- ------ -- ----- -- ----- -- ---- ------<br>--- ----- --- --- ------ -------- ----- --- market ----- --<br>----- ----- ---------- --- --- ------ ------ ---- -- ------<br>------- --- ------ ----- --- ---- ------- -- ---- --- --<br>------- ------,112025.60000014305,112024.79999995232,111503.79,111506,111520.46,112037.244,,30,market
screen,html.Screen,0_2_1_1_31,2021-11-26T12:40:08.786Z,,,,,,,,,,,,,,,,54,,,,,,,,,,,,,,619.5559999523102,,response,,,100,,,,,,Space,keypress(Space),,,,,-- --- ---- --- ------ ----- ------- ---- -- --- ------- --<br>------- ---------- ------ -- ----- -- ----- -- ---- ------<br>--- ----- --- --- ------ -------- ----- --- ------ value --<br>----- ----- ---------- --- --- ------ ------ ---- -- ------<br>------- --- ------ ----- --- ---- ------- -- ---- --- --<br>------- ------,112657.60000014305,112656.79999995232,112020.574,112025.79999995232,112037.244,112670.713,,31,value
screen,html.Screen,0_2_1_1_32,2021-11-26T12:40:09.154Z,,,,,,,,,,,,,,,,54,,,,,,,,,,,,,,353.98700004768034,,response,,,100,,,,,,Space,keypress(Space),,,,,-- --- ---- --- ------ ----- ------- ---- -- --- ------- --<br>------- ---------- ------ -- ----- -- ----- -- ---- ------<br>--- ----- --- --- ------ -------- ----- --- ------ ----- of<br>----- ----- ---------- --- --- ------ ------ ---- -- ------<br>------- --- ------ ----- --- ---- ------- -- ---- --- --<br>------- ------,113025.5,113024.70000004768,112654.043,112657.90000009537,112670.713,113037.452,,32,of
screen,html.Screen,0_2_1_1_33,2021-11-26T12:40:09.482Z,,,,,,,,,,,,,,,,54,,,,,,,,,,,,,,315.24800004767894,,response,,,100,,,,,,Space,keypress(Space),,,,,-- --- ---- --- ------ ----- ------- ---- -- --- ------- --<br>------- ---------- ------ -- ----- -- ----- -- ---- ------<br>--- ----- --- --- ------ -------- ----- --- ------ ----- --<br>these ----- ---------- --- --- ------ ------ ---- -- ------<br>------- --- ------ ----- --- ---- ------- -- ---- --- --<br>------- ------,113353.5,113352.70000004768,113020.782,113025.79999995232,113037.452,113370.943,,33,these
screen,html.Screen,0_2_1_1_34,2021-11-26T12:40:09.850Z,,,,,,,,,,,,,,,,54,,,,,,,,,,,,,,349.65700014305185,,response,,,100,,,,,,Space,keypress(Space),,,,,-- --- ---- --- ------ ----- ------- ---- -- --- ------- --<br>------- ---------- ------ -- ----- -- ----- -- ---- ------<br>--- ----- --- --- ------ -------- ----- --- ------ ----- --<br>----- bonds ---------- --- --- ------ ------ ---- -- ------<br>------- --- ------ ----- --- ---- ------- -- ---- --- --<br>------- ------,113721.5,113720.60000014305,113354.272,113353.70000004768,113370.943,113737.656,,34,bonds
screen,html.Screen,0_2_1_1_35,2021-11-26T12:40:10.306Z,,,,,,,,,,,,,,,,54,,,,,,,,,,,,,,438.94400014304847,,response,,,100,,,,,,Space,keypress(Space),,,,,"-- --- ---- --- ------ ----- ------- ---- -- --- ------- --<br>------- ---------- ------ -- ----- -- ----- -- ---- ------<br>--- ----- --- --- ------ -------- ----- --- ------ ----- --<br>----- ----- plummeted, --- --- ------ ------ ---- -- ------<br>------- --- ------ ----- --- ---- ------- -- ---- --- --<br>------- ------",114177.40000009537,114176.60000014305,113720.986,113721.70000004768,113737.656,114187.746,,35,"plummeted,"
screen,html.Screen,0_2_1_1_36,2021-11-26T12:40:10.690Z,,,,,,,,,,,,,,,,54,,,,,,,,,,,,,,372.85400014305196,,response,,,100,,,,,,Space,keypress(Space),,,,,-- --- ---- --- ------ ----- ------- ---- -- --- ------- --<br>------- ---------- ------ -- ----- -- ----- -- ---- ------<br>--- ----- --- --- ------ -------- ----- --- ------ ----- --<br>----- ----- ---------- and --- ------ ------ ---- -- ------<br>------- --- ------ ----- --- ---- ------- -- ---- --- --<br>------- ------,114561.29999995232,114560.60000014305,114171.076,114177.60000014305,114187.746,114571.191,,36,and
screen,html.Screen,0_2_1_1_37,2021-11-26T12:40:11.066Z,,,,,,,,,,,,,,,,54,,,,,,,,,,,,,,365.409000143045,,response,,,100,,,,,,Space,keypress(Space),,,,,-- --- ---- --- ------ ----- ------- ---- -- --- ------- --<br>------- ---------- ------ -- ----- -- ----- -- ---- ------<br>--- ----- --- --- ------ -------- ----- --- ------ ----- --<br>----- ----- ---------- --- the ------ ------ ---- -- ------<br>------- --- ------ ----- --- ---- ------- -- ---- --- --<br>------- ------,114937.40000009537,114936.60000014305,114554.521,114561.60000014305,114571.191,114954.62,,37,the
screen,html.Screen,0_2_1_1_38,2021-11-26T12:40:11.474Z,,,,,,,,,,,,,,,,54,,,,,,,,,,,,,,389.9800001430558,,response,,,100,,,,,,Space,keypress(Space),,,,,-- --- ---- --- ------ ----- ------- ---- -- --- ------- --<br>------- ---------- ------ -- ----- -- ----- -- ---- ------<br>--- ----- --- --- ------ -------- ----- --- ------ ----- --<br>----- ----- ---------- --- --- market ------ ---- -- ------<br>------- --- ------ ----- --- ---- ------- -- ---- --- --<br>------- ------,115345.29999995232,115344.60000014305,114937.95,114937.60000014305,114954.62,115354.692,,38,market
screen,html.Screen,0_2_1_1_39,2021-11-26T12:40:11.866Z,,,,,,,,,,,,,,,,54,,,,,,,,,,,,,,381.80800000000454,,response,,,100,,,,,,Space,keypress(Space),,,,,-- --- ---- --- ------ ----- ------- ---- -- --- ------- --<br>------- ---------- ------ -- ----- -- ----- -- ---- ------<br>--- ----- --- --- ------ -------- ----- --- ------ ----- --<br>----- ----- ---------- --- --- ------ became ---- -- ------<br>------- --- ------ ----- --- ---- ------- -- ---- --- --<br>------- ------,115737.29999995232,115736.5,115338.022,115345.60000014305,115354.692,115754.853,,39,became
screen,html.Screen,0_2_1_1_40,2021-11-26T12:40:12.250Z,,,,,,,,,,,,,,,,54,,,,,,,,,,,,,,365.6469999999972,,response,,,100,,,,,,Space,keypress(Space),,,,,-- --- ---- --- ------ ----- ------- ---- -- --- ------- --<br>------- ---------- ------ -- ----- -- ----- -- ---- ------<br>--- ----- --- --- ------ -------- ----- --- ------ ----- --<br>----- ----- ---------- --- --- ------ ------ wary -- ------<br>------- --- ------ ----- --- ---- ------- -- ---- --- --<br>------- ------,116121.29999995232,116120.5,115738.182,115737.5,115754.853,116138.229,,40,wary
screen,html.Screen,0_2_1_1_41,2021-11-26T12:40:12.602Z,,,,,,,,,,,,,,,,54,,,,,,,,,,,,,,334.57099995230965,,response,,,100,,,,,,Space,keypress(Space),,,,,-- --- ---- --- ------ ----- ------- ---- -- --- ------- --<br>------- ---------- ------ -- ----- -- ----- -- ---- ------<br>--- ----- --- --- ------ -------- ----- --- ------ ----- --<br>----- ----- ---------- --- --- ------ ------ ---- of ------<br>------- --- ------ ----- --- ---- ------- -- ---- --- --<br>------- ------,116473.5,116472.79999995232,116121.559,116121.5,116138.229,116488.334,,41,of
screen,html.Screen,0_2_1_1_42,2021-11-26T12:40:13.018Z,,,,,,,,,,,,,,,,54,,,,,,,,,,,,,,400.06600009536487,,response,,,100,,,,,,Space,keypress(Space),,,,,-- --- ---- --- ------ ----- ------- ---- -- --- ------- --<br>------- ---------- ------ -- ----- -- ----- -- ---- ------<br>--- ----- --- --- ------ -------- ----- --- ------ ----- --<br>----- ----- ---------- --- --- ------ ------ ---- -- French<br>------- --- ------ ----- --- ---- ------- -- ---- --- --<br>------- ------,116889.10000014305,116888.40000009537,116471.664,116473.79999995232,116488.334,116905.091,,42,French
screen,html.Screen,0_2_1_1_43,2021-11-26T12:40:13.434Z,,,,,,,,,,,,,,,,54,,,,,,,,,,,,,,399.3090000953671,,response,,,100,,,,,,Space,keypress(Space),,,,,-- --- ---- --- ------ ----- ------- ---- -- --- ------- --<br>------- ---------- ------ -- ----- -- ----- -- ---- ------<br>--- ----- --- --- ------ -------- ----- --- ------ ----- --<br>----- ----- ---------- --- --- ------ ------ ---- -- ------<br>credit. --- ------ ----- --- ---- ------- -- ---- --- --<br>------- ------,117305.20000004768,117304.40000009537,116888.421,116889.40000009537,116905.091,117321.846,,43,credit.
screen,html.Screen,0_2_1_1_44,2021-11-26T12:40:14.034Z,,,,,,,,,,,,,,,,54,,,,,,,,,,,,,,582.4539999523113,,response,,,100,,,,,,Space,keypress(Space),,,,,-- --- ---- --- ------ ----- ------- ---- -- --- ------- --<br>------- ---------- ------ -- ----- -- ----- -- ---- ------<br>--- ----- --- --- ------ -------- ----- --- ------ ----- --<br>----- ----- ---------- --- --- ------ ------ ---- -- ------<br>------- The ------ ----- --- ---- ------- -- ---- --- --<br>------- ------,117905.10000014305,117904.29999995232,117305.176,117305.5,117321.846,117921.9,,44,The
screen,html.Screen,0_2_1_1_45,2021-11-26T12:40:14.442Z,,,,,,,,,,,,,,,,54,,,,,,,,,,,,,,390.3999999523221,,response,,,100,,,,,,Space,keypress(Space),,,,,-- --- ---- --- ------ ----- ------- ---- -- --- ------- --<br>------- ---------- ------ -- ----- -- ----- -- ---- ------<br>--- ----- --- --- ------ -------- ----- --- ------ ----- --<br>----- ----- ---------- --- --- ------ ------ ---- -- ------<br>------- --- French ----- --- ---- ------- -- ---- --- --<br>------- ------,118313.10000014305,118312.29999995232,117905.231,117905.29999995232,117921.9,118322.107,,45,French
screen,html.Screen,0_2_1_1_46,2021-11-26T12:40:14.778Z,,,,,,,,,,,,,,,,54,,,,,,,,,,,,,,326.1929999523127,,response,,,100,,,,,,Space,keypress(Space),,,,,-- --- ---- --- ------ ----- ------- ---- -- --- ------- --<br>------- ---------- ------ -- ----- -- ----- -- ---- ------<br>--- ----- --- --- ------ -------- ----- --- ------ ----- --<br>----- ----- ---------- --- --- ------ ------ ---- -- ------<br>------- --- ------ state --- ---- ------- -- ---- --- --<br>------- ------,118649.10000014305,118648.29999995232,118305.436,118313.40000009537,118322.107,118655.425,,46,state
screen,html.Screen,0_2_1_1_47,2021-11-26T12:40:15.170Z,,,,,,,,,,,,,,,,54,,,,,,,,,,,,,,384.8749999523134,,response,,,100,,,,,,Space,keypress(Space),,,,,-- --- ---- --- ------ ----- ------- ---- -- --- ------- --<br>------- ---------- ------ -- ----- -- ----- -- ---- ------<br>--- ----- --- --- ------ -------- ----- --- ------ ----- --<br>----- ----- ---------- --- --- ------ ------ ---- -- ------<br>------- --- ------ ----- was ---- ------- -- ---- --- --<br>------- ------,119041.20000004768,119040.29999995232,118638.756,118649.40000009537,118655.425,119055.643,,47,was
screen,html.Screen,0_2_1_1_48,2021-11-26T12:40:15.522Z,,,,,,,,,,,,,,,,54,,,,,,,,,,,,,,336.6569999523199,,response,,,100,,,,,,Space,keypress(Space),,,,,-- --- ---- --- ------ ----- ------- ---- -- --- ------- --<br>------- ---------- ------ -- ----- -- ----- -- ---- ------<br>--- ----- --- --- ------ -------- ----- --- ------ ----- --<br>----- ----- ---------- --- --- ------ ------ ---- -- ------<br>------- --- ------ ----- --- left ------- -- ---- --- --<br>------- ------,119393.10000014305,119392.29999995232,119038.972,119041.40000009537,119055.643,119405.727,,48,left
screen,html.Screen,0_2_1_1_49,2021-11-26T12:40:15.858Z,,,,,,,,,,,,,,,,54,,,,,,,,,,,,,,322.57299995231733,,response,,,100,,,,,,Space,keypress(Space),,,,,-- --- ---- --- ------ ----- ------- ---- -- --- ------- --<br>------- ---------- ------ -- ----- -- ----- -- ---- ------<br>--- ----- --- --- ------ -------- ----- --- ------ ----- --<br>----- ----- ---------- --- --- ------ ------ ---- -- ------<br>------- --- ------ ----- --- ---- without -- ---- --- --<br>------- ------,119729.10000014305,119728.29999995232,119389.056,119393.29999995232,119405.727,119739.112,,49,without
screen,html.Screen,0_2_1_1_50,2021-11-26T12:40:16.218Z,,,,,,,,,,,,,,,,54,,,,,,,,,,,,,,349.18799995232257,,response,,,100,,,,,,Space,keypress(Space),,,,,-- --- ---- --- ------ ----- ------- ---- -- --- ------- --<br>------- ---------- ------ -- ----- -- ----- -- ---- ------<br>--- ----- --- --- ------ -------- ----- --- ------ ----- --<br>----- ----- ---------- --- --- ------ ------ ---- -- ------<br>------- --- ------ ----- --- ---- ------- an ---- --- --<br>------- ------,120089.10000014305,120088.29999995232,119722.442,119729.29999995232,119739.112,120105.878,,50,an
screen,html.Screen,0_2_1_1_51,2021-11-26T12:40:16.574Z,,,,,,,,,,,,,,,,54,,,,,,,,,,,,,,334.32200004768674,,response,,,100,,,,,,Space,keypress(Space),,,,,-- --- ---- --- ------ ----- ------- ---- -- --- ------- --<br>------- ---------- ------ -- ----- -- ----- -- ---- ------<br>--- ----- --- --- ------ -------- ----- --- ------ ----- --<br>----- ----- ---------- --- --- ------ ------ ---- -- ------<br>------- --- ------ ----- --- ---- ------- -- easy --- --<br>------- ------,120440.90000009537,120440.20000004768,120089.208,120089.40000009537,120105.878,120455.904,,51,easy
screen,html.Screen,0_2_1_1_52,2021-11-26T12:40:16.918Z,,,,,,,,,,,,,,,,54,,,,,,,,,,,,,,328.2960000476887,,response,,,100,,,,,,Space,keypress(Space),,,,,-- --- ---- --- ------ ----- ------- ---- -- --- ------- --<br>------- ---------- ------ -- ----- -- ----- -- ---- ------<br>--- ----- --- --- ------ -------- ----- --- ------ ----- --<br>----- ----- ---------- --- --- ------ ------ ---- -- ------<br>------- --- ------ ----- --- ---- ------- -- ---- way --<br>------- ------,120785,120784.20000004768,120439.235,120441.20000004768,120455.904,120789.419,,52,way
screen,html.Screen,0_2_1_1_53,2021-11-26T12:40:17.238Z,,,,,,,,,,,,,,,,54,,,,,,,,,,,,,,314.68100014305674,,response,,,100,,,,,,Space,keypress(Space),,,,,-- --- ---- --- ------ ----- ------- ---- -- --- ------- --<br>------- ---------- ------ -- ----- -- ----- -- ---- ------<br>--- ----- --- --- ------ -------- ----- --- ------ ----- --<br>----- ----- ---------- --- --- ------ ------ ---- -- ------<br>------- --- ------ ----- --- ---- ------- -- ---- --- of<br>------- ------,121104.90000009537,121104.10000014305,120772.748,120785.20000004768,120789.419,121106.105,,53,of
screen,html.Screen,0_2_1_1_54,2021-11-26T12:40:17.718Z,,,,,,,,,,,,,,,,54,,,,,,,,,,,,,,477.9950001430552,,response,,,100,,,,,,Space,keypress(Space),,,,,-- --- ---- --- ------ ----- ------- ---- -- --- ------- --<br>------- ---------- ------ -- ----- -- ----- -- ---- ------<br>--- ----- --- --- ------ -------- ----- --- ------ ----- --<br>----- ----- ---------- --- --- ------ ------ ---- -- ------<br>------- --- ------ ----- --- ---- ------- -- ---- --- --<br>raising ------,121584.90000009537,121584.10000014305,121089.435,121105.20000004768,121106.105,121589.437,,54,raising
screen,html.Screen,0_2_1_1_55,2021-11-26T12:40:18.102Z,,,,,,,,,,,,,,,,54,,,,,,,,,,,,,,378.6630001430458,,response,,,100,,,,,,Space,keypress(Space),,,,,-- --- ---- --- ------ ----- ------- ---- -- --- ------- --<br>------- ---------- ------ -- ----- -- ----- -- ---- ------<br>--- ----- --- --- ------ -------- ----- --- ------ ----- --<br>----- ----- ---------- --- --- ------ ------ ---- -- ------<br>------- --- ------ ----- --- ---- ------- -- ---- --- --<br>------- money.,121968.90000009537,121968.10000014305,121572.769,121585.10000014305,121589.437,121973.084,,55,money.
Item 100,flow.Loop,0_2_1_1,2021-11-26T12:40:18.103Z,,,,,,,,,,,,,,,,,,,,,,,,,,,,,,25851.584000143048,,completion,,,,C,,,,,,,,,,silence,,121969.20000004768,121968.10000014305,96099.847,96101.20000004768,96116.516,121973.084,,,
Question 1,html.Screen,0_2_1_2,2021-11-26T12:40:21.726Z,,,,,,,,,,,,,,,,,,,,,,,,,,,true,TRUE,,3618.5160001430486,,response,,,100,C,,,,,TRUE,click #choice-1,,,,silence,,125592.79999995232,125591.60000014305,121956.412,121969.5,121973.084,125607.171,,,
Question 2,html.Screen,0_2_1_3,2021-11-26T12:40:24.974Z,,,,,,,,,,,,,,,,,,,,,,,,,,,true,FALSE,,3232.2290000953653,,response,,,100,C,,,,,FALSE,click #choice-2,,,,silence,,128840.60000014305,128839.40000009537,125590.503,125593,125607.171,128841.462,,,
Item 100,flow.Sequence,0_2_1,2021-11-26T12:40:24.974Z,,,,,,,,,,,,,,,,,,,,,,,,,,,,,,42725.240000095364,,completion,,,,,,,,,,,,,,,,128840.90000009537,128839.40000009537,86097.491,86108.79999995232,86114.16,128841.462,,,
End of Practice,html.Page,0_2_2,2021-11-26T12:40:31.103Z,,,,,,,,,,,,,,,,,,,,,,,,,,,,,,6127.0380000000005,,form submission,,,,,,,,,,,,,,,,134969.20000004768,134968.5,128824.789,128841.10000014305,128841.462,134976.186,,,
Practice,flow.Sequence,0_2,2021-11-26T12:40:31.103Z,,,,,,,,,,,,,,,,,,,,,,,,,,,,,,96349.421,,completion,,,,,,,,,,,,,,,,134969.79999995232,134968.5,38602.41,38608,38619.079,134976.186,,,
Trap_instruction,html.Page,0_3_0,2021-11-26T12:40:33.798Z,,,,,,,,,,,,,,,,,,,,,,,,,,,,,,2688.2140000953805,,form submission,,,,,,,,,,,,,,,,137665,137664.40000009537,134959.513,134970.10000014305,134976.186,137693.301,,,
trap_trial,html.Screen,0_3_1,2021-11-26T12:40:36.661Z,,,,,,,,,,,,,,,,,,,,,,,,,,,true,1,,2833.1989999999932,,response,,,,,,,,,1,click #choice-1,,,,,,140527.70000004768,140526.5,137659.961,137665.20000004768,137693.301,140544.01,,,
end of trap trial,html.Page,0_3_2,2021-11-26T12:40:38.358Z,,,,,,,,,,,,,,,,,,,,,,,,,,,,,,1679.8900000953581,,form submission,,,,,,,,,,,,,,,,142224.29999995232,142223.90000009537,140527.34,140528.10000014305,140544.01,142228.313,,,
Trap 1,flow.Sequence,0_3,2021-11-26T12:40:38.358Z,,,,,,,,,,,,,,,,,,,,,,,,,,,,,,7247.7140000953805,,completion,,,,,,,,,,,,,,,,142224.70000004768,142223.90000009537,134959.513,134970,134976.186,142228.313,,,
Standby,html.Page,0_4_0,2021-11-26T12:40:46.347Z,,,,,,,,,,,,,,,,,,,,,,,,,,,,,,8001.2179999999935,,timeout,,,,,,,,,,,,,,,,150214,150212.861,142211.622,142225,142228.313,150229.531,,,
Holding screen,html.Screen,0_4_1_0_0,2021-11-26T12:40:53.350Z,,,,,,,,,,,,,,,,,,,,,,,,,,,,,,7001.83600000001,,timeout,,,,,,,,,,,,,,,,157216.5,157214.698,150212.861,150214.40000009537,150229.531,157231.367,,,
screen,html.Screen,0_4_1_0_1_0,2021-11-26T12:40:54.748Z,,,,,,,,,,,,,,,,51,,,,,,,,,,,,,,1382.6330000000016,,response,,,13,C,,,,,Space,keypress(Space),,,,instrumental,American -------- --- --- ---- --- --- ------ -- --------<br>---- --------- --- ------- ------------ ---------- ---------<br>--- ---------- ------- ---------- ------- -- -------- ----<br>---- --- ------ ----- ------ -- ---- --- ----- -- - -------<br>-------- -- --- --- -- ----- ----------- ----- -----------<br>---- --- ---------- --- ---- --- -- ----------,158614.90000009537,158614,157214.698,157217,157231.367,158615.108,,0,American
screen,html.Screen,0_4_1_0_1_1,2021-11-26T12:40:55.140Z,,,,,,,,,,,,,,,,51,,,,,,,,,,,,,,390.4920001430437,,response,,,13,C,,,,,Space,keypress(Space),,,,instrumental,-------- industry --- --- ---- --- --- ------ -- --------<br>---- --------- --- ------- ------------ ---------- ---------<br>--- ---------- ------- ---------- ------- -- -------- ----<br>---- --- ------ ----- ------ -- ---- --- ----- -- - -------<br>-------- -- --- --- -- ----- ----------- ----- -----------<br>---- --- ---------- --- ---- --- -- ----------,159006.40000009537,159005.60000014305,158598.438,158615.29999995232,158615.108,159015.367,,1,industry
screen,html.Screen,0_4_1_0_1_2,2021-11-26T12:40:55.620Z,,,,,,,,,,,,,,,,51,,,,,,,,,,,,,,470.03300009536906,,response,,,13,C,,,,,Space,keypress(Space),,,,instrumental,-------- -------- may --- ---- --- --- ------ -- --------<br>---- --------- --- ------- ------------ ---------- ---------<br>--- ---------- ------- ---------- ------- -- -------- ----<br>---- --- ------ ----- ------ -- ---- --- ----- -- - -------<br>-------- -- --- --- -- ----- ----------- ----- -----------<br>---- --- ---------- --- ---- --- -- ----------,159486.29999995232,159485.40000009537,158998.696,159006.60000014305,159015.367,159498.717,,2,may
screen,html.Screen,0_4_1_0_1_3,2021-11-26T12:40:55.972Z,,,,,,,,,,,,,,,,51,,,,,,,,,,,,,,338.68300009536324,,response,,,13,C,,,,,Space,keypress(Space),,,,instrumental,-------- -------- --- not ---- --- --- ------ -- --------<br>---- --------- --- ------- ------------ ---------- ---------<br>--- ---------- ------- ---------- ------- -- -------- ----<br>---- --- ------ ----- ------ -- ---- --- ----- -- - -------<br>-------- -- --- --- -- ----- ----------- ----- -----------<br>---- --- ---------- --- ---- --- -- ----------,159838.29999995232,159837.40000009537,159482.047,159486.5,159498.717,159848.962,,3,not
screen,html.Screen,0_4_1_0_1_4,2021-11-26T12:40:56.308Z,,,,,,,,,,,,,,,,51,,,,,,,,,,,,,,324.4380000953679,,response,,,13,C,,,,,Space,keypress(Space),,,,instrumental,-------- -------- --- --- know --- --- ------ -- --------<br>---- --------- --- ------- ------------ ---------- ---------<br>--- ---------- ------- ---------- ------- -- -------- ----<br>---- --- ------ ----- ------ -- ---- --- ----- -- - -------<br>-------- -- --- --- -- ----- ----------- ----- -----------<br>---- --- ---------- --- ---- --- -- ----------,160174.29999995232,160173.40000009537,159832.29,159838.60000014305,159848.962,160182.246,,4,know
screen,html.Screen,0_4_1_0_1_5,2021-11-26T12:40:56.636Z,,,,,,,,,,,,,,,,51,,,,,,,,,,,,,,319.1540000953537,,response,,,13,C,,,,,Space,keypress(Space),,,,instrumental,"-------- -------- --- --- ---- it, --- ------ -- --------<br>---- --------- --- ------- ------------ ---------- ---------<br>--- ---------- ------- ---------- ------- -- -------- ----<br>---- --- ------ ----- ------ -- ---- --- ----- -- - -------<br>-------- -- --- --- -- ----- ----------- ----- -----------<br>---- --- ---------- --- ---- --- -- ----------",160502.20000004768,160501.40000009537,160165.576,160174.5,160182.246,160515.596,,5,"it,"
screen,html.Screen,0_4_1_0_1_6,2021-11-26T12:40:57.132Z,,,,,,,,,,,,,,,,51,,,,,,,,,,,,,,481.804000095377,,response,,,13,C,,,,,Space,keypress(Space),,,,instrumental,-------- -------- --- --- ---- --- but ------ -- --------<br>---- --------- --- ------- ------------ ---------- ---------<br>--- ---------- ------- ---------- ------- -- -------- ----<br>---- --- ------ ----- ------ -- ---- --- ----- -- - -------<br>-------- -- --- --- -- ----- ----------- ----- -----------<br>---- --- ---------- --- ---- --- -- ----------,160998.20000004768,160997.40000009537,160498.927,160502.5,160515.596,160999.217,,6,but
screen,html.Screen,0_4_1_0_1_7,2021-11-26T12:40:57.459Z,,,,,,,,,,,,,,,,51,,,,,,,,,,,,,,326.0829999523121,,response,,,13,C,,,,,Space,keypress(Space),,,,instrumental,-------- -------- --- --- ---- --- --- debate -- --------<br>---- --------- --- ------- ------------ ---------- ---------<br>--- ---------- ------- ---------- ------- -- -------- ----<br>---- --- ------ ----- ------ -- ---- --- ----- -- - -------<br>-------- -- --- --- -- ----- ----------- ----- -----------<br>---- --- ---------- --- ---- --- -- ----------,161326.10000014305,161325.29999995232,160982.545,160998.5,160999.217,161332.412,,7,debate
screen,html.Screen,0_4_1_0_1_8,2021-11-26T12:40:57.900Z,,,,,,,,,,,,,,,,51,,,,,,,,,,,,,,432.8879999523051,,response,,,13,C,,,,,Space,keypress(Space),,,,instrumental,-------- -------- --- --- ---- --- --- ------ in --------<br>---- --------- --- ------- ------------ ---------- ---------<br>--- ---------- ------- ---------- ------- -- -------- ----<br>---- --- ------ ----- ------ -- ---- --- ----- -- - -------<br>-------- -- --- --- -- ----- ----------- ----- -----------<br>---- --- ---------- --- ---- --- -- ----------,161766.20000004768,161765.29999995232,161315.744,161326.40000009537,161332.412,161782.743,,8,in
screen,html.Screen,0_4_1_0_1_9,2021-11-26T12:40:58.499Z,,,,,,,,,,,,,,,,51,,,,,,,,,,,,,,582.5569999523286,,response,,,13,C,,,,,Space,keypress(Space),,,,instrumental,-------- -------- --- --- ---- --- --- ------ -- Congress<br>---- --------- --- ------- ------------ ---------- ---------<br>--- ---------- ------- ---------- ------- -- -------- ----<br>---- --- ------ ----- ------ -- ---- --- ----- -- - -------<br>-------- -- --- --- -- ----- ----------- ----- -----------<br>---- --- ---------- --- ---- --- -- ----------,162366.10000014305,162365.29999995232,161766.071,161766.40000009537,161782.743,162382.8,,9,Congress
screen,html.Screen,0_4_1_0_1_10,2021-11-26T12:40:58.859Z,,,,,,,,,,,,,,,,51,,,,,,,,,,,,,,342.40000004769536,,response,,,13,C,,,,,Space,keypress(Space),,,,instrumental,-------- -------- --- --- ---- --- --- ------ -- --------<br>over --------- --- ------- ------------ ---------- ---------<br>--- ---------- ------- ---------- ------- -- -------- ----<br>---- --- ------ ----- ------ -- ---- --- ----- -- - -------<br>-------- -- --- --- -- ----- ----------- ----- -----------<br>---- --- ---------- --- ---- --- -- ----------,162726,162725.20000004768,162366.13,162366.40000009537,162382.8,162732.743,,10,over
screen,html.Screen,0_4_1_0_1_11,2021-11-26T12:40:59.259Z,,,,,,,,,,,,,,,,51,,,,,,,,,,,,,,392.45700004769606,,response,,,13,C,,,,,Space,keypress(Space),,,,instrumental,-------- -------- --- --- ---- --- --- ------ -- --------<br>---- reforming --- ------- ------------ ---------- ---------<br>--- ---------- ------- ---------- ------- -- -------- ----<br>---- --- ------ ----- ------ -- ---- --- ----- -- - -------<br>-------- -- --- --- -- ----- ----------- ----- -----------<br>---- --- ---------- --- ---- --- -- ----------,163125.90000009537,163125.20000004768,162716.075,162726.20000004768,162732.743,163133.039,,11,reforming
screen,html.Screen,0_4_1_0_1_12,2021-11-26T12:40:59.627Z,,,,,,,,,,,,,,,,51,,,,,,,,,,,,,,360.26099995232653,,response,,,13,C,,,,,Space,keypress(Space),,,,instrumental,-------- -------- --- --- ---- --- --- ------ -- --------<br>---- --------- the ------- ------------ ---------- ---------<br>--- ---------- ------- ---------- ------- -- -------- ----<br>---- --- ------ ----- ------ -- ---- --- ----- -- - -------<br>-------- -- --- --- -- ----- ----------- ----- -----------<br>---- --- ---------- --- ---- --- -- ----------,163494,163493.29999995232,163116.368,163126.20000004768,163133.039,163499.626,,12,the
screen,html.Screen,0_4_1_0_1_13,2021-11-26T12:41:00.027Z,,,,,,,,,,,,,,,,51,,,,,,,,,,,,,,393.47400014306186,,response,,,13,C,,,,,Space,keypress(Space),,,,instrumental,-------- -------- --- --- ---- --- --- ------ -- --------<br>---- --------- --- federal ------------ ---------- ---------<br>--- ---------- ------- ---------- ------- -- -------- ----<br>---- --- ------ ----- ------ -- ---- --- ----- -- - -------<br>-------- -- --- --- -- ----- ----------- ----- -----------<br>---- --- ---------- --- ---- --- -- ----------,163893.90000009537,163893.10000014305,163482.958,163494.29999995232,163499.626,163899.919,,13,federal
screen,html.Screen,0_4_1_0_1_14,2021-11-26T12:41:00.427Z,,,,,,,,,,,,,,,,51,,,,,,,,,,,,,,393.18100014305674,,response,,,13,C,,,,,Space,keypress(Space),,,,instrumental,-------- -------- --- --- ---- --- --- ------ -- --------<br>---- --------- --- ------- government's ---------- ---------<br>--- ---------- ------- ---------- ------- -- -------- ----<br>---- --- ------ ----- ------ -- ---- --- ----- -- - -------<br>-------- -- --- --- -- ----- ----------- ----- -----------<br>---- --- ---------- --- ---- --- -- ----------,164293.90000009537,164293.10000014305,163883.247,163894.20000004768,163899.919,164299.943,,14,government's
screen,html.Screen,0_4_1_0_1_15,2021-11-26T12:41:00.803Z,,,,,,,,,,,,,,,,51,,,,,,,,,,,,,,369.2570000476844,,response,,,13,C,,,,,Space,keypress(Space),,,,instrumental,-------- -------- --- --- ---- --- --- ------ -- --------<br>---- --------- --- ------- ------------ regulatory ---------<br>--- ---------- ------- ---------- ------- -- -------- ----<br>---- --- ------ ----- ------ -- ---- --- ----- -- - -------<br>-------- -- --- --- -- ----- ----------- ----- -----------<br>---- --- ---------- --- ---- --- -- ----------,164669.90000009537,164669.20000004768,164283.273,164294.20000004768,164299.943,164683.242,,15,regulatory
screen,html.Screen,0_4_1_0_1_16,2021-11-26T12:41:01.187Z,,,,,,,,,,,,,,,,51,,,,,,,,,,,,,,369.8580001430528,,response,,,13,C,,,,,Space,keypress(Space),,,,instrumental,-------- -------- --- --- ---- --- --- ------ -- --------<br>---- --------- --- ------- ------------ ---------- apparatus<br>--- ---------- ------- ---------- ------- -- -------- ----<br>---- --- ------ ----- ------ -- ---- --- ----- -- - -------<br>-------- -- --- --- -- ----- ----------- ----- -----------<br>---- --- ---------- --- ---- --- -- ----------,165053.90000009537,165053.10000014305,164666.574,164670.20000004768,164683.242,165066.74,,16,apparatus
screen,html.Screen,0_4_1_0_1_17,2021-11-26T12:41:01.835Z,,,,,,,,,,,,,,,,51,,,,,,,,,,,,,,634.2600000000093,,response,,,13,C,,,,,Space,keypress(Space),,,,instrumental,-------- -------- --- --- ---- --- --- ------ -- --------<br>---- --------- --- ------- ------------ ---------- ---------<br>may ---------- ------- ---------- ------- -- -------- ----<br>---- --- ------ ----- ------ -- ---- --- ----- -- - -------<br>-------- -- --- --- -- ----- ----------- ----- -----------<br>---- --- ---------- --- ---- --- -- ----------,165701.79999995232,165701,165050.07,165054.20000004768,165066.74,165716.987,,17,may
screen,html.Screen,0_4_1_0_1_18,2021-11-26T12:41:02.387Z,,,,,,,,,,,,,,,,51,,,,,,,,,,,,,,536.0130000000063,,response,,,13,C,,,,,Space,keypress(Space),,,,instrumental,-------- -------- --- --- ---- --- --- ------ -- --------<br>---- --------- --- ------- ------------ ---------- ---------<br>--- profoundly ------- ---------- ------- -- -------- ----<br>---- --- ------ ----- ------ -- ---- --- ----- -- - -------<br>-------- -- --- --- -- ----- ----------- ----- -----------<br>---- --- ---------- --- ---- --- -- ----------,166253.79999995232,166253,165700.316,165702.10000014305,165716.987,166266.953,,18,profoundly
screen,html.Screen,0_4_1_0_1_19,2021-11-26T12:41:02.763Z,,,,,,,,,,,,,,,,51,,,,,,,,,,,,,,362.0469999999914,,response,,,13,C,,,,,Space,keypress(Space),,,,instrumental,-------- -------- --- --- ---- --- --- ------ -- --------<br>---- --------- --- ------- ------------ ---------- ---------<br>--- ---------- improve ---------- ------- -- -------- ----<br>---- --- ------ ----- ------ -- ---- --- ----- -- - -------<br>-------- -- --- --- -- ----- ----------- ----- -----------<br>---- --- ---------- --- ---- --- -- ----------,166629.70000004768,166629,166250.284,166254,166266.953,166633.793,,19,improve
screen,html.Screen,0_4_1_0_1_20,2021-11-26T12:41:03.155Z,,,,,,,,,,,,,,,,51,,,,,,,,,,,,,,387.1070000953623,,response,,,13,C,,,,,Space,keypress(Space),,,,instrumental,-------- -------- --- --- ---- --- --- ------ -- --------<br>---- --------- --- ------- ------------ ---------- ---------<br>--- ---------- ------- companies' ------- -- -------- ----<br>---- --- ------ ----- ------ -- ---- --- ----- -- - -------<br>-------- -- --- --- -- ----- ----------- ----- -----------<br>---- --- ---------- --- ---- --- -- ----------,167021.79999995232,167020.90000009537,166617.123,166630.10000014305,166633.793,167033.905,,20,companies'
screen,html.Screen,0_4_1_0_1_21,2021-11-26T12:41:03.875Z,,,,,,,,,,,,,,,,51,,,,,,,,,,,,,,706.9950000953686,,response,,,13,C,,,,,Space,keypress(Space),,,,instrumental,-------- -------- --- --- ---- --- --- ------ -- --------<br>---- --------- --- ------- ------------ ---------- ---------<br>--- ---------- ------- ---------- ability -- -------- ----<br>---- --- ------ ----- ------ -- ---- --- ----- -- - -------<br>-------- -- --- --- -- ----- ----------- ----- -----------<br>---- --- ---------- --- ---- --- -- ----------,167741.70000004768,167740.90000009537,167017.235,167021.90000009537,167033.905,167750.89,,21,ability
screen,html.Screen,0_4_1_0_1_22,2021-11-26T12:41:04.243Z,,,,,,,,,,,,,,,,51,,,,,,,,,,,,,,358.01000009535346,,response,,,13,C,,,,,Space,keypress(Space),,,,instrumental,-------- -------- --- --- ---- --- --- ------ -- --------<br>---- --------- --- ------- ------------ ---------- ---------<br>--- ---------- ------- ---------- ------- to -------- ----<br>---- --- ------ ----- ------ -- ---- --- ----- -- - -------<br>-------- -- --- --- -- ----- ----------- ----- -----------<br>---- --- ---------- --- ---- --- -- ----------,168109.70000004768,168108.90000009537,167734.218,167741.90000009537,167750.89,168117.515,,22,to
screen,html.Screen,0_4_1_0_1_23,2021-11-26T12:41:04.675Z,,,,,,,,,,,,,,,,51,,,,,,,,,,,,,,423.38500009535346,,response,,,13,C,,,,,Space,keypress(Space),,,,instrumental,-------- -------- --- --- ---- --- --- ------ -- --------<br>---- --------- --- ------- ------------ ---------- ---------<br>--- ---------- ------- ---------- ------- -- survive. ----<br>---- --- ------ ----- ------ -- ---- --- ----- -- - -------<br>-------- -- --- --- -- ----- ----------- ----- -----------<br>---- --- ---------- --- ---- --- -- ----------,168541.70000004768,168540.90000009537,168100.845,168110.10000014305,168117.515,168550.981,,23,survive.
screen,html.Screen,0_4_1_0_1_24,2021-11-26T12:41:05.283Z,,,,,,,,,,,,,,,,51,,,,,,,,,,,,,,598.219000047684,,response,,,13,C,,,,,Space,keypress(Space),,,,instrumental,-------- -------- --- --- ---- --- --- ------ -- --------<br>---- --------- --- ------- ------------ ---------- ---------<br>--- ---------- ------- ---------- ------- -- -------- This<br>---- --- ------ ----- ------ -- ---- --- ----- -- - -------<br>-------- -- --- --- -- ----- ----------- ----- -----------<br>---- --- ---------- --- ---- --- -- ----------,169150.10000014305,169149.20000004768,168534.311,168541.90000009537,168550.981,169167.611,,24,This
screen,html.Screen,0_4_1_0_1_25,2021-11-26T12:41:05.675Z,,,,,,,,,,,,,,,,51,,,,,,,,,,,,,,373.3889999999956,,response,,,13,C,,,,,Space,keypress(Space),,,,instrumental,-------- -------- --- --- ---- --- --- ------ -- --------<br>---- --------- --- ------- ------------ ---------- ---------<br>--- ---------- ------- ---------- ------- -- -------- ----<br>week --- ------ ----- ------ -- ---- --- ----- -- - -------<br>-------- -- --- --- -- ----- ----------- ----- -----------<br>---- --- ---------- --- ---- --- -- ----------,169541.70000004768,169541,169150.943,169150.5,169167.611,169551.294,,25,week
screen,html.Screen,0_4_1_0_1_26,2021-11-26T12:41:06.163Z,,,,,,,,,,,,,,,,51,,,,,,,,,,,,,,477.4060000476893,,response,,,13,C,,,,,Space,keypress(Space),,,,instrumental,-------- -------- --- --- ---- --- --- ------ -- --------<br>---- --------- --- ------- ------------ ---------- ---------<br>--- ---------- ------- ---------- ------- -- -------- ----<br>---- the ------ ----- ------ -- ---- --- ----- -- - -------<br>-------- -- --- --- -- ----- ----------- ----- -----------<br>---- --- ---------- --- ---- --- -- ----------,170029.60000014305,170028.70000004768,169534.622,169542.10000014305,169551.294,170034.561,,26,the
screen,html.Screen,0_4_1_0_1_27,2021-11-26T12:41:06.547Z,,,,,,,,,,,,,,,,51,,,,,,,,,,,,,,378.13900004769675,,response,,,13,C,,,,,Space,keypress(Space),,,,instrumental,-------- -------- --- --- ---- --- --- ------ -- --------<br>---- --------- --- ------- ------------ ---------- ---------<br>--- ---------- ------- ---------- ------- -- -------- ----<br>---- --- Senate ----- ------ -- ---- --- ----- -- - -------<br>-------- -- --- --- -- ----- ----------- ----- -----------<br>---- --- ---------- --- ---- --- -- ----------,170413.5,170412.70000004768,170017.892,170029.90000009537,170034.561,170418.183,,27,Senate
screen,html.Screen,0_4_1_0_1_28,2021-11-26T12:41:06.915Z,,,,,,,,,,,,,,,,51,,,,,,,,,,,,,,362.5170000476937,,response,,,13,C,,,,,Space,keypress(Space),,,,instrumental,-------- -------- --- --- ---- --- --- ------ -- --------<br>---- --------- --- ------- ------------ ---------- ---------<br>--- ---------- ------- ---------- ------- -- -------- ----<br>---- --- ------ seems ------ -- ---- --- ----- -- - -------<br>-------- -- --- --- -- ----- ----------- ----- -----------<br>---- --- ---------- --- ---- --- -- ----------,170781.40000009537,170780.70000004768,170401.511,170413.70000004768,170418.183,170784.844,,28,seems
screen,html.Screen,0_4_1_0_1_29,2021-11-26T12:41:07.291Z,,,,,,,,,,,,,,,,51,,,,,,,,,,,,,,371.7560001430393,,response,,,13,C,,,,,Space,keypress(Space),,,,instrumental,-------- -------- --- --- ---- --- --- ------ -- --------<br>---- --------- --- ------- ------------ ---------- ---------<br>--- ---------- ------- ---------- ------- -- -------- ----<br>---- --- ------ ----- poised -- ---- --- ----- -- - -------<br>-------- -- --- --- -- ----- ----------- ----- -----------<br>---- --- ---------- --- ---- --- -- ----------,171157.40000009537,171156.60000014305,170768.174,170781.70000004768,170784.844,171168.28,,29,poised
screen,html.Screen,0_4_1_0_1_30,2021-11-26T12:41:07.635Z,,,,,,,,,,,,,,,,51,,,,,,,,,,,,,,332.3200001430523,,response,,,13,C,,,,,Space,keypress(Space),,,,instrumental,-------- -------- --- --- ---- --- --- ------ -- --------<br>---- --------- --- ------- ------------ ---------- ---------<br>--- ---------- ------- ---------- ------- -- -------- ----<br>---- --- ------ ----- ------ to ---- --- ----- -- - -------<br>-------- -- --- --- -- ----- ----------- ----- -----------<br>---- --- ---------- --- ---- --- -- ----------,171501.40000009537,171500.60000014305,171151.61,171157.70000004768,171168.28,171518.362,,30,to
screen,html.Screen,0_4_1_0_1_31,2021-11-26T12:41:08.003Z,,,,,,,,,,,,,,,,51,,,,,,,,,,,,,,350.33800004769,,response,,,13,C,,,,,Space,keypress(Space),,,,instrumental,-------- -------- --- --- ---- --- --- ------ -- --------<br>---- --------- --- ------- ------------ ---------- ---------<br>--- ---------- ------- ---------- ------- -- -------- ----<br>---- --- ------ ----- ------ -- join --- ----- -- - -------<br>-------- -- --- --- -- ----- ----------- ----- -----------<br>---- --- ---------- --- ---- --- -- ----------,171869.40000009537,171868.70000004768,171501.692,171501.70000004768,171518.362,171885.119,,31,join
screen,html.Screen,0_4_1_0_1_32,2021-11-26T12:41:08.324Z,,,,,,,,,,,,,,,,51,,,,,,,,,,,,,,303.38099999999395,,response,,,13,C,,,,,Space,keypress(Space),,,,instrumental,-------- -------- --- --- ---- --- --- ------ -- --------<br>---- --------- --- ------- ------------ ---------- ---------<br>--- ---------- ------- ---------- ------- -- -------- ----<br>---- --- ------ ----- ------ -- ---- the ----- -- - -------<br>-------- -- --- --- -- ----- ----------- ----- -----------<br>---- --- ---------- --- ---- --- -- ----------,172190.29999995232,172188.5,171868.449,171869.70000004768,171885.119,172201.855,,32,the
screen,html.Screen,0_4_1_0_1_33,2021-11-26T12:41:08.819Z,,,,,,,,,,,,,,,,51,,,,,,,,,,,,,,482.6449999999895,,response,,,13,C,,,,,Space,keypress(Space),,,,instrumental,-------- -------- --- --- ---- --- --- ------ -- --------<br>---- --------- --- ------- ------------ ---------- ---------<br>--- ---------- ------- ---------- ------- -- -------- ----<br>---- --- ------ ----- ------ -- ---- --- House -- - -------<br>-------- -- --- --- -- ----- ----------- ----- -----------<br>---- --- ---------- --- ---- --- -- ----------,172685.40000009537,172684.5,172185.185,172190.5,172201.855,172701.967,,33,House
screen,html.Screen,0_4_1_0_1_34,2021-11-26T12:41:09.187Z,,,,,,,,,,,,,,,,51,,,,,,,,,,,,,,350.63300014304696,,response,,,13,C,,,,,Space,keypress(Space),,,,instrumental,-------- -------- --- --- ---- --- --- ------ -- --------<br>---- --------- --- ------- ------------ ---------- ---------<br>--- ---------- ------- ---------- ------- -- -------- ----<br>---- --- ------ ----- ------ -- ---- --- ----- in - -------<br>-------- -- --- --- -- ----- ----------- ----- -----------<br>---- --- ---------- --- ---- --- -- ----------,173053.29999995232,173052.60000014305,172685.297,172685.60000014305,172701.967,173068.796,,34,in
screen,html.Screen,0_4_1_0_1_35,2021-11-26T12:41:09.467Z,,,,,,,,,,,,,,,,51,,,,,,,,,,,,,,263.7039999999979,,response,,,13,C,,,,,Space,keypress(Space),,,,instrumental,-------- -------- --- --- ---- --- --- ------ -- --------<br>---- --------- --- ------- ------------ ---------- ---------<br>--- ---------- ------- ---------- ------- -- -------- ----<br>---- --- ------ ----- ------ -- ---- --- ----- -- a -------<br>-------- -- --- --- -- ----- ----------- ----- -----------<br>---- --- ---------- --- ---- --- -- ----------,173333.40000009537,173332.5,173052.125,173053.60000014305,173068.796,173335.471,,35,a
screen,html.Screen,0_4_1_0_1_36,2021-11-26T12:41:09.875Z,,,,,,,,,,,,,,,,51,,,,,,,,,,,,,,405.02900000000955,,response,,,13,C,,,,,Space,keypress(Space),,,,instrumental,-------- -------- --- --- ---- --- --- ------ -- --------<br>---- --------- --- ------- ------------ ---------- ---------<br>--- ---------- ------- ---------- ------- -- -------- ----<br>---- --- ------ ----- ------ -- ---- --- ----- -- - massive<br>-------- -- --- --- -- ----- ----------- ----- -----------<br>---- --- ---------- --- ---- --- -- ----------,173741.29999995232,173740.5,173318.801,173333.60000014305,173335.471,173752.252,,36,massive
screen,html.Screen,0_4_1_0_1_37,2021-11-26T12:41:10.267Z,,,,,,,,,,,,,,,,51,,,,,,,,,,,,,,380.2479999999923,,response,,,13,C,,,,,Space,keypress(Space),,,,instrumental,-------- -------- --- --- ---- --- --- ------ -- --------<br>---- --------- --- ------- ------------ ---------- ---------<br>--- ---------- ------- ---------- ------- -- -------- ----<br>---- --- ------ ----- ------ -- ---- --- ----- -- - -------<br>overhaul -- --- --- -- ----- ----------- ----- -----------<br>---- --- ---------- --- ---- --- -- ----------,174133.29999995232,174132.5,173735.582,173741.60000014305,173752.252,174135.616,,37,overhaul
screen,html.Screen,0_4_1_0_1_38,2021-11-26T12:41:10.619Z,,,,,,,,,,,,,,,,51,,,,,,,,,,,,,,348.6839999523072,,response,,,13,C,,,,,Space,keypress(Space),,,,instrumental,-------- -------- --- --- ---- --- --- ------ -- --------<br>---- --------- --- ------- ------------ ---------- ---------<br>--- ---------- ------- ---------- ------- -- -------- ----<br>---- --- ------ ----- ------ -- ---- --- ----- -- - -------<br>-------- of --- --- -- ----- ----------- ----- -----------<br>---- --- ---------- --- ---- --- -- ----------,174485.20000004768,174484.29999995232,174118.947,174133.5,174135.616,174502.429,,38,of
screen,html.Screen,0_4_1_0_1_39,2021-11-26T12:41:10.899Z,,,,,,,,,,,,,,,,51,,,,,,,,,,,,,,261.9710000953637,,response,,,13,C,,,,,Space,keypress(Space),,,,instrumental,-------- -------- --- --- ---- --- --- ------ -- --------<br>---- --------- --- ------- ------------ ---------- ---------<br>--- ---------- ------- ---------- ------- -- -------- ----<br>---- --- ------ ----- ------ -- ---- --- ----- -- - -------<br>-------- -- the --- -- ----- ----------- ----- -----------<br>---- --- ---------- --- ---- --- -- ----------,174765.20000004768,174764.40000009537,174485.759,174485.40000009537,174502.429,174769.146,,39,the
screen,html.Screen,0_4_1_0_1_40,2021-11-26T12:41:11.387Z,,,,,,,,,,,,,,,,51,,,,,,,,,,,,,,483.3539999999921,,response,,,13,C,,,,,Space,keypress(Space),,,,instrumental,-------- -------- --- --- ---- --- --- ------ -- --------<br>---- --------- --- ------- ------------ ---------- ---------<br>--- ---------- ------- ---------- ------- -- -------- ----<br>---- --- ------ ----- ------ -- ---- --- ----- -- - -------<br>-------- -- --- way -- ----- ----------- ----- -----------<br>---- --- ---------- --- ---- --- -- ----------,175253.29999995232,175252.5,174752.476,174765.40000009537,174769.146,175269.277,,40,way
screen,html.Screen,0_4_1_0_1_41,2021-11-26T12:41:11.731Z,,,,,,,,,,,,,,,,51,,,,,,,,,,,,,,327.0229999523144,,response,,,13,C,,,,,Space,keypress(Space),,,,instrumental,-------- -------- --- --- ---- --- --- ------ -- --------<br>---- --------- --- ------- ------------ ---------- ---------<br>--- ---------- ------- ---------- ------- -- -------- ----<br>---- --- ------ ----- ------ -- ---- --- ----- -- - -------<br>-------- -- --- --- in ----- ----------- ----- -----------<br>---- --- ---------- --- ---- --- -- ----------,175597.10000014305,175596.29999995232,175252.607,175253.5,175269.277,175602.499,,41,in
screen,html.Screen,0_4_1_0_1_42,2021-11-26T12:41:12.163Z,,,,,,,,,,,,,,,,51,,,,,,,,,,,,,,425.9010000953567,,response,,,13,C,,,,,Space,keypress(Space),,,,instrumental,-------- -------- --- --- ---- --- --- ------ -- --------<br>---- --------- --- ------- ------------ ---------- ---------<br>--- ---------- ------- ---------- ------- -- -------- ----<br>---- --- ------ ----- ------ -- ---- --- ----- -- - -------<br>-------- -- --- --- -- which ----------- ----- -----------<br>---- --- ---------- --- ---- --- -- ----------,176029.20000004768,176028.40000009537,175585.832,175597.40000009537,175602.499,176036.196,,42,which
screen,html.Screen,0_4_1_0_1_43,2021-11-26T12:41:12.418Z,,,,,,,,,,,,,,,,51,,,,,,,,,,,,,,248.00400004768744,,response,,,13,C,,,,,Space,keypress(Space),,,,instrumental,-------- -------- --- --- ---- --- --- ------ -- --------<br>---- --------- --- ------- ------------ ---------- ---------<br>--- ---------- ------- ---------- ------- -- -------- ----<br>---- --- ------ ----- ------ -- ---- --- ----- -- - -------<br>-------- -- --- --- -- ----- bureaucrats ----- -----------<br>---- --- ---------- --- ---- --- -- ----------,176285,176284.20000004768,176019.524,176029.40000009537,176036.196,176286.225,,43,bureaucrats
screen,html.Screen,0_4_1_0_1_44,2021-11-26T12:41:12.867Z,,,,,,,,,,,,,,,,51,,,,,,,,,,,,,,446.07499995231046,,response,,,13,C,,,,,Space,keypress(Space),,,,instrumental,-------- -------- --- --- ---- --- --- ------ -- --------<br>---- --------- --- ------- ------------ ---------- ---------<br>--- ---------- ------- ---------- ------- -- -------- ----<br>---- --- ------ ----- ------ -- ---- --- ----- -- - -------<br>-------- -- --- --- -- ----- ----------- enact -----------<br>---- --- ---------- --- ---- --- -- ----------,176733.20000004768,176732.29999995232,176269.554,176285.20000004768,176286.225,176736.274,,44,enact
screen,html.Screen,0_4_1_0_1_45,2021-11-26T12:41:13.322Z,,,,,,,,,,,,,,,,51,,,,,,,,,,,,,,452.0259999523114,,response,,,13,C,,,,,Space,keypress(Space),,,,instrumental,-------- -------- --- --- ---- --- --- ------ -- --------<br>---- --------- --- ------- ------------ ---------- ---------<br>--- ---------- ------- ---------- ------- -- -------- ----<br>---- --- ------ ----- ------ -- ---- --- ----- -- - -------<br>-------- -- --- --- -- ----- ----------- ----- regulations<br>---- --- ---------- --- ---- --- -- ----------,177189,177188.29999995232,176719.604,176733.5,176736.274,177203.073,,45,regulations
screen,html.Screen,0_4_1_0_1_46,2021-11-26T12:41:13.698Z,,,,,,,,,,,,,,,,51,,,,,,,,,,,,,,361.0270001430472,,response,,,13,C,,,,,Space,keypress(Space),,,,instrumental,-------- -------- --- --- ---- --- --- ------ -- --------<br>---- --------- --- ------- ------------ ---------- ---------<br>--- ---------- ------- ---------- ------- -- -------- ----<br>---- --- ------ ----- ------ -- ---- --- ----- -- - -------<br>-------- -- --- --- -- ----- ----------- ----- -----------<br>that --- ---------- --- ---- --- -- ----------,177564.90000009537,177564.10000014305,177186.403,177189.29999995232,177203.073,177569.844,,46,that
screen,html.Screen,0_4_1_0_1_47,2021-11-26T12:41:14.178Z,,,,,,,,,,,,,,,,51,,,,,,,,,,,,,,474.35600004767184,,response,,,13,C,,,,,Space,keypress(Space),,,,instrumental,-------- -------- --- --- ---- --- --- ------ -- --------<br>---- --------- --- ------- ------------ ---------- ---------<br>--- ---------- ------- ---------- ------- -- -------- ----<br>---- --- ------ ----- ------ -- ---- --- ----- -- - -------<br>-------- -- --- --- -- ----- ----------- ----- -----------<br>---- are ---------- --- ---- --- -- ----------,178044.90000009537,178044.20000004768,177553.174,177565.20000004768,177569.844,178053.281,,47,are
screen,html.Screen,0_4_1_0_1_48,2021-11-26T12:41:14.690Z,,,,,,,,,,,,,,,,51,,,,,,,,,,,,,,502.9190000476956,,response,,,13,C,,,,,Space,keypress(Space),,,,instrumental,-------- -------- --- --- ---- --- --- ------ -- --------<br>---- --------- --- ------- ------------ ---------- ---------<br>--- ---------- ------- ---------- ------- -- -------- ----<br>---- --- ------ ----- ------ -- ---- --- ----- -- - -------<br>-------- -- --- --- -- ----- ----------- ----- -----------<br>---- --- strangling --- ---- --- -- ----------,178556.90000009537,178556.20000004768,178036.611,178045.20000004768,178053.281,178569.918,,48,strangling
screen,html.Screen,0_4_1_0_1_49,2021-11-26T12:41:15.058Z,,,,,,,,,,,,,,,,51,,,,,,,,,,,,,,354.182000143046,,response,,,13,C,,,,,Space,keypress(Space),,,,instrumental,-------- -------- --- --- ---- --- --- ------ -- --------<br>---- --------- --- ------- ------------ ---------- ---------<br>--- ---------- ------- ---------- ------- -- -------- ----<br>---- --- ------ ----- ------ -- ---- --- ----- -- - -------<br>-------- -- --- --- -- ----- ----------- ----- -----------<br>---- --- ---------- the ---- --- -- ----------,178924.90000009537,178924.10000014305,178553.25,178557.20000004768,178569.918,178936.883,,49,the
screen,html.Screen,0_4_1_0_1_50,2021-11-26T12:41:15.899Z,,,,,,,,,,,,,,,,51,,,,,,,,,,,,,,827.4169999523147,,response,,,13,C,,,,,Space,keypress(Space),,,,instrumental,-------- -------- --- --- ---- --- --- ------ -- --------<br>---- --------- --- ------- ------------ ---------- ---------<br>--- ---------- ------- ---------- ------- -- -------- ----<br>---- --- ------ ----- ------ -- ---- --- ----- -- - -------<br>-------- -- --- --- -- ----- ----------- ----- -----------<br>---- --- ---------- --- life --- -- ----------,179765.10000014305,179764.29999995232,178920.212,178925.10000014305,178936.883,179770.346,,50,life
