sender,sender_type,sender_id,timestamp,meta,,Blues,Classical,Country,Dance,Electronic,Folk,Gospel,Hip-Hop,Jazz,Latin,Musical/Film,New-age,Pop,Provo_ID,R&B,Rap,Reggae,Religious,Rock,Soul,Swing,Traditional,age,artist_name,correct,correctResponse,distraction,duration,education,ended_on,familiarity,gender,item,list,music_frequency,offensiveness,pleasantness,preference,response,response_action,snippet_file,song_name,song_rating,sound,text,time_commit,time_end,time_render,time_run,time_show,time_switch,url,word,word_ID
Instructions,html.Page,0_0,2021-11-12T15:04:24.378Z,"{""labjs_version"":""20.2.3"",""labjs_build"":{""flavor"":""production"",""commit"":""7ea907d66ca8aeef8054924ca5d82ffbe11e34e5""},""location"":""https://run.pavlovia.org/mvasilev/lab_music_e/"",""userAgent"":""Mozilla/5.0 (Windows NT 6.1; Win64; x64) AppleWebKit/537.36 (KHTML, like Gecko) Chrome/95.0.4638.69 Safari/537.36"",""platform"":""Win32"",""language"":""en-US"",""locale"":""en-US"",""timeZone"":""Europe/London"",""timezoneOffset"":0,""screen_width"":1920,""screen_height"":1080,""scroll_width"":1920,""scroll_height"":959,""window_innerWidth"":1920,""window_innerHeight"":1007,""devicePixelRatio"":1}",,,,,,,,,,,,,,,,,,,,,,,,,,,,,23744.850999952316,,form submission,,,,,,,,,,,,,,,,35128,35126.799999952316,11348.607,11365.699999928474,11381.949,35121.765,{},,
Headphones,html.Page,0_1,2021-11-12T15:04:27.020Z,,,,,,,,,,,,,,,,,,,,,,,,,,,,,,2647.6349999761587,,form submission,,,,,,,,,,,,,,,,37769.799999952316,37769.39999997616,35105.094,35128.699999928474,35121.765,37772.661,,,
Holding screen,html.Screen,0_2_0_0,2021-11-12T15:04:37.015Z,,,,,,,,,,,,,,,,,,,,,,,,,,,,,,10002.324999999997,,timeout,,,,,,,,,,,,,,,,47765.09999990463,47758.316,37755.989,37770.5,37772.661,47774.986,,,
screen,html.Screen,0_2_0_1_0,2021-11-12T15:04:38.436Z,,,,,,,,,,,,,,,,53,,,,,,,,,,,,,,1409.2139999284773,,response,,,99,,,,,,Space,keypress(Space),,,,,When -- ----- -- ------ - ------- --- ----------<br>------------- ------ ------ ---- ---- ------- ----- -- ----<br>-------- ------- -- ---------- --- - --- ----- ----- ----<br>---- --- --- ----- --- ---- ---- ------- ----- ---- -------<br>--- --- -- ----- -- --- ---- -- --- ---- -- ------ ------<br>--- ----- -- ----,49185.59999990463,49184.199999928474,47758.316,47765.59999990463,47774.986,49192.219,,0,When
screen,html.Screen,0_2_0_1_1,2021-11-12T15:04:39.307Z,,,,,,,,,,,,,,,,53,,,,,,,,,,,,,,863.4809999284771,,response,,,99,,,,,,Space,keypress(Space),,,,,---- it ----- -- ------ - ------- --- ----------<br>------------- ------ ------ ---- ---- ------- ----- -- ----<br>-------- ------- -- ---------- --- - --- ----- ----- ----<br>---- --- --- ----- --- ---- ---- ------- ----- ---- -------<br>--- --- -- ----- -- --- ---- -- --- ---- -- ------ ------<br>--- ----- -- ----,50056.59999990463,50055.699999928474,49175.548,49185.89999997616,49192.219,50059.127,,1,it
screen,html.Screen,0_2_0_1_2,2021-11-12T15:04:40.115Z,,,,,,,,,,,,,,,,53,,,,,,,,,,,,,,804.572999928474,,response,,,99,,,,,,Space,keypress(Space),,,,,---- -- comes -- ------ - ------- --- ----------<br>------------- ------ ------ ---- ---- ------- ----- -- ----<br>-------- ------- -- ---------- --- - --- ----- ----- ----<br>---- --- --- ----- --- ---- ---- ------- ----- ---- -------<br>--- --- -- ----- -- --- ---- -- --- ---- -- ------ ------<br>--- ----- -- ----,50864.5,50863.699999928474,50042.456,50056.799999952316,50059.127,50875.997,,2,comes
screen,html.Screen,0_2_0_1_3,2021-11-12T15:04:40.835Z,,,,,,,,,,,,,,,,53,,,,,,,,,,,,,,707.502999999997,,response,,,99,,,,,,Space,keypress(Space),,,,,---- -- ----- to ------ - ------- --- ----------<br>------------- ------ ------ ---- ---- ------- ----- -- ----<br>-------- ------- -- ---------- --- - --- ----- ----- ----<br>---- --- --- ----- --- ---- ---- ------- ----- ---- -------<br>--- --- -- ----- -- --- ---- -- --- ---- -- ------ ------<br>--- ----- -- ----,51584.5,51583.5,50859.326,50864.89999997616,50875.997,51592.857,,3,to
screen,html.Screen,0_2_0_1_4,2021-11-12T15:04:41.403Z,,,,,,,,,,,,,,,,53,,,,,,,,,,,,,,558.6429999999964,,response,,,99,,,,,,Space,keypress(Space),,,,,---- -- ----- -- having - ------- --- ----------<br>------------- ------ ------ ---- ---- ------- ----- -- ----<br>-------- ------- -- ---------- --- - --- ----- ----- ----<br>---- --- --- ----- --- ---- ---- ------- ----- ---- -------<br>--- --- -- ----- -- --- ---- -- --- ---- -- ------ ------<br>--- ----- -- ----,52152.699999928474,52151.5,51576.186,51585,51592.857,52159.68,,4,having
screen,html.Screen,0_2_0_1_5,2021-11-12T15:04:41.834Z,,,,,,,,,,,,,,,,53,,,,,,,,,,,,,,423.9199999046323,,response,,,99,,,,,,Space,keypress(Space),,,,,---- -- ----- -- ------ a ------- --- ----------<br>------------- ------ ------ ---- ---- ------- ----- -- ----<br>-------- ------- -- ---------- --- - --- ----- ----- ----<br>---- --- --- ----- --- ---- ---- ------- ----- ---- -------<br>--- --- -- ----- -- --- ---- -- --- ---- -- ------ ------<br>--- ----- -- ----,52584.39999997616,52583.59999990463,52143.009,52153,52159.68,52593.137,,5,a
screen,html.Screen,0_2_0_1_6,2021-11-12T15:04:42.546Z,,,,,,,,,,,,,,,,53,,,,,,,,,,,,,,702.3629999999976,,response,,,99,,,,,,Space,keypress(Space),,,,,---- -- ----- -- ------ - lasting --- ----------<br>------------- ------ ------ ---- ---- ------- ----- -- ----<br>-------- ------- -- ---------- --- - --- ----- ----- ----<br>---- --- --- ----- --- ---- ---- ------- ----- ---- -------<br>--- --- -- ----- -- --- ---- -- --- ---- -- ------ ------<br>--- ----- -- ----,53296.5,53295.5,52576.466,52585,52593.137,53309.992,,6,lasting
screen,html.Screen,0_2_0_1_7,2021-11-12T15:04:43.098Z,,,,,,,,,,,,,,,,53,,,,,,,,,,,,,,537.5080000000016,,response,,,99,,,,,,Space,keypress(Space),,,,,---- -- ----- -- ------ - ------- and ----------<br>------------- ------ ------ ---- ---- ------- ----- -- ----<br>-------- ------- -- ---------- --- - --- ----- ----- ----<br>---- --- --- ----- --- ---- ---- ------- ----- ---- -------<br>--- --- -- ----- -- --- ---- -- --- ---- -- ------ ------<br>--- ----- -- ----,53848.39999997616,53847.5,53293.321,53296.799999952316,53309.992,53860.089,,7,and
screen,html.Screen,0_2_0_1_8,2021-11-12T15:04:43.763Z,,,,,,,,,,,,,,,,53,,,,,,,,,,,,,,651.3109999761582,,response,,,99,,,,,,Space,keypress(Space),,,,,---- -- ----- -- ------ - ------- --- fulfilling<br>------------- ------ ------ ---- ---- ------- ----- -- ----<br>-------- ------- -- ---------- --- - --- ----- ----- ----<br>---- --- --- ----- --- ---- ---- ------- ----- ---- -------<br>--- --- -- ----- -- --- ---- -- --- ---- -- ------ ------<br>--- ----- -- ----,54512.59999990463,54511.39999997616,53843.419,53848.799999952316,53860.089,54526.999,,8,fulfilling
screen,html.Screen,0_2_0_1_9,2021-11-12T15:04:44.514Z,,,,,,,,,,,,,,,,53,,,,,,,,,,,,,,736.4009999761547,,response,,,99,,,,,,Space,keypress(Space),,,,,"---- -- ----- -- ------ - ------- --- ----------<br>relationship, ------ ------ ---- ---- ------- ----- -- ----<br>-------- ------- -- ---------- --- - --- ----- ----- ----<br>---- --- --- ----- --- ---- ---- ------- ----- ---- -------<br>--- --- -- ----- -- --- ---- -- --- ---- -- ------ ------<br>--- ----- -- ----",55264.39999997616,55263.39999997616,54510.328,54512.89999997616,54526.999,55277.129,,9,"relationship,"
screen,html.Screen,0_2_0_1_10,2021-11-12T15:04:45.018Z,,,,,,,,,,,,,,,,53,,,,,,,,,,,,,,490.2709999761573,,response,,,99,,,,,,Space,keypress(Space),,,,,---- -- ----- -- ------ - ------- --- ----------<br>------------- common ------ ---- ---- ------- ----- -- ----<br>-------- ------- -- ---------- --- - --- ----- ----- ----<br>---- --- --- ----- --- ---- ---- ------- ----- ---- -------<br>--- --- -- ----- -- --- ---- -- --- ---- -- ------ ------<br>--- ----- -- ----,55768.39999997616,55767.39999997616,55260.459,55264.59999990463,55277.129,55777.323,,10,common
screen,html.Screen,0_2_0_1_11,2021-11-12T15:04:45.410Z,,,,,,,,,,,,,,,,53,,,,,,,,,,,,,,382.07699997616146,,response,,,99,,,,,,Space,keypress(Space),,,,,---- -- ----- -- ------ - ------- --- ----------<br>------------- ------ wisdom ---- ---- ------- ----- -- ----<br>-------- ------- -- ---------- --- - --- ----- ----- ----<br>---- --- --- ----- --- ---- ---- ------- ----- ---- -------<br>--- --- -- ----- -- --- ---- -- --- ---- -- ------ ------<br>--- ----- -- ----,56160.299999952316,56159.39999997616,55760.652,55768.59999990463,55777.323,56177.441,,11,wisdom
screen,html.Screen,0_2_0_1_12,2021-11-12T15:04:46.370Z,,,,,,,,,,,,,,,,53,,,,,,,,,,,,,,941.9589999761592,,response,,,99,,,,,,Space,keypress(Space),,,,,---- -- ----- -- ------ - ------- --- ----------<br>------------- ------ ------ says ---- ------- ----- -- ----<br>-------- ------- -- ---------- --- - --- ----- ----- ----<br>---- --- --- ----- --- ---- ---- ------- ----- ---- -------<br>--- --- -- ----- -- --- ---- -- --- ---- -- ------ ------<br>--- ----- -- ----,57120.199999928474,57119.39999997616,56160.77,56160.59999990463,56177.441,57127.625,,12,says
screen,html.Screen,0_2_0_1_13,2021-11-12T15:04:46.882Z,,,,,,,,,,,,,,,,53,,,,,,,,,,,,,,503.6749999523163,,response,,,99,,,,,,Space,keypress(Space),,,,,---- -- ----- -- ------ - ------- --- ----------<br>------------- ------ ------ ---- that ------- ----- -- ----<br>-------- ------- -- ---------- --- - --- ----- ----- ----<br>---- --- --- ----- --- ---- ---- ------- ----- ---- -------<br>--- --- -- ----- -- --- ---- -- --- ---- -- ------ ------<br>--- ----- -- ----,57632.199999928474,57631.299999952316,57110.955,57120.39999997616,57127.625,57644.495,,13,that
screen,html.Screen,0_2_0_1_14,2021-11-12T15:04:47.530Z,,,,,,,,,,,,,,,,53,,,,,,,,,,,,,,634.8049999523137,,response,,,99,,,,,,Space,keypress(Space),,,,,---- -- ----- -- ------ - ------- --- ----------<br>------------- ------ ------ ---- ---- feeling ----- -- ----<br>-------- ------- -- ---------- --- - --- ----- ----- ----<br>---- --- --- ----- --- ---- ---- ------- ----- ---- -------<br>--- --- -- ----- -- --- ---- -- --- ---- -- ------ ------<br>--- ----- -- ----,58280.09999990463,58279.299999952316,57627.824,57632.5,57644.495,58294.617,,14,feeling
screen,html.Screen,0_2_0_1_15,2021-11-12T15:04:48.274Z,,,,,,,,,,,,,,,,53,,,,,,,,,,,,,,728.6829999523179,,response,,,99,,,,,,Space,keypress(Space),,,,,---- -- ----- -- ------ - ------- --- ----------<br>------------- ------ ------ ---- ---- ------- close -- ----<br>-------- ------- -- ---------- --- - --- ----- ----- ----<br>---- --- --- ----- --- ---- ---- ------- ----- ---- -------<br>--- --- -- ----- -- --- ---- -- --- ---- -- ------ ------<br>--- ----- -- ----,59024.09999990463,59023.299999952316,58277.947,58280.39999997616,58294.617,59028.213,,15,close
screen,html.Screen,0_2_0_1_16,2021-11-12T15:04:48.754Z,,,,,,,,,,,,,,,,53,,,,,,,,,,,,,,475.3869999046292,,response,,,99,,,,,,Space,keypress(Space),,,,,---- -- ----- -- ------ - ------- --- ----------<br>------------- ------ ------ ---- ---- ------- ----- to ----<br>-------- ------- -- ---------- --- - --- ----- ----- ----<br>---- --- --- ----- --- ---- ---- ------- ----- ---- -------<br>--- --- -- ----- -- --- ---- -- --- ---- -- ------ ------<br>--- ----- -- ----,59504.39999997616,59503.59999990463,59011.542,59024.39999997616,59028.213,59511.67,,16,to
screen,html.Screen,0_2_0_1_17,2021-11-12T15:04:49.186Z,,,,,,,,,,,,,,,,53,,,,,,,,,,,,,,423.5299999284762,,response,,,99,,,,,,Space,keypress(Space),,,,,---- -- ----- -- ------ - ------- --- ----------<br>------------- ------ ------ ---- ---- ------- ----- -- your<br>-------- ------- -- ---------- --- - --- ----- ----- ----<br>---- --- --- ----- --- ---- ---- ------- ----- ---- -------<br>--- --- -- ----- -- --- ---- -- --- ---- -- ------ ------<br>--- ----- -- ----,59936,59935.199999928474,59494.999,59504.699999928474,59511.67,59945.05,,17,your
screen,html.Screen,0_2_0_1_18,2021-11-12T15:04:49.740Z,,,,,,,,,,,,,,,,53,,,,,,,,,,,,,,542.1499999284715,,response,,,99,,,,,,Space,keypress(Space),,,,,---- -- ----- -- ------ - ------- --- ----------<br>------------- ------ ------ ---- ---- ------- ----- -- ----<br>romantic ------- -- ---------- --- - --- ----- ----- ----<br>---- --- --- ----- --- ---- ---- ------- ----- ---- -------<br>--- --- -- ----- -- --- ---- -- --- ---- -- ------ ------<br>--- ----- -- ----,60488.09999990463,60487.199999928474,59928.38,59936.299999952316,59945.05,60495.255,,18,romantic
screen,html.Screen,0_2_0_1_19,2021-11-12T15:04:50.180Z,,,,,,,,,,,,,,,,53,,,,,,,,,,,,,,431.94499992847705,,response,,,99,,,,,,Space,keypress(Space),,,,,---- -- ----- -- ------ - ------- --- ----------<br>------------- ------ ------ ---- ---- ------- ----- -- ----<br>-------- partner -- ---------- --- - --- ----- ----- ----<br>---- --- --- ----- --- ---- ---- ------- ----- ---- -------<br>--- --- -- ----- -- --- ---- -- --- ---- -- ------ ------<br>--- ----- -- ----,60928,60927.199999928474,60478.584,60488.299999952316,60495.255,60945.379,,19,partner
screen,html.Screen,0_2_0_1_20,2021-11-12T15:04:50.684Z,,,,,,,,,,,,,,,,53,,,,,,,,,,,,,,485.8209999284736,,response,,,99,,,,,,Space,keypress(Space),,,,,---- -- ----- -- ------ - ------- --- ----------<br>------------- ------ ------ ---- ---- ------- ----- -- ----<br>-------- ------- is ---------- --- - --- ----- ----- ----<br>---- --- --- ----- --- ---- ---- ------- ----- ---- -------<br>--- --- -- ----- -- --- ---- -- --- ---- -- ------ ------<br>--- ----- -- ----,61432,61431.199999928474,60928.708,60928.199999928474,60945.379,61445.373,,20,is
screen,html.Screen,0_2_0_1_21,2021-11-12T15:04:51.684Z,,,,,,,,,,,,,,,,53,,,,,,,,,,,,,,985.726999904633,,response,,,99,,,,,,Space,keypress(Space),,,,,---- -- ----- -- ------ - ------- --- ----------<br>------------- ------ ------ ---- ---- ------- ----- -- ----<br>-------- ------- -- paramount. --- - --- ----- ----- ----<br>---- --- --- ----- --- ---- ---- ------- ----- ---- -------<br>--- --- -- ----- -- --- ---- -- --- ---- -- ------ ------<br>--- ----- -- ----,62431.89999997616,62431.09999990463,61428.704,61432.299999952316,61445.373,62445.878,,21,paramount.
screen,html.Screen,0_2_0_1_22,2021-11-12T15:04:52.156Z,,,,,,,,,,,,,,,,53,,,,,,,,,,,,,,457.2219999046356,,response,,,99,,,,,,Space,keypress(Space),,,,,---- -- ----- -- ------ - ------- --- ----------<br>------------- ------ ------ ---- ---- ------- ----- -- ----<br>-------- ------- -- ---------- But - --- ----- ----- ----<br>---- --- --- ----- --- ---- ---- ------- ----- ---- -------<br>--- --- -- ----- -- --- ---- -- --- ---- -- ------ ------<br>--- ----- -- ----,62904,62903.09999990463,62429.206,62432.299999952316,62445.878,62912.575,,22,But
screen,html.Screen,0_2_0_1_23,2021-11-12T15:04:52.636Z,,,,,,,,,,,,,,,,53,,,,,,,,,,,,,,470.4250000000029,,response,,,99,,,,,,Space,keypress(Space),,,,,---- -- ----- -- ------ - ------- --- ----------<br>------------- ------ ------ ---- ---- ------- ----- -- ----<br>-------- ------- -- ---------- --- a --- ----- ----- ----<br>---- --- --- ----- --- ---- ---- ------- ----- ---- -------<br>--- --- -- ----- -- --- ---- -- --- ---- -- ------ ------<br>--- ----- -- ----,63383.799999952316,63383,62895.904,62904.299999952316,62912.575,63395.955,,23,a
screen,html.Screen,0_2_0_1_24,2021-11-12T15:04:53.132Z,,,,,,,,,,,,,,,,53,,,,,,,,,,,,,,483.04499999999825,,response,,,99,,,,,,Space,keypress(Space),,,,,---- -- ----- -- ------ - ------- --- ----------<br>------------- ------ ------ ---- ---- ------- ----- -- ----<br>-------- ------- -- ---------- --- - new ----- ----- ----<br>---- --- --- ----- --- ---- ---- ------- ----- ---- -------<br>--- --- -- ----- -- --- ---- -- --- ---- -- ------ ------<br>--- ----- -- ----,63879.799999952316,63879,63379.285,63384.09999990463,63395.955,63896.192,,24,new
screen,html.Screen,0_2_0_1_25,2021-11-12T15:04:53.740Z,,,,,,,,,,,,,,,,53,,,,,,,,,,,,,,590.9079999046298,,response,,,99,,,,,,Space,keypress(Space),,,,,---- -- ----- -- ------ - ------- --- ----------<br>------------- ------ ------ ---- ---- ------- ----- -- ----<br>-------- ------- -- ---------- --- - --- study ----- ----<br>---- --- --- ----- --- ---- ---- ------- ----- ---- -------<br>--- --- -- ----- -- --- ---- -- --- ---- -- ------ ------<br>--- ----- -- ----,64487.799999952316,64487.09999990463,63879.521,63880.09999990463,63896.192,64496.343,,25,study
screen,html.Screen,0_2_0_1_26,2021-11-12T15:04:54.196Z,,,,,,,,,,,,,,,,53,,,,,,,,,,,,,,446.65699999999924,,response,,,99,,,,,,Space,keypress(Space),,,,,---- -- ----- -- ------ - ------- --- ----------<br>------------- ------ ------ ---- ---- ------- ----- -- ----<br>-------- ------- -- ---------- --- - --- ----- finds ----<br>---- --- --- ----- --- ---- ---- ------- ----- ---- -------<br>--- --- -- ----- -- --- ---- -- --- ---- -- ------ ------<br>--- ----- -- ----,64943.89999997616,64943,64479.672,64488.09999990463,64496.343,64946.452,,26,finds
screen,html.Screen,0_2_0_1_27,2021-11-12T15:04:54.548Z,,,,,,,,,,,,,,,,53,,,,,,,,,,,,,,348.5480000000025,,response,,,99,,,,,,Space,keypress(Space),,,,,---- -- ----- -- ------ - ------- --- ----------<br>------------- ------ ------ ---- ---- ------- ----- -- ----<br>-------- ------- -- ---------- --- - --- ----- ----- that<br>---- --- --- ----- --- ---- ---- ------- ----- ---- -------<br>--- --- -- ----- -- --- ---- -- --- ---- -- ------ ------<br>--- ----- -- ----,65295.799999952316,65295,64929.781,64944.09999990463,64946.452,65313.218,,27,that
screen,html.Screen,0_2_0_1_28,2021-11-12T15:04:55.075Z,,,,,,,,,,,,,,,,53,,,,,,,,,,,,,,509.5819999523155,,response,,,99,,,,,,Space,keypress(Space),,,,,---- -- ----- -- ------ - ------- --- ----------<br>------------- ------ ------ ---- ---- ------- ----- -- ----<br>-------- ------- -- ---------- --- - --- ----- ----- ----<br>it's --- --- ----- --- ---- ---- ------- ----- ---- -------<br>--- --- -- ----- -- --- ---- -- --- ---- -- ------ ------<br>--- ----- -- ----,65823.19999992847,65822.79999995232,65296.547,65296,65313.218,65830.034,,28,it's
screen,html.Screen,0_2_0_1_29,2021-11-12T15:04:55.604Z,,,,,,,,,,,,,,,,53,,,,,,,,,,,,,,520.8659999761585,,response,,,99,,,,,,Space,keypress(Space),,,,,---- -- ----- -- ------ - ------- --- ----------<br>------------- ------ ------ ---- ---- ------- ----- -- ----<br>-------- ------- -- ---------- --- - --- ----- ----- ----<br>---- not --- ----- --- ---- ---- ------- ----- ---- -------<br>--- --- -- ----- -- --- ---- -- --- ---- -- ------ ------<br>--- ----- -- ----,66351.69999992847,66350.89999997616,65813.363,65823.39999997616,65830.034,66363.46,,29,not
screen,html.Screen,0_2_0_1_30,2021-11-12T15:04:56.036Z,,,,,,,,,,,,,,,,53,,,,,,,,,,,,,,419.43999997615174,,response,,,99,,,,,,Space,keypress(Space),,,,,---- -- ----- -- ------ - ------- --- ----------<br>------------- ------ ------ ---- ---- ------- ----- -- ----<br>-------- ------- -- ---------- --- - --- ----- ----- ----<br>---- --- how ----- --- ---- ---- ------- ----- ---- -------<br>--- --- -- ----- -- --- ---- -- --- ---- -- ------ ------<br>--- ----- -- ----,66783.79999995232,66782.89999997616,66346.79,66352,66363.46,66796.911,,30,how
screen,html.Screen,0_2_0_1_31,2021-11-12T15:04:56.668Z,,,,,,,,,,,,,,,,53,,,,,,,,,,,,,,617.9889999761654,,response,,,99,,,,,,Space,keypress(Space),,,,,---- -- ----- -- ------ - ------- --- ----------<br>------------- ------ ------ ---- ---- ------- ----- -- ----<br>-------- ------- -- ---------- --- - --- ----- ----- ----<br>---- --- --- close --- ---- ---- ------- ----- ---- -------<br>--- --- -- ----- -- --- ---- -- --- ---- -- ------ ------<br>--- ----- -- ----,67415.69999992847,67414.89999997616,66780.241,66784,66796.911,67430.305,,31,close
screen,html.Screen,0_2_0_1_32,2021-11-12T15:04:57.220Z,,,,,,,,,,,,,,,,53,,,,,,,,,,,,,,536.5949999761651,,response,,,99,,,,,,Space,keypress(Space),,,,,---- -- ----- -- ------ - ------- --- ----------<br>------------- ------ ------ ---- ---- ------- ----- -- ----<br>-------- ------- -- ---------- --- - --- ----- ----- ----<br>---- --- --- ----- you ---- ---- ------- ----- ---- -------<br>--- --- -- ----- -- --- ---- -- --- ---- -- ------ ------<br>--- ----- -- ----,67967.69999992847,67966.89999997616,67413.636,67416,67430.305,67980.705,,32,you
screen,html.Screen,0_2_0_1_33,2021-11-12T15:04:57.708Z,,,,,,,,,,,,,,,,53,,,,,,,,,,,,,,474.1949999761564,,response,,,99,,,,,,Space,keypress(Space),,,,,---- -- ----- -- ------ - ------- --- ----------<br>------------- ------ ------ ---- ---- ------- ----- -- ----<br>-------- ------- -- ---------- --- - --- ----- ----- ----<br>---- --- --- ----- --- feel ---- ------- ----- ---- -------<br>--- --- -- ----- -- --- ---- -- --- ---- -- ------ ------<br>--- ----- -- ----,68455.79999995232,68454.89999997616,67964.033,67970.09999990463,67980.705,68463.978,,33,feel
screen,html.Screen,0_2_0_1_34,2021-11-12T15:04:58.180Z,,,,,,,,,,,,,,,,53,,,,,,,,,,,,,,462.8219999523135,,response,,,99,,,,,,Space,keypress(Space),,,,,---- -- ----- -- ------ - ------- --- ----------<br>------------- ------ ------ ---- ---- ------- ----- -- ----<br>-------- ------- -- ---------- --- - --- ----- ----- ----<br>---- --- --- ----- --- ---- that ------- ----- ---- -------<br>--- --- -- ----- -- --- ---- -- --- ---- -- ------ ------<br>--- ----- -- ----,68927.59999990463,68926.79999995232,68447.308,68456.09999990463,68463.978,68930.852,,34,that
screen,html.Screen,0_2_0_1_35,2021-11-12T15:04:58.932Z,,,,,,,,,,,,,,,,53,,,,,,,,,,,,,,748.3479999284755,,response,,,99,,,,,,Space,keypress(Space),,,,,---- -- ----- -- ------ - ------- --- ----------<br>------------- ------ ------ ---- ---- ------- ----- -- ----<br>-------- ------- -- ---------- --- - --- ----- ----- ----<br>---- --- --- ----- --- ---- ---- matters ----- ---- -------<br>--- --- -- ----- -- --- ---- -- --- ---- -- ------ ------<br>--- ----- -- ----,69679.89999997616,69679.19999992847,68914.181,68927.89999997616,68930.852,69681.073,,35,matters
screen,html.Screen,0_2_0_1_36,2021-11-12T15:04:59.644Z,,,,,,,,,,,,,,,,53,,,,,,,,,,,,,,709.6269999284705,,response,,,99,,,,,,Space,keypress(Space),,,,,"---- -- ----- -- ------ - ------- --- ----------<br>------------- ------ ------ ---- ---- ------- ----- -- ----<br>-------- ------- -- ---------- --- - --- ----- ----- ----<br>---- --- --- ----- --- ---- ---- ------- most, ---- -------<br>--- --- -- ----- -- --- ---- -- --- ---- -- ------ ------<br>--- ----- -- ----",70391.79999995232,70390.69999992847,69664.402,69680.19999992847,69681.073,70397.82,,36,"most,"
screen,html.Screen,0_2_0_1_37,2021-11-12T15:05:00.156Z,,,,,,,,,,,,,,,,53,,,,,,,,,,,,,,504.9799999523093,,response,,,99,,,,,,Space,keypress(Space),,,,,---- -- ----- -- ------ - ------- --- ----------<br>------------- ------ ------ ---- ---- ------- ----- -- ----<br>-------- ------- -- ---------- --- - --- ----- ----- ----<br>---- --- --- ----- --- ---- ---- ------- ----- it's -------<br>--- --- -- ----- -- --- ---- -- --- ---- -- ------ ------<br>--- ----- -- ----,70903.79999995232,70902.79999995232,70381.15,70392.09999990463,70397.82,70914.73,,37,it's
screen,html.Screen,0_2_0_1_38,2021-11-12T15:05:00.604Z,,,,,,,,,,,,,,,,53,,,,,,,,,,,,,,435.9699999284785,,response,,,99,,,,,,Space,keypress(Space),,,,,---- -- ----- -- ------ - ------- --- ----------<br>------------- ------ ------ ---- ---- ------- ----- -- ----<br>-------- ------- -- ---------- --- - --- ----- ----- ----<br>---- --- --- ----- --- ---- ---- ------- ----- ---- whether<br>--- --- -- ----- -- --- ---- -- --- ---- -- ------ ------<br>--- ----- -- ----,71351.39999997616,71350.69999992847,70898.059,70904,70914.73,71364.839,,38,whether
screen,html.Screen,0_2_0_1_39,2021-11-12T15:05:01.252Z,,,,,,,,,,,,,,,,53,,,,,,,,,,,,,,633.8609999284672,,response,,,99,,,,,,Space,keypress(Space),,,,,---- -- ----- -- ------ - ------- --- ----------<br>------------- ------ ------ ---- ---- ------- ----- -- ----<br>-------- ------- -- ---------- --- - --- ----- ----- ----<br>---- --- --- ----- --- ---- ---- ------- ----- ---- -------<br>you --- -- ----- -- --- ---- -- --- ---- -- ------ ------<br>--- ----- -- ----,71999.5,71998.69999992847,71348.168,71351.69999992847,71364.839,72015.03,,39,you
screen,html.Screen,0_2_0_1_40,2021-11-12T15:05:01.708Z,,,,,,,,,,,,,,,,53,,,,,,,,,,,,,,439.6699999284756,,response,,,99,,,,,,Space,keypress(Space),,,,,---- -- ----- -- ------ - ------- --- ----------<br>------------- ------ ------ ---- ---- ------- ----- -- ----<br>-------- ------- -- ---------- --- - --- ----- ----- ----<br>---- --- --- ----- --- ---- ---- ------- ----- ---- -------<br>--- are -- ----- -- --- ---- -- --- ---- -- ------ ------<br>--- ----- -- ----,72455.39999997616,72454.69999992847,71998.359,71999.69999992847,72015.03,72465.144,,40,are
screen,html.Screen,0_2_0_1_41,2021-11-12T15:05:02.164Z,,,,,,,,,,,,,,,,53,,,,,,,,,,,,,,445.45599990463234,,response,,,99,,,,,,Space,keypress(Space),,,,,---- -- ----- -- ------ - ------- --- ----------<br>------------- ------ ------ ---- ---- ------- ----- -- ----<br>-------- ------- -- ---------- --- - --- ----- ----- ----<br>---- --- --- ----- --- ---- ---- ------- ----- ---- -------<br>--- --- as ----- -- --- ---- -- --- ---- -- ------ ------<br>--- ----- -- ----,72911.5,72910.59999990463,72448.473,72455.69999992847,72465.144,72915.261,,41,as
screen,html.Screen,0_2_0_1_42,2021-11-12T15:05:02.724Z,,,,,,,,,,,,,,,,53,,,,,,,,,,,,,,555.338999904634,,response,,,99,,,,,,Space,keypress(Space),,,,,---- -- ----- -- ------ - ------- --- ----------<br>------------- ------ ------ ---- ---- ------- ----- -- ----<br>-------- ------- -- ---------- --- - --- ----- ----- ----<br>---- --- --- ----- --- ---- ---- ------- ----- ---- -------<br>--- --- -- close -- --- ---- -- --- ---- -- ------ ------<br>--- ----- -- ----,73471.39999997616,73470.59999990463,72898.59,72911.79999995232,72915.261,73482.08,,42,close
screen,html.Screen,0_2_0_1_43,2021-11-12T15:05:03.164Z,,,,,,,,,,,,,,,,53,,,,,,,,,,,,,,428.6199999284727,,response,,,99,,,,,,Space,keypress(Space),,,,,---- -- ----- -- ------ - ------- --- ----------<br>------------- ------ ------ ---- ---- ------- ----- -- ----<br>-------- ------- -- ---------- --- - --- ----- ----- ----<br>---- --- --- ----- --- ---- ---- ------- ----- ---- -------<br>--- --- -- ----- as --- ---- -- --- ---- -- ------ ------<br>--- ----- -- ----,73911.39999997616,73910.69999992847,73465.409,73471.59999990463,73482.08,73915.492,,43,as
screen,html.Screen,0_2_0_1_44,2021-11-12T15:05:03.596Z,,,,,,,,,,,,,,,,53,,,,,,,,,,,,,,427.20799992847606,,response,,,99,,,,,,Space,keypress(Space),,,,,---- -- ----- -- ------ - ------- --- ----------<br>------------- ------ ------ ---- ---- ------- ----- -- ----<br>-------- ------- -- ---------- --- - --- ----- ----- ----<br>---- --- --- ----- --- ---- ---- ------- ----- ---- -------<br>--- --- -- ----- -- you ---- -- --- ---- -- ------ ------<br>--- ----- -- ----,74343.39999997616,74342.69999992847,73898.822,73911.69999992847,73915.492,74348.978,,44,you
screen,html.Screen,0_2_0_1_45,2021-11-12T15:05:04.036Z,,,,,,,,,,,,,,,,53,,,,,,,,,,,,,,433.6219999046298,,response,,,99,,,,,,Space,keypress(Space),,,,,---- -- ----- -- ------ - ------- --- ----------<br>------------- ------ ------ ---- ---- ------- ----- -- ----<br>-------- ------- -- ---------- --- - --- ----- ----- ----<br>---- --- --- ----- --- ---- ---- ------- ----- ---- -------<br>--- --- -- ----- -- --- want -- --- ---- -- ------ ------<br>--- ----- -- ----,74783.39999997616,74782.59999990463,74332.307,74343.69999992847,74348.978,74799.112,,45,want
screen,html.Screen,0_2_0_1_46,2021-11-12T15:05:04.420Z,,,,,,,,,,,,,,,,53,,,,,,,,,,,,,,367.48799990463885,,response,,,99,,,,,,Space,keypress(Space),,,,,---- -- ----- -- ------ - ------- --- ----------<br>------------- ------ ------ ---- ---- ------- ----- -- ----<br>-------- ------- -- ---------- --- - --- ----- ----- ----<br>---- --- --- ----- --- ---- ---- ------- ----- ---- -------<br>--- --- -- ----- -- --- ---- to --- ---- -- ------ ------<br>--- ----- -- ----,75167.39999997616,75166.59999990463,74782.441,74783.59999990463,74799.112,75182.505,,46,to
screen,html.Screen,0_2_0_1_47,2021-11-12T15:05:04.836Z,,,,,,,,,,,,,,,,53,,,,,,,,,,,,,,400.0949999046279,,response,,,99,,,,,,Space,keypress(Space),,,,,"---- -- ----- -- ------ - ------- --- ----------<br>------------- ------ ------ ---- ---- ------- ----- -- ----<br>-------- ------- -- ---------- --- - --- ----- ----- ----<br>---- --- --- ----- --- ---- ---- ------- ----- ---- -------<br>--- --- -- ----- -- --- ---- -- be, ---- -- ------ ------<br>--- ----- -- ----",75583.29999995232,75582.59999990463,75165.835,75167.59999990463,75182.505,75599.327,,47,"be,"
screen,html.Screen,0_2_0_1_48,2021-11-12T15:05:05.308Z,,,,,,,,,,,,,,,,53,,,,,,,,,,,,,,455.1729999999952,,response,,,99,,,,,,Space,keypress(Space),,,,,---- -- ----- -- ------ - ------- --- ----------<br>------------- ------ ------ ---- ---- ------- ----- -- ----<br>-------- ------- -- ---------- --- - --- ----- ----- ----<br>---- --- --- ----- --- ---- ---- ------- ----- ---- -------<br>--- --- -- ----- -- --- ---- -- --- even -- ------ ------<br>--- ----- -- ----,76055.29999995232,76054.5,75582.656,75583.59999990463,75599.327,76065.999,,48,even
screen,html.Screen,0_2_0_1_49,2021-11-12T15:05:05.811Z,,,,,,,,,,,,,,,,53,,,,,,,,,,,,,,492.50100000000384,,response,,,99,,,,,,Space,keypress(Space),,,,,---- -- ----- -- ------ - ------- --- ----------<br>------------- ------ ------ ---- ---- ------- ----- -- ----<br>-------- ------- -- ---------- --- - --- ----- ----- ----<br>---- --- --- ----- --- ---- ---- ------- ----- ---- -------<br>--- --- -- ----- -- --- ---- -- --- ---- if ------ ------<br>--- ----- -- ----,76559.29999995232,76558.5,76049.33,76055.59999990463,76065.999,76566.265,,49,if
screen,html.Screen,0_2_0_1_50,2021-11-12T15:05:06.123Z,,,,,,,,,,,,,,,,53,,,,,,,,,,,,,,304.2350000000006,,response,,,99,,,,,,Space,keypress(Space),,,,,---- -- ----- -- ------ - ------- --- ----------<br>------------- ------ ------ ---- ---- ------- ----- -- ----<br>-------- ------- -- ---------- --- - --- ----- ----- ----<br>---- --- --- ----- --- ---- ---- ------- ----- ---- -------<br>--- --- -- ----- -- --- ---- -- --- ---- -- that's ------<br>--- ----- -- ----,76871.29999995232,76870.5,76549.594,76559.5,76566.265,76882.997,,50,that's
screen,html.Screen,0_2_0_1_51,2021-11-12T15:05:06.467Z,,,,,,,,,,,,,,,,53,,,,,,,,,,,,,,331.502999999997,,response,,,99,,,,,,Space,keypress(Space),,,,,---- -- ----- -- ------ - ------- --- ----------<br>------------- ------ ------ ---- ---- ------- ----- -- ----<br>-------- ------- -- ---------- --- - --- ----- ----- ----<br>---- --- --- ----- --- ---- ---- ------- ----- ---- -------<br>--- --- -- ----- -- --- ---- -- --- ---- -- ------ really<br>--- ----- -- ----,77215.19999992847,77214.5,76866.326,76871.5,76882.997,77216.393,,51,really
screen,html.Screen,0_2_0_1_52,2021-11-12T15:05:06.907Z,,,,,,,,,,,,,,,,53,,,,,,,,,,,,,,438.00699997616175,,response,,,99,,,,,,Space,keypress(Space),,,,,---- -- ----- -- ------ - ------- --- ----------<br>------------- ------ ------ ---- ---- ------- ----- -- ----<br>-------- ------- -- ---------- --- - --- ----- ----- ----<br>---- --- --- ----- --- ---- ---- ------- ----- ---- -------<br>--- --- -- ----- -- --- ---- -- --- ---- -- ------ ------<br>not ----- -- ----,77655.29999995232,77654.39999997616,77199.723,77215.39999997616,77216.393,77666.537,,52,not
screen,html.Screen,0_2_0_1_53,2021-11-12T15:05:07.323Z,,,,,,,,,,,,,,,,53,,,,,,,,,,,,,,403.8629999761615,,response,,,99,,,,,,Space,keypress(Space),,,,,---- -- ----- -- ------ - ------- --- ----------<br>------------- ------ ------ ---- ---- ------- ----- -- ----<br>-------- ------- -- ---------- --- - --- ----- ----- ----<br>---- --- --- ----- --- ---- ---- ------- ----- ---- -------<br>--- --- -- ----- -- --- ---- -- --- ---- -- ------ ------<br>--- close -- ----,78071.19999992847,78070.39999997616,77649.866,77655.5,77666.537,78083.318,,53,close
screen,html.Screen,0_2_0_1_54,2021-11-12T15:05:07.667Z,,,,,,,,,,,,,,,,53,,,,,,,,,,,,,,331.1820000000007,,response,,,99,,,,,,Space,keypress(Space),,,,,---- -- ----- -- ------ - ------- --- ----------<br>------------- ------ ------ ---- ---- ------- ----- -- ----<br>-------- ------- -- ---------- --- - --- ----- ----- ----<br>---- --- --- ----- --- ---- ---- ------- ----- ---- -------<br>--- --- -- ----- -- --- ---- -- --- ---- -- ------ ------<br>--- ----- at ----,78415.19999992847,78414.5,78066.647,78071.5,78083.318,78416.753,,54,at
screen,html.Screen,0_2_0_1_55,2021-11-12T15:05:08.227Z,,,,,,,,,,,,,,,,53,,,,,,,,,,,,,,557.6469999761612,,response,,,99,,,,,,Space,keypress(Space),,,,,---- -- ----- -- ------ - ------- --- ----------<br>------------- ------ ------ ---- ---- ------- ----- -- ----<br>-------- ------- -- ---------- --- - --- ----- ----- ----<br>---- --- --- ----- --- ---- ---- ------- ----- ---- -------<br>--- --- -- ----- -- --- ---- -- --- ---- -- ------ ------<br>--- ----- -- all.,78975.19999992847,78974.39999997616,78400.082,78415.39999997616,78416.753,78983.566,,55,all.
Item 99,flow.Loop,0_2_0_1,2021-11-12T15:05:08.232Z,,,,,,,,,,,,,,,,,,,,,,,,,,,,,,31199.41399997616,,completion,,,,E,,,,,,,,,,silence,,78979.59999990463,78974.39999997616,47758.316,47765.39999997616,47774.986,78983.566,,,
Question 1,html.Screen,0_2_0_2,2021-11-12T15:05:23.035Z,,,,,,,,,,,,,,,,,,,,,,,,,,,false,FALSE,,14798.033999904626,,response,,,99,E,,,,,TRUE,click #choice-1,,,,silence,,93782.89999997616,93781.59999990463,78966.895,78979.89999997616,78983.566,93787.543,,,
Question 2,html.Screen,0_2_0_3,2021-11-12T15:05:28.395Z,,,,,,,,,,,,,,,,,,,,,,,,,,,true,TRUE,,5353.856999976153,,response,,,99,E,,,,,TRUE,click #choice-1,,,,silence,,99142.39999997616,99141.39999997616,93770.872,93783.19999992847,93787.543,99155.578,,,
Item 99,flow.Sequence,0_2_0,2021-11-12T15:05:28.395Z,,,,,,,,,,,,,,,,,,,,,,,,,,,,,,61368.73899997616,,completion,,,,,,,,,,,,,,,,99142.89999997616,99141.39999997616,37755.989,37770.299999952316,37772.661,99155.578,,,
Holding screen,html.Screen,0_2_1_0,2021-11-12T15:05:38.395Z,,,,,,,,,,,,,,,,,,,,,,,,,,,,,,10002.683000000005,,timeout,,,,,,,,,,,,,,,,109142.89999997616,109141.59,99138.91,99143.19999992847,99155.578,109158.261,,,
screen,html.Screen,0_2_1_1_0,2021-11-12T15:05:39.403Z,,,,,,,,,,,,,,,,54,,,,,,,,,,,,,,991.4389999284758,,response,,,100,,,,,,Space,keypress(Space),,,,,At --- ---- --- ------ ----- ------- ---- -- --- ------- --<br>------- ---------- ------ -- ----- -- ----- -- ---- ------<br>--- ----- --- --- ------ -------- ----- --- ------ ----- --<br>----- ----- ---------- --- --- ------ ------ ---- -- ------<br>------- --- ------ ----- --- ---- ------- -- ---- --- --<br>------- ------,110150.5,110149.69999992847,109141.59,109143.29999995232,109158.261,110177.296,,0,At
screen,html.Screen,0_2_1_1_1,2021-11-12T15:05:40.034Z,,,,,,,,,,,,,,,,54,,,,,,,,,,,,,,603.603999976156,,response,,,100,,,,,,Space,keypress(Space),,,,,-- the ---- --- ------ ----- ------- ---- -- --- ------- --<br>------- ---------- ------ -- ----- -- ----- -- ---- ------<br>--- ----- --- --- ------ -------- ----- --- ------ ----- --<br>----- ----- ---------- --- --- ------ ------ ---- -- ------<br>------- --- ------ ----- --- ---- ------- -- ---- --- --<br>------- ------,110781.69999992847,110780.89999997616,110160.592,110150.79999995232,110177.296,110791.789,,1,the
screen,html.Screen,0_2_1_1_2,2021-11-12T15:05:40.714Z,,,,,,,,,,,,,,,,54,,,,,,,,,,,,,,669.2109999999957,,response,,,100,,,,,,Space,keypress(Space),,,,,-- --- time --- ------ ----- ------- ---- -- --- ------- --<br>------- ---------- ------ -- ----- -- ----- -- ---- ------<br>--- ----- --- --- ------ -------- ----- --- ------ ----- --<br>----- ----- ---------- --- --- ------ ------ ---- -- ------<br>------- --- ------ ----- --- ---- ------- -- ---- --- --<br>------- ------,111461.79999995232,111461,110775.123,110782,110791.789,111475.639,,2,time
screen,html.Screen,0_2_1_1_3,2021-11-12T15:05:41.170Z,,,,,,,,,,,,,,,,54,,,,,,,,,,,,,,441.26099997616257,,response,,,100,,,,,,Space,keypress(Space),,,,,-- --- ---- the ------ ----- ------- ---- -- --- ------- --<br>------- ---------- ------ -- ----- -- ----- -- ---- ------<br>--- ----- --- --- ------ -------- ----- --- ------ ----- --<br>----- ----- ---------- --- --- ------ ------ ---- -- ------<br>------- --- ------ ----- --- ---- ------- -- ---- --- --<br>------- ------,111917.79999995232,111916.89999997616,111458.968,111462,111475.639,111925.703,,3,the
screen,html.Screen,0_2_1_1_4,2021-11-12T15:05:41.795Z,,,,,,,,,,,,,,,,54,,,,,,,,,,,,,,615.0969999523222,,response,,,100,,,,,,Space,keypress(Space),,,,,-- --- ---- --- French ----- ------- ---- -- --- ------- --<br>------- ---------- ------ -- ----- -- ----- -- ---- ------<br>--- ----- --- --- ------ -------- ----- --- ------ ----- --<br>----- ----- ---------- --- --- ------ ------ ---- -- ------<br>------- --- ------ ----- --- ---- ------- -- ---- --- --<br>------- ------,112543,112540.79999995232,111909.033,111917.89999997616,111925.703,112559.149,,4,French
screen,html.Screen,0_2_1_1_5,2021-11-12T15:05:42.426Z,,,,,,,,,,,,,,,,54,,,,,,,,,,,,,,613.7509999761533,,response,,,100,,,,,,Space,keypress(Space),,,,,-- --- ---- --- ------ crown ------- ---- -- --- ------- --<br>------- ---------- ------ -- ----- -- ----- -- ---- ------<br>--- ----- --- --- ------ -------- ----- --- ------ ----- --<br>----- ----- ---------- --- --- ------ ------ ---- -- ------<br>------- --- ------ ----- --- ---- ------- -- ---- --- --<br>------- ------,113173.59999990463,113172.89999997616,112542.479,112543.29999995232,112559.149,113176.157,,5,crown
screen,html.Screen,0_2_1_1_6,2021-11-12T15:05:43.090Z,,,,,,,,,,,,,,,,54,,,,,,,,,,,,,,660.6429999523098,,response,,,100,,,,,,Space,keypress(Space),,,,,-- --- ---- --- ------ ----- secured ---- -- --- ------- --<br>------- ---------- ------ -- ----- -- ----- -- ---- ------<br>--- ----- --- --- ------ -------- ----- --- ------ ----- --<br>----- ----- ---------- --- --- ------ ------ ---- -- ------<br>------- --- ------ ----- --- ---- ------- -- ---- --- --<br>------- ------,113837.59999990463,113836.79999995232,113159.485,113173.89999997616,113176.157,113842.945,,6,secured
screen,html.Screen,0_2_1_1_7,2021-11-12T15:05:43.626Z,,,,,,,,,,,,,,,,54,,,,,,,,,,,,,,529.8549999523093,,response,,,100,,,,,,Space,keypress(Space),,,,,-- --- ---- --- ------ ----- ------- much -- --- ------- --<br>------- ---------- ------ -- ----- -- ----- -- ---- ------<br>--- ----- --- --- ------ -------- ----- --- ------ ----- --<br>----- ----- ---------- --- --- ------ ------ ---- -- ------<br>------- --- ------ ----- --- ---- ------- -- ---- --- --<br>------- ------,114373.59999990463,114372.79999995232,113826.274,113837.89999997616,113842.945,114376.356,,7,much
screen,html.Screen,0_2_1_1_8,2021-11-12T15:05:44.074Z,,,,,,,,,,,,,,,,54,,,,,,,,,,,,,,444.5439999761584,,response,,,100,,,,,,Space,keypress(Space),,,,,-- --- ---- --- ------ ----- ------- ---- of --- ------- --<br>------- ---------- ------ -- ----- -- ----- -- ---- ------<br>--- ----- --- --- ------ -------- ----- --- ------ ----- --<br>----- ----- ---------- --- --- ------ ------ ---- -- ------<br>------- --- ------ ----- --- ---- ------- -- ---- --- --<br>------- ------,114821.59999990463,114820.89999997616,114359.686,114373.79999995232,114376.356,114826.539,,8,of
screen,html.Screen,0_2_1_1_9,2021-11-12T15:05:44.562Z,,,,,,,,,,,,,,,,54,,,,,,,,,,,,,,482.260999952312,,response,,,100,,,,,,Space,keypress(Space),,,,,-- --- ---- --- ------ ----- ------- ---- -- its ------- --<br>------- ---------- ------ -- ----- -- ----- -- ---- ------<br>--- ----- --- --- ------ -------- ----- --- ------ ----- --<br>----- ----- ---------- --- --- ------ ------ ---- -- ------<br>------- --- ------ ----- --- ---- ------- -- ---- --- --<br>------- ------,115309.59999990463,115308.79999995232,114809.868,114821.89999997616,114826.539,115326.665,,9,its
screen,html.Screen,0_2_1_1_10,2021-11-12T15:05:45.474Z,,,,,,,,,,,,,,,,54,,,,,,,,,,,,,,894.0349999284808,,response,,,100,,,,,,Space,keypress(Space),,,,,-- --- ---- --- ------ ----- ------- ---- -- --- revenue --<br>------- ---------- ------ -- ----- -- ----- -- ---- ------<br>--- ----- --- --- ------ -------- ----- --- ------ ----- --<br>----- ----- ---------- --- --- ------ ------ ---- -- ------<br>------- --- ------ ----- --- ---- ------- -- ---- --- --<br>------- ------,116221.59999990463,116220.69999992847,115309.994,115309.89999997616,115326.665,116226.901,,10,revenue
screen,html.Screen,0_2_1_1_11,2021-11-12T15:05:46.178Z,,,,,,,,,,,,,,,,54,,,,,,,,,,,,,,697.7989999284764,,response,,,100,,,,,,Space,keypress(Space),,,,,-- --- ---- --- ------ ----- ------- ---- -- --- ------- by<br>------- ---------- ------ -- ----- -- ----- -- ---- ------<br>--- ----- --- --- ------ -------- ----- --- ------ ----- --<br>----- ----- ---------- --- --- ------ ------ ---- -- ------<br>------- --- ------ ----- --- ---- ------- -- ---- --- --<br>------- ------,116925.5,116924.69999992847,116210.23,116221.79999995232,116226.901,116926.909,,11,by
screen,html.Screen,0_2_1_1_12,2021-11-12T15:05:47.098Z,,,,,,,,,,,,,,,,54,,,,,,,,,,,,,,917.7909999284748,,response,,,100,,,,,,Space,keypress(Space),,,,,-- --- ---- --- ------ ----- ------- ---- -- --- ------- --<br>issuing ---------- ------ -- ----- -- ----- -- ---- ------<br>--- ----- --- --- ------ -------- ----- --- ------ ----- --<br>----- ----- ---------- --- --- ------ ------ ---- -- ------<br>------- --- ------ ----- --- ---- ------- -- ---- --- --<br>------- ------,117845.5,117844.69999992847,116910.24,116925.79999995232,116926.909,117860.702,,12,issuing
screen,html.Screen,0_2_1_1_13,2021-11-12T15:05:47.834Z,,,,,,,,,,,,,,,,54,,,,,,,,,,,,,,719.9979999284697,,response,,,100,,,,,,Space,keypress(Space),,,,,-- --- ---- --- ------ ----- ------- ---- -- --- ------- --<br>------- government ------ -- ----- -- ----- -- ---- ------<br>--- ----- --- --- ------ -------- ----- --- ------ ----- --<br>----- ----- ---------- --- --- ------ ------ ---- -- ------<br>------- --- ------ ----- --- ---- ------- -- ---- --- --<br>------- ------,118581.5,118580.69999992847,117844.031,117845.69999992847,117860.702,118594.011,,13,government
screen,html.Screen,0_2_1_1_14,2021-11-12T15:05:48.650Z,,,,,,,,,,,,,,,,54,,,,,,,,,,,,,,802.588999904634,,response,,,100,,,,,,Space,keypress(Space),,,,,-- --- ---- --- ------ ----- ------- ---- -- --- ------- --<br>------- ---------- bonds. -- ----- -- ----- -- ---- ------<br>--- ----- --- --- ------ -------- ----- --- ------ ----- --<br>----- ----- ---------- --- --- ------ ------ ---- -- ------<br>------- --- ------ ----- --- ---- ------- -- ---- --- --<br>------- ------,119397.5,119396.59999990463,118577.342,118581.69999992847,118594.011,119411.055,,14,bonds.
screen,html.Screen,0_2_1_1_15,2021-11-12T15:05:49.082Z,,,,,,,,,,,,,,,,54,,,,,,,,,,,,,,417.6449999284814,,response,,,100,,,,,,Space,keypress(Space),,,,,-- --- ---- --- ------ ----- ------- ---- -- --- ------- --<br>------- ---------- ------ In ----- -- ----- -- ---- ------<br>--- ----- --- --- ------ -------- ----- --- ------ ----- --<br>----- ----- ---------- --- --- ------ ------ ---- -- ------<br>------- --- ------ ----- --- ---- ------- -- ---- --- --<br>------- ------,119829.39999997616,119828.69999992847,119394.384,119397.69999992847,119411.055,119844.564,,15,In
screen,html.Screen,0_2_1_1_16,2021-11-12T15:05:50.789Z,,,,,,,,,,,,,,,,54,,,,,,,,,,,,,,1688.4360000000015,,response,,,100,,,,,,Space,keypress(Space),,,,,"-- --- ---- --- ------ ----- ------- ---- -- --- ------- --<br>------- ---------- ------ -- 1727, -- ----- -- ---- ------<br>--- ----- --- --- ------ -------- ----- --- ------ ----- --<br>----- ----- ---------- --- --- ------ ------ ---- -- ------<br>------- --- ------ ----- --- ---- ------- -- ---- --- --<br>------- ------",121533.79999995232,121533,119827.893,119829.59999990463,119844.564,121544.985,,16,"1727,"
screen,html.Screen,0_2_1_1_17,2021-11-12T15:05:51.652Z,,,,,,,,,,,,,,,,54,,,,,,,,,,,,,,851.5149999999994,,response,,,100,,,,,,Space,keypress(Space),,,,,-- --- ---- --- ------ ----- ------- ---- -- --- ------- --<br>------- ---------- ------ -- ----- in ----- -- ---- ------<br>--- ----- --- --- ------ -------- ----- --- ------ ----- --<br>----- ----- ---------- --- --- ------ ------ ---- -- ------<br>------- --- ------ ----- --- ---- ------- -- ---- --- --<br>------- ------,122397.39999997616,122396.5,121528.314,121534,121544.985,122411.879,,17,in
screen,html.Screen,0_2_1_1_18,2021-11-12T15:05:52.188Z,,,,,,,,,,,,,,,,54,,,,,,,,,,,,,,520.6209999999992,,response,,,100,,,,,,Space,keypress(Space),,,,,-- --- ---- --- ------ ----- ------- ---- -- --- ------- --<br>------- ---------- ------ -- ----- -- order -- ---- ------<br>--- ----- --- --- ------ -------- ----- --- ------ ----- --<br>----- ----- ---------- --- --- ------ ------ ---- -- ------<br>------- --- ------ ----- --- ---- ------- -- ---- --- --<br>------- ------,122933.39999997616,122932.5,122395.208,122397.59999990463,122411.879,122945.258,,18,order
screen,html.Screen,0_2_1_1_19,2021-11-12T15:05:52.589Z,,,,,,,,,,,,,,,,54,,,,,,,,,,,,,,387.1419999761565,,response,,,100,,,,,,Space,keypress(Space),,,,,-- --- ---- --- ------ ----- ------- ---- -- --- ------- --<br>------- ---------- ------ -- ----- -- ----- to ---- ------<br>--- ----- --- --- ------ -------- ----- --- ------ ----- --<br>----- ----- ---------- --- --- ------ ------ ---- -- ------<br>------- --- ------ ----- --- ---- ------- -- ---- --- --<br>------- ------,123333.29999995232,123332.39999997616,122928.588,122933.69999992847,122945.258,123345.447,,19,to
screen,html.Screen,0_2_1_1_20,2021-11-12T15:05:53.036Z,,,,,,,,,,,,,,,,54,,,,,,,,,,,,,,435.0529999999999,,response,,,100,,,,,,Space,keypress(Space),,,,,-- --- ---- --- ------ ----- ------- ---- -- --- ------- --<br>------- ---------- ------ -- ----- -- ----- -- save ------<br>--- ----- --- --- ------ -------- ----- --- ------ ----- --<br>----- ----- ---------- --- --- ------ ------ ---- -- ------<br>------- --- ------ ----- --- ---- ------- -- ---- --- --<br>------- ------,123781.29999995232,123780.5,123328.776,123333.69999992847,123345.447,123795.667,,20,save
screen,html.Screen,0_2_1_1_21,2021-11-12T15:05:53.460Z,,,,,,,,,,,,,,,,54,,,,,,,,,,,,,,408.73299997615686,,response,,,100,,,,,,Space,keypress(Space),,,,,"-- --- ---- --- ------ ----- ------- ---- -- --- ------- --<br>------- ---------- ------ -- ----- -- ----- -- ---- money,<br>--- ----- --- --- ------ -------- ----- --- ------ ----- --<br>----- ----- ---------- --- --- ------ ------ ---- -- ------<br>------- --- ------ ----- --- ---- ------- -- ---- --- --<br>------- ------",124205.19999992847,124204.39999997616,123778.995,123781.59999990463,123795.667,124212.347,,21,"money,"
screen,html.Screen,0_2_1_1_22,2021-11-12T15:05:54.020Z,,,,,,,,,,,,,,,,54,,,,,,,,,,,,,,552.0529999761638,,response,,,100,,,,,,Space,keypress(Space),,,,,-- --- ---- --- ------ ----- ------- ---- -- --- ------- --<br>------- ---------- ------ -- ----- -- ----- -- ---- ------<br>the ----- --- --- ------ -------- ----- --- ------ ----- --<br>----- ----- ---------- --- --- ------ ------ ---- -- ------<br>------- --- ------ ----- --- ---- ------- -- ---- --- --<br>------- ------,124765.29999995232,124764.39999997616,124195.677,124205.39999997616,124212.347,124779.211,,22,the
screen,html.Screen,0_2_1_1_23,2021-11-12T15:05:54.476Z,,,,,,,,,,,,,,,,54,,,,,,,,,,,,,,441.18899997616245,,response,,,100,,,,,,Space,keypress(Space),,,,,-- --- ---- --- ------ ----- ------- ---- -- --- ------- --<br>------- ---------- ------ -- ----- -- ----- -- ---- ------<br>--- state --- --- ------ -------- ----- --- ------ ----- --<br>----- ----- ---------- --- --- ------ ------ ---- -- ------<br>------- --- ------ ----- --- ---- ------- -- ---- --- --<br>------- ------,125221.19999992847,125220.39999997616,124762.54,124765.59999990463,124779.211,125229.28,,23,state
screen,html.Screen,0_2_1_1_24,2021-11-12T15:05:54.884Z,,,,,,,,,,,,,,,,54,,,,,,,,,,,,,,399.1199999761593,,response,,,100,,,,,,Space,keypress(Space),,,,,-- --- ---- --- ------ ----- ------- ---- -- --- ------- --<br>------- ---------- ------ -- ----- -- ----- -- ---- ------<br>--- ----- cut --- ------ -------- ----- --- ------ ----- --<br>----- ----- ---------- --- --- ------ ------ ---- -- ------<br>------- --- ------ ----- --- ---- ------- -- ---- --- --<br>------- ------,125629.19999992847,125628.39999997616,125212.61,125221.5,125229.28,125646.097,,24,cut
screen,html.Screen,0_2_1_1_25,2021-11-12T15:05:55.252Z,,,,,,,,,,,,,,,,54,,,,,,,,,,,,,,350.202999952322,,response,,,100,,,,,,Space,keypress(Space),,,,,-- --- ---- --- ------ ----- ------- ---- -- --- ------- --<br>------- ---------- ------ -- ----- -- ----- -- ---- ------<br>--- ----- --- the ------ -------- ----- --- ------ ----- --<br>----- ----- ---------- --- --- ------ ------ ---- -- ------<br>------- --- ------ ----- --- ---- ------- -- ---- --- --<br>------- ------,125997.09999990463,125996.29999995232,125629.426,125629.39999997616,125646.097,126012.869,,25,the
screen,html.Screen,0_2_1_1_26,2021-11-12T15:05:55.820Z,,,,,,,,,,,,,,,,54,,,,,,,,,,,,,,551.4309999523102,,response,,,100,,,,,,Space,keypress(Space),,,,,-- --- ---- --- ------ ----- ------- ---- -- --- ------- --<br>------- ---------- ------ -- ----- -- ----- -- ---- ------<br>--- ----- --- --- bonds' -------- ----- --- ------ ----- --<br>----- ----- ---------- --- --- ------ ------ ---- -- ------<br>------- --- ------ ----- --- ---- ------- -- ---- --- --<br>------- ------,126565,126564.29999995232,125996.198,125997.29999995232,126012.869,126579.63,,26,bonds'
screen,html.Screen,0_2_1_1_27,2021-11-12T15:05:56.356Z,,,,,,,,,,,,,,,,54,,,,,,,,,,,,,,520.6699999523116,,response,,,100,,,,,,Space,keypress(Space),,,,,-- --- ---- --- ------ ----- ------- ---- -- --- ------- --<br>------- ---------- ------ -- ----- -- ----- -- ---- ------<br>--- ----- --- --- ------ interest ----- --- ------ ----- --<br>----- ----- ---------- --- --- ------ ------ ---- -- ------<br>------- --- ------ ----- --- ---- ------- -- ---- --- --<br>------- ------,127101.09999990463,127100.29999995232,126562.96,126565.29999995232,126579.63,127113.17,,27,interest
screen,html.Screen,0_2_1_1_28,2021-11-12T15:05:56.812Z,,,,,,,,,,,,,,,,54,,,,,,,,,,,,,,443.0299999284762,,response,,,100,,,,,,Space,keypress(Space),,,,,-- --- ---- --- ------ ----- ------- ---- -- --- ------- --<br>------- ---------- ------ -- ----- -- ----- -- ---- ------<br>--- ----- --- --- ------ -------- rate. --- ------ ----- --<br>----- ----- ---------- --- --- ------ ------ ---- -- ------<br>------- --- ------ ----- --- ---- ------- -- ---- --- --<br>------- ------,127557.09999990463,127556.19999992847,127096.499,127101.19999992847,127113.17,127563.299,,28,rate.
screen,html.Screen,0_2_1_1_29,2021-11-12T15:05:57.220Z,,,,,,,,,,,,,,,,54,,,,,,,,,,,,,,400.90099992847536,,response,,,100,,,,,,Space,keypress(Space),,,,,-- --- ---- --- ------ ----- ------- ---- -- --- ------- --<br>------- ---------- ------ -- ----- -- ----- -- ---- ------<br>--- ----- --- --- ------ -------- ----- The ------ ----- --<br>----- ----- ---------- --- --- ------ ------ ---- -- ------<br>------- --- ------ ----- --- ---- ------- -- ---- --- --<br>------- ------,127965.09999990463,127964.19999992847,127546.628,127557.29999995232,127563.299,127980.017,,29,The
screen,html.Screen,0_2_1_1_30,2021-11-12T15:05:57.548Z,,,,,,,,,,,,,,,,54,,,,,,,,,,,,,,312.1829999284673,,response,,,100,,,,,,Space,keypress(Space),,,,,-- --- ---- --- ------ ----- ------- ---- -- --- ------- --<br>------- ---------- ------ -- ----- -- ----- -- ---- ------<br>--- ----- --- --- ------ -------- ----- --- market ----- --<br>----- ----- ---------- --- --- ------ ------ ---- -- ------<br>------- --- ------ ----- --- ---- ------- -- ---- --- --<br>------- ------,128293,128292.19999992847,127963.347,127965.39999997616,127980.017,128296.826,,30,market
screen,html.Screen,0_2_1_1_31,2021-11-12T15:05:58.124Z,,,,,,,,,,,,,,,,54,,,,,,,,,,,,,,571.3739999284735,,response,,,100,,,,,,Space,keypress(Space),,,,,-- --- ---- --- ------ ----- ------- ---- -- --- ------- --<br>------- ---------- ------ -- ----- -- ----- -- ---- ------<br>--- ----- --- --- ------ -------- ----- --- ------ value --<br>----- ----- ---------- --- --- ------ ------ ---- -- ------<br>------- --- ------ ----- --- ---- ------- -- ---- --- --<br>------- ------,128869,128868.19999992847,128280.155,128293.29999995232,128296.826,128880.18,,31,value
screen,html.Screen,0_2_1_1_32,2021-11-12T15:05:58.572Z,,,,,,,,,,,,,,,,54,,,,,,,,,,,,,,436.0199999284814,,response,,,100,,,,,,Space,keypress(Space),,,,,-- --- ---- --- ------ ----- ------- ---- -- --- ------- --<br>------- ---------- ------ -- ----- -- ----- -- ---- ------<br>--- ----- --- --- ------ -------- ----- --- ------ ----- of<br>----- ----- ---------- --- --- ------ ------ ---- -- ------<br>------- --- ------ ----- --- ---- ------- -- ---- --- --<br>------- ------,129317.09999990463,129316.19999992847,128863.511,128869.19999992847,128880.18,129330.486,,32,of
screen,html.Screen,0_2_1_1_33,2021-11-12T15:05:59.164Z,,,,,,,,,,,,,,,,54,,,,,,,,,,,,,,577.5139999999956,,response,,,100,,,,,,Space,keypress(Space),,,,,-- --- ---- --- ------ ----- ------- ---- -- --- ------- --<br>------- ---------- ------ -- ----- -- ----- -- ---- ------<br>--- ----- --- --- ------ -------- ----- --- ------ ----- --<br>these ----- ---------- --- --- ------ ------ ---- -- ------<br>------- --- ------ ----- --- ---- ------- -- ---- --- --<br>------- ------,129908.89999997616,129908,129313.814,129317.29999995232,129330.486,129913.909,,33,these
screen,html.Screen,0_2_1_1_34,2021-11-12T15:05:59.692Z,,,,,,,,,,,,,,,,54,,,,,,,,,,,,,,522.1909999046329,,response,,,100,,,,,,Space,keypress(Space),,,,,-- --- ---- --- ------ ----- ------- ---- -- --- ------- --<br>------- ---------- ------ -- ----- -- ----- -- ---- ------<br>--- ----- --- --- ------ -------- ----- --- ------ ----- --<br>----- bonds ---------- --- --- ------ ------ ---- -- ------<br>------- --- ------ ----- --- ---- ------- -- ---- --- --<br>------- ------,130437,130436.09999990463,129897.238,129909.19999992847,129913.909,130447.386,,34,bonds
screen,html.Screen,0_2_1_1_35,2021-11-12T15:06:00.644Z,,,,,,,,,,,,,,,,54,,,,,,,,,,,,,,940.8139999284758,,response,,,100,,,,,,Space,keypress(Space),,,,,"-- --- ---- --- ------ ----- ------- ---- -- --- ------- --<br>------- ---------- ------ -- ----- -- ----- -- ---- ------<br>--- ----- --- --- ------ -------- ----- --- ------ ----- --<br>----- ----- plummeted, --- --- ------ ------ ---- -- ------<br>------- --- ------ ----- --- ---- ------- -- ---- --- --<br>------- ------",131389,131388.19999992847,130430.715,130437.19999992847,130447.386,131397.655,,35,"plummeted,"
screen,html.Screen,0_2_1_1_36,2021-11-12T15:06:01.133Z,,,,,,,,,,,,,,,,54,,,,,,,,,,,,,,478.84500000000116,,response,,,100,,,,,,Space,keypress(Space),,,,,-- --- ---- --- ------ ----- ------- ---- -- --- ------- --<br>------- ---------- ------ -- ----- -- ----- -- ---- ------<br>--- ----- --- --- ------ -------- ----- --- ------ ----- --<br>----- ----- ---------- and --- ------ ------ ---- -- ------<br>------- --- ------ ----- --- ---- ------- -- ---- --- --<br>------- ------,131877.39999997616,131876.5,131380.984,131389.29999995232,131397.655,131881.057,,36,and
screen,html.Screen,0_2_1_1_37,2021-11-12T15:06:01.580Z,,,,,,,,,,,,,,,,54,,,,,,,,,,,,,,443.04299990463187,,response,,,100,,,,,,Space,keypress(Space),,,,,-- --- ---- --- ------ ----- ------- ---- -- --- ------- --<br>------- ---------- ------ -- ----- -- ----- -- ---- ------<br>--- ----- --- --- ------ -------- ----- --- ------ ----- --<br>----- ----- ---------- --- the ------ ------ ---- -- ------<br>------- --- ------ ----- --- ---- ------- -- ---- --- --<br>------- ------,132324.89999997616,132324.09999990463,131864.387,131877.69999992847,131881.057,132331.235,,37,the
screen,html.Screen,0_2_1_1_38,2021-11-12T15:06:02.244Z,,,,,,,,,,,,,,,,54,,,,,,,,,,,,,,656.8649999046465,,response,,,100,,,,,,Space,keypress(Space),,,,,-- --- ---- --- ------ ----- ------- ---- -- --- ------- --<br>------- ---------- ------ -- ----- -- ----- -- ---- ------<br>--- ----- --- --- ------ -------- ----- --- ------ ----- --<br>----- ----- ---------- --- --- market ------ ---- -- ------<br>------- --- ------ ----- --- ---- ------- -- ---- --- --<br>------- ------,132989,132988.09999990463,132314.564,132325.19999992847,132331.235,132998.082,,38,market
screen,html.Screen,0_2_1_1_39,2021-11-12T15:06:02.852Z,,,,,,,,,,,,,,,,54,,,,,,,,,,,,,,597.9180000000051,,response,,,100,,,,,,Space,keypress(Space),,,,,-- --- ---- --- ------ ----- ------- ---- -- --- ------- --<br>------- ---------- ------ -- ----- -- ----- -- ---- ------<br>--- ----- --- --- ------ -------- ----- --- ------ ----- --<br>----- ----- ---------- --- --- ------ became ---- -- ------<br>------- --- ------ ----- --- ---- ------- -- ---- --- --<br>------- ------,133596.89999997616,133596,132981.411,132989.29999995232,132998.082,133598.156,,39,became
screen,html.Screen,0_2_1_1_40,2021-11-12T15:06:03.604Z,,,,,,,,,,,,,,,,54,,,,,,,,,,,,,,749.8440000000119,,response,,,100,,,,,,Space,keypress(Space),,,,,-- --- ---- --- ------ ----- ------- ---- -- --- ------- --<br>------- ---------- ------ -- ----- -- ----- -- ---- ------<br>--- ----- --- --- ------ -------- ----- --- ------ ----- --<br>----- ----- ---------- --- --- ------ ------ wary -- ------<br>------- --- ------ ----- --- ---- ------- -- ---- --- --<br>------- ------,134349,134348,133581.486,133597.19999992847,133598.156,134365.109,,40,wary
screen,html.Screen,0_2_1_1_41,2021-11-12T15:06:04.012Z,,,,,,,,,,,,,,,,54,,,,,,,,,,,,,,390.89100000000326,,response,,,100,,,,,,Space,keypress(Space),,,,,-- --- ---- --- ------ ----- ------- ---- -- --- ------- --<br>------- ---------- ------ -- ----- -- ----- -- ---- ------<br>--- ----- --- --- ------ -------- ----- --- ------ ----- --<br>----- ----- ---------- --- --- ------ ------ ---- of ------<br>------- --- ------ ----- --- ---- ------- -- ---- --- --<br>------- ------,134756.79999995232,134756,134348.438,134349.29999995232,134365.109,134765.216,,41,of
screen,html.Screen,0_2_1_1_42,2021-11-12T15:06:04.516Z,,,,,,,,,,,,,,,,54,,,,,,,,,,,,,,494.7840000000142,,response,,,100,,,,,,Space,keypress(Space),,,,,-- --- ---- --- ------ ----- ------- ---- -- --- ------- --<br>------- ---------- ------ -- ----- -- ----- -- ---- ------<br>--- ----- --- --- ------ -------- ----- --- ------ ----- --<br>----- ----- ---------- --- --- ------ ------ ---- -- French<br>------- --- ------ ----- --- ---- ------- -- ---- --- --<br>------- ------,135260.89999997616,135260,134748.545,134757,134765.216,135265.261,,42,French
screen,html.Screen,0_2_1_1_43,2021-11-12T15:06:05.404Z,,,,,,,,,,,,,,,,54,,,,,,,,,,,,,,882.6389999761595,,response,,,100,,,,,,Space,keypress(Space),,,,,-- --- ---- --- ------ ----- ------- ---- -- --- ------- --<br>------- ---------- ------ -- ----- -- ----- -- ---- ------<br>--- ----- --- --- ------ -------- ----- --- ------ ----- --<br>----- ----- ---------- --- --- ------ ------ ---- -- ------<br>credit. --- ------ ----- --- ---- ------- -- ---- --- --<br>------- ------,136148.79999995232,136147.89999997616,135248.591,135261.09999990463,135265.261,136165.554,,43,credit.
screen,html.Screen,0_2_1_1_44,2021-11-12T15:06:05.852Z,,,,,,,,,,,,,,,,54,,,,,,,,,,,,,,430.3459999761544,,response,,,100,,,,,,Space,keypress(Space),,,,,-- --- ---- --- ------ ----- ------- ---- -- --- ------- --<br>------- ---------- ------ -- ----- -- ----- -- ---- ------<br>--- ----- --- --- ------ -------- ----- --- ------ ----- --<br>----- ----- ---------- --- --- ------ ------ ---- -- ------<br>------- The ------ ----- --- ---- ------- -- ---- --- --<br>------- ------,136596.79999995232,136595.89999997616,136148.883,136149.19999992847,136165.554,136599.157,,44,The
screen,html.Screen,0_2_1_1_45,2021-11-12T15:06:06.348Z,,,,,,,,,,,,,,,,54,,,,,,,,,,,,,,492.64299995230976,,response,,,100,,,,,,Space,keypress(Space),,,,,-- --- ---- --- ------ ----- ------- ---- -- --- ------- --<br>------- ---------- ------ -- ----- -- ----- -- ---- ------<br>--- ----- --- --- ------ -------- ----- --- ------ ----- --<br>----- ----- ---------- --- --- ------ ------ ---- -- ------<br>------- --- French ----- --- ---- ------- -- ---- --- --<br>------- ------,137092.69999992847,137091.79999995232,136582.485,136597.09999990463,136599.157,137099.14,,45,French
screen,html.Screen,0_2_1_1_46,2021-11-12T15:06:07.092Z,,,,,,,,,,,,,,,,54,,,,,,,,,,,,,,736.6599999523023,,response,,,100,,,,,,Space,keypress(Space),,,,,-- --- ---- --- ------ ----- ------- ---- -- --- ------- --<br>------- ---------- ------ -- ----- -- ----- -- ---- ------<br>--- ----- --- --- ------ -------- ----- --- ------ ----- --<br>----- ----- ---------- --- --- ------ ------ ---- -- ------<br>------- --- ------ state --- ---- ------- -- ---- --- --<br>------- ------,137836.59999990463,137835.79999995232,137082.47,137093,137099.14,137849.379,,46,state
screen,html.Screen,0_2_1_1_47,2021-11-12T15:06:07.644Z,,,,,,,,,,,,,,,,54,,,,,,,,,,,,,,538.42099995233,,response,,,100,,,,,,Space,keypress(Space),,,,,-- --- ---- --- ------ ----- ------- ---- -- --- ------- --<br>------- ---------- ------ -- ----- -- ----- -- ---- ------<br>--- ----- --- --- ------ -------- ----- --- ------ ----- --<br>----- ----- ---------- --- --- ------ ------ ---- -- ------<br>------- --- ------ ----- was ---- ------- -- ---- --- --<br>------- ------,138388.59999990463,138387.79999995232,137832.708,137836.89999997616,137849.379,138399.545,,47,was
screen,html.Screen,0_2_1_1_48,2021-11-12T15:06:08.188Z,,,,,,,,,,,,,,,,54,,,,,,,,,,,,,,532.2549999523035,,response,,,100,,,,,,Space,keypress(Space),,,,,-- --- ---- --- ------ ----- ------- ---- -- --- ------- --<br>------- ---------- ------ -- ----- -- ----- -- ---- ------<br>--- ----- --- --- ------ -------- ----- --- ------ ----- --<br>----- ----- ---------- --- --- ------ ------ ---- -- ------<br>------- --- ------ ----- --- left ------- -- ---- --- --<br>------- ------,138932.59999990463,138931.79999995232,138382.874,138388.79999995232,138399.545,138949.629,,48,left
screen,html.Screen,0_2_1_1_49,2021-11-12T15:06:08.644Z,,,,,,,,,,,,,,,,54,,,,,,,,,,,,,,438.17099995233,,response,,,100,,,,,,Space,keypress(Space),,,,,-- --- ---- --- ------ ----- ------- ---- -- --- ------- --<br>------- ---------- ------ -- ----- -- ----- -- ---- ------<br>--- ----- --- --- ------ -------- ----- --- ------ ----- --<br>----- ----- ---------- --- --- ------ ------ ---- -- ------<br>------- --- ------ ----- --- ---- without -- ---- --- --<br>------- ------,139388.5,139387.79999995232,138932.959,138932.89999997616,138949.629,139399.81,,49,without
screen,html.Screen,0_2_1_1_50,2021-11-12T15:06:09.068Z,,,,,,,,,,,,,,,,54,,,,,,,,,,,,,,411.9899999523186,,response,,,100,,,,,,Space,keypress(Space),,,,,-- --- ---- --- ------ ----- ------- ---- -- --- ------- --<br>------- ---------- ------ -- ----- -- ----- -- ---- ------<br>--- ----- --- --- ------ -------- ----- --- ------ ----- --<br>----- ----- ---------- --- --- ------ ------ ---- -- ------<br>------- --- ------ ----- --- ---- ------- an ---- --- --<br>------- ------,139812.5,139811.79999995232,139383.139,139388.79999995232,139399.81,139816.58,,50,an
screen,html.Screen,0_2_1_1_51,2021-11-12T15:06:09.468Z,,,,,,,,,,,,,,,,54,,,,,,,,,,,,,,395.0199999046454,,response,,,100,,,,,,Space,keypress(Space),,,,,-- --- ---- --- ------ ----- ------- ---- -- --- ------- --<br>------- ---------- ------ -- ----- -- ----- -- ---- ------<br>--- ----- --- --- ------ -------- ----- --- ------ ----- --<br>----- ----- ---------- --- --- ------ ------ ---- -- ------<br>------- --- ------ ----- --- ---- ------- -- easy --- --<br>------- ------,140212.5,140211.59999990463,139799.909,139812.79999995232,139816.58,140216.688,,51,easy
screen,html.Screen,0_2_1_1_52,2021-11-12T15:06:09.852Z,,,,,,,,,,,,,,,,54,,,,,,,,,,,,,,379.0119999284798,,response,,,100,,,,,,Space,keypress(Space),,,,,-- --- ---- --- ------ ----- ------- ---- -- --- ------- --<br>------- ---------- ------ -- ----- -- ----- -- ---- ------<br>--- ----- --- --- ------ -------- ----- --- ------ ----- --<br>----- ----- ---------- --- --- ------ ------ ---- -- ------<br>------- --- ------ ----- --- ---- ------- -- ---- way --<br>------- ------,140596.5,140595.69999992847,140200.017,140212.69999992847,140216.688,140599.992,,52,way
screen,html.Screen,0_2_1_1_53,2021-11-12T15:06:10.212Z,,,,,,,,,,,,,,,,54,,,,,,,,,,,,,,355.70799992847606,,response,,,100,,,,,,Space,keypress(Space),,,,,-- --- ---- --- ------ ----- ------- ---- -- --- ------- --<br>------- ---------- ------ -- ----- -- ----- -- ---- ------<br>--- ----- --- --- ------ -------- ----- --- ------ ----- --<br>----- ----- ---------- --- --- ------ ------ ---- -- ------<br>------- --- ------ ----- --- ---- ------- -- ---- --- of<br>------- ------,140956.59999990463,140955.69999992847,140583.323,140596.79999995232,140599.992,140966.947,,53,of
screen,html.Screen,0_2_1_1_54,2021-11-12T15:06:10.620Z,,,,,,,,,,,,,,,,54,,,,,,,,,,,,,,396.75299992848886,,response,,,100,,,,,,Space,keypress(Space),,,,,-- --- ---- --- ------ ----- ------- ---- -- --- ------- --<br>------- ---------- ------ -- ----- -- ----- -- ---- ------<br>--- ----- --- --- ------ -------- ----- --- ------ ----- --<br>----- ----- ---------- --- --- ------ ------ ---- -- ------<br>------- --- ------ ----- --- ---- ------- -- ---- --- --<br>raising ------,141364.5,141363.69999992847,140950.275,140956.79999995232,140966.947,141367.009,,54,raising
screen,html.Screen,0_2_1_1_55,2021-11-12T15:06:11.932Z,,,,,,,,,,,,,,,,54,,,,,,,,,,,,,,1308.991000000009,,response,,,100,,,,,,Space,keypress(Space),,,,,-- --- ---- --- ------ ----- ------- ---- -- --- ------- --<br>------- ---------- ------ -- ----- -- ----- -- ---- ------<br>--- ----- --- --- ------ -------- ----- --- ------ ----- --<br>----- ----- ---------- --- --- ------ ------ ---- -- ------<br>------- --- ------ ----- --- ---- ------- -- ---- --- --<br>------- money.,142676.79999995232,142676,141350.338,141364.69999992847,141367.009,142684.015,,55,money.
Item 100,flow.Loop,0_2_1_1,2021-11-12T15:06:11.932Z,,,,,,,,,,,,,,,,,,,,,,,,,,,,,,33517.739,,completion,,,,E,,,,,,,,,,silence,,142677.29999995232,142676,109141.59,109143.19999992847,109158.261,142684.015,,,
Question 1,html.Screen,0_2_1_2,2021-11-12T15:06:21.340Z,,,,,,,,,,,,,,,,,,,,,,,,,,,false,TRUE,,9398.984999999986,,response,,,100,E,,,,,FALSE,click #choice-2,,,,silence,,152084.39999997616,152083,142667.344,142677.39999997616,142684.015,152103.293,,,
Question 2,html.Screen,0_2_1_3,2021-11-12T15:06:30.475Z,,,,,,,,,,,,,,,,,,,,,,,,,,,true,FALSE,,9115.306999904627,,response,,,100,E,,,,,FALSE,click #choice-2,,,,silence,,161219.79999995232,161218.59999990463,152069.949,152084.69999992847,152103.293,161222.265,,,
Item 100,flow.Sequence,0_2_1,2021-11-12T15:06:30.475Z,,,,,,,,,,,,,,,,,,,,,,,,,,,,,,62063.02199990464,,completion,,,,,,,,,,,,,,,,161220.19999992847,161218.59999990463,99138.91,99143.09999990463,99155.578,161222.265,,,
End of Practice,html.Page,0_2_2,2021-11-12T15:06:37.460Z,,,,,,,,,,,,,,,,,,,,,,,,,,,,,,6981.834999904619,,form submission,,,,,,,,,,,,,,,,168204.79999995232,168204.09999990463,161205.594,161220.39999997616,161222.265,168207.519,,,
Practice,flow.Sequence,0_2,2021-11-12T15:06:37.460Z,,,,,,,,,,,,,,,,,,,,,,,,,,,,,,130431.43899990464,,completion,,,,,,,,,,,,,,,,168205.29999995232,168204.09999990463,37755.989,37770.199999928474,37772.661,168207.519,,,
Trap_instruction,html.Page,0_3_0,2021-11-12T15:06:42.603Z,,,,,,,,,,,,,,,,,,,,,,,,,,,,,,5139.981,,form submission,,,,,,,,,,,,,,,,173348,173347.5,168190.847,168205.59999990463,168207.519,173374.647,,,
trap_trial,html.Screen,0_3_1,2021-11-12T15:06:45.082Z,,,,,,,,,,,,,,,,,,,,,,,,,,,true,1,,2451.4529999046354,,response,,,,,,,,,1,click #choice-1,,,,,,175827.29999995232,175826.09999990463,173341.311,173348.39999997616,173374.647,175840.418,,,
end of trap trial,html.Page,0_3_2,2021-11-12T15:06:47.723Z,,,,,,,,,,,,,,,,,,,,,,,,,,,,,,2626.6819999046274,,form submission,,,,,,,,,,,,,,,,178467.59999990463,178467.09999990463,175823.764,175827.59999990463,175840.418,178476.916,,,
Trap 1,flow.Sequence,0_3,2021-11-12T15:06:47.723Z,,,,,,,,,,,,,,,,,,,,,,,,,,,,,,10259.580999904632,,completion,,,,,,,,,,,,,,,,178468.19999992847,178467.09999990463,168190.847,168205.5,168207.519,178476.916,,,
Standby,html.Page,0_4_0,2021-11-12T15:06:55.718Z,,,,,,,,,,,,,,,,,,,,,,,,,,,,,,8001.581000000006,,timeout,,,,,,,,,,,,,,,,186462.89999997616,186461.827,178460.245,178468.59999990463,178476.916,186478.497,,,
Holding screen,html.Screen,0_4_1_0_0,2021-11-12T15:07:02.721Z,,,,,,,,,,,,,,,,,,,,,,,,,,,,,,7002.483999999997,,timeout,,,,,,,,,,,,,,,,193466.59999990463,193464.31,186461.827,186463.29999995232,186478.497,193480.981,,,
screen,html.Screen,0_4_1_0_1_0,2021-11-12T15:07:04.465Z,,,,,,,,,,,,,,,,51,,,,,,,,,,,,,,1728.7189999284747,,response,,,13,E,,,,,Space,keypress(Space),,,,lyrical,American -------- --- --- ---- --- --- ------ -- --------<br>---- --------- --- ------- ------------ ---------- ---------<br>--- ---------- ------- ---------- ------- -- -------- ----<br>---- --- ------ ----- ------ -- ---- --- ----- -- - -------<br>-------- -- --- --- -- ----- ----------- ----- -----------<br>---- --- ---------- --- ---- --- -- ----------,195210.69999992847,195209.69999992847,193464.31,193467.09999990463,193480.981,195214.773,,0,American
screen,html.Screen,0_4_1_0_1_1,2021-11-12T15:07:05.337Z,,,,,,,,,,,,,,,,51,,,,,,,,,,,,,,866.4269999284879,,response,,,13,E,,,,,Space,keypress(Space),,,,lyrical,-------- industry --- --- ---- --- --- ------ -- --------<br>---- --------- --- ------- ------------ ---------- ---------<br>--- ---------- ------- ---------- ------- -- -------- ----<br>---- --- ------ ----- ------ -- ---- --- ----- -- - -------<br>-------- -- --- --- -- ----- ----------- ----- -----------<br>---- --- ---------- --- ---- --- -- ----------,196082.09999990463,196081.19999992847,195198.102,195211.09999990463,195214.773,196098.254,,1,industry
screen,html.Screen,0_4_1_0_1_2,2021-11-12T15:07:05.929Z,,,,,,,,,,,,,,,,51,,,,,,,,,,,,,,574.9459999284882,,response,,,13,E,,,,,Space,keypress(Space),,,,lyrical,-------- -------- may --- ---- --- --- ------ -- --------<br>---- --------- --- ------- ------------ ---------- ---------<br>--- ---------- ------- ---------- ------- -- -------- ----<br>---- --- ------ ----- ------ -- ---- --- ----- -- - -------<br>-------- -- --- --- -- ----- ----------- ----- -----------<br>---- --- ---------- --- ---- --- -- ----------,196674,196673.19999992847,196081.584,196082.29999995232,196098.254,196681.851,,2,may
screen,html.Screen,0_4_1_0_1_3,2021-11-12T15:07:06.648Z,,,,,,,,,,,,,,,,51,,,,,,,,,,,,,,711.2489999046375,,response,,,13,E,,,,,Space,keypress(Space),,,,lyrical,-------- -------- --- not ---- --- --- ------ -- --------<br>---- --------- --- ------- ------------ ---------- ---------<br>--- ---------- ------- ---------- ------- -- -------- ----<br>---- --- ------ ----- ------ -- ---- --- ----- -- - -------<br>-------- -- --- --- -- ----- ----------- ----- -----------<br>---- --- ---------- --- ---- --- -- ----------,197393.89999997616,197393.09999990463,196665.18,196674.29999995232,196681.851,197398.708,,3,not
screen,html.Screen,0_4_1_0_1_4,2021-11-12T15:07:07.208Z,,,,,,,,,,,,,,,,51,,,,,,,,,,,,,,554.3919999046193,,response,,,13,E,,,,,Space,keypress(Space),,,,lyrical,-------- -------- --- --- know --- --- ------ -- --------<br>---- --------- --- ------- ------------ ---------- ---------<br>--- ---------- ------- ---------- ------- -- -------- ----<br>---- --- ------ ----- ------ -- ---- --- ----- -- - -------<br>-------- -- --- --- -- ----- ----------- ----- -----------<br>---- --- ---------- --- ---- --- -- ----------,197953.89999997616,197953.09999990463,197382.037,197394.19999992847,197398.708,197965.535,,4,know
screen,html.Screen,0_4_1_0_1_5,2021-11-12T15:07:07.601Z,,,,,,,,,,,,,,,,51,,,,,,,,,,,,,,379.66499992847093,,response,,,13,E,,,,,Space,keypress(Space),,,,lyrical,"-------- -------- --- --- ---- it, --- ------ -- --------<br>---- --------- --- ------- ------------ ---------- ---------<br>--- ---------- ------- ---------- ------- -- -------- ----<br>---- --- ------ ----- ------ -- ---- --- ----- -- - -------<br>-------- -- --- --- -- ----- ----------- ----- -----------<br>---- --- ---------- --- ---- --- -- ----------",198346,198345.19999992847,197948.864,197954.19999992847,197965.535,198348.844,,5,"it,"
screen,html.Screen,0_4_1_0_1_6,2021-11-12T15:07:08.088Z,,,,,,,,,,,,,,,,51,,,,,,,,,,,,,,484.1559999999881,,response,,,13,E,,,,,Space,keypress(Space),,,,lyrical,-------- -------- --- --- ---- --- but ------ -- --------<br>---- --------- --- ------- ------------ ---------- ---------<br>--- ---------- ------- ---------- ------- -- -------- ----<br>---- --- ------ ----- ------ -- ---- --- ----- -- - -------<br>-------- -- --- --- -- ----- ----------- ----- -----------<br>---- --- ---------- --- ---- --- -- ----------,198833.79999995232,198833,198332.175,198346.19999992847,198348.844,198849.063,,6,but
screen,html.Screen,0_4_1_0_1_7,2021-11-12T15:07:08.984Z,,,,,,,,,,,,,,,,51,,,,,,,,,,,,,,880.0369999046379,,response,,,13,E,,,,,Space,keypress(Space),,,,lyrical,-------- -------- --- --- ---- --- --- debate -- --------<br>---- --------- --- ------- ------------ ---------- ---------<br>--- ---------- ------- ---------- ------- -- -------- ----<br>---- --- ------ ----- ------ -- ---- --- ----- -- - -------<br>-------- -- --- --- -- ----- ----------- ----- -----------<br>---- --- ---------- --- ---- --- -- ----------,199730,199729.09999990463,198832.392,198834.09999990463,198849.063,199732.628,,7,debate
screen,html.Screen,0_4_1_0_1_8,2021-11-12T15:07:09.688Z,,,,,,,,,,,,,,,,51,,,,,,,,,,,,,,700.372000000003,,response,,,13,E,,,,,Space,keypress(Space),,,,lyrical,-------- -------- --- --- ---- --- --- ------ in --------<br>---- --------- --- ------- ------------ ---------- ---------<br>--- ---------- ------- ---------- ------- -- -------- ----<br>---- --- ------ ----- ------ -- ---- --- ----- -- - -------<br>-------- -- --- --- -- ----- ----------- ----- -----------<br>---- --- ---------- --- ---- --- -- ----------,200433.79999995232,200433,199715.957,199730.09999990463,199732.628,200449.561,,8,in
screen,html.Screen,0_4_1_0_1_9,2021-11-12T15:07:10.432Z,,,,,,,,,,,,,,,,51,,,,,,,,,,,,,,727.439000000013,,response,,,13,E,,,,,Space,keypress(Space),,,,lyrical,-------- -------- --- --- ---- --- --- ------ -- Congress<br>---- --------- --- ------- ------------ ---------- ---------<br>--- ---------- ------- ---------- ------- -- -------- ----<br>---- --- ------ ----- ------ -- ---- --- ----- -- - -------<br>-------- -- --- --- -- ----- ----------- ----- -----------<br>---- --- ---------- --- ---- --- -- ----------,201177.89999997616,201177,200432.89,200434,200449.561,201183.079,,9,Congress
screen,html.Screen,0_4_1_0_1_10,2021-11-12T15:07:10.904Z,,,,,,,,,,,,,,,,51,,,,,,,,,,,,,,465.9210000000021,,response,,,13,E,,,,,Space,keypress(Space),,,,lyrical,-------- -------- --- --- ---- --- --- ------ -- --------<br>over --------- --- ------- ------------ ---------- ---------<br>--- ---------- ------- ---------- ------- -- -------- ----<br>---- --- ------ ----- ------ -- ---- --- ----- -- - -------<br>-------- -- --- --- -- ----- ----------- ----- -----------<br>---- --- ---------- --- ---- --- -- ----------,201649.89999997616,201649,201166.408,201178.09999990463,201183.079,201666.485,,10,over
screen,html.Screen,0_4_1_0_1_11,2021-11-12T15:07:11.664Z,,,,,,,,,,,,,,,,51,,,,,,,,,,,,,,742.515000000014,,response,,,13,E,,,,,Space,keypress(Space),,,,lyrical,-------- -------- --- --- ---- --- --- ------ -- --------<br>---- reforming --- ------- ------------ ---------- ---------<br>--- ---------- ------- ---------- ------- -- -------- ----<br>---- --- ------ ----- ------ -- ---- --- ----- -- - -------<br>-------- -- --- --- -- ----- ----------- ----- -----------<br>---- --- ---------- --- ---- --- -- ----------,202409.79999995232,202409,201649.815,201650.09999990463,201666.485,202416.749,,11,reforming
screen,html.Screen,0_4_1_0_1_12,2021-11-12T15:07:12.176Z,,,,,,,,,,,,,,,,51,,,,,,,,,,,,,,504.2509999999893,,response,,,13,E,,,,,Space,keypress(Space),,,,lyrical,-------- -------- --- --- ---- --- --- ------ -- --------<br>---- --------- the ------- ------------ ---------- ---------<br>--- ---------- ------- ---------- ------- -- -------- ----<br>---- --- ------ ----- ------ -- ---- --- ----- -- - -------<br>-------- -- --- --- -- ----- ----------- ----- -----------<br>---- --- ---------- --- ---- --- -- ----------,202921.79999995232,202921,202400.078,202410.09999990463,202416.749,202933.263,,12,the
screen,html.Screen,0_4_1_0_1_13,2021-11-12T15:07:12.896Z,,,,,,,,,,,,,,,,51,,,,,,,,,,,,,,707.6369999761519,,response,,,13,E,,,,,Space,keypress(Space),,,,lyrical,-------- -------- --- --- ---- --- --- ------ -- --------<br>---- --------- --- federal ------------ ---------- ---------<br>--- ---------- ------- ---------- ------- -- -------- ----<br>---- --- ------ ----- ------ -- ---- --- ----- -- - -------<br>-------- -- --- --- -- ----- ----------- ----- -----------<br>---- --- ---------- --- ---- --- -- ----------,203641.69999992847,203640.89999997616,202916.595,202922,202933.263,203650.419,,13,federal
screen,html.Screen,0_4_1_0_1_14,2021-11-12T15:07:13.840Z,,,,,,,,,,,,,,,,51,,,,,,,,,,,,,,934.5810000000056,,response,,,13,E,,,,,Space,keypress(Space),,,,lyrical,-------- -------- --- --- ---- --- --- ------ -- --------<br>---- --------- --- ------- government's ---------- ---------<br>--- ---------- ------- ---------- ------- -- -------- ----<br>---- --- ------ ----- ------ -- ---- --- ----- -- - -------<br>-------- -- --- --- -- ----- ----------- ----- -----------<br>---- --- ---------- --- ---- --- -- ----------,204585.69999992847,204585,203633.748,203642,203650.419,204600.644,,14,government's
screen,html.Screen,0_4_1_0_1_15,2021-11-12T15:07:15.017Z,,,,,,,,,,,,,,,,51,,,,,,,,,,,,,,1160.755999976158,,response,,,13,E,,,,,Space,keypress(Space),,,,lyrical,-------- -------- --- --- ---- --- --- ------ -- --------<br>---- --------- --- ------- ------------ regulatory ---------<br>--- ---------- ------- ---------- ------- -- -------- ----<br>---- --- ------ ----- ------ -- ---- --- ----- -- - -------<br>-------- -- --- --- -- ----- ----------- ----- -----------<br>---- --- ---------- --- ---- --- -- ----------,205762.19999992847,205761.39999997616,204583.973,204586,204600.644,205767.626,,15,regulatory
screen,html.Screen,0_4_1_0_1_16,2021-11-12T15:07:16.760Z,,,,,,,,,,,,,,,,51,,,,,,,,,,,,,,1737.173999952327,,response,,,13,E,,,,,Space,keypress(Space),,,,lyrical,-------- -------- --- --- ---- --- --- ------ -- --------<br>---- --------- --- ------- ------------ ---------- apparatus<br>--- ---------- ------- ---------- ------- -- -------- ----<br>---- --- ------ ----- ------ -- ---- --- ----- -- - -------<br>-------- -- --- --- -- ----- ----------- ----- -----------<br>---- --- ---------- --- ---- --- -- ----------,207505.69999992847,207504.79999995232,205750.955,205762.39999997616,205767.626,207518.087,,16,apparatus
screen,html.Screen,0_4_1_0_1_17,2021-11-12T15:07:17.472Z,,,,,,,,,,,,,,,,51,,,,,,,,,,,,,,698.7129999523167,,response,,,13,E,,,,,Space,keypress(Space),,,,lyrical,-------- -------- --- --- ---- --- --- ------ -- --------<br>---- --------- --- ------- ------------ ---------- ---------<br>may ---------- ------- ---------- ------- -- -------- ----<br>---- --- ------ ----- ------ -- ---- --- ----- -- - -------<br>-------- -- --- --- -- ----- ----------- ----- -----------<br>---- --- ---------- --- ---- --- -- ----------,208217.59999990463,208216.79999995232,207501.416,207506,207518.087,208234.767,,17,may
screen,html.Screen,0_4_1_0_1_18,2021-11-12T15:07:18.512Z,,,,,,,,,,,,,,,,51,,,,,,,,,,,,,,1022.0329999523237,,response,,,13,E,,,,,Space,keypress(Space),,,,lyrical,-------- -------- --- --- ---- --- --- ------ -- --------<br>---- --------- --- ------- ------------ ---------- ---------<br>--- profoundly ------- ---------- ------- -- -------- ----<br>---- --- ------ ----- ------ -- ---- --- ----- -- - -------<br>-------- -- --- --- -- ----- ----------- ----- -----------<br>---- --- ---------- --- ---- --- -- ----------,209257.59999990463,209256.79999995232,208218.097,208217.79999995232,208234.767,209268.591,,18,profoundly
screen,html.Screen,0_4_1_0_1_19,2021-11-12T15:07:19.080Z,,,,,,,,,,,,,,,,51,,,,,,,,,,,,,,556.1089999284886,,response,,,13,E,,,,,Space,keypress(Space),,,,lyrical,-------- -------- --- --- ---- --- --- ------ -- --------<br>---- --------- --- ------- ------------ ---------- ---------<br>--- ---------- improve ---------- ------- -- -------- ----<br>---- --- ------ ----- ------ -- ---- --- ----- -- - -------<br>-------- -- --- --- -- ----- ----------- ----- -----------<br>---- --- ---------- --- ---- --- -- ----------,209825.5,209824.69999992847,209251.92,209257.79999995232,209268.591,209835.199,,19,improve
screen,html.Screen,0_4_1_0_1_20,2021-11-12T15:07:20.904Z,,,,,,,,,,,,,,,,51,,,,,,,,,,,,,,1813.5009999284812,,response,,,13,E,,,,,Space,keypress(Space),,,,lyrical,-------- -------- --- --- ---- --- --- ------ -- --------<br>---- --------- --- ------- ------------ ---------- ---------<br>--- ---------- ------- companies' ------- -- -------- ----<br>---- --- ------ ----- ------ -- ---- --- ----- -- - -------<br>-------- -- --- --- -- ----- ----------- ----- -----------<br>---- --- ---------- --- ---- --- -- ----------,211649.69999992847,211648.69999992847,209818.53,209825.69999992847,209835.199,211652.576,,20,companies'
screen,html.Screen,0_4_1_0_1_21,2021-11-12T15:07:22.264Z,,,,,,,,,,,,,,,,51,,,,,,,,,,,,,,1356.0239999046316,,response,,,13,E,,,,,Space,keypress(Space),,,,lyrical,-------- -------- --- --- ---- --- --- ------ -- --------<br>---- --------- --- ------- ------------ ---------- ---------<br>--- ---------- ------- ---------- ability -- -------- ----<br>---- --- ------ ----- ------ -- ---- --- ----- -- - -------<br>-------- -- --- --- -- ----- ----------- ----- -----------<br>---- --- ---------- --- ---- --- -- ----------,213009.29999995232,213008.59999990463,211635.905,211649.89999997616,211652.576,213019.166,,21,ability
screen,html.Screen,0_4_1_0_1_22,2021-11-12T15:07:23.424Z,,,,,,,,,,,,,,,,51,,,,,,,,,,,,,,1149.3340000000026,,response,,,13,E,,,,,Space,keypress(Space),,,,lyrical,-------- -------- --- --- ---- --- --- ------ -- --------<br>---- --------- --- ------- ------------ ---------- ---------<br>--- ---------- ------- ---------- ------- to -------- ----<br>---- --- ------ ----- ------ -- ---- --- ----- -- - -------<br>-------- -- --- --- -- ----- ----------- ----- -----------<br>---- --- ---------- --- ---- --- -- ----------,214169.39999997616,214168.5,213002.497,213009.69999992847,213019.166,214186.497,,22,to
screen,html.Screen,0_4_1_0_1_23,2021-11-12T15:07:24.088Z,,,,,,,,,,,,,,,,51,,,,,,,,,,,,,,645.9029999761551,,response,,,13,E,,,,,Space,keypress(Space),,,,lyrical,-------- -------- --- --- ---- --- --- ------ -- --------<br>---- --------- --- ------- ------------ ---------- ---------<br>--- ---------- ------- ---------- ------- -- survive. ----<br>---- --- ------ ----- ------ -- ---- --- ----- -- - -------<br>-------- -- --- --- -- ----- ----------- ----- -----------<br>---- --- ---------- --- ---- --- -- ----------,214833.19999992847,214832.39999997616,214169.826,214169.59999990463,214186.497,214836.686,,23,survive.
screen,html.Screen,0_4_1_0_1_24,2021-11-12T15:07:24.536Z,,,,,,,,,,,,,,,,51,,,,,,,,,,,,,,443.7139999761712,,response,,,13,E,,,,,Space,keypress(Space),,,,lyrical,-------- -------- --- --- ---- --- --- ------ -- --------<br>---- --------- --- ------- ------------ ---------- ---------<br>--- ---------- ------- ---------- ------- -- -------- This<br>---- --- ------ ----- ------ -- ---- --- ----- -- - -------<br>-------- -- --- --- -- ----- ----------- ----- -----------<br>---- --- ---------- --- ---- --- -- ----------,215281.39999997616,215280.39999997616,214820.015,214833.59999990463,214836.686,215286.869,,24,This
screen,html.Screen,0_4_1_0_1_25,2021-11-12T15:07:25.064Z,,,,,,,,,,,,,,,,51,,,,,,,,,,,,,,521.9309999523102,,response,,,13,E,,,,,Space,keypress(Space),,,,lyrical,-------- -------- --- --- ---- --- --- ------ -- --------<br>---- --------- --- ------- ------------ ---------- ---------<br>--- ---------- ------- ---------- ------- -- -------- ----<br>week --- ------ ----- ------ -- ---- --- ----- -- - -------<br>-------- -- --- --- -- ----- ----------- ----- -----------<br>---- --- ---------- --- ---- --- -- ----------,215809.59999990463,215808.79999995232,215270.198,215281.59999990463,215286.869,215820.271,,25,week
screen,html.Screen,0_4_1_0_1_26,2021-11-12T15:07:25.720Z,,,,,,,,,,,,,,,,51,,,,,,,,,,,,,,644.1289999761502,,response,,,13,E,,,,,Space,keypress(Space),,,,lyrical,-------- -------- --- --- ---- --- --- ------ -- --------<br>---- --------- --- ------- ------------ ---------- ---------<br>--- ---------- ------- ---------- ------- -- -------- ----<br>---- the ------ ----- ------ -- ---- --- ----- -- - -------<br>-------- -- --- --- -- ----- ----------- ----- -----------<br>---- --- ---------- --- ---- --- -- ----------,216465.19999992847,216464.39999997616,215803.601,215810,215820.271,216470.519,,26,the
screen,html.Screen,0_4_1_0_1_27,2021-11-12T15:07:26.560Z,,,,,,,,,,,,,,,,51,,,,,,,,,,,,,,833.8809999761579,,response,,,13,E,,,,,Space,keypress(Space),,,,lyrical,-------- -------- --- --- ---- --- --- ------ -- --------<br>---- --------- --- ------- ------------ ---------- ---------<br>--- ---------- ------- ---------- ------- -- -------- ----<br>---- --- Senate ----- ------ -- ---- --- ----- -- - -------<br>-------- -- --- --- -- ----- ----------- ----- -----------<br>---- --- ---------- --- ---- --- -- ----------,217305.19999992847,217304.39999997616,216453.848,216465.39999997616,216470.519,217320.657,,27,Senate
screen,html.Screen,0_4_1_0_1_28,2021-11-12T15:07:27.240Z,,,,,,,,,,,,,,,,51,,,,,,,,,,,,,,663.6429999523098,,response,,,13,E,,,,,Space,keypress(Space),,,,lyrical,-------- -------- --- --- ---- --- --- ------ -- --------<br>---- --------- --- ------- ------------ ---------- ---------<br>--- ---------- ------- ---------- ------- -- -------- ----<br>---- --- ------ seems ------ -- ---- --- ----- -- - -------<br>-------- -- --- --- -- ----- ----------- ----- -----------<br>---- --- ---------- --- ---- --- -- ----------,217985.19999992847,217984.29999995232,217303.987,217305.5,217320.657,217987.596,,28,seems
screen,html.Screen,0_4_1_0_1_29,2021-11-12T15:07:28.416Z,,,,,,,,,,,,,,,,51,,,,,,,,,,,,,,1172.7039999523258,,response,,,13,E,,,,,Space,keypress(Space),,,,lyrical,-------- -------- --- --- ---- --- --- ------ -- --------<br>---- --------- --- ------- ------------ ---------- ---------<br>--- ---------- ------- ---------- ------- -- -------- ----<br>---- --- ------ ----- poised -- ---- --- ----- -- - -------<br>-------- -- --- --- -- ----- ----------- ----- -----------<br>---- --- ---------- --- ---- --- -- ----------,219161.19999992847,219160.29999995232,217970.925,217985.5,217987.596,219171.142,,29,poised
screen,html.Screen,0_4_1_0_1_30,2021-11-12T15:07:28.904Z,,,,,,,,,,,,,,,,51,,,,,,,,,,,,,,477.15799995232373,,response,,,13,E,,,,,Space,keypress(Space),,,,lyrical,-------- -------- --- --- ---- --- --- ------ -- --------<br>---- --------- --- ------- ------------ ---------- ---------<br>--- ---------- ------- ---------- ------- -- -------- ----<br>---- --- ------ ----- ------ to ---- --- ----- -- - -------<br>-------- -- --- --- -- ----- ----------- ----- -----------<br>---- --- ---------- --- ---- --- -- ----------,219649.09999990463,219648.29999995232,219154.472,219161.5,219171.142,219654.719,,30,to
screen,html.Screen,0_4_1_0_1_31,2021-11-12T15:07:29.376Z,,,,,,,,,,,,,,,,51,,,,,,,,,,,,,,465.48099992846255,,response,,,13,E,,,,,Space,keypress(Space),,,,lyrical,-------- -------- --- --- ---- --- --- ------ -- --------<br>---- --------- --- ------- ------------ ---------- ---------<br>--- ---------- ------- ---------- ------- -- -------- ----<br>---- --- ------ ----- ------ -- join --- ----- -- - -------<br>-------- -- --- --- -- ----- ----------- ----- -----------<br>---- --- ---------- --- ---- --- -- ----------,220121,220120.19999992847,219638.048,219649.39999997616,219654.719,220138.11,,31,join
screen,html.Screen,0_4_1_0_1_32,2021-11-12T15:07:29.776Z,,,,,,,,,,,,,,,,51,,,,,,,,,,,,,,382.0899999284884,,response,,,13,E,,,,,Space,keypress(Space),,,,lyrical,-------- -------- --- --- ---- --- --- ------ -- --------<br>---- --------- --- ------- ------------ ---------- ---------<br>--- ---------- ------- ---------- ------- -- -------- ----<br>---- --- ------ ----- ------ -- ---- the ----- -- - -------<br>-------- -- --- --- -- ----- ----------- ----- -----------<br>---- --- ---------- --- ---- --- -- ----------,220521.09999990463,220520.19999992847,220121.44,220121.29999995232,220138.11,220538.27,,32,the
screen,html.Screen,0_4_1_0_1_33,2021-11-12T15:07:30.736Z,,,,,,,,,,,,,,,,51,,,,,,,,,,,,,,941.9299999284849,,response,,,13,E,,,,,Space,keypress(Space),,,,lyrical,-------- -------- --- --- ---- --- --- ------ -- --------<br>---- --------- --- ------- ------------ ---------- ---------<br>--- ---------- ------- ---------- ------- -- -------- ----<br>---- --- ------ ----- ------ -- ---- --- House -- - -------<br>-------- -- --- --- -- ----- ----------- ----- -----------<br>---- --- ---------- --- ---- --- -- ----------,221481,221480.19999992847,220521.599,220521.5,220538.27,221488.54,,33,House
screen,html.Screen,0_4_1_0_1_34,2021-11-12T15:07:31.144Z,,,,,,,,,,,,,,,,51,,,,,,,,,,,,,,399.6599999284663,,response,,,13,E,,,,,Space,keypress(Space),,,,lyrical,-------- -------- --- --- ---- --- --- ------ -- --------<br>---- --------- --- ------- ------------ ---------- ---------<br>--- ---------- ------- ---------- ------- -- -------- ----<br>---- --- ------ ----- ------ -- ---- --- ----- in - -------<br>-------- -- --- --- -- ----- ----------- ----- -----------<br>---- --- ---------- --- ---- --- -- ----------,221888.89999997616,221888.19999992847,221471.869,221481.19999992847,221488.54,221905.205,,34,in
screen,html.Screen,0_4_1_0_1_35,2021-11-12T15:07:31.447Z,,,,,,,,,,,,,,,,51,,,,,,,,,,,,,,286.7950000000128,,response,,,13,E,,,,,Space,keypress(Space),,,,lyrical,-------- -------- --- --- ---- --- --- ------ -- --------<br>---- --------- --- ------- ------------ ---------- ---------<br>--- ---------- ------- ---------- ------- -- -------- ----<br>---- --- ------ ----- ------ -- ---- --- ----- -- a -------<br>-------- -- --- --- -- ----- ----------- ----- -----------<br>---- --- ---------- --- ---- --- -- ----------,222192.89999997616,222192,221888.535,221889.19999992847,221905.205,222205.31,,35,a
screen,html.Screen,0_4_1_0_1_36,2021-11-12T15:07:31.991Z,,,,,,,,,,,,,,,,51,,,,,,,,,,,,,,530.7899999046349,,response,,,13,E,,,,,Space,keypress(Space),,,,lyrical,-------- -------- --- --- ---- --- --- ------ -- --------<br>---- --------- --- ------- ------------ ---------- ---------<br>--- ---------- ------- ---------- ------- -- -------- ----<br>---- --- ------ ----- ------ -- ---- --- ----- -- - massive<br>-------- -- --- --- -- ----- ----------- ----- -----------<br>---- --- ---------- --- ---- --- -- ----------,222736.79999995232,222736.09999990463,222188.64,222193.19999992847,222205.31,222738.815,,36,massive
screen,html.Screen,0_4_1_0_1_37,2021-11-12T15:07:32.647Z,,,,,,,,,,,,,,,,51,,,,,,,,,,,,,,653.1849999999977,,response,,,13,E,,,,,Space,keypress(Space),,,,lyrical,-------- -------- --- --- ---- --- --- ------ -- --------<br>---- --------- --- ------- ------------ ---------- ---------<br>--- ---------- ------- ---------- ------- -- -------- ----<br>---- --- ------ ----- ------ -- ---- --- ----- -- - -------<br>overhaul -- --- --- -- ----- ----------- ----- -----------<br>---- --- ---------- --- ---- --- -- ----------,223392.89999997616,223392,222722.144,222737.09999990463,222738.815,223405.659,,37,overhaul
screen,html.Screen,0_4_1_0_1_38,2021-11-12T15:07:33.071Z,,,,,,,,,,,,,,,,51,,,,,,,,,,,,,,410.44099990461837,,response,,,13,E,,,,,Space,keypress(Space),,,,lyrical,-------- -------- --- --- ---- --- --- ------ -- --------<br>---- --------- --- ------- ------------ ---------- ---------<br>--- ---------- ------- ---------- ------- -- -------- ----<br>---- --- ------ ----- ------ -- ---- --- ----- -- - -------<br>-------- of --- --- -- ----- ----------- ----- -----------<br>---- --- ---------- --- ---- --- -- ----------,223816.89999997616,223816.09999990463,223388.988,223393.19999992847,223405.659,223822.438,,38,of
screen,html.Screen,0_4_1_0_1_39,2021-11-12T15:07:33.551Z,,,,,,,,,,,,,,,,51,,,,,,,,,,,,,,473.56200000000536,,response,,,13,E,,,,,Space,keypress(Space),,,,lyrical,-------- -------- --- --- ---- --- --- ------ -- --------<br>---- --------- --- ------- ------------ ---------- ---------<br>--- ---------- ------- ---------- ------- -- -------- ----<br>---- --- ------ ----- ------ -- ---- --- ----- -- - -------<br>-------- -- the --- -- ----- ----------- ----- -----------<br>---- --- ---------- --- ---- --- -- ----------,224296.89999997616,224296,223805.767,223817.19999992847,223822.438,224305.903,,39,the
screen,html.Screen,0_4_1_0_1_40,2021-11-12T15:07:34.287Z,,,,,,,,,,,,,,,,51,,,,,,,,,,,,,,726.0970000000088,,response,,,13,E,,,,,Space,keypress(Space),,,,lyrical,-------- -------- --- --- ---- --- --- ------ -- --------<br>---- --------- --- ------- ------------ ---------- ---------<br>--- ---------- ------- ---------- ------- -- -------- ----<br>---- --- ------ ----- ------ -- ---- --- ----- -- - -------<br>-------- -- --- way -- ----- ----------- ----- -----------<br>---- --- ---------- --- ---- --- -- ----------,225032.79999995232,225032,224289.232,224297.09999990463,224305.903,225039.539,,40,way
screen,html.Screen,0_4_1_0_1_41,2021-11-12T15:07:34.759Z,,,,,,,,,,,,,,,,51,,,,,,,,,,,,,,464.46100000001024,,response,,,13,E,,,,,Space,keypress(Space),,,,lyrical,-------- -------- --- --- ---- --- --- ------ -- --------<br>---- --------- --- ------- ------------ ---------- ---------<br>--- ---------- ------- ---------- ------- -- -------- ----<br>---- --- ------ ----- ------ -- ---- --- ----- -- - -------<br>-------- -- --- --- in ----- ----------- ----- -----------<br>---- --- ---------- --- ---- --- -- ----------,225504.69999992847,225504,225022.867,225033.09999990463,225039.539,225506.08,,41,in
screen,html.Screen,0_4_1_0_1_42,2021-11-12T15:07:35.264Z,,,,,,,,,,,,,,,,51,,,,,,,,,,,,,,502.31999997617095,,response,,,13,E,,,,,Space,keypress(Space),,,,lyrical,-------- -------- --- --- ---- --- --- ------ -- --------<br>---- --------- --- ------- ------------ ---------- ---------<br>--- ---------- ------- ---------- ------- -- -------- ----<br>---- --- ------ ----- ------ -- ---- --- ----- -- - -------<br>-------- -- --- --- -- which ----------- ----- -----------<br>---- --- ---------- --- ---- --- -- ----------,226009.19999992847,226008.39999997616,225489.411,225505,225506.08,226023.094,,42,which
screen,html.Screen,0_4_1_0_1_43,2021-11-12T15:07:36.191Z,,,,,,,,,,,,,,,,51,,,,,,,,,,,,,,912.8059999761463,,response,,,13,E,,,,,Space,keypress(Space),,,,lyrical,-------- -------- --- --- ---- --- --- ------ -- --------<br>---- --------- --- ------- ------------ ---------- ---------<br>--- ---------- ------- ---------- ------- -- -------- ----<br>---- --- ------ ----- ------ -- ---- --- ----- -- - -------<br>-------- -- --- --- -- ----- bureaucrats ----- -----------<br>---- --- ---------- --- ---- --- -- ----------,226936.69999992847,226935.89999997616,226006.423,226009.5,226023.094,226939.994,,43,bureaucrats
screen,html.Screen,0_4_1_0_1_44,2021-11-12T15:07:36.991Z,,,,,,,,,,,,,,,,51,,,,,,,,,,,,,,795.9059999761521,,response,,,13,E,,,,,Space,keypress(Space),,,,lyrical,-------- -------- --- --- ---- --- --- ------ -- --------<br>---- --------- --- ------- ------------ ---------- ---------<br>--- ---------- ------- ---------- ------- -- -------- ----<br>---- --- ------ ----- ------ -- ---- --- ----- -- - -------<br>-------- -- --- --- -- ----- ----------- enact -----------<br>---- --- ---------- --- ---- --- -- ----------,227736.59999990463,227735.89999997616,226923.323,226937,226939.994,227740.127,,44,enact
screen,html.Screen,0_4_1_0_1_45,2021-11-12T15:07:38.039Z,,,,,,,,,,,,,,,,51,,,,,,,,,,,,,,1043.7729999761505,,response,,,13,E,,,,,Space,keypress(Space),,,,lyrical,-------- -------- --- --- ---- --- --- ------ -- --------<br>---- --------- --- ------- ------------ ---------- ---------<br>--- ---------- ------- ---------- ------- -- -------- ----<br>---- --- ------ ----- ------ -- ---- --- ----- -- - -------<br>-------- -- --- --- -- ----- ----------- ----- regulations<br>---- --- ---------- --- ---- --- -- ----------,228784.69999992847,228783.89999997616,227723.457,227737,227740.127,228790.497,,45,regulations
screen,html.Screen,0_4_1_0_1_46,2021-11-12T15:07:38.751Z,,,,,,,,,,,,,,,,51,,,,,,,,,,,,,,705.3029999523133,,response,,,13,E,,,,,Space,keypress(Space),,,,lyrical,-------- -------- --- --- ---- --- --- ------ -- --------<br>---- --------- --- ------- ------------ ---------- ---------<br>--- ---------- ------- ---------- ------- -- -------- ----<br>---- --- ------ ----- ------ -- ---- --- ----- -- - -------<br>-------- -- --- --- -- ----- ----------- ----- -----------<br>that --- ---------- --- ---- --- -- ----------,229496.59999990463,229495.79999995232,228773.826,228784.89999997616,228790.497,229507.342,,46,that
screen,html.Screen,0_4_1_0_1_47,2021-11-12T15:07:39.615Z,,,,,,,,,,,,,,,,51,,,,,,,,,,,,,,852.557999976154,,response,,,13,E,,,,,Space,keypress(Space),,,,lyrical,-------- -------- --- --- ---- --- --- ------ -- --------<br>---- --------- --- ------- ------------ ---------- ---------<br>--- ---------- ------- ---------- ------- -- -------- ----<br>---- --- ------ ----- ------ -- ---- --- ----- -- - -------<br>-------- -- --- --- -- ----- ----------- ----- -----------<br>---- are ---------- --- ---- --- -- ----------,230360.59999990463,230359.89999997616,229490.671,229497,229507.342,230374.24,,47,are
screen,html.Screen,0_4_1_0_1_48,2021-11-12T15:07:41.295Z,,,,,,,,,,,,,,,,51,,,,,,,,,,,,,,1665.4599999284837,,response,,,13,E,,,,,Space,keypress(Space),,,,lyrical,-------- -------- --- --- ---- --- --- ------ -- --------<br>---- --------- --- ------- ------------ ---------- ---------<br>--- ---------- ------- ---------- ------- -- -------- ----<br>---- --- ------ ----- ------ -- ---- --- ----- -- - -------<br>-------- -- --- --- -- ----- ----------- ----- -----------<br>---- --- strangling --- ---- --- -- ----------,232040.5,232039.69999992847,230357.569,230360.79999995232,230374.24,232058.021,,48,strangling
screen,html.Screen,0_4_1_0_1_49,2021-11-12T15:07:41.911Z,,,,,,,,,,,,,,,,51,,,,,,,,,,,,,,597.6789999284665,,response,,,13,E,,,,,Space,keypress(Space),,,,lyrical,-------- -------- --- --- ---- --- --- ------ -- --------<br>---- --------- --- ------- ------------ ---------- ---------<br>--- ---------- ------- ---------- ------- -- -------- ----<br>---- --- ------ ----- ------ -- ---- --- ----- -- - -------<br>-------- -- --- --- -- ----- ----------- ----- -----------<br>---- --- ---------- the ---- --- -- ----------,232656.5,232655.69999992847,232041.35,232040.79999995232,232058.021,232657.998,,49,the
screen,html.Screen,0_4_1_0_1_50,2021-11-12T15:07:42.543Z,,,,,,,,,,,,,,,,51,,,,,,,,,,,,,,629.6019999046403,,response,,,13,E,,,,,Space,keypress(Space),,,,lyrical,-------- -------- --- --- ---- --- --- ------ -- --------<br>---- --------- --- ------- ------------ ---------- ---------<br>--- ---------- ------- ---------- ------- -- -------- ----<br>---- --- ------ ----- ------ -- ---- --- ----- -- - -------<br>-------- -- --- --- -- ----- ----------- ----- -----------<br>---- --- ---------- --- life --- -- ----------,233288.5,233287.59999990463,232641.328,232656.79999995232,232657.998,233291.592,,50,life
