sender,sender_type,sender_id,timestamp,meta,,Blues,Classical,Country,Dance,Electronic,Folk,Gospel,Hip-Hop,Jazz,Latin,Musical/Film,New-age,Pop,Provo_ID,R&B,Rap,Reggae,Religious,Rock,Soul,Swing,Traditional,age,artist_name,correct,correctResponse,distraction,duration,education,ended_on,familiarity,gender,item,list,music_frequency,offensiveness,pleasantness,preference,response,response_action,snippet_file,song_name,song_rating,sound,text,time_commit,time_end,time_render,time_run,time_show,time_switch,url,word,word_ID
Instructions,html.Page,0_0,2022-05-13T10:07:00.165Z,"{""labjs_version"":""20.2.3"",""labjs_build"":{""flavor"":""production"",""commit"":""7ea907d66ca8aeef8054924ca5d82ffbe11e34e5""},""location"":""https://run.pavlovia.org/mvasilev/lab_music_e/"",""userAgent"":""Mozilla/5.0 (Windows NT 6.1; Win64; x64) AppleWebKit/537.36 (KHTML, like Gecko) Chrome/97.0.4692.71 Safari/537.36"",""platform"":""Win32"",""language"":""en-US"",""locale"":""en-US"",""timeZone"":""Europe/London"",""timezoneOffset"":-60,""screen_width"":1920,""screen_height"":1080,""scroll_width"":1920,""scroll_height"":959,""window_innerWidth"":1920,""window_innerHeight"":1007,""devicePixelRatio"":1}",,,,,,,,,,,,,,,,,,,,,,,,,,,,,5765.403,,form submission,,,,,,,,,,,,,,,,18272.59999999986,18271.5,12357.595,12378.299999999814,12506.097,18274.433,{},,
Headphones,html.Page,0_1,2022-05-13T10:07:07.306Z,,,,,,,,,,,,,,,,,,,,,,,,,,,,,,7138.866999999813,,form submission,,,,,,,,,,,,,,,,25413.799999999814,25413.299999999814,18241.093,18273.09999999986,18274.433,25426.338,,,
Holding screen,html.Screen,0_2_0_0,2022-05-13T10:07:17.309Z,,,,,,,,,,,,,,,,,,,,,,,,,,,,,,10019.236999999997,,timeout,,,,,,,,,,,,,,,,35416.5,35412.235,25409.668,25414.299999999814,25426.338,35445.575,,,
screen,html.Screen,0_2_0_1_0,2022-05-13T10:07:18.446Z,,,,,,,,,,,,,,,,53,,,,,,,,,,,,,,1107.2249999998166,,response,,,99,,,,,,Space,keypress(Space),,,,,When -- ----- -- ------ - ------- --- ----------<br>------------- ------ ------ ---- ---- ------- ----- -- ----<br>-------- ------- -- ---------- --- - --- ----- ----- ----<br>---- --- --- ----- --- ---- ---- ------- ----- ---- -------<br>--- --- -- ----- -- --- ---- -- --- ---- -- ------ ------<br>--- ----- -- ----,36553.39999999991,36552.799999999814,35412.235,35416.799999999814,35445.575,36562.674,,0,When
screen,html.Screen,0_2_0_1_1,2022-05-13T10:07:18.757Z,,,,,,,,,,,,,,,,53,,,,,,,,,,,,,,301.92599999986123,,response,,,99,,,,,,Space,keypress(Space),,,,,---- it ----- -- ------ - ------- --- ----------<br>------------- ------ ------ ---- ---- ------- ----- -- ----<br>-------- ------- -- ---------- --- - --- ----- ----- ----<br>---- --- --- ----- --- ---- ---- ------- ----- ---- -------<br>--- --- -- ----- -- --- ---- -- --- ---- -- ------ ------<br>--- ----- -- ----,36865,36864.59999999986,36546.003,36553.5,36562.674,36879.439,,1,it
screen,html.Screen,0_2_0_1_2,2022-05-13T10:07:19.013Z,,,,,,,,,,,,,,,,53,,,,,,,,,,,,,,241.0610000000015,,response,,,99,,,,,,Space,keypress(Space),,,,,---- -- comes -- ------ - ------- --- ----------<br>------------- ------ ------ ---- ---- ------- ----- -- ----<br>-------- ------- -- ---------- --- - --- ----- ----- ----<br>---- --- --- ----- --- ---- ---- ------- ----- ---- -------<br>--- --- -- ----- -- --- ---- -- --- ---- -- ------ ------<br>--- ----- -- ----,37121.09999999986,37120.5,36862.768,36865.19999999995,36879.439,37129.463,,2,comes
screen,html.Screen,0_2_0_1_3,2022-05-13T10:07:19.325Z,,,,,,,,,,,,,,,,53,,,,,,,,,,,,,,303.0369999999966,,response,,,99,,,,,,Space,keypress(Space),,,,,---- -- ----- to ------ - ------- --- ----------<br>------------- ------ ------ ---- ---- ------- ----- -- ----<br>-------- ------- -- ---------- --- - --- ----- ----- ----<br>---- --- --- ----- --- ---- ---- ------- ----- ---- -------<br>--- --- -- ----- -- --- ---- -- --- ---- -- ------ ------<br>--- ----- -- ----,37432.89999999991,37432.5,37112.793,37121.09999999986,37129.463,37446.268,,3,to
screen,html.Screen,0_2_0_1_4,2022-05-13T10:07:19.557Z,,,,,,,,,,,,,,,,53,,,,,,,,,,,,,,218.2320000000036,,response,,,99,,,,,,Space,keypress(Space),,,,,---- -- ----- -- having - ------- --- ----------<br>------------- ------ ------ ---- ---- ------- ----- -- ----<br>-------- ------- -- ---------- --- - --- ----- ----- ----<br>---- --- --- ----- --- ---- ---- ------- ----- ---- -------<br>--- --- -- ----- -- --- ---- -- --- ---- -- ------ ------<br>--- ----- -- ----,37665,37664.5,37429.597,37433,37446.268,37679.575,,4,having
screen,html.Screen,0_2_0_1_5,2022-05-13T10:07:19.798Z,,,,,,,,,,,,,,,,53,,,,,,,,,,,,,,225.32499999990978,,response,,,99,,,,,,Space,keypress(Space),,,,,---- -- ----- -- ------ a ------- --- ----------<br>------------- ------ ------ ---- ---- ------- ----- -- ----<br>-------- ------- -- ---------- --- - --- ----- ----- ----<br>---- --- --- ----- --- ---- ---- ------- ----- ---- -------<br>--- --- -- ----- -- --- ---- -- --- ---- -- ------ ------<br>--- ----- -- ----,37906.09999999986,37904.89999999991,37662.906,37665.09999999986,37679.575,37913.038,,5,a
screen,html.Screen,0_2_0_1_6,2022-05-13T10:07:19.997Z,,,,,,,,,,,,,,,,53,,,,,,,,,,,,,,191.46199999999953,,response,,,99,,,,,,Space,keypress(Space),,,,,---- -- ----- -- ------ - lasting --- ----------<br>------------- ------ ------ ---- ---- ------- ----- -- ----<br>-------- ------- -- ---------- --- - --- ----- ----- ----<br>---- --- --- ----- --- ---- ---- ------- ----- ---- -------<br>--- --- -- ----- -- --- ---- -- --- ---- -- ------ ------<br>--- ----- -- ----,38105.19999999995,38104.5,37896.367,37906.69999999995,37913.038,38113.062,,6,lasting
screen,html.Screen,0_2_0_1_7,2022-05-13T10:07:20.189Z,,,,,,,,,,,,,,,,53,,,,,,,,,,,,,,183.53799999986222,,response,,,99,,,,,,Space,keypress(Space),,,,,---- -- ----- -- ------ - ------- and ----------<br>------------- ------ ------ ---- ---- ------- ----- -- ----<br>-------- ------- -- ---------- --- - --- ----- ----- ----<br>---- --- --- ----- --- ---- ---- ------- ----- ---- -------<br>--- --- -- ----- -- --- ---- -- --- ---- -- ------ ------<br>--- ----- -- ----,38297,38296.59999999986,38096.392,38105.299999999814,38113.062,38313.141,,7,and
screen,html.Screen,0_2_0_1_8,2022-05-13T10:07:20.397Z,,,,,,,,,,,,,,,,53,,,,,,,,,,,,,,191.45899999985704,,response,,,99,,,,,,Space,keypress(Space),,,,,---- -- ----- -- ------ - ------- --- fulfilling<br>------------- ------ ------ ---- ---- ------- ----- -- ----<br>-------- ------- -- ---------- --- - --- ----- ----- ----<br>---- --- --- ----- --- ---- ---- ------- ----- ---- -------<br>--- --- -- ----- -- --- ---- -- --- ---- -- ------ ------<br>--- ----- -- ----,38505.09999999986,38504.59999999986,38296.47,38297.19999999995,38313.141,38513.173,,8,fulfilling
screen,html.Screen,0_2_0_1_9,2022-05-13T10:07:20.629Z,,,,,,,,,,,,,,,,53,,,,,,,,,,,,,,223.3269999999975,,response,,,99,,,,,,Space,keypress(Space),,,,,"---- -- ----- -- ------ - ------- --- ----------<br>relationship, ------ ------ ---- ---- ------- ----- -- ----<br>-------- ------- -- ---------- --- - --- ----- ----- ----<br>---- --- --- ----- --- ---- ---- ------- ----- ---- -------<br>--- --- -- ----- -- --- ---- -- --- ---- -- ------ ------<br>--- ----- -- ----",38736.89999999991,38736.5,38496.503,38505.19999999995,38513.173,38746.594,,9,"relationship,"
screen,html.Screen,0_2_0_1_10,2022-05-13T10:07:20.878Z,,,,,,,,,,,,,,,,53,,,,,,,,,,,,,,238.30599999990955,,response,,,99,,,,,,Space,keypress(Space),,,,,---- -- ----- -- ------ - ------- --- ----------<br>------------- common ------ ---- ---- ------- ----- -- ----<br>-------- ------- -- ---------- --- - --- ----- ----- ----<br>---- --- --- ----- --- ---- ---- ------- ----- ---- -------<br>--- --- -- ----- -- --- ---- -- --- ---- -- ------ ------<br>--- ----- -- ----,38986.09999999986,38984.89999999991,38729.923,38737,38746.594,38996.647,,10,common
screen,html.Screen,0_2_0_1_11,2022-05-13T10:07:21.317Z,,,,,,,,,,,,,,,,53,,,,,,,,,,,,,,427.8530000000028,,response,,,99,,,,,,Space,keypress(Space),,,,,---- -- ----- -- ------ - ------- --- ----------<br>------------- ------ wisdom ---- ---- ------- ----- -- ----<br>-------- ------- -- ---------- --- - --- ----- ----- ----<br>---- --- --- ----- --- ---- ---- ------- ----- ---- -------<br>--- --- -- ----- -- --- ---- -- --- ---- -- ------ ------<br>--- ----- -- ----,39424.89999999991,39424.5,38979.977,38986.39999999991,38996.647,39430.059,,11,wisdom
screen,html.Screen,0_2_0_1_12,2022-05-13T10:07:21.589Z,,,,,,,,,,,,,,,,53,,,,,,,,,,,,,,266.34099999990576,,response,,,99,,,,,,Space,keypress(Space),,,,,---- -- ----- -- ------ - ------- --- ----------<br>------------- ------ ------ says ---- ------- ----- -- ----<br>-------- ------- -- ---------- --- - --- ----- ----- ----<br>---- --- --- ----- --- ---- ---- ------- ----- ---- -------<br>--- --- -- ----- -- --- ---- -- --- ---- -- ------ ------<br>--- ----- -- ----,39696.89999999991,39696.39999999991,39413.389,39425,39430.059,39713.623,,12,says
screen,html.Screen,0_2_0_1_13,2022-05-13T10:07:21.845Z,,,,,,,,,,,,,,,,53,,,,,,,,,,,,,,238.8770000000004,,response,,,99,,,,,,Space,keypress(Space),,,,,---- -- ----- -- ------ - ------- --- ----------<br>------------- ------ ------ ---- that ------- ----- -- ----<br>-------- ------- -- ---------- --- - --- ----- ----- ----<br>---- --- --- ----- --- ---- ---- ------- ----- ---- -------<br>--- --- -- ----- -- --- ---- -- --- ---- -- ------ ------<br>--- ----- -- ----,39952.89999999991,39952.5,39696.95,39697,39713.623,39963.521,,13,that
screen,html.Screen,0_2_0_1_14,2022-05-13T10:07:22.094Z,,,,,,,,,,,,,,,,53,,,,,,,,,,,,,,237.2789999998131,,response,,,99,,,,,,Space,keypress(Space),,,,,---- -- ----- -- ------ - ------- --- ----------<br>------------- ------ ------ ---- ---- feeling ----- -- ----<br>-------- ------- -- ---------- --- - --- ----- ----- ----<br>---- --- --- ----- --- ---- ---- ------- ----- ---- -------<br>--- --- -- ----- -- --- ---- -- --- ---- -- ------ ------<br>--- ----- -- ----,40201.799999999814,40200.799999999814,39946.852,39953.09999999986,39963.521,40213.627,,14,feeling
screen,html.Screen,0_2_0_1_15,2022-05-13T10:07:22.357Z,,,,,,,,,,,,,,,,53,,,,,,,,,,,,,,250.77299999990646,,response,,,99,,,,,,Space,keypress(Space),,,,,---- -- ----- -- ------ - ------- --- ----------<br>------------- ------ ------ ---- ---- ------- close -- ----<br>-------- ------- -- ---------- --- - --- ----- ----- ----<br>---- --- --- ----- --- ---- ---- ------- ----- ---- -------<br>--- --- -- ----- -- --- ---- -- --- ---- -- ------ ------<br>--- ----- -- ----,40464.69999999995,40464.39999999991,40196.957,40202,40213.627,40480.397,,15,close
screen,html.Screen,0_2_0_1_16,2022-05-13T10:07:22.629Z,,,,,,,,,,,,,,,,53,,,,,,,,,,,,,,256.00299999990966,,response,,,99,,,,,,Space,keypress(Space),,,,,---- -- ----- -- ------ - ------- --- ----------<br>------------- ------ ------ ---- ---- ------- ----- to ----<br>-------- ------- -- ---------- --- - --- ----- ----- ----<br>---- --- --- ----- --- ---- ---- ------- ----- ---- -------<br>--- --- -- ----- -- --- ---- -- --- ---- -- ------ ------<br>--- ----- -- ----,40736.89999999991,40736.39999999991,40463.726,40464.799999999814,40480.397,40747.093,,16,to
screen,html.Screen,0_2_0_1_17,2022-05-13T10:07:22.893Z,,,,,,,,,,,,,,,,53,,,,,,,,,,,,,,253.3069999999061,,response,,,99,,,,,,Space,keypress(Space),,,,,---- -- ----- -- ------ - ------- --- ----------<br>------------- ------ ------ ---- ---- ------- ----- -- your<br>-------- ------- -- ---------- --- - --- ----- ----- ----<br>---- --- --- ----- --- ---- ---- ------- ----- ---- -------<br>--- --- -- ----- -- --- ---- -- --- ---- -- ------ ------<br>--- ----- -- ----,41000.69999999995,41000.39999999991,40730.423,40737,40747.093,41013.942,,17,your
screen,html.Screen,0_2_0_1_18,2022-05-13T10:07:23.133Z,,,,,,,,,,,,,,,,53,,,,,,,,,,,,,,226.55799999999726,,response,,,99,,,,,,Space,keypress(Space),,,,,---- -- ----- -- ------ - ------- --- ----------<br>------------- ------ ------ ---- ---- ------- ----- -- ----<br>romantic ------- -- ---------- --- - --- ----- ----- ----<br>---- --- --- ----- --- ---- ---- ------- ----- ---- -------<br>--- --- -- ----- -- --- ---- -- --- ---- -- ------ ------<br>--- ----- -- ----,41240.799999999814,41240.5,40997.268,41000.799999999814,41013.942,41247.177,,18,romantic
screen,html.Screen,0_2_0_1_19,2022-05-13T10:07:23.374Z,,,,,,,,,,,,,,,,53,,,,,,,,,,,,,,233.52299999995012,,response,,,99,,,,,,Space,keypress(Space),,,,,---- -- ----- -- ------ - ------- --- ----------<br>------------- ------ ------ ---- ---- ------- ----- -- ----<br>-------- partner -- ---------- --- - --- ----- ----- ----<br>---- --- --- ----- --- ---- ---- ------- ----- ---- -------<br>--- --- -- ----- -- --- ---- -- --- ---- -- ------ ------<br>--- ----- -- ----,41481.69999999995,41480.69999999995,41230.509,41240.89999999991,41247.177,41497.288,,19,partner
screen,html.Screen,0_2_0_1_20,2022-05-13T10:07:23.621Z,,,,,,,,,,,,,,,,53,,,,,,,,,,,,,,231.31199999985984,,response,,,99,,,,,,Space,keypress(Space),,,,,---- -- ----- -- ------ - ------- --- ----------<br>------------- ------ ------ ---- ---- ------- ----- -- ----<br>-------- ------- is ---------- --- - --- ----- ----- ----<br>---- --- --- ----- --- ---- ---- ------- ----- ---- -------<br>--- --- -- ----- -- --- ---- -- --- ---- -- ------ ------<br>--- ----- -- ----,41729.19999999995,41728.59999999986,41480.618,41481.89999999991,41497.288,41730.734,,20,is
screen,html.Screen,0_2_0_1_21,2022-05-13T10:07:23.861Z,,,,,,,,,,,,,,,,53,,,,,,,,,,,,,,237.66599999991013,,response,,,99,,,,,,Space,keypress(Space),,,,,---- -- ----- -- ------ - ------- --- ----------<br>------------- ------ ------ ---- ---- ------- ----- -- ----<br>-------- ------- -- paramount. --- - --- ----- ----- ----<br>---- --- --- ----- --- ---- ---- ------- ----- ---- -------<br>--- --- -- ----- -- --- ---- -- --- ---- -- ------ ------<br>--- ----- -- ----,41968.799999999814,41968.39999999991,41714.063,41729.299999999814,41730.734,41980.903,,21,paramount.
screen,html.Screen,0_2_0_1_22,2022-05-13T10:07:24.101Z,,,,,,,,,,,,,,,,53,,,,,,,,,,,,,,227.49699999990844,,response,,,99,,,,,,Space,keypress(Space),,,,,---- -- ----- -- ------ - ------- --- ----------<br>------------- ------ ------ ---- ---- ------- ----- -- ----<br>-------- ------- -- ---------- But - --- ----- ----- ----<br>---- --- --- ----- --- ---- ---- ------- ----- ---- -------<br>--- --- -- ----- -- --- ---- -- --- ---- -- ------ ------<br>--- ----- -- ----,42208.799999999814,42208.39999999991,41964.23,41968.799999999814,41980.903,42214.208,,22,But
screen,html.Screen,0_2_0_1_23,2022-05-13T10:07:24.333Z,,,,,,,,,,,,,,,,53,,,,,,,,,,,,,,226.19199999990815,,response,,,99,,,,,,Space,keypress(Space),,,,,---- -- ----- -- ------ - ------- --- ----------<br>------------- ------ ------ ---- ---- ------- ----- -- ----<br>-------- ------- -- ---------- --- a --- ----- ----- ----<br>---- --- --- ----- --- ---- ---- ------- ----- ---- -------<br>--- --- -- ----- -- --- ---- -- --- ---- -- ------ ------<br>--- ----- -- ----,42440.799999999814,42440.39999999991,42197.537,42208.89999999991,42214.208,42447.427,,23,a
screen,html.Screen,0_2_0_1_24,2022-05-13T10:07:24.573Z,,,,,,,,,,,,,,,,53,,,,,,,,,,,,,,232.97299999990355,,response,,,99,,,,,,Space,keypress(Space),,,,,---- -- ----- -- ------ - ------- --- ----------<br>------------- ------ ------ ---- ---- ------- ----- -- ----<br>-------- ------- -- ---------- --- - new ----- ----- ----<br>---- --- --- ----- --- ---- ---- ------- ----- ---- -------<br>--- --- -- ----- -- --- ---- -- --- ---- -- ------ ------<br>--- ----- -- ----,42680.69999999995,42680.39999999991,42430.761,42440.799999999814,42447.427,42697.639,,24,new
screen,html.Screen,0_2_0_1_25,2022-05-13T10:07:24.813Z,,,,,,,,,,,,,,,,53,,,,,,,,,,,,,,222.76099999990402,,response,,,99,,,,,,Space,keypress(Space),,,,,---- -- ----- -- ------ - ------- --- ----------<br>------------- ------ ------ ---- ---- ------- ----- -- ----<br>-------- ------- -- ---------- --- - --- study ----- ----<br>---- --- --- ----- --- ---- ---- ------- ----- ---- -------<br>--- --- -- ----- -- --- ---- -- --- ---- -- ------ ------<br>--- ----- -- ----,42920.799999999814,42920.39999999991,42680.968,42680.799999999814,42697.639,42931.007,,25,study
screen,html.Screen,0_2_0_1_26,2022-05-13T10:07:25.053Z,,,,,,,,,,,,,,,,53,,,,,,,,,,,,,,229.39299999990908,,response,,,99,,,,,,Space,keypress(Space),,,,,---- -- ----- -- ------ - ------- --- ----------<br>------------- ------ ------ ---- ---- ------- ----- -- ----<br>-------- ------- -- ---------- --- - --- ----- finds ----<br>---- --- --- ----- --- ---- ---- ------- ----- ---- -------<br>--- --- -- ----- -- --- ---- -- --- ---- -- ------ ------<br>--- ----- -- ----,43160.799999999814,43160.39999999991,42914.337,42920.89999999991,42931.007,43164.431,,26,finds
screen,html.Screen,0_2_0_1_27,2022-05-13T10:07:25.301Z,,,,,,,,,,,,,,,,53,,,,,,,,,,,,,,243.86899999981688,,response,,,99,,,,,,Space,keypress(Space),,,,,---- -- ----- -- ------ - ------- --- ----------<br>------------- ------ ------ ---- ---- ------- ----- -- ----<br>-------- ------- -- ---------- --- - --- ----- ----- that<br>---- --- --- ----- --- ---- ---- ------- ----- ---- -------<br>--- --- -- ----- -- --- ---- -- --- ---- -- ------ ------<br>--- ----- -- ----,43408.59999999986,43408.299999999814,43147.76,43160.89999999991,43164.431,43414.502,,27,that
screen,html.Screen,0_2_0_1_28,2022-05-13T10:07:25.549Z,,,,,,,,,,,,,,,,53,,,,,,,,,,,,,,241.79799999981333,,response,,,99,,,,,,Space,keypress(Space),,,,,---- -- ----- -- ------ - ------- --- ----------<br>------------- ------ ------ ---- ---- ------- ----- -- ----<br>-------- ------- -- ---------- --- - --- ----- ----- ----<br>it's --- --- ----- --- ---- ---- ------- ----- ---- -------<br>--- --- -- ----- -- --- ---- -- --- ---- -- ------ ------<br>--- ----- -- ----,43656.69999999995,43656.299999999814,43397.831,43408.799999999814,43414.502,43664.537,,28,it's
screen,html.Screen,0_2_0_1_29,2022-05-13T10:07:25.789Z,,,,,,,,,,,,,,,,53,,,,,,,,,,,,,,231.6629999999568,,response,,,99,,,,,,Space,keypress(Space),,,,,---- -- ----- -- ------ - ------- --- ----------<br>------------- ------ ------ ---- ---- ------- ----- -- ----<br>-------- ------- -- ---------- --- - --- ----- ----- ----<br>---- not --- ----- --- ---- ---- ------- ----- ---- -------<br>--- --- -- ----- -- --- ---- -- --- ---- -- ------ ------<br>--- ----- -- ----,43896.5,43896.19999999995,43647.867,43656.89999999991,43664.537,43897.995,,29,not
screen,html.Screen,0_2_0_1_30,2022-05-13T10:07:26.013Z,,,,,,,,,,,,,,,,53,,,,,,,,,,,,,,222.30499999981112,,response,,,99,,,,,,Space,keypress(Space),,,,,---- -- ----- -- ------ - ------- --- ----------<br>------------- ------ ------ ---- ---- ------- ----- -- ----<br>-------- ------- -- ---------- --- - --- ----- ----- ----<br>---- --- how ----- --- ---- ---- ------- ----- ---- -------<br>--- --- -- ----- -- --- ---- -- --- ---- -- ------ ------<br>--- ----- -- ----,44120.69999999995,44120.299999999814,43881.322,43896.59999999986,43897.995,44131.277,,30,how
screen,html.Screen,0_2_0_1_31,2022-05-13T10:07:26.245Z,,,,,,,,,,,,,,,,53,,,,,,,,,,,,,,220.92299999995157,,response,,,99,,,,,,Space,keypress(Space),,,,,---- -- ----- -- ------ - ------- --- ----------<br>------------- ------ ------ ---- ---- ------- ----- -- ----<br>-------- ------- -- ---------- --- - --- ----- ----- ----<br>---- --- --- close --- ---- ---- ------- ----- ---- -------<br>--- --- -- ----- -- --- ---- -- --- ---- -- ------ ------<br>--- ----- -- ----,44352.5,44352.19999999995,44114.609,44120.89999999991,44131.277,44364.73,,31,close
screen,html.Screen,0_2_0_1_32,2022-05-13T10:07:26.477Z,,,,,,,,,,,,,,,,53,,,,,,,,,,,,,,219.46999999995023,,response,,,99,,,,,,Space,keypress(Space),,,,,---- -- ----- -- ------ - ------- --- ----------<br>------------- ------ ------ ---- ---- ------- ----- -- ----<br>-------- ------- -- ---------- --- - --- ----- ----- ----<br>---- --- --- ----- you ---- ---- ------- ----- ---- -------<br>--- --- -- ----- -- --- ---- -- --- ---- -- ------ ------<br>--- ----- -- ----,44584.59999999986,44584.19999999995,44348.06,44352.59999999986,44364.73,44598.162,,32,you
screen,html.Screen,0_2_0_1_33,2022-05-13T10:07:26.717Z,,,,,,,,,,,,,,,,53,,,,,,,,,,,,,,226.1379999998171,,response,,,99,,,,,,Space,keypress(Space),,,,,---- -- ----- -- ------ - ------- --- ----------<br>------------- ------ ------ ---- ---- ------- ----- -- ----<br>-------- ------- -- ---------- --- - --- ----- ----- ----<br>---- --- --- ----- --- feel ---- ------- ----- ---- -------<br>--- --- -- ----- -- --- ---- -- --- ---- -- ------ ------<br>--- ----- -- ----,44824.799999999814,44824.299999999814,44581.491,44584.59999999986,44598.162,44831.51,,33,feel
screen,html.Screen,0_2_0_1_34,2022-05-13T10:07:26.950Z,,,,,,,,,,,,,,,,53,,,,,,,,,,,,,,225.08999999985826,,response,,,99,,,,,,Space,keypress(Space),,,,,---- -- ----- -- ------ - ------- --- ----------<br>------------- ------ ------ ---- ---- ------- ----- -- ----<br>-------- ------- -- ---------- --- - --- ----- ----- ----<br>---- --- --- ----- --- ---- that ------- ----- ---- -------<br>--- --- -- ----- -- --- ---- -- --- ---- -- ------ ------<br>--- ----- -- ----,45057.39999999991,45056.59999999986,44814.84,44824.89999999991,44831.51,45064.909,,34,that
screen,html.Screen,0_2_0_1_35,2022-05-13T10:07:27.189Z,,,,,,,,,,,,,,,,53,,,,,,,,,,,,,,231.29099999995378,,response,,,99,,,,,,Space,keypress(Space),,,,,---- -- ----- -- ------ - ------- --- ----------<br>------------- ------ ------ ---- ---- ------- ----- -- ----<br>-------- ------- -- ---------- --- - --- ----- ----- ----<br>---- --- --- ----- --- ---- ---- matters ----- ---- -------<br>--- --- -- ----- -- --- ---- -- --- ---- -- ------ ------<br>--- ----- -- ----,45296.59999999986,45296.19999999995,45048.239,45057.69999999995,45064.909,45298.327,,35,matters
screen,html.Screen,0_2_0_1_36,2022-05-13T10:07:27.422Z,,,,,,,,,,,,,,,,53,,,,,,,,,,,,,,230.1730000000025,,response,,,99,,,,,,Space,keypress(Space),,,,,"---- -- ----- -- ------ - ------- --- ----------<br>------------- ------ ------ ---- ---- ------- ----- -- ----<br>-------- ------- -- ---------- --- - --- ----- ----- ----<br>---- --- --- ----- --- ---- ---- ------- most, ---- -------<br>--- --- -- ----- -- --- ---- -- --- ---- -- ------ ------<br>--- ----- -- ----",45529.59999999986,45528.5,45281.656,45296.59999999986,45298.327,45531.767,,36,"most,"
screen,html.Screen,0_2_0_1_37,2022-05-13T10:07:27.653Z,,,,,,,,,,,,,,,,53,,,,,,,,,,,,,,228.33299999986048,,response,,,99,,,,,,Space,keypress(Space),,,,,---- -- ----- -- ------ - ------- --- ----------<br>------------- ------ ------ ---- ---- ------- ----- -- ----<br>-------- ------- -- ---------- --- - --- ----- ----- ----<br>---- --- --- ----- --- ---- ---- ------- ----- it's -------<br>--- --- -- ----- -- --- ---- -- --- ---- -- ------ ------<br>--- ----- -- ----,45760.5,45760.09999999986,45515.095,45529.89999999991,45531.767,45765.196,,37,it's
screen,html.Screen,0_2_0_1_38,2022-05-13T10:07:27.885Z,,,,,,,,,,,,,,,,53,,,,,,,,,,,,,,227.10399999981018,,response,,,99,,,,,,Space,keypress(Space),,,,,---- -- ----- -- ------ - ------- --- ----------<br>------------- ------ ------ ---- ---- ------- ----- -- ----<br>-------- ------- -- ---------- --- - --- ----- ----- ----<br>---- --- --- ----- --- ---- ---- ------- ----- ---- whether<br>--- --- -- ----- -- --- ---- -- --- ---- -- ------ ------<br>--- ----- -- ----,45992.69999999995,45992.299999999814,45748.523,45760.5,45765.196,45998.374,,38,whether
screen,html.Screen,0_2_0_1_39,2022-05-13T10:07:28.125Z,,,,,,,,,,,,,,,,53,,,,,,,,,,,,,,233.82599999995,,response,,,99,,,,,,Space,keypress(Space),,,,,---- -- ----- -- ------ - ------- --- ----------<br>------------- ------ ------ ---- ---- ------- ----- -- ----<br>-------- ------- -- ---------- --- - --- ----- ----- ----<br>---- --- --- ----- --- ---- ---- ------- ----- ---- -------<br>you --- -- ----- -- --- ---- -- --- ---- -- ------ ------<br>--- ----- -- ----,46232.69999999995,46232.19999999995,45981.708,45992.69999999995,45998.374,46248.658,,39,you
screen,html.Screen,0_2_0_1_40,2022-05-13T10:07:28.381Z,,,,,,,,,,,,,,,,53,,,,,,,,,,,,,,239.54199999995035,,response,,,99,,,,,,Space,keypress(Space),,,,,---- -- ----- -- ------ - ------- --- ----------<br>------------- ------ ------ ---- ---- ------- ----- -- ----<br>-------- ------- -- ---------- --- - --- ----- ----- ----<br>---- --- --- ----- --- ---- ---- ------- ----- ---- -------<br>--- are -- ----- -- --- ---- -- --- ---- -- ------ ------<br>--- ----- -- ----,46488.59999999986,46488.19999999995,46231.983,46232.69999999995,46248.658,46498.504,,40,are
screen,html.Screen,0_2_0_1_41,2022-05-13T10:07:28.629Z,,,,,,,,,,,,,,,,53,,,,,,,,,,,,,,237.69599999995262,,response,,,99,,,,,,Space,keypress(Space),,,,,---- -- ----- -- ------ - ------- --- ----------<br>------------- ------ ------ ---- ---- ------- ----- -- ----<br>-------- ------- -- ---------- --- - --- ----- ----- ----<br>---- --- --- ----- --- ---- ---- ------- ----- ---- -------<br>--- --- as ----- -- --- ---- -- --- ---- -- ------ ------<br>--- ----- -- ----,46736.59999999986,46736.19999999995,46481.838,46488.59999999986,46498.504,46748.716,,41,as
screen,html.Screen,0_2_0_1_42,2022-05-13T10:07:28.845Z,,,,,,,,,,,,,,,,53,,,,,,,,,,,,,,203.48399999995308,,response,,,99,,,,,,Space,keypress(Space),,,,,---- -- ----- -- ------ - ------- --- ----------<br>------------- ------ ------ ---- ---- ------- ----- -- ----<br>-------- ------- -- ---------- --- - --- ----- ----- ----<br>---- --- --- ----- --- ---- ---- ------- ----- ---- -------<br>--- --- -- close -- --- ---- -- --- ---- -- ------ ------<br>--- ----- -- ----,46952.5,46952.19999999995,46732.045,46736.799999999814,46748.716,46965.416,,42,close
screen,html.Screen,0_2_0_1_43,2022-05-13T10:07:29.061Z,,,,,,,,,,,,,,,,53,,,,,,,,,,,,,,202.68399999986286,,response,,,99,,,,,,Space,keypress(Space),,,,,---- -- ----- -- ------ - ------- --- ----------<br>------------- ------ ------ ---- ---- ------- ----- -- ----<br>-------- ------- -- ---------- --- - --- ----- ----- ----<br>---- --- --- ----- --- ---- ---- ------- ----- ---- -------<br>--- --- -- ----- as --- ---- -- --- ---- -- ------ ------<br>--- ----- -- ----,47168.5,47168.09999999986,46948.746,46952.59999999986,46965.416,47182.227,,43,as
screen,html.Screen,0_2_0_1_44,2022-05-13T10:07:29.277Z,,,,,,,,,,,,,,,,53,,,,,,,,,,,,,,202.07299999981478,,response,,,99,,,,,,Space,keypress(Space),,,,,---- -- ----- -- ------ - ------- --- ----------<br>------------- ------ ------ ---- ---- ------- ----- -- ----<br>-------- ------- -- ---------- --- - --- ----- ----- ----<br>---- --- --- ----- --- ---- ---- ------- ----- ---- -------<br>--- --- -- ----- -- you ---- -- --- ---- -- ------ ------<br>--- ----- -- ----,47385,47384.299999999814,47165.553,47168.59999999986,47182.227,47398.802,,44,you
screen,html.Screen,0_2_0_1_45,2022-05-13T10:07:29.517Z,,,,,,,,,,,,,,,,53,,,,,,,,,,,,,,225.39799999995012,,response,,,99,,,,,,Space,keypress(Space),,,,,---- -- ----- -- ------ - ------- --- ----------<br>------------- ------ ------ ---- ---- ------- ----- -- ----<br>-------- ------- -- ---------- --- - --- ----- ----- ----<br>---- --- --- ----- --- ---- ---- ------- ----- ---- -------<br>--- --- -- ----- -- --- want -- --- ---- -- ------ ------<br>--- ----- -- ----,47624.59999999986,47624.19999999995,47382.135,47385.19999999995,47398.802,47632.259,,45,want
screen,html.Screen,0_2_0_1_46,2022-05-13T10:07:29.765Z,,,,,,,,,,,,,,,,53,,,,,,,,,,,,,,239.8409999998621,,response,,,99,,,,,,Space,keypress(Space),,,,,---- -- ----- -- ------ - ------- --- ----------<br>------------- ------ ------ ---- ---- ------- ----- -- ----<br>-------- ------- -- ---------- --- - --- ----- ----- ----<br>---- --- --- ----- --- ---- ---- ------- ----- ---- -------<br>--- --- -- ----- -- --- ---- to --- ---- -- ------ ------<br>--- ----- -- ----,47872.39999999991,47872.09999999986,47615.589,47624.69999999995,47632.259,47882.356,,46,to
screen,html.Screen,0_2_0_1_47,2022-05-13T10:07:29.989Z,,,,,,,,,,,,,,,,53,,,,,,,,,,,,,,213.64400000000023,,response,,,99,,,,,,Space,keypress(Space),,,,,"---- -- ----- -- ------ - ------- --- ----------<br>------------- ------ ------ ---- ---- ------- ----- -- ----<br>-------- ------- -- ---------- --- - --- ----- ----- ----<br>---- --- --- ----- --- ---- ---- ------- ----- ---- -------<br>--- --- -- ----- -- --- ---- -- be, ---- -- ------ ------<br>--- ----- -- ----",48096.5,48096,47865.685,47872.5,47882.356,48099.041,,47,"be,"
screen,html.Screen,0_2_0_1_48,2022-05-13T10:07:30.189Z,,,,,,,,,,,,,,,,53,,,,,,,,,,,,,,197.05899999986286,,response,,,99,,,,,,Space,keypress(Space),,,,,---- -- ----- -- ------ - ------- --- ----------<br>------------- ------ ------ ---- ---- ------- ----- -- ----<br>-------- ------- -- ---------- --- - --- ----- ----- ----<br>---- --- --- ----- --- ---- ---- ------- ----- ---- -------<br>--- --- -- ----- -- --- ---- -- --- even -- ------ ------<br>--- ----- -- ----,48296.39999999991,48296.09999999986,48082.371,48096.59999999986,48099.041,48299.129,,48,even
screen,html.Screen,0_2_0_1_49,2022-05-13T10:07:30.421Z,,,,,,,,,,,,,,,,53,,,,,,,,,,,,,,228.9709999998595,,response,,,99,,,,,,Space,keypress(Space),,,,,---- -- ----- -- ------ - ------- --- ----------<br>------------- ------ ------ ---- ---- ------- ----- -- ----<br>-------- ------- -- ---------- --- - --- ----- ----- ----<br>---- --- --- ----- --- ---- ---- ------- ----- ---- -------<br>--- --- -- ----- -- --- ---- -- --- ---- if ------ ------<br>--- ----- -- ----,48528.5,48528.09999999986,48282.458,48296.39999999991,48299.129,48532.507,,49,if
screen,html.Screen,0_2_0_1_50,2022-05-13T10:07:30.669Z,,,,,,,,,,,,,,,,53,,,,,,,,,,,,,,243.5929999998625,,response,,,99,,,,,,Space,keypress(Space),,,,,---- -- ----- -- ------ - ------- --- ----------<br>------------- ------ ------ ---- ---- ------- ----- -- ----<br>-------- ------- -- ---------- --- - --- ----- ----- ----<br>---- --- --- ----- --- ---- ---- ------- ----- ---- -------<br>--- --- -- ----- -- --- ---- -- --- ---- -- that's ------<br>--- ----- -- ----,48776.5,48776.09999999986,48515.837,48528.5,48532.507,48782.627,,50,that's
screen,html.Screen,0_2_0_1_51,2022-05-13T10:07:30.901Z,,,,,,,,,,,,,,,,53,,,,,,,,,,,,,,225.3729999999996,,response,,,99,,,,,,Space,keypress(Space),,,,,---- -- ----- -- ------ - ------- --- ----------<br>------------- ------ ------ ---- ---- ------- ----- -- ----<br>-------- ------- -- ---------- --- - --- ----- ----- ----<br>---- --- --- ----- --- ---- ---- ------- ----- ---- -------<br>--- --- -- ----- -- --- ---- -- --- ---- -- ------ really<br>--- ----- -- ----,49008.299999999814,49008,48765.955,48776.59999999986,48782.627,49015.922,,51,really
screen,html.Screen,0_2_0_1_52,2022-05-13T10:07:31.141Z,,,,,,,,,,,,,,,,53,,,,,,,,,,,,,,232.17799999986164,,response,,,99,,,,,,Space,keypress(Space),,,,,---- -- ----- -- ------ - ------- --- ----------<br>------------- ------ ------ ---- ---- ------- ----- -- ----<br>-------- ------- -- ---------- --- - --- ----- ----- ----<br>---- --- --- ----- --- ---- ---- ------- ----- ---- -------<br>--- --- -- ----- -- --- ---- -- --- ---- -- ------ ------<br>not ----- -- ----,49248.5,49248.09999999986,48999.253,49008.39999999991,49015.922,49249.378,,52,not
screen,html.Screen,0_2_0_1_53,2022-05-13T10:07:31.389Z,,,,,,,,,,,,,,,,53,,,,,,,,,,,,,,246.62200000000303,,response,,,99,,,,,,Space,keypress(Space),,,,,---- -- ----- -- ------ - ------- --- ----------<br>------------- ------ ------ ---- ---- ------- ----- -- ----<br>-------- ------- -- ---------- --- - --- ----- ----- ----<br>---- --- --- ----- --- ---- ---- ------- ----- ---- -------<br>--- --- -- ----- -- --- ---- -- --- ---- -- ------ ------<br>--- close -- ----,49496.5,49496,49232.707,49248.69999999995,49249.378,49499.425,,53,close
screen,html.Screen,0_2_0_1_54,2022-05-13T10:07:31.645Z,,,,,,,,,,,,,,,,53,,,,,,,,,,,,,,252.6749999998574,,response,,,99,,,,,,Space,keypress(Space),,,,,---- -- ----- -- ------ - ------- --- ----------<br>------------- ------ ------ ---- ---- ------- ----- -- ----<br>-------- ------- -- ---------- --- - --- ----- ----- ----<br>---- --- --- ----- --- ---- ---- ------- ----- ---- -------<br>--- --- -- ----- -- --- ---- -- --- ---- -- ------ ------<br>--- ----- at ----,49752.39999999991,49752.09999999986,49482.755,49496.59999999986,49499.425,49766.162,,54,at
screen,html.Screen,0_2_0_1_55,2022-05-13T10:07:31.893Z,,,,,,,,,,,,,,,,53,,,,,,,,,,,,,,233.93799999986368,,response,,,99,,,,,,Space,keypress(Space),,,,,---- -- ----- -- ------ - ------- --- ----------<br>------------- ------ ------ ---- ---- ------- ----- -- ----<br>-------- ------- -- ---------- --- - --- ----- ----- ----<br>---- --- --- ----- --- ---- ---- ------- ----- ---- -------<br>--- --- -- ----- -- --- ---- -- --- ---- -- ------ ------<br>--- ----- -- all.,50000.39999999991,50000.09999999986,49749.492,49752.59999999986,49766.162,50016.227,,55,all.
Item 99,flow.Loop,0_2_0_1,2022-05-13T10:07:31.894Z,,,,,,,,,,,,,,,,,,,,,,,,,,,,,,14554.524999999863,,completion,,,,E,,,,,,,,,,silence,,50001.69999999995,50000.09999999986,35412.235,35416.799999999814,35445.575,50016.227,,,
Question 1,html.Screen,0_2_0_2,2022-05-13T10:07:35.385Z,,,,,,,,,,,,,,,,,,,,,,,,,,,true,FALSE,,3476.172999999908,,response,,,99,E,,,,,FALSE,click #choice-2,,,,silence,,53493,53492.39999999991,49999.557,50001.799999999814,50016.227,53500.484,,,
Question 2,html.Screen,0_2_0_3,2022-05-13T10:07:39.120Z,,,,,,,,,,,,,,,,,,,,,,,,,,,true,TRUE,,3725.91599999991,,response,,,99,E,,,,,TRUE,click #choice-1,,,,silence,,57227.5,57226.39999999991,53483.814,53493.09999999986,53500.484,57234.848,,,
Item 99,flow.Sequence,0_2_0,2022-05-13T10:07:39.120Z,,,,,,,,,,,,,,,,,,,,,,,,,,,,,,31800.061999999907,,completion,,,,,,,,,,,,,,,,57227.89999999991,57226.39999999991,25409.668,25414.199999999953,25426.338,57234.848,,,
Holding screen,html.Screen,0_2_1_0,2022-05-13T10:07:49.116Z,,,,,,,,,,,,,,,,,,,,,,,,,,,,,,10002.582999999999,,timeout,,,,,,,,,,,,,,,,67221.19999999995,67220.761,57218.177,57228.299999999814,57234.848,67237.431,,,
screen,html.Screen,0_2_1_1_0,2022-05-13T10:07:49.902Z,,,,,,,,,,,,,,,,54,,,,,,,,,,,,,,769.8689999998169,,response,,,100,,,,,,Space,keypress(Space),,,,,At --- ---- --- ------ ----- ------- ---- -- --- ------- --<br>------- ---------- ------ -- ----- -- ----- -- ---- ------<br>--- ----- --- --- ------ -------- ----- --- ------ ----- --<br>----- ----- ---------- --- --- ------ ------ ---- -- ------<br>------- --- ------ ----- --- ---- ------- -- ---- --- --<br>------- ------,68007.59999999986,68007.29999999981,67220.761,67221.3999999999,67237.431,68020.995,,0,At
screen,html.Screen,0_2_1_1_1,2022-05-13T10:07:50.078Z,,,,,,,,,,,,,,,,54,,,,,,,,,,,,,,162.10499999986496,,response,,,100,,,,,,Space,keypress(Space),,,,,-- the ---- --- ------ ----- ------- ---- -- --- ------- --<br>------- ---------- ------ -- ----- -- ----- -- ---- ------<br>--- ----- --- --- ------ -------- ----- --- ------ ----- --<br>----- ----- ---------- --- --- ------ ------ ---- -- ------<br>------- --- ------ ----- --- ---- ------- -- ---- --- --<br>------- ------,68183.59999999986,68183.09999999986,68004.325,68007.69999999995,68020.995,68187.722,,1,the
screen,html.Screen,0_2_1_1_2,2022-05-13T10:07:50.287Z,,,,,,,,,,,,,,,,54,,,,,,,,,,,,,,203.7780000000057,,response,,,100,,,,,,Space,keypress(Space),,,,,-- --- time --- ------ ----- ------- ---- -- --- ------- --<br>------- ---------- ------ -- ----- -- ----- -- ---- ------<br>--- ----- --- --- ------ -------- ----- --- ------ ----- --<br>----- ----- ---------- --- --- ------ ------ ---- -- ------<br>------- --- ------ ----- --- ---- ------- -- ---- --- --<br>------- ------,68392.29999999981,68391.5,68171.052,68183.79999999981,68187.722,68404.448,,2,time
screen,html.Screen,0_2_1_1_3,2022-05-13T10:07:50.487Z,,,,,,,,,,,,,,,,54,,,,,,,,,,,,,,186.85199999980978,,response,,,100,,,,,,Space,keypress(Space),,,,,-- --- ---- the ------ ----- ------- ---- -- --- ------- --<br>------- ---------- ------ -- ----- -- ----- -- ---- ------<br>--- ----- --- --- ------ -------- ----- --- ------ ----- --<br>----- ----- ---------- --- --- ------ ------ ---- -- ------<br>------- --- ------ ----- --- ---- ------- -- ---- --- --<br>------- ------,68592.19999999995,68591.29999999981,68387.778,68392.59999999986,68404.448,68604.664,,3,the
screen,html.Screen,0_2_1_1_4,2022-05-13T10:07:50.695Z,,,,,,,,,,,,,,,,54,,,,,,,,,,,,,,194.8359999999957,,response,,,100,,,,,,Space,keypress(Space),,,,,-- --- ---- --- French ----- ------- ---- -- --- ------- --<br>------- ---------- ------ -- ----- -- ----- -- ---- ------<br>--- ----- --- --- ------ -------- ----- --- ------ ----- --<br>----- ----- ---------- --- --- ------ ------ ---- -- ------<br>------- --- ------ ----- --- ---- ------- -- ---- --- --<br>------- ------,68800.29999999981,68799.5,68587.989,68592.59999999986,68604.664,68804.645,,4,French
screen,html.Screen,0_2_1_1_5,2022-05-13T10:07:50.903Z,,,,,,,,,,,,,,,,54,,,,,,,,,,,,,,202.85499999999593,,response,,,100,,,,,,Space,keypress(Space),,,,,-- --- ---- --- ------ crown ------- ---- -- --- ------- --<br>------- ---------- ------ -- ----- -- ----- -- ---- ------<br>--- ----- --- --- ------ -------- ----- --- ------ ----- --<br>----- ----- ---------- --- --- ------ ------ ---- -- ------<br>------- --- ------ ----- --- ---- ------- -- ---- --- --<br>------- ------,69008.3999999999,69007.5,68787.974,68800.5,68804.645,69021.226,,5,crown
screen,html.Screen,0_2_1_1_6,2022-05-13T10:07:51.111Z,,,,,,,,,,,,,,,,54,,,,,,,,,,,,,,194.2740000000049,,response,,,100,,,,,,Space,keypress(Space),,,,,-- --- ---- --- ------ ----- secured ---- -- --- ------- --<br>------- ---------- ------ -- ----- -- ----- -- ---- ------<br>--- ----- --- --- ------ -------- ----- --- ------ ----- --<br>----- ----- ---------- --- --- ------ ------ ---- -- ------<br>------- --- ------ ----- --- ---- ------- -- ---- --- --<br>------- ------,69216.29999999981,69215.5,69004.559,69008.69999999995,69021.226,69221.443,,6,secured
screen,html.Screen,0_2_1_1_7,2022-05-13T10:07:51.327Z,,,,,,,,,,,,,,,,54,,,,,,,,,,,,,,210.0570000000007,,response,,,100,,,,,,Space,keypress(Space),,,,,-- --- ---- --- ------ ----- ------- much -- --- ------- --<br>------- ---------- ------ -- ----- -- ----- -- ---- ------<br>--- ----- --- --- ------ -------- ----- --- ------ ----- --<br>----- ----- ---------- --- --- ------ ------ ---- -- ------<br>------- --- ------ ----- --- ---- ------- -- ---- --- --<br>------- ------,69432.29999999981,69431.5,69204.77,69216.59999999986,69221.443,69437.988,,7,much
screen,html.Screen,0_2_1_1_8,2022-05-13T10:07:51.535Z,,,,,,,,,,,,,,,,54,,,,,,,,,,,,,,201.51200000000244,,response,,,100,,,,,,Space,keypress(Space),,,,,-- --- ---- --- ------ ----- ------- ---- of --- ------- --<br>------- ---------- ------ -- ----- -- ----- -- ---- ------<br>--- ----- --- --- ------ -------- ----- --- ------ ----- --<br>----- ----- ---------- --- --- ------ ------ ---- -- ------<br>------- --- ------ ----- --- ---- ------- -- ---- --- --<br>------- ------,69640,69639.5,69421.321,69433.79999999981,69437.988,69654.818,,8,of
screen,html.Screen,0_2_1_1_9,2022-05-13T10:07:51.775Z,,,,,,,,,,,,,,,,54,,,,,,,,,,,,,,224.58199999990757,,response,,,100,,,,,,Space,keypress(Space),,,,,-- --- ---- --- ------ ----- ------- ---- -- its ------- --<br>------- ---------- ------ -- ----- -- ----- -- ---- ------<br>--- ----- --- --- ------ -------- ----- --- ------ ----- --<br>----- ----- ---------- --- --- ------ ------ ---- -- ------<br>------- --- ------ ----- --- ---- ------- -- ---- --- --<br>------- ------,69880.5,69879.3999999999,69638.147,69640.29999999981,69654.818,69888.213,,9,its
screen,html.Screen,0_2_1_1_10,2022-05-13T10:07:51.991Z,,,,,,,,,,,,,,,,54,,,,,,,,,,,,,,207.1869999999035,,response,,,100,,,,,,Space,keypress(Space),,,,,-- --- ---- --- ------ ----- ------- ---- -- --- revenue --<br>------- ---------- ------ -- ----- -- ----- -- ---- ------<br>--- ----- --- --- ------ -------- ----- --- ------ ----- --<br>----- ----- ---------- --- --- ------ ------ ---- -- ------<br>------- --- ------ ----- --- ---- ------- -- ---- --- --<br>------- ------,70096.29999999981,70095.3999999999,69871.542,69880.69999999995,69888.213,70104.975,,10,revenue
screen,html.Screen,0_2_1_1_11,2022-05-13T10:07:52.207Z,,,,,,,,,,,,,,,,54,,,,,,,,,,,,,,206.42499999990105,,response,,,100,,,,,,Space,keypress(Space),,,,,-- --- ---- --- ------ ----- ------- ---- -- --- ------- by<br>------- ---------- ------ -- ----- -- ----- -- ---- ------<br>--- ----- --- --- ------ -------- ----- --- ------ ----- --<br>----- ----- ---------- --- --- ------ ------ ---- -- ------<br>------- --- ------ ----- --- ---- ------- -- ---- --- --<br>------- ------,70312.09999999986,70311.3999999999,70088.303,70096.5,70104.975,70321.724,,11,by
screen,html.Screen,0_2_1_1_12,2022-05-13T10:07:52.439Z,,,,,,,,,,,,,,,,54,,,,,,,,,,,,,,221.6759999999049,,response,,,100,,,,,,Space,keypress(Space),,,,,-- --- ---- --- ------ ----- ------- ---- -- --- ------- --<br>issuing ---------- ------ -- ----- -- ----- -- ---- ------<br>--- ----- --- --- ------ -------- ----- --- ------ ----- --<br>----- ----- ---------- --- --- ------ ------ ---- -- ------<br>------- --- ------ ----- --- ---- ------- -- ---- --- --<br>------- ------,70544.29999999981,70543.3999999999,70305.052,70312.29999999981,70321.724,70555.119,,12,issuing
screen,html.Screen,0_2_1_1_13,2022-05-13T10:07:52.663Z,,,,,,,,,,,,,,,,54,,,,,,,,,,,,,,212.2809999999008,,response,,,100,,,,,,Space,keypress(Space),,,,,-- --- ---- --- ------ ----- ------- ---- -- --- ------- --<br>------- government ------ -- ----- -- ----- -- ---- ------<br>--- ----- --- --- ------ -------- ----- --- ------ ----- --<br>----- ----- ---------- --- --- ------ ------ ---- -- ------<br>------- --- ------ ----- --- ---- ------- -- ---- --- --<br>------- ------,70768.29999999981,70767.3999999999,70538.448,70544.5,70555.119,70771.841,,13,government
screen,html.Screen,0_2_1_1_14,2022-05-13T10:07:52.903Z,,,,,,,,,,,,,,,,54,,,,,,,,,,,,,,235.55899999990652,,response,,,100,,,,,,Space,keypress(Space),,,,,-- --- ---- --- ------ ----- ------- ---- -- --- ------- --<br>------- ---------- bonds. -- ----- -- ----- -- ---- ------<br>--- ----- --- --- ------ -------- ----- --- ------ ----- --<br>----- ----- ---------- --- --- ------ ------ ---- -- ------<br>------- --- ------ ----- --- ---- ------- -- ---- --- --<br>------- ------,71008.19999999995,71007.3999999999,70755.17,70768.59999999986,70771.841,71021.865,,14,bonds.
screen,html.Screen,0_2_1_1_15,2022-05-13T10:07:53.119Z,,,,,,,,,,,,,,,,54,,,,,,,,,,,,,,201.53499999990163,,response,,,100,,,,,,Space,keypress(Space),,,,,-- --- ---- --- ------ ----- ------- ---- -- --- ------- --<br>------- ---------- ------ In ----- -- ----- -- ---- ------<br>--- ----- --- --- ------ -------- ----- --- ------ ----- --<br>----- ----- ---------- --- --- ------ ------ ---- -- ------<br>------- --- ------ ----- --- ---- ------- -- ---- --- --<br>------- ------,71224.19999999995,71223.3999999999,71005.195,71008.3999999999,71021.865,71255.272,,15,In
screen,html.Screen,0_2_1_1_16,2022-05-13T10:07:53.351Z,,,,,,,,,,,,,,,,54,,,,,,,,,,,,,,200.12799999990966,,response,,,100,,,,,,Space,keypress(Space),,,,,"-- --- ---- --- ------ ----- ------- ---- -- --- ------- --<br>------- ---------- ------ -- 1727, -- ----- -- ---- ------<br>--- ----- --- --- ------ -------- ----- --- ------ ----- --<br>----- ----- ---------- --- --- ------ ------ ---- -- ------<br>------- --- ------ ----- --- ---- ------- -- ---- --- --<br>------- ------",71456.19999999995,71455.3999999999,71221.932,71224.5,71255.272,71472.017,,16,"1727,"
screen,html.Screen,0_2_1_1_17,2022-05-13T10:07:53.567Z,,,,,,,,,,,,,,,,54,,,,,,,,,,,,,,199.28299999980663,,response,,,100,,,,,,Space,keypress(Space),,,,,-- --- ---- --- ------ ----- ------- ---- -- --- ------- --<br>------- ---------- ------ -- ----- in ----- -- ---- ------<br>--- ----- --- --- ------ -------- ----- --- ------ ----- --<br>----- ----- ---------- --- --- ------ ------ ---- -- ------<br>------- --- ------ ----- --- ---- ------- -- ---- --- --<br>------- ------,71671.79999999981,71671.29999999981,71455.346,71456.5,71472.017,71688.725,,17,in
screen,html.Screen,0_2_1_1_18,2022-05-13T10:07:53.791Z,,,,,,,,,,,,,,,,54,,,,,,,,,,,,,,206.67499999990105,,response,,,100,,,,,,Space,keypress(Space),,,,,-- --- ---- --- ------ ----- ------- ---- -- --- ------- --<br>------- ---------- ------ -- ----- -- order -- ---- ------<br>--- ----- --- --- ------ -------- ----- --- ------ ----- --<br>----- ----- ---------- --- --- ------ ------ ---- -- ------<br>------- --- ------ ----- --- ---- ------- -- ---- --- --<br>------- ------,71896.29999999981,71895.3999999999,71672.055,71672,71688.725,71905.318,,18,order
screen,html.Screen,0_2_1_1_19,2022-05-13T10:07:54.023Z,,,,,,,,,,,,,,,,54,,,,,,,,,,,,,,221.98199999981443,,response,,,100,,,,,,Space,keypress(Space),,,,,-- --- ---- --- ------ ----- ------- ---- -- --- ------- --<br>------- ---------- ------ -- ----- -- ----- to ---- ------<br>--- ----- --- --- ------ -------- ----- --- ------ ----- --<br>----- ----- ---------- --- --- ------ ------ ---- -- ------<br>------- --- ------ ----- --- ---- ------- -- ---- --- --<br>------- ------,72128.19999999995,72127.29999999981,71888.651,71896.5,71905.318,72138.937,,19,to
screen,html.Screen,0_2_1_1_20,2022-05-13T10:07:54.246Z,,,,,,,,,,,,,,,,54,,,,,,,,,,,,,,212.16299999985495,,response,,,100,,,,,,Space,keypress(Space),,,,,-- --- ---- --- ------ ----- ------- ---- -- --- ------- --<br>------- ---------- ------ -- ----- -- ----- -- save ------<br>--- ----- --- --- ------ -------- ----- --- ------ ----- --<br>----- ----- ---------- --- --- ------ ------ ---- -- ------<br>------- --- ------ ----- --- ---- ------- -- ---- --- --<br>------- ------,72351.5,72351.09999999986,72122.263,72128.5,72138.937,72355.431,,20,save
screen,html.Screen,0_2_1_1_21,2022-05-13T10:07:54.486Z,,,,,,,,,,,,,,,,54,,,,,,,,,,,,,,235.66899999986344,,response,,,100,,,,,,Space,keypress(Space),,,,,"-- --- ---- --- ------ ----- ------- ---- -- --- ------- --<br>------- ---------- ------ -- ----- -- ----- -- ---- money,<br>--- ----- --- --- ------ -------- ----- --- ------ ----- --<br>----- ----- ---------- --- --- ------ ------ ---- -- ------<br>------- --- ------ ----- --- ---- ------- -- ---- --- --<br>------- ------",72591.69999999995,72591.09999999986,72338.764,72351.59999999986,72355.431,72605.691,,21,"money,"
screen,html.Screen,0_2_1_1_22,2022-05-13T10:07:54.711Z,,,,,,,,,,,,,,,,54,,,,,,,,,,,,,,209.60899999980757,,response,,,100,,,,,,Space,keypress(Space),,,,,-- --- ---- --- ------ ----- ------- ---- -- --- ------- --<br>------- ---------- ------ -- ----- -- ----- -- ---- ------<br>the ----- --- --- ------ -------- ----- --- ------ ----- --<br>----- ----- ---------- --- --- ------ ------ ---- -- ------<br>------- --- ------ ----- --- ---- ------- -- ---- --- --<br>------- ------,72816.19999999995,72815.29999999981,72589.018,72591.8999999999,72605.691,72822.359,,22,the
screen,html.Screen,0_2_1_1_23,2022-05-13T10:07:54.951Z,,,,,,,,,,,,,,,,54,,,,,,,,,,,,,,232.940999999817,,response,,,100,,,,,,Space,keypress(Space),,,,,-- --- ---- --- ------ ----- ------- ---- -- --- ------- --<br>------- ---------- ------ -- ----- -- ----- -- ---- ------<br>--- state --- --- ------ -------- ----- --- ------ ----- --<br>----- ----- ---------- --- --- ------ ------ ---- -- ------<br>------- --- ------ ----- --- ---- ------- -- ---- --- --<br>------- ------,73056.09999999986,73055.29999999981,72805.687,72816.5,72822.359,73072.251,,23,state
screen,html.Screen,0_2_1_1_24,2022-05-13T10:07:55.183Z,,,,,,,,,,,,,,,,54,,,,,,,,,,,,,,214.9489999999496,,response,,,100,,,,,,Space,keypress(Space),,,,,-- --- ---- --- ------ ----- ------- ---- -- --- ------- --<br>------- ---------- ------ -- ----- -- ----- -- ---- ------<br>--- ----- cut --- ------ -------- ----- --- ------ ----- --<br>----- ----- ---------- --- --- ------ ------ ---- -- ------<br>------- --- ------ ----- --- ---- ------- -- ---- --- --<br>------- ------,73288.09999999986,73287.19999999995,73055.585,73056.3999999999,73072.251,73289.106,,24,cut
screen,html.Screen,0_2_1_1_25,2022-05-13T10:07:55.423Z,,,,,,,,,,,,,,,,54,,,,,,,,,,,,,,237.99399999986053,,response,,,100,,,,,,Space,keypress(Space),,,,,-- --- ---- --- ------ ----- ------- ---- -- --- ------- --<br>------- ---------- ------ -- ----- -- ----- -- ---- ------<br>--- ----- --- the ------ -------- ----- --- ------ ----- --<br>----- ----- ---------- --- --- ------ ------ ---- -- ------<br>------- --- ------ ----- --- ---- ------- -- ---- --- --<br>------- ------,73527.79999999981,73527.09999999986,73272.435,73288.3999999999,73289.106,73539.153,,25,the
screen,html.Screen,0_2_1_1_26,2022-05-13T10:07:55.647Z,,,,,,,,,,,,,,,,54,,,,,,,,,,,,,,211.9469999998546,,response,,,100,,,,,,Space,keypress(Space),,,,,-- --- ---- --- ------ ----- ------- ---- -- --- ------- --<br>------- ---------- ------ -- ----- -- ----- -- ---- ------<br>--- ----- --- --- bonds' -------- ----- --- ------ ----- --<br>----- ----- ---------- --- --- ------ ------ ---- -- ------<br>------- --- ------ ----- --- ---- ------- -- ---- --- --<br>------- ------,73752,73751.09999999986,73522.483,73528,73539.153,73755.873,,26,bonds'
screen,html.Screen,0_2_1_1_27,2022-05-13T10:07:55.879Z,,,,,,,,,,,,,,,,54,,,,,,,,,,,,,,227.42699999980687,,response,,,100,,,,,,Space,keypress(Space),,,,,-- --- ---- --- ------ ----- ------- ---- -- --- ------- --<br>------- ---------- ------ -- ----- -- ----- -- ---- ------<br>--- ----- --- --- ------ interest ----- --- ------ ----- --<br>----- ----- ---------- --- --- ------ ------ ---- -- ------<br>------- --- ------ ----- --- ---- ------- -- ---- --- --<br>------- ------,73984.09999999986,73983.29999999981,73739.203,73752.29999999981,73755.873,73989.408,,27,interest
screen,html.Screen,0_2_1_1_28,2022-05-13T10:07:56.103Z,,,,,,,,,,,,,,,,54,,,,,,,,,,,,,,217.79199999995762,,response,,,100,,,,,,Space,keypress(Space),,,,,-- --- ---- --- ------ ----- ------- ---- -- --- ------- --<br>------- ---------- ------ -- ----- -- ----- -- ---- ------<br>--- ----- --- --- ------ -------- rate. --- ------ ----- --<br>----- ----- ---------- --- --- ------ ------ ---- -- ------<br>------- --- ------ ----- --- ---- ------- -- ---- --- --<br>------- ------,74208.19999999995,74207.19999999995,73972.734,73984.3999999999,73989.408,74222.595,,28,rate.
screen,html.Screen,0_2_1_1_29,2022-05-13T10:07:56.351Z,,,,,,,,,,,,,,,,54,,,,,,,,,,,,,,232.60499999995227,,response,,,100,,,,,,Space,keypress(Space),,,,,-- --- ---- --- ------ ----- ------- ---- -- --- ------- --<br>------- ---------- ------ -- ----- -- ----- -- ---- ------<br>--- ----- --- --- ------ -------- ----- The ------ ----- --<br>----- ----- ---------- --- --- ------ ------ ---- -- ------<br>------- --- ------ ----- --- ---- ------- -- ---- --- --<br>------- ------,74456.19999999995,74455.19999999995,74205.928,74208.5,74222.595,74472.741,,29,The
screen,html.Screen,0_2_1_1_30,2022-05-13T10:07:56.583Z,,,,,,,,,,,,,,,,54,,,,,,,,,,,,,,214.35899999986577,,response,,,100,,,,,,Space,keypress(Space),,,,,-- --- ---- --- ------ ----- ------- ---- -- --- ------- --<br>------- ---------- ------ -- ----- -- ----- -- ---- ------<br>--- ----- --- --- ------ -------- ----- --- market ----- --<br>----- ----- ---------- --- --- ------ ------ ---- -- ------<br>------- --- ------ ----- --- ---- ------- -- ---- --- --<br>------- ------,74687.79999999981,74687.09999999986,74456.071,74456.3999999999,74472.741,74689.488,,30,market
screen,html.Screen,0_2_1_1_31,2022-05-13T10:07:56.823Z,,,,,,,,,,,,,,,,54,,,,,,,,,,,,,,237.71199999995588,,response,,,100,,,,,,Space,keypress(Space),,,,,-- --- ---- --- ------ ----- ------- ---- -- --- ------- --<br>------- ---------- ------ -- ----- -- ----- -- ---- ------<br>--- ----- --- --- ------ -------- ----- --- ------ value --<br>----- ----- ---------- --- --- ------ ------ ---- -- ------<br>------- --- ------ ----- --- ---- ------- -- ---- --- --<br>------- ------,74927.8999999999,74927.19999999995,74672.817,74688.09999999986,74689.488,74939.514,,31,value
screen,html.Screen,0_2_1_1_32,2022-05-13T10:07:57.063Z,,,,,,,,,,,,,,,,54,,,,,,,,,,,,,,227.58599999986473,,response,,,100,,,,,,Space,keypress(Space),,,,,-- --- ---- --- ------ ----- ------- ---- -- --- ------- --<br>------- ---------- ------ -- ----- -- ----- -- ---- ------<br>--- ----- --- --- ------ -------- ----- --- ------ ----- of<br>----- ----- ---------- --- --- ------ ------ ---- -- ------<br>------- --- ------ ----- --- ---- ------- -- ---- --- --<br>------- ------,75167.79999999981,75167.09999999986,74922.844,74928.09999999986,74939.514,75173.107,,32,of
screen,html.Screen,0_2_1_1_33,2022-05-13T10:07:57.303Z,,,,,,,,,,,,,,,,54,,,,,,,,,,,,,,234.09299999994982,,response,,,100,,,,,,Space,keypress(Space),,,,,-- --- ---- --- ------ ----- ------- ---- -- --- ------- --<br>------- ---------- ------ -- ----- -- ----- -- ---- ------<br>--- ----- --- --- ------ -------- ----- --- ------ ----- --<br>these ----- ---------- --- --- ------ ------ ---- -- ------<br>------- --- ------ ----- --- ---- ------- -- ---- --- --<br>------- ------,75407.8999999999,75407.19999999995,75156.432,75168,75173.107,75423.041,,33,these
screen,html.Screen,0_2_1_1_34,2022-05-13T10:07:57.535Z,,,,,,,,,,,,,,,,54,,,,,,,,,,,,,,216.05899999986286,,response,,,100,,,,,,Space,keypress(Space),,,,,-- --- ---- --- ------ ----- ------- ---- -- --- ------- --<br>------- ---------- ------ -- ----- -- ----- -- ---- ------<br>--- ----- --- --- ------ -------- ----- --- ------ ----- --<br>----- bonds ---------- --- --- ------ ------ ---- -- ------<br>------- --- ------ ----- --- ---- ------- -- ---- --- --<br>------- ------,75639.8999999999,75639.09999999986,75406.371,75408.19999999995,75423.041,75656.47,,34,bonds
screen,html.Screen,0_2_1_1_35,2022-05-13T10:07:57.766Z,,,,,,,,,,,,,,,,54,,,,,,,,,,,,,,214.32999999981257,,response,,,100,,,,,,Space,keypress(Space),,,,,"-- --- ---- --- ------ ----- ------- ---- -- --- ------- --<br>------- ---------- ------ -- ----- -- ----- -- ---- ------<br>--- ----- --- --- ------ -------- ----- --- ------ ----- --<br>----- ----- plummeted, --- --- ------ ------ ---- -- ------<br>------- --- ------ ----- --- ---- ------- -- ---- --- --<br>------- ------",75871.19999999995,75870.79999999981,75639.799,75640.19999999995,75656.47,75873.155,,35,"plummeted,"
screen,html.Screen,0_2_1_1_36,2022-05-13T10:07:57.982Z,,,,,,,,,,,,,,,,54,,,,,,,,,,,,,,213.74499999990803,,response,,,100,,,,,,Space,keypress(Space),,,,,-- --- ---- --- ------ ----- ------- ---- -- --- ------- --<br>------- ---------- ------ -- ----- -- ----- -- ---- ------<br>--- ----- --- --- ------ -------- ----- --- ------ ----- --<br>----- ----- ---------- and --- ------ ------ ---- -- ------<br>------- --- ------ ----- --- ---- ------- -- ---- --- --<br>------- ------,76087.3999999999,76086.8999999999,75856.485,75871.29999999981,75873.155,76089.73,,36,and
screen,html.Screen,0_2_1_1_37,2022-05-13T10:07:58.222Z,,,,,,,,,,,,,,,,54,,,,,,,,,,,,,,237.16999999991094,,response,,,100,,,,,,Space,keypress(Space),,,,,-- --- ---- --- ------ ----- ------- ---- -- --- ------- --<br>------- ---------- ------ -- ----- -- ----- -- ---- ------<br>--- ----- --- --- ------ -------- ----- --- ------ ----- --<br>----- ----- ---------- --- the ------ ------ ---- -- ------<br>------- --- ------ ----- --- ---- ------- -- ---- --- --<br>------- ------,76327.29999999981,76326.8999999999,76073.064,76087.5,76089.73,76339.926,,37,the
screen,html.Screen,0_2_1_1_38,2022-05-13T10:07:58.478Z,,,,,,,,,,,,,,,,54,,,,,,,,,,,,,,242.87399999980698,,response,,,100,,,,,,Space,keypress(Space),,,,,-- --- ---- --- ------ ----- ------- ---- -- --- ------- --<br>------- ---------- ------ -- ----- -- ----- -- ---- ------<br>--- ----- --- --- ------ -------- ----- --- ------ ----- --<br>----- ----- ---------- --- --- market ------ ---- -- ------<br>------- --- ------ ----- --- ---- ------- -- ---- --- --<br>------- ------,76583.19999999995,76582.79999999981,76323.255,76327.3999999999,76339.926,76589.955,,38,market
screen,html.Screen,0_2_1_1_39,2022-05-13T10:07:58.686Z,,,,,,,,,,,,,,,,54,,,,,,,,,,,,,,201.14499999985856,,response,,,100,,,,,,Space,keypress(Space),,,,,-- --- ---- --- ------ ----- ------- ---- -- --- ------- --<br>------- ---------- ------ -- ----- -- ----- -- ---- ------<br>--- ----- --- --- ------ -------- ----- --- ------ ----- --<br>----- ----- ---------- --- --- ------ became ---- -- ------<br>------- --- ------ ----- --- ---- ------- -- ---- --- --<br>------- ------,76791.69999999995,76791.09999999986,76573.285,76583.29999999981,76589.955,76806.796,,39,became
screen,html.Screen,0_2_1_1_40,2022-05-13T10:07:58.911Z,,,,,,,,,,,,,,,,54,,,,,,,,,,,,,,208.3039999998582,,response,,,100,,,,,,Space,keypress(Space),,,,,-- --- ---- --- ------ ----- ------- ---- -- --- ------- --<br>------- ---------- ------ -- ----- -- ----- -- ---- ------<br>--- ----- --- --- ------ -------- ----- --- ------ ----- --<br>----- ----- ---------- --- --- ------ ------ wary -- ------<br>------- --- ------ ----- --- ---- ------- -- ---- --- --<br>------- ------,77016,77015.09999999986,76790.121,76791.8999999999,76806.796,77023.316,,40,wary
screen,html.Screen,0_2_1_1_41,2022-05-13T10:07:59.143Z,,,,,,,,,,,,,,,,54,,,,,,,,,,,,,,223.78399999985413,,response,,,100,,,,,,Space,keypress(Space),,,,,-- --- ---- --- ------ ----- ------- ---- -- --- ------- --<br>------- ---------- ------ -- ----- -- ----- -- ---- ------<br>--- ----- --- --- ------ -------- ----- --- ------ ----- --<br>----- ----- ---------- --- --- ------ ------ ---- of ------<br>------- --- ------ ----- --- ---- ------- -- ---- --- --<br>------- ------,77247.8999999999,77247.09999999986,77006.65,77016.19999999995,77023.316,77256.838,,41,of
screen,html.Screen,0_2_1_1_42,2022-05-13T10:07:59.375Z,,,,,,,,,,,,,,,,54,,,,,,,,,,,,,,222.16199999999662,,response,,,100,,,,,,Space,keypress(Space),,,,,-- --- ---- --- ------ ----- ------- ---- -- --- ------- --<br>------- ---------- ------ -- ----- -- ----- -- ---- ------<br>--- ----- --- --- ------ -------- ----- --- ------ ----- --<br>----- ----- ---------- --- --- ------ ------ ---- -- French<br>------- --- ------ ----- --- ---- ------- -- ---- --- --<br>------- ------,77480,77479,77240.167,77248.19999999995,77256.838,77490.166,,42,French
screen,html.Screen,0_2_1_1_43,2022-05-13T10:07:59.598Z,,,,,,,,,,,,,,,,54,,,,,,,,,,,,,,212.83400000000256,,response,,,100,,,,,,Space,keypress(Space),,,,,-- --- ---- --- ------ ----- ------- ---- -- --- ------- --<br>------- ---------- ------ -- ----- -- ----- -- ---- ------<br>--- ----- --- --- ------ -------- ----- --- ------ ----- --<br>----- ----- ---------- --- --- ------ ------ ---- -- ------<br>credit. --- ------ ----- --- ---- ------- -- ---- --- --<br>------- ------,77703.59999999986,77703,77473.497,77480.29999999981,77490.166,77706.931,,43,credit.
screen,html.Screen,0_2_1_1_44,2022-05-13T10:07:59.838Z,,,,,,,,,,,,,,,,54,,,,,,,,,,,,,,235.86899999981688,,response,,,100,,,,,,Space,keypress(Space),,,,,-- --- ---- --- ------ ----- ------- ---- -- --- ------- --<br>------- ---------- ------ -- ----- -- ----- -- ---- ------<br>--- ----- --- --- ------ -------- ----- --- ------ ----- --<br>----- ----- ---------- --- --- ------ ------ ---- -- ------<br>------- The ------ ----- --- ---- ------- -- ---- --- --<br>------- ------,77943.29999999981,77942.79999999981,77690.261,77703.79999999981,77706.931,77957.028,,44,The
screen,html.Screen,0_2_1_1_45,2022-05-13T10:08:00.070Z,,,,,,,,,,,,,,,,54,,,,,,,,,,,,,,217.77199999980803,,response,,,100,,,,,,Space,keypress(Space),,,,,-- --- ---- --- ------ ----- ------- ---- -- --- ------- --<br>------- ---------- ------ -- ----- -- ----- -- ---- ------<br>--- ----- --- --- ------ -------- ----- --- ------ ----- --<br>----- ----- ---------- --- --- ------ ------ ---- -- ------<br>------- --- French ----- --- ---- ------- -- ---- --- --<br>------- ------,78175.5,78174.79999999981,77940.357,77943.29999999981,77957.028,78190.386,,45,French
screen,html.Screen,0_2_1_1_46,2022-05-13T10:08:00.302Z,,,,,,,,,,,,,,,,54,,,,,,,,,,,,,,216.2139999998617,,response,,,100,,,,,,Space,keypress(Space),,,,,-- --- ---- --- ------ ----- ------- ---- -- --- ------- --<br>------- ---------- ------ -- ----- -- ----- -- ---- ------<br>--- ----- --- --- ------ -------- ----- --- ------ ----- --<br>----- ----- ---------- --- --- ------ ------ ---- -- ------<br>------- --- ------ state --- ---- ------- -- ---- --- --<br>------- ------,78407,78406.59999999986,78173.716,78175.59999999986,78190.386,78423.764,,46,state
screen,html.Screen,0_2_1_1_47,2022-05-13T10:08:00.527Z,,,,,,,,,,,,,,,,54,,,,,,,,,,,,,,207.33599999986473,,response,,,100,,,,,,Space,keypress(Space),,,,,-- --- ---- --- ------ ----- ------- ---- -- --- ------- --<br>------- ---------- ------ -- ----- -- ----- -- ---- ------<br>--- ----- --- --- ------ -------- ----- --- ------ ----- --<br>----- ----- ---------- --- --- ------ ------ ---- -- ------<br>------- --- ------ ----- was ---- ------- -- ---- --- --<br>------- ------,78631.79999999981,78631.09999999986,78407.094,78407,78423.764,78640.531,,47,was
screen,html.Screen,0_2_1_1_48,2022-05-13T10:08:00.726Z,,,,,,,,,,,,,,,,54,,,,,,,,,,,,,,190.46899999999732,,response,,,100,,,,,,Space,keypress(Space),,,,,-- --- ---- --- ------ ----- ------- ---- -- --- ------- --<br>------- ---------- ------ -- ----- -- ----- -- ---- ------<br>--- ----- --- --- ------ -------- ----- --- ------ ----- --<br>----- ----- ---------- --- --- ------ ------ ---- -- ------<br>------- --- ------ ----- --- left ------- -- ---- --- --<br>------- ------,78831.5,78831,78623.86,78632.09999999986,78640.531,78840.552,,48,left
screen,html.Screen,0_2_1_1_49,2022-05-13T10:08:00.927Z,,,,,,,,,,,,,,,,54,,,,,,,,,,,,,,190.44800000000396,,response,,,100,,,,,,Space,keypress(Space),,,,,-- --- ---- --- ------ ----- ------- ---- -- --- ------- --<br>------- ---------- ------ -- ----- -- ----- -- ---- ------<br>--- ----- --- --- ------ -------- ----- --- ------ ----- --<br>----- ----- ---------- --- --- ------ ------ ---- -- ------<br>------- --- ------ ----- --- ---- without -- ---- --- --<br>------- ------,79031.79999999981,79031,78823.882,78831.59999999986,78840.552,79040.675,,49,without
screen,html.Screen,0_2_1_1_50,2022-05-13T10:08:01.135Z,,,,,,,,,,,,,,,,54,,,,,,,,,,,,,,198.3249999999971,,response,,,100,,,,,,Space,keypress(Space),,,,,-- --- ---- --- ------ ----- ------- ---- -- --- ------- --<br>------- ---------- ------ -- ----- -- ----- -- ---- ------<br>--- ----- --- --- ------ -------- ----- --- ------ ----- --<br>----- ----- ---------- --- --- ------ ------ ---- -- ------<br>------- --- ------ ----- --- ---- ------- an ---- --- --<br>------- ------,79239.8999999999,79239,79024.005,79032.09999999986,79040.675,79240.727,,50,an
screen,html.Screen,0_2_1_1_51,2022-05-13T10:08:01.343Z,,,,,,,,,,,,,,,,54,,,,,,,,,,,,,,206.27300000000105,,response,,,100,,,,,,Space,keypress(Space),,,,,-- --- ---- --- ------ ----- ------- ---- -- --- ------- --<br>------- ---------- ------ -- ----- -- ----- -- ---- ------<br>--- ----- --- --- ------ -------- ----- --- ------ ----- --<br>----- ----- ---------- --- --- ------ ------ ---- -- ------<br>------- --- ------ ----- --- ---- ------- -- easy --- --<br>------- ------,79447.79999999981,79447,79224.057,79240.09999999986,79240.727,79457.476,,51,easy
screen,html.Screen,0_2_1_1_52,2022-05-13T10:08:01.559Z,,,,,,,,,,,,,,,,54,,,,,,,,,,,,,,205.5240000000049,,response,,,100,,,,,,Space,keypress(Space),,,,,-- --- ---- --- ------ ----- ------- ---- -- --- ------- --<br>------- ---------- ------ -- ----- -- ----- -- ---- ------<br>--- ----- --- --- ------ -------- ----- --- ------ ----- --<br>----- ----- ---------- --- --- ------ ------ ---- -- ------<br>------- --- ------ ----- --- ---- ------- -- ---- way --<br>------- ------,79663.8999999999,79663,79440.805,79448.09999999986,79457.476,79674.172,,52,way
screen,html.Screen,0_2_1_1_53,2022-05-13T10:08:01.775Z,,,,,,,,,,,,,,,,54,,,,,,,,,,,,,,204.82799999999406,,response,,,100,,,,,,Space,keypress(Space),,,,,-- --- ---- --- ------ ----- ------- ---- -- --- ------- --<br>------- ---------- ------ -- ----- -- ----- -- ---- ------<br>--- ----- --- --- ------ -------- ----- --- ------ ----- --<br>----- ----- ---------- --- --- ------ ------ ---- -- ------<br>------- --- ------ ----- --- ---- ------- -- ---- --- of<br>------- ------,79879.79999999981,79879,79657.502,79664.19999999995,79674.172,79890.771,,53,of
screen,html.Screen,0_2_1_1_54,2022-05-13T10:08:02.031Z,,,,,,,,,,,,,,,,54,,,,,,,,,,,,,,244.22900000000664,,response,,,100,,,,,,Space,keypress(Space),,,,,-- --- ---- --- ------ ----- ------- ---- -- --- ------- --<br>------- ---------- ------ -- ----- -- ----- -- ---- ------<br>--- ----- --- --- ------ -------- ----- --- ------ ----- --<br>----- ----- ---------- --- --- ------ ------ ---- -- ------<br>------- --- ------ ----- --- ---- ------- -- ---- --- --<br>raising ------,80135.79999999981,80135,79874.104,79880,79890.771,80141.076,,54,raising
screen,html.Screen,0_2_1_1_55,2022-05-13T10:08:02.263Z,,,,,,,,,,,,,,,,54,,,,,,,,,,,,,,225.82399999990594,,response,,,100,,,,,,Space,keypress(Space),,,,,-- --- ---- --- ------ ----- ------- ---- -- --- ------- --<br>------- ---------- ------ -- ----- -- ----- -- ---- ------<br>--- ----- --- --- ------ -------- ----- --- ------ ----- --<br>----- ----- ---------- --- --- ------ ------ ---- -- ------<br>------- --- ------ ----- --- ---- ------- -- ---- --- --<br>------- money.,80367.69999999995,80366.8999999999,80124.402,80136,80141.076,80374.353,,55,money.
Item 100,flow.Loop,0_2_1_1,2022-05-13T10:08:02.263Z,,,,,,,,,,,,,,,,,,,,,,,,,,,,,,13129.46899999991,,completion,,,,E,,,,,,,,,,silence,,80368.19999999995,80366.8999999999,67220.761,67221.29999999981,67237.431,80374.353,,,
Question 1,html.Screen,0_2_1_2,2022-05-13T10:08:04.035Z,,,,,,,,,,,,,,,,,,,,,,,,,,,true,TRUE,,1764.8469999999506,,response,,,100,E,,,,,TRUE,click #choice-1,,,,silence,,82140.29999999981,82139.19999999995,80357.683,80368.3999999999,80374.353,82141.471,,,
Question 2,html.Screen,0_2_1_3,2022-05-13T10:08:04.784Z,,,,,,,,,,,,,,,,,,,,,,,,,,,true,FALSE,,746.6289999998553,,response,,,100,E,,,,,FALSE,click #choice-2,,,,silence,,82889.29999999981,82888.09999999986,82124.801,82140.59999999986,82141.471,82891.7,,,
Item 100,flow.Sequence,0_2_1,2022-05-13T10:08:04.784Z,,,,,,,,,,,,,,,,,,,,,,,,,,,,,,25653.251999999862,,completion,,,,,,,,,,,,,,,,82889.59999999986,82888.09999999986,57218.177,57228.19999999995,57234.848,82891.7,,,
End of Practice,html.Page,0_2_2,2022-05-13T10:08:08.836Z,,,,,,,,,,,,,,,,,,,,,,,,,,,,,,4048.9999999999563,,form submission,,,,,,,,,,,,,,,,86941.19999999995,86940.69999999995,82875.03,82889.79999999981,82891.7,86942.755,,,
Practice,flow.Sequence,0_2,2022-05-13T10:08:08.837Z,,,,,,,,,,,,,,,,,,,,,,,,,,,,,,61514.36199999995,,completion,,,,,,,,,,,,,,,,86941.79999999981,86940.69999999995,25409.668,25414.199999999953,25426.338,86942.755,,,
Trap_instruction,html.Page,0_3_0,2022-05-13T10:08:10.642Z,,,,,,,,,,,,,,,,,,,,,,,,,,,,,,1804.3449999998556,,form submission,,,,,,,,,,,,,,,,88747.59999999986,88747.09999999986,86926.084,86942.09999999986,86942.755,88809.757,,,
trap_trial,html.Screen,0_3_1,2022-05-13T10:08:13.131Z,,,,,,,,,,,,,,,,,,,,,,,,,,,true,1,,2424.743000000002,,response,,,,,,,,,1,click #choice-1,,,,,,91235.79999999981,91234.5,88743.077,88747.8999999999,88809.757,91244.697,,,
end of trap trial,html.Page,0_3_2,2022-05-13T10:08:14.838Z,,,,,,,,,,,,,,,,,,,,,,,,,,,,,,1698.2029999999068,,form submission,,,,,,,,,,,,,,,,92943.29999999981,92942.8999999999,91228.02,91236.09999999986,91244.697,92944.229,,,
Trap 1,flow.Sequence,0_3,2022-05-13T10:08:14.839Z,,,,,,,,,,,,,,,,,,,,,,,,,,,,,,6000.144999999902,,completion,,,,,,,,,,,,,,,,92943.79999999981,92942.8999999999,86926.084,86942,86942.755,92944.229,,,
Standby,html.Page,0_4_0,2022-05-13T10:08:22.826Z,,,,,,,,,,,,,,,,,,,,,,,,,,,,,,8002.205999999991,,timeout,,,,,,,,,,,,,,,,100930.79999999981,100929.764,92927.559,92944,92944.229,100946.435,,,
Holding screen,html.Screen,0_4_1_0_0,2022-05-13T10:08:29.827Z,,,,,,,,,,,,,,,,,,,,,,,,,,,,,,7001.8080000000045,,timeout,,,,,,,,,,,,,,,,107932.3999999999,107931.573,100929.764,100931.09999999986,100946.435,107948.243,,,
screen,html.Screen,0_4_1_0_1_0,2022-05-13T10:08:30.990Z,,,,,,,,,,,,,,,,48,,,,,,,,,,,,,,1145.856999999858,,response,,,10,E,,,,,Space,keypress(Space),,,,lyrical,As -- --- ------ ------- --------- ----------- --------<br>--------- -------- --- ------- -- ------- ---- -- ------<br>-- --- -------- -------- ---------- ---- ---- ---- ------<br>-- --------- -- ---- -- --- -- --- ------- -- - -----<br>---------- -- -- -- ---- ----- -- ------ -- --- ------<br>-------,109095.09999999986,109094.09999999986,107931.573,107932.79999999981,107948.243,109098.536,,0,As
screen,html.Screen,0_4_1_0_1_1,2022-05-13T10:08:31.253Z,,,,,,,,,,,,,,,,48,,,,,,,,,,,,,,259.0639999998675,,response,,,10,E,,,,,Space,keypress(Space),,,,lyrical,-- in --- ------ ------- --------- ----------- --------<br>--------- -------- --- ------- -- ------- ---- -- ------<br>-- --- -------- -------- ---------- ---- ---- ---- ------<br>-- --------- -- ---- -- --- -- --- ------- -- - -----<br>---------- -- -- -- ---- ----- -- ------ -- --- ------<br>-------,109358.3999999999,109357.59999999986,109081.866,109095.59999999986,109098.536,109365.39,,1,in
screen,html.Screen,0_4_1_0_1_2,2022-05-13T10:08:31.485Z,,,,,,,,,,,,,,,,48,,,,,,,,,,,,,,224.11000000000058,,response,,,10,E,,,,,Space,keypress(Space),,,,lyrical,-- -- the ------ ------- --------- ----------- --------<br>--------- -------- --- ------- -- ------- ---- -- ------<br>-- --- -------- -------- ---------- ---- ---- ---- ------<br>-- --------- -- ---- -- --- -- --- ------- -- - -----<br>---------- -- -- -- ---- ----- -- ------ -- --- ------<br>-------,109590.29999999981,109589.5,109348.72,109358.69999999995,109365.39,109598.819,,2,the
screen,html.Screen,0_4_1_0_1_3,2022-05-13T10:08:31.701Z,,,,,,,,,,,,,,,,48,,,,,,,,,,,,,,206.8809999999503,,response,,,10,E,,,,,Space,keypress(Space),,,,lyrical,-- -- --- United ------- --------- ----------- --------<br>--------- -------- --- ------- -- ------- ---- -- ------<br>-- --- -------- -------- ---------- ---- ---- ---- ------<br>-- --------- -- ---- -- --- -- --- ------- -- - -----<br>---------- -- -- -- ---- ----- -- ------ -- --- ------<br>-------,109806.5,109805.69999999995,109582.148,109590.5,109598.819,109815.393,,3,United
screen,html.Screen,0_4_1_0_1_4,2022-05-13T10:08:31.933Z,,,,,,,,,,,,,,,,48,,,,,,,,,,,,,,222.2069999998639,,response,,,10,E,,,,,Space,keypress(Space),,,,lyrical,"-- -- --- ------ States, --------- ----------- --------<br>--------- -------- --- ------- -- ------- ---- -- ------<br>-- --- -------- -------- ---------- ---- ---- ---- ------<br>-- --------- -- ---- -- --- -- --- ------- -- - -----<br>---------- -- -- -- ---- ----- -- ------ -- --- ------<br>-------",110038.3999999999,110037.59999999986,109798.726,109806.79999999981,109815.393,110049.008,,4,"States,"
screen,html.Screen,0_4_1_0_1_5,2022-05-13T10:08:32.149Z,,,,,,,,,,,,,,,,48,,,,,,,,,,,,,,204.59199999985867,,response,,,10,E,,,,,Space,keypress(Space),,,,lyrical,-- -- --- ------ ------- Colombian ----------- --------<br>--------- -------- --- ------- -- ------- ---- -- ------<br>-- --- -------- -------- ---------- ---- ---- ---- ------<br>-- --------- -- ---- -- --- -- --- ------- -- - -----<br>---------- -- -- -- ---- ----- -- ------ -- --- ------<br>-------,110254.3999999999,110253.59999999986,110032.334,110038.79999999981,110049.008,110265.518,,5,Colombian
screen,html.Screen,0_4_1_0_1_6,2022-05-13T10:08:32.381Z,,,,,,,,,,,,,,,,48,,,,,,,,,,,,,,220.0819999998639,,response,,,10,E,,,,,Space,keypress(Space),,,,lyrical,-- -- --- ------ ------- --------- legislation --------<br>--------- -------- --- ------- -- ------- ---- -- ------<br>-- --- -------- -------- ---------- ---- ---- ---- ------<br>-- --------- -- ---- -- --- -- --- ------- -- - -----<br>---------- -- -- -- ---- ----- -- ------ -- --- ------<br>-------,110486.3999999999,110485.59999999986,110248.851,110254.79999999981,110265.518,110499.024,,6,legislation
screen,html.Screen,0_4_1_0_1_7,2022-05-13T10:08:32.893Z,,,,,,,,,,,,,,,,48,,,,,,,,,,,,,,498.4759999999951,,response,,,10,E,,,,,Space,keypress(Space),,,,lyrical,-- -- --- ------ ------- --------- ----------- requires<br>--------- -------- --- ------- -- ------- ---- -- ------<br>-- --- -------- -------- ---------- ---- ---- ---- ------<br>-- --------- -- ---- -- --- -- --- ------- -- - -----<br>---------- -- -- -- ---- ----- -- ------ -- --- ------<br>-------,110998.3999999999,110997.5,110482.353,110486.69999999995,110499.024,111015.948,,7,requires
screen,html.Screen,0_4_1_0_1_8,2022-05-13T10:08:33.237Z,,,,,,,,,,,,,,,,48,,,,,,,,,,,,,,325.55199999999604,,response,,,10,E,,,,,Space,keypress(Space),,,,lyrical,-- -- --- ------ ------- --------- ----------- --------<br>travelers -------- --- ------- -- ------- ---- -- ------<br>-- --- -------- -------- ---------- ---- ---- ---- ------<br>-- --------- -- ---- -- --- -- --- ------- -- - -----<br>---------- -- -- -- ---- ----- -- ------ -- --- ------<br>-------,111342.3999999999,111341.5,110999.275,110998.59999999986,111015.948,111349.229,,8,travelers
screen,html.Screen,0_4_1_0_1_9,2022-05-13T10:08:33.485Z,,,,,,,,,,,,,,,,48,,,,,,,,,,,,,,240.17099999990023,,response,,,10,E,,,,,Space,keypress(Space),,,,lyrical,-- -- --- ------ ------- --------- ----------- --------<br>--------- entering --- ------- -- ------- ---- -- ------<br>-- --- -------- -------- ---------- ---- ---- ---- ------<br>-- --------- -- ---- -- --- -- --- ------- -- - -----<br>---------- -- -- -- ---- ----- -- ------ -- --- ------<br>-------,111590.29999999981,111589.3999999999,111332.559,111342.69999999995,111349.229,111599.344,,9,entering
screen,html.Screen,0_4_1_0_1_10,2022-05-13T10:08:33.741Z,,,,,,,,,,,,,,,,48,,,,,,,,,,,,,,246.05599999990955,,response,,,10,E,,,,,Space,keypress(Space),,,,lyrical,-- -- --- ------ ------- --------- ----------- --------<br>--------- -------- the ------- -- ------- ---- -- ------<br>-- --- -------- -------- ---------- ---- ---- ---- ------<br>-- --------- -- ---- -- --- -- --- ------- -- - -----<br>---------- -- -- -- ---- ----- -- ------ -- --- ------<br>-------,111846.09999999986,111845.3999999999,111582.673,111590.5,111599.344,111849.367,,10,the
screen,html.Screen,0_4_1_0_1_11,2022-05-13T10:08:33.980Z,,,,,,,,,,,,,,,,48,,,,,,,,,,,,,,235.73299999986193,,response,,,10,E,,,,,Space,keypress(Space),,,,lyrical,-- -- --- ------ ------- --------- ----------- --------<br>--------- -------- --- country -- ------- ---- -- ------<br>-- --- -------- -------- ---------- ---- ---- ---- ------<br>-- --------- -- ---- -- --- -- --- ------- -- - -----<br>---------- -- -- -- ---- ----- -- ------ -- --- ------<br>-------,112085.5,112085.09999999986,111832.697,111846.3999999999,111849.367,112099.479,,11,country
screen,html.Screen,0_4_1_0_1_12,2022-05-13T10:08:34.189Z,,,,,,,,,,,,,,,,48,,,,,,,,,,,,,,194.02099999999336,,response,,,10,E,,,,,Space,keypress(Space),,,,lyrical,-- -- --- ------ ------- --------- ----------- --------<br>--------- -------- --- ------- to ------- ---- -- ------<br>-- --- -------- -------- ---------- ---- ---- ---- ------<br>-- --------- -- ---- -- --- -- --- ------- -- - -----<br>---------- -- -- -- ---- ----- -- ------ -- --- ------<br>-------,112294.29999999981,112293.5,112082.808,112085.5,112099.479,112299.489,,12,to
screen,html.Screen,0_4_1_0_1_13,2022-05-13T10:08:34.426Z,,,,,,,,,,,,,,,,48,,,,,,,,,,,,,,218.0109999999986,,response,,,10,E,,,,,Space,keypress(Space),,,,lyrical,-- -- --- ------ ------- --------- ----------- --------<br>--------- -------- --- ------- -- declare ---- -- ------<br>-- --- -------- -------- ---------- ---- ---- ---- ------<br>-- --------- -- ---- -- --- -- --- ------- -- - -----<br>---------- -- -- -- ---- ----- -- ------ -- --- ------<br>-------,112531.59999999986,112517.5,112282.819,112294.5,112299.489,112532.772,,13,declare
screen,html.Screen,0_4_1_0_1_14,2022-05-13T10:08:34.613Z,,,,,,,,,,,,,,,,48,,,,,,,,,,,,,,184.7280000000028,,response,,,10,E,,,,,Space,keypress(Space),,,,lyrical,-- -- --- ------ ------- --------- ----------- --------<br>--------- -------- --- ------- -- ------- cash -- ------<br>-- --- -------- -------- ---------- ---- ---- ---- ------<br>-- --------- -- ---- -- --- -- --- ------- -- - -----<br>---------- -- -- -- ---- ----- -- ------ -- --- ------<br>-------,112718.29999999981,112717.5,112516.105,112531.8999999999,112532.772,112733.06,,14,cash
screen,html.Screen,0_4_1_0_1_15,2022-05-13T10:08:34.813Z,,,,,,,,,,,,,,,,48,,,,,,,,,,,,,,184.44000000000233,,response,,,10,E,,,,,Space,keypress(Space),,,,lyrical,-- -- --- ------ ------- --------- ----------- --------<br>--------- -------- --- ------- -- ------- ---- in ------<br>-- --- -------- -------- ---------- ---- ---- ---- ------<br>-- --------- -- ---- -- --- -- --- ------- -- - -----<br>---------- -- -- -- ---- ----- -- ------ -- --- ------<br>-------,112918.29999999981,112917.5,112716.385,112718.5,112733.06,112933.016,,15,in
screen,html.Screen,0_4_1_0_1_16,2022-05-13T10:08:35.029Z,,,,,,,,,,,,,,,,48,,,,,,,,,,,,,,200.48399999999674,,response,,,10,E,,,,,Space,keypress(Space),,,,lyrical,-- -- --- ------ ------- --------- ----------- --------<br>--------- -------- --- ------- -- ------- ---- -- excess<br>-- --- -------- -------- ---------- ---- ---- ---- ------<br>-- --------- -- ---- -- --- -- --- ------- -- - -----<br>---------- -- -- -- ---- ----- -- ------ -- --- ------<br>-------,113134.29999999981,113133.5,112916.346,112918.59999999986,112933.016,113149.623,,16,excess
screen,html.Screen,0_4_1_0_1_17,2022-05-13T10:08:35.245Z,,,,,,,,,,,,,,,,48,,,,,,,,,,,,,,199.67699999980687,,response,,,10,E,,,,,Space,keypress(Space),,,,lyrical,-- -- --- ------ ------- --------- ----------- --------<br>--------- -------- --- ------- -- ------- ---- -- ------<br>of --- -------- -------- ---------- ---- ---- ---- ------<br>-- --------- -- ---- -- --- -- --- ------- -- - -----<br>---------- -- -- -- ---- ----- -- ------ -- --- ------<br>-------,113350.19999999995,113349.29999999981,113132.956,113134.5,113149.623,113366.423,,17,of
screen,html.Screen,0_4_1_0_1_18,2022-05-13T10:08:35.453Z,,,,,,,,,,,,,,,,48,,,,,,,,,,,,,,191.07700000000477,,response,,,10,E,,,,,Space,keypress(Space),,,,lyrical,-- -- --- ------ ------- --------- ----------- --------<br>--------- -------- --- ------- -- ------- ---- -- ------<br>-- ten -------- -------- ---------- ---- ---- ---- ------<br>-- --------- -- ---- -- --- -- --- ------- -- - -----<br>---------- -- -- -- ---- ----- -- ------ -- --- ------<br>-------,113558.19999999995,113557.5,113349.753,113350.3999999999,113366.423,113566.609,,18,ten
screen,html.Screen,0_4_1_0_1_19,2022-05-13T10:08:35.677Z,,,,,,,,,,,,,,,,48,,,,,,,,,,,,,,214.79099999991013,,response,,,10,E,,,,,Space,keypress(Space),,,,lyrical,-- -- --- ------ ------- --------- ----------- --------<br>--------- -------- --- ------- -- ------- ---- -- ------<br>-- --- thousand -------- ---------- ---- ---- ---- ------<br>-- --------- -- ---- -- --- -- --- ------- -- - -----<br>---------- -- -- -- ---- ----- -- ------ -- --- ------<br>-------,113782.19999999995,113781.3999999999,113549.935,113558.5,113566.609,113783.266,,19,thousand
screen,html.Screen,0_4_1_0_1_20,2022-05-13T10:08:35.877Z,,,,,,,,,,,,,,,,48,,,,,,,,,,,,,,198.1339999999036,,response,,,10,E,,,,,Space,keypress(Space),,,,lyrical,-- -- --- ------ ------- --------- ----------- --------<br>--------- -------- --- ------- -- ------- ---- -- ------<br>-- --- -------- dollars. ---------- ---- ---- ---- ------<br>-- --------- -- ---- -- --- -- --- ------- -- - -----<br>---------- -- -- -- ---- ----- -- ------ -- --- ------<br>-------,113982.29999999981,113981.3999999999,113766.595,113782.3999999999,113783.266,113999.828,,20,dollars.
screen,html.Screen,0_4_1_0_1_21,2022-05-13T10:08:36.069Z,,,,,,,,,,,,,,,,48,,,,,,,,,,,,,,173.5719999999128,,response,,,10,E,,,,,Space,keypress(Space),,,,lyrical,-- -- --- ------ ------- --------- ----------- --------<br>--------- -------- --- ------- -- ------- ---- -- ------<br>-- --- -------- -------- Concealing ---- ---- ---- ------<br>-- --------- -- ---- -- --- -- --- ------- -- - -----<br>---------- -- -- -- ---- ----- -- ------ -- --- ------<br>-------,114174.29999999981,114173.3999999999,113983.162,113982.5,113999.828,114183.406,,21,Concealing
screen,html.Screen,0_4_1_0_1_22,2022-05-13T10:08:36.277Z,,,,,,,,,,,,,,,,48,,,,,,,,,,,,,,197.9939999999042,,response,,,10,E,,,,,Space,keypress(Space),,,,lyrical,-- -- --- ------ ------- --------- ----------- --------<br>--------- -------- --- ------- -- ------- ---- -- ------<br>-- --- -------- -------- ---------- more ---- ---- ------<br>-- --------- -- ---- -- --- -- --- ------- -- - -----<br>---------- -- -- -- ---- ----- -- ------ -- --- ------<br>-------,114382.29999999981,114381.3999999999,114166.733,114174.5,114183.406,114383.416,,22,more
screen,html.Screen,0_4_1_0_1_23,2022-05-13T10:08:36.493Z,,,,,,,,,,,,,,,,48,,,,,,,,,,,,,,213.98399999990943,,response,,,10,E,,,,,Space,keypress(Space),,,,lyrical,-- -- --- ------ ------- --------- ----------- --------<br>--------- -------- --- ------- -- ------- ---- -- ------<br>-- --- -------- -------- ---------- ---- than ---- ------<br>-- --------- -- ---- -- --- -- --- ------- -- - -----<br>---------- -- -- -- ---- ----- -- ------ -- --- ------<br>-------,114598.19999999995,114597.3999999999,114366.745,114382.5,114383.416,114600.154,,23,than
screen,html.Screen,0_4_1_0_1_24,2022-05-13T10:08:36.709Z,,,,,,,,,,,,,,,,48,,,,,,,,,,,,,,213.24599999991187,,response,,,10,E,,,,,Space,keypress(Space),,,,lyrical,-- -- --- ------ ------- --------- ----------- --------<br>--------- -------- --- ------- -- ------- ---- -- ------<br>-- --- -------- -------- ---------- ---- ---- that ------<br>-- --------- -- ---- -- --- -- --- ------- -- - -----<br>---------- -- -- -- ---- ----- -- ------ -- --- ------<br>-------,114814.19999999995,114813.3999999999,114583.483,114598.5,114600.154,114816.847,,24,that
screen,html.Screen,0_4_1_0_1_25,2022-05-13T10:08:36.925Z,,,,,,,,,,,,,,,,48,,,,,,,,,,,,,,212.45299999981944,,response,,,10,E,,,,,Space,keypress(Space),,,,lyrical,-- -- --- ------ ------- --------- ----------- --------<br>--------- -------- --- ------- -- ------- ---- -- ------<br>-- --- -------- -------- ---------- ---- ---- ---- amount<br>-- --------- -- ---- -- --- -- --- ------- -- - -----<br>---------- -- -- -- ---- ----- -- ------ -- --- ------<br>-------,115030.19999999995,115029.29999999981,114800.177,114814.5,114816.847,115033.456,,25,amount
screen,html.Screen,0_4_1_0_1_26,2022-05-13T10:08:37.157Z,,,,,,,,,,,,,,,,48,,,,,,,,,,,,,,227.84399999980815,,response,,,10,E,,,,,Space,keypress(Space),,,,lyrical,-- -- --- ------ ------- --------- ----------- --------<br>--------- -------- --- ------- -- ------- ---- -- ------<br>-- --- -------- -------- ---------- ---- ---- ---- ------<br>to --------- -- ---- -- --- -- --- ------- -- - -----<br>---------- -- -- -- ---- ----- -- ------ -- --- ------<br>-------,115262.19999999995,115261.29999999981,115016.789,115030.5,115033.456,115267.041,,26,to
screen,html.Screen,0_4_1_0_1_27,2022-05-13T10:08:37.397Z,,,,,,,,,,,,,,,,48,,,,,,,,,,,,,,234.2589999998163,,response,,,10,E,,,,,Space,keypress(Space),,,,lyrical,-- -- --- ------ ------- --------- ----------- --------<br>--------- -------- --- ------- -- ------- ---- -- ------<br>-- --- -------- -------- ---------- ---- ---- ---- ------<br>-- transport -- ---- -- --- -- --- ------- -- - -----<br>---------- -- -- -- ---- ----- -- ------ -- --- ------<br>-------,115502.09999999986,115501.29999999981,115250.368,115262.3999999999,115267.041,115517.034,,27,transport
screen,html.Screen,0_4_1_0_1_28,2022-05-13T10:08:37.621Z,,,,,,,,,,,,,,,,48,,,,,,,,,,,,,,208.36599999990722,,response,,,10,E,,,,,Space,keypress(Space),,,,lyrical,-- -- --- ------ ------- --------- ----------- --------<br>--------- -------- --- ------- -- ------- ---- -- ------<br>-- --- -------- -------- ---------- ---- ---- ---- ------<br>-- --------- it ---- -- --- -- --- ------- -- - -----<br>---------- -- -- -- ---- ----- -- ------ -- --- ------<br>-------,115726.19999999995,115725.3999999999,115500.364,115502.29999999981,115517.034,115733.796,,28,it
screen,html.Screen,0_4_1_0_1_29,2022-05-13T10:08:37.861Z,,,,,,,,,,,,,,,,48,,,,,,,,,,,,,,231.50399999981164,,response,,,10,E,,,,,Space,keypress(Space),,,,lyrical,-- -- --- ------ ------- --------- ----------- --------<br>--------- -------- --- ------- -- ------- ---- -- ------<br>-- --- -------- -------- ---------- ---- ---- ---- ------<br>-- --------- -- into -- --- -- --- ------- -- - -----<br>---------- -- -- -- ---- ----- -- ------ -- --- ------<br>-------,115966.09999999986,115965.29999999981,115717.125,115726.5,115733.796,115967.146,,29,into
screen,html.Screen,0_4_1_0_1_30,2022-05-13T10:08:38.101Z,,,,,,,,,,,,,,,,48,,,,,,,,,,,,,,238.15399999982037,,response,,,10,E,,,,,Space,keypress(Space),,,,lyrical,-- -- --- ------ ------- --------- ----------- --------<br>--------- -------- --- ------- -- ------- ---- -- ------<br>-- --- -------- -------- ---------- ---- ---- ---- ------<br>-- --------- -- ---- or --- -- --- ------- -- - -----<br>---------- -- -- -- ---- ----- -- ------ -- --- ------<br>-------,116206.09999999986,116205.29999999981,115950.476,115966.3999999999,115967.146,116217.247,,30,or
screen,html.Screen,0_4_1_0_1_31,2022-05-13T10:08:38.341Z,,,,,,,,,,,,,,,,48,,,,,,,,,,,,,,227.9529999999504,,response,,,10,E,,,,,Space,keypress(Space),,,,lyrical,-- -- --- ------ ------- --------- ----------- --------<br>--------- -------- --- ------- -- ------- ---- -- ------<br>-- --- -------- -------- ---------- ---- ---- ---- ------<br>-- --------- -- ---- -- out -- --- ------- -- - -----<br>---------- -- -- -- ---- ----- -- ------ -- --- ------<br>-------,116446.09999999986,116445.19999999995,116200.576,116206.3999999999,116217.247,116450.579,,31,out
screen,html.Screen,0_4_1_0_1_32,2022-05-13T10:08:38.565Z,,,,,,,,,,,,,,,,48,,,,,,,,,,,,,,218.62099999995553,,response,,,10,E,,,,,Space,keypress(Space),,,,lyrical,-- -- --- ------ ------- --------- ----------- --------<br>--------- -------- --- ------- -- ------- ---- -- ------<br>-- --- -------- -------- ---------- ---- ---- ---- ------<br>-- --------- -- ---- -- --- of --- ------- -- - -----<br>---------- -- -- -- ---- ----- -- ------ -- --- ------<br>-------,116670,116669.19999999995,116433.91,116446.29999999981,116450.579,116684.027,,32,of
screen,html.Screen,0_4_1_0_1_33,2022-05-13T10:08:38.788Z,,,,,,,,,,,,,,,,48,,,,,,,,,,,,,,208.97299999999814,,response,,,10,E,,,,,Space,keypress(Space),,,,lyrical,-- -- --- ------ ------- --------- ----------- --------<br>--------- -------- --- ------- -- ------- ---- -- ------<br>-- --- -------- -------- ---------- ---- ---- ---- ------<br>-- --------- -- ---- -- --- -- the ------- -- - -----<br>---------- -- -- -- ---- ----- -- ------ -- --- ------<br>-------,116893.59999999986,116893,116667.356,116670.19999999995,116684.027,116900.738,,33,the
screen,html.Screen,0_4_1_0_1_34,2022-05-13T10:08:39.013Z,,,,,,,,,,,,,,,,48,,,,,,,,,,,,,,216.56199999981618,,response,,,10,E,,,,,Space,keypress(Space),,,,lyrical,-- -- --- ------ ------- --------- ----------- --------<br>--------- -------- --- ------- -- ------- ---- -- ------<br>-- --- -------- -------- ---------- ---- ---- ---- ------<br>-- --------- -- ---- -- --- -- --- country -- - -----<br>---------- -- -- -- ---- ----- -- ------ -- --- ------<br>-------,117118.19999999995,117117.29999999981,116884.068,116893.69999999995,116900.738,117134.126,,34,country
screen,html.Screen,0_4_1_0_1_35,2022-05-13T10:08:39.237Z,,,,,,,,,,,,,,,,48,,,,,,,,,,,,,,207.0739999999496,,response,,,10,E,,,,,Space,keypress(Space),,,,lyrical,-- -- --- ------ ------- --------- ----------- --------<br>--------- -------- --- ------- -- ------- ---- -- ------<br>-- --- -------- -------- ---------- ---- ---- ---- ------<br>-- --------- -- ---- -- --- -- --- ------- is - -----<br>---------- -- -- -- ---- ----- -- ------ -- --- ------<br>-------,117342,117341.19999999995,117117.455,117118.3999999999,117134.126,117350.694,,35,is
screen,html.Screen,0_4_1_0_1_36,2022-05-13T10:08:39.461Z,,,,,,,,,,,,,,,,48,,,,,,,,,,,,,,214.5059999999503,,response,,,10,E,,,,,Space,keypress(Space),,,,lyrical,-- -- --- ------ ------- --------- ----------- --------<br>--------- -------- --- ------- -- ------- ---- -- ------<br>-- --- -------- -------- ---------- ---- ---- ---- ------<br>-- --------- -- ---- -- --- -- --- ------- -- a -----<br>---------- -- -- -- ---- ----- -- ------ -- --- ------<br>-------,117566,117565.19999999995,117334.028,117342.29999999981,117350.694,117567.703,,36,a
screen,html.Screen,0_4_1_0_1_37,2022-05-13T10:08:39.693Z,,,,,,,,,,,,,,,,48,,,,,,,,,,,,,,229.49699999995937,,response,,,10,E,,,,,Space,keypress(Space),,,,lyrical,-- -- --- ------ ------- --------- ----------- --------<br>--------- -------- --- ------- -- ------- ---- -- ------<br>-- --- -------- -------- ---------- ---- ---- ---- ------<br>-- --------- -- ---- -- --- -- --- ------- -- - crime<br>---------- -- -- -- ---- ----- -- ------ -- --- ------<br>-------,117798.09999999986,117797.19999999995,117551.028,117566.29999999981,117567.703,117800.978,,37,crime
screen,html.Screen,0_4_1_0_1_38,2022-05-13T10:08:39.909Z,,,,,,,,,,,,,,,,48,,,,,,,,,,,,,,212.22199999995064,,response,,,10,E,,,,,Space,keypress(Space),,,,lyrical,-- -- --- ------ ------- --------- ----------- --------<br>--------- -------- --- ------- -- ------- ---- -- ------<br>-- --- -------- -------- ---------- ---- ---- ---- ------<br>-- --------- -- ---- -- --- -- --- ------- -- - -----<br>punishable -- -- -- ---- ----- -- ------ -- --- ------<br>-------,118014,118013.19999999995,117784.308,117798.29999999981,117800.978,118017.727,,38,punishable
screen,html.Screen,0_4_1_0_1_39,2022-05-13T10:08:40.149Z,,,,,,,,,,,,,,,,48,,,,,,,,,,,,,,235.57299999981478,,response,,,10,E,,,,,Space,keypress(Space),,,,lyrical,-- -- --- ------ ------- --------- ----------- --------<br>--------- -------- --- ------- -- ------- ---- -- ------<br>-- --- -------- -------- ---------- ---- ---- ---- ------<br>-- --------- -- ---- -- --- -- --- ------- -- - -----<br>---------- by -- -- ---- ----- -- ------ -- --- ------<br>-------,118254.09999999986,118253.29999999981,118001.056,118014.19999999995,118017.727,118267.642,,39,by
screen,html.Screen,0_4_1_0_1_40,2022-05-13T10:08:40.373Z,,,,,,,,,,,,,,,,48,,,,,,,,,,,,,,209.55799999994633,,response,,,10,E,,,,,Space,keypress(Space),,,,lyrical,-- -- --- ------ ------- --------- ----------- --------<br>--------- -------- --- ------- -- ------- ---- -- ------<br>-- --- -------- -------- ---------- ---- ---- ---- ------<br>-- --------- -- ---- -- --- -- --- ------- -- - -----<br>---------- -- up -- ---- ----- -- ------ -- --- ------<br>-------,118478,118477.19999999995,118250.975,118254.3999999999,118267.642,118484.597,,40,up
screen,html.Screen,0_4_1_0_1_41,2022-05-13T10:08:40.605Z,,,,,,,,,,,,,,,,48,,,,,,,,,,,,,,224.502999999866,,response,,,10,E,,,,,Space,keypress(Space),,,,lyrical,-- -- --- ------ ------- --------- ----------- --------<br>--------- -------- --- ------- -- ------- ---- -- ------<br>-- --- -------- -------- ---------- ---- ---- ---- ------<br>-- --------- -- ---- -- --- -- --- ------- -- - -----<br>---------- -- -- to ---- ----- -- ------ -- --- ------<br>-------,118710,118709.09999999986,118467.923,118478.29999999981,118484.597,118717.879,,41,to
screen,html.Screen,0_4_1_0_1_42,2022-05-13T10:08:40.805Z,,,,,,,,,,,,,,,,48,,,,,,,,,,,,,,191.2209999998595,,response,,,10,E,,,,,Space,keypress(Space),,,,lyrical,-- -- --- ------ ------- --------- ----------- --------<br>--------- -------- --- ------- -- ------- ---- -- ------<br>-- --- -------- -------- ---------- ---- ---- ---- ------<br>-- --------- -- ---- -- --- -- --- ------- -- - -----<br>---------- -- -- -- five ----- -- ------ -- --- ------<br>-------,118909.8999999999,118909.09999999986,118701.209,118710.19999999995,118717.879,118917.816,,42,five
screen,html.Screen,0_4_1_0_1_43,2022-05-13T10:08:40.997Z,,,,,,,,,,,,,,,,48,,,,,,,,,,,,,,183.38399999994726,,response,,,10,E,,,,,Space,keypress(Space),,,,lyrical,-- -- --- ------ ------- --------- ----------- --------<br>--------- -------- --- ------- -- ------- ---- -- ------<br>-- --- -------- -------- ---------- ---- ---- ---- ------<br>-- --------- -- ---- -- --- -- --- ------- -- - -----<br>---------- -- -- -- ---- years -- ------ -- --- ------<br>-------,119102,119101.19999999995,118901.149,118910.09999999986,118917.816,119118.086,,43,years
screen,html.Screen,0_4_1_0_1_44,2022-05-13T10:08:41.205Z,,,,,,,,,,,,,,,,48,,,,,,,,,,,,,,191.4140000000043,,response,,,10,E,,,,,Space,keypress(Space),,,,lyrical,-- -- --- ------ ------- --------- ----------- --------<br>--------- -------- --- ------- -- ------- ---- -- ------<br>-- --- -------- -------- ---------- ---- ---- ---- ------<br>-- --------- -- ---- -- --- -- --- ------- -- - -----<br>---------- -- -- -- ---- ----- in ------ -- --- ------<br>-------,119310.5,119309.5,119101.412,119102.29999999981,119118.086,119317.911,,44,in
screen,html.Screen,0_4_1_0_1_45,2022-05-13T10:08:41.405Z,,,,,,,,,,,,,,,,48,,,,,,,,,,,,,,191.18899999986752,,response,,,10,E,,,,,Space,keypress(Space),,,,lyrical,-- -- --- ------ ------- --------- ----------- --------<br>--------- -------- --- ------- -- ------- ---- -- ------<br>-- --- -------- -------- ---------- ---- ---- ---- ------<br>-- --------- -- ---- -- --- -- --- ------- -- - -----<br>---------- -- -- -- ---- ----- -- prison -- --- ------<br>-------,119509.8999999999,119509.09999999986,119301.245,119310.59999999986,119317.911,119518.21,,45,prison
screen,html.Screen,0_4_1_0_1_46,2022-05-13T10:08:41.605Z,,,,,,,,,,,,,,,,48,,,,,,,,,,,,,,190.8899999998539,,response,,,10,E,,,,,Space,keypress(Space),,,,lyrical,-- -- --- ------ ------- --------- ----------- --------<br>--------- -------- --- ------- -- ------- ---- -- ------<br>-- --- -------- -------- ---------- ---- ---- ---- ------<br>-- --------- -- ---- -- --- -- --- ------- -- - -----<br>---------- -- -- -- ---- ----- -- ------ in --- ------<br>-------,119709.8999999999,119709.09999999986,119501.535,119510.09999999986,119518.21,119718.037,,46,in
screen,html.Screen,0_4_1_0_1_47,2022-05-13T10:08:41.805Z,,,,,,,,,,,,,,,,48,,,,,,,,,,,,,,191.06299999986368,,response,,,10,E,,,,,Space,keypress(Space),,,,lyrical,-- -- --- ------ ------- --------- ----------- --------<br>--------- -------- --- ------- -- ------- ---- -- ------<br>-- --- -------- -------- ---------- ---- ---- ---- ------<br>-- --------- -- ---- -- --- -- --- ------- -- - -----<br>---------- -- -- -- ---- ----- -- ------ -- the ------<br>-------,119909.8999999999,119909.09999999986,119701.37,119710.09999999986,119718.037,119918.285,,47,the
screen,html.Screen,0_4_1_0_1_48,2022-05-13T10:08:42.013Z,,,,,,,,,,,,,,,,48,,,,,,,,,,,,,,198.91499999994994,,response,,,10,E,,,,,Space,keypress(Space),,,,lyrical,-- -- --- ------ ------- --------- ----------- --------<br>--------- -------- --- ------- -- ------- ---- -- ------<br>-- --- -------- -------- ---------- ---- ---- ---- ------<br>-- --------- -- ---- -- --- -- --- ------- -- - -----<br>---------- -- -- -- ---- ----- -- ------ -- --- United<br>-------,120118,120117.19999999995,119901.611,119910.09999999986,119918.285,120134.947,,48,United
screen,html.Screen,0_4_1_0_1_49,2022-05-13T10:08:42.216Z,,,,,,,,,,,,,,,,48,,,,,,,,,,,,,,182.15299999986019,,response,,,10,E,,,,,Space,keypress(Space),,,,lyrical,-- -- --- ------ ------- --------- ----------- --------<br>--------- -------- --- ------- -- ------- ---- -- ------<br>-- --- -------- -------- ---------- ---- ---- ---- ------<br>-- --------- -- ---- -- --- -- --- ------- -- - -----<br>---------- -- -- -- ---- ----- -- ------ -- --- ------<br>States.,120318,120317.09999999986,120118.276,120118.19999999995,120134.947,120334.989,,49,States.
Item 10,flow.Loop,0_4_1_0_1,2022-05-13T10:08:42.216Z,,,,,,,,,,,,,,,,,,,,,,,,,,,,,,12368.856999999858,,completion,,,,,,,,,,,,,,,,120318.3999999999,120317.09999999986,107931.573,107932.69999999995,107948.243,120334.989,,,
Question 1,html.Screen,0_4_1_0_2,2022-05-13T10:08:46.202Z,,,,,,,,,,,,,,,,,,,,,,,,,,,true,TRUE,,3967.610999999859,,response,,,10,E,,,,,TRUE,click #choice-1,,,,lyrical,,124303.69999999995,124302.59999999986,120318.319,120318.59999999986,120334.989,124319.476,,,
Question 2,html.Screen,0_4_1_0_3,2022-05-13T10:08:47.953Z,,,,,,,,,,,,,,,,,,,,,,,,,,,true,TRUE,,1734.6239999998652,,response,,,10,E,,,,,TRUE,click #choice-1,,,,lyrical,,126055.19999999995,126054.09999999986,124302.804,124304,124319.476,126069.897,,,
Item 10,flow.Sequence,0_4_1_0,2022-05-13T10:08:47.953Z,,,,,,,,,,,,,,,,,,,,,,,,,,,,,,25107.664999999863,,completion,,,,,,,,,,,,,,,,126055.59999999986,126054.09999999986,100929.764,100931.09999999986,100946.435,126069.897,,,
Holding screen,html.Screen,0_4_1_1_0,2022-05-13T10:08:54.954Z,,,,,,,,,,,,,,,,,,,,,,,,,,,,,,7001.649999999994,,timeout,,,,,,,,,,,,,,,,133056.69999999995,133054.877,126053.226,126055.8999999999,126069.897,133071.547,,,
screen,html.Screen,0_4_1_1_1_0,2022-05-13T10:08:55.784Z,,,,,,,,,,,,,,,,15,,,,,,,,,,,,,,813.3529999999155,,response,,,7,E,,,,,Space,keypress(Space),,,,lyrical,Greg --------- ---------- - --- ------- -- --- ------------<br>----- -- -------- ------- ---- ------ - -------- ---- -----<br>--- ------- ---- -- --- -------- --- - ----- ------ ---- --<br>-------- --- -------- -------- --- -------- ---- -- ----- -<br>-------- ---- --- ---------- --------- -- ------- ------ -<br>--------- ----- -----,133886,133884.8999999999,133054.877,133057,133071.547,133888.475,,0,Greg
screen,html.Screen,0_4_1_1_1_1,2022-05-13T10:08:56.023Z,,,,,,,,,,,,,,,,15,,,,,,,,,,,,,,236.02499999999418,,response,,,7,E,,,,,Space,keypress(Space),,,,lyrical,"---- Anderson, ---------- - --- ------- -- --- ------------<br>----- -- -------- ------- ---- ------ - -------- ---- -----<br>--- ------- ---- -- --- -------- --- - ----- ------ ---- --<br>-------- --- -------- -------- --- -------- ---- -- ----- -<br>-------- ---- --- ---------- --------- -- ------- ------ -<br>--------- ----- -----",134125.3999999999,134124.5,133871.805,133886.2999999998,133888.475,134138.704,,1,"Anderson,"
screen,html.Screen,0_4_1_1_1_2,2022-05-13T10:08:56.263Z,,,,,,,,,,,,,,,,15,,,,,,,,,,,,,,225.69599999990896,,response,,,7,E,,,,,Space,keypress(Space),,,,lyrical,---- --------- considered - --- ------- -- --- ------------<br>----- -- -------- ------- ---- ------ - -------- ---- -----<br>--- ------- ---- -- --- -------- --- - ----- ------ ---- --<br>-------- --- -------- -------- --- -------- ---- -- ----- -<br>-------- ---- --- ---------- --------- -- ------- ------ -<br>--------- ----- -----,134365.3999999999,134364.3999999999,134122.033,134125.59999999986,134138.704,134372.044,,2,considered
screen,html.Screen,0_4_1_1_1_3,2022-05-13T10:08:56.479Z,,,,,,,,,,,,,,,,15,,,,,,,,,,,,,,208.4560000000056,,response,,,7,E,,,,,Space,keypress(Space),,,,lyrical,---- --------- ---------- a --- ------- -- --- ------------<br>----- -- -------- ------- ---- ------ - -------- ---- -----<br>--- ------- ---- -- --- -------- --- - ----- ------ ---- --<br>-------- --- -------- -------- --- -------- ---- -- ----- -<br>-------- ---- --- ---------- --------- -- ------- ------ -<br>--------- ----- -----,134581.2999999998,134580.5,134355.374,134365.69999999995,134372.044,134588.759,,3,a
screen,html.Screen,0_4_1_1_1_4,2022-05-13T10:08:56.711Z,,,,,,,,,,,,,,,,15,,,,,,,,,,,,,,223.74100000000908,,response,,,7,E,,,,,Space,keypress(Space),,,,lyrical,---- --------- ---------- - key ------- -- --- ------------<br>----- -- -------- ------- ---- ------ - -------- ---- -----<br>--- ------- ---- -- --- -------- --- - ----- ------ ---- --<br>-------- --- -------- -------- --- -------- ---- -- ----- -<br>-------- ---- --- ---------- --------- -- ------- ------ -<br>--------- ----- -----,134813.2999999998,134812.5,134572.089,134581.59999999986,134588.759,134822.155,,4,key
