sender,sender_type,sender_id,timestamp,meta,,Blues,Classical,Country,Dance,Electronic,Folk,Gospel,Hip-Hop,Jazz,Latin,Musical/Film,New-age,Pop,Provo_ID,R&B,Rap,Reggae,Religious,Rock,Soul,Swing,Traditional,age,artist_name,correct,correctResponse,distraction,duration,education,ended_on,familiarity,gender,item,list,music_frequency,offensiveness,pleasantness,preference,response,response_action,snippet_file,song_name,song_rating,sound,text,time_commit,time_end,time_render,time_run,time_show,time_switch,url,word,word_ID
Instructions,html.Page,0_0,2021-11-04T13:23:46.505Z,"{""labjs_version"":""20.2.3"",""labjs_build"":{""flavor"":""production"",""commit"":""7ea907d66ca8aeef8054924ca5d82ffbe11e34e5""},""location"":""https://run.pavlovia.org/mvasilev/lab_music_b/"",""userAgent"":""Mozilla/5.0 (Windows NT 6.1; Win64; x64) AppleWebKit/537.36 (KHTML, like Gecko) Chrome/95.0.4638.69 Safari/537.36"",""platform"":""Win32"",""language"":""en-US"",""locale"":""en-US"",""timeZone"":""Europe/London"",""timezoneOffset"":0,""screen_width"":1920,""screen_height"":1080,""scroll_width"":1920,""scroll_height"":959,""window_innerWidth"":1920,""window_innerHeight"":1007,""devicePixelRatio"":1}",,,,,,,,,,,,,,,,,,,,,,,,,,,,,15788.792999997018,,form submission,,,,,,,,,,,,,,,,45805.199999999255,45804.29999999702,29998.842,30003.29999999702,30015.507,45816.149,{},,
Headphones,html.Page,0_1,2021-11-04T13:23:49.760Z,,,,,,,,,,,,,,,,,,,,,,,,,,,,,,3243.150999997022,,form submission,,,,,,,,,,,,,,,,49059.599999997765,49059.29999999702,45799.459,45805.599999997765,45816.149,49065.623,,,
Holding screen,html.Screen,0_2_0_0,2021-11-04T13:23:59.752Z,,,,,,,,,,,,,,,,,,,,,,,,,,,,,,9999.438000000002,,timeout,,,,,,,,,,,,,,,,59051.89999999851,59048.396,49048.958,49060,49065.623,59065.061,,,
screen,html.Screen,0_2_0_1_0,2021-11-04T13:24:01.025Z,,,,,,,,,,,,,,,,53,,,,,,,,,,,,,,1256.2389999970183,,response,,,99,,,,,,Space,keypress(Space),,,,,When -- ----- -- ------ - ------- --- ----------<br>------------- ------ ------ ---- ---- ------- ----- -- ----<br>-------- ------- -- ---------- --- - --- ----- ----- ----<br>---- --- --- ----- --- ---- ---- ------- ----- ---- -------<br>--- --- -- ----- -- --- ---- -- --- ---- -- ------ ------<br>--- ----- -- ----,60322.39999999851,60321.29999999702,59048.396,59052.29999999702,59065.061,60331.647,,0,When
screen,html.Screen,0_2_0_1_1,2021-11-04T13:24:01.489Z,,,,,,,,,,,,,,,,53,,,,,,,,,,,,,,453.3530000000028,,response,,,99,,,,,,Space,keypress(Space),,,,,---- it ----- -- ------ - ------- --- ----------<br>------------- ------ ------ ---- ---- ------- ----- -- ----<br>-------- ------- -- ---------- --- - --- ----- ----- ----<br>---- --- --- ----- --- ---- ---- ------- ----- ---- -------<br>--- --- -- ----- -- --- ---- -- --- ---- -- ------ ------<br>--- ----- -- ----,60785.599999997765,60785,60314.982,60322.599999997765,60331.647,60798.266,,1,it
screen,html.Screen,0_2_0_1_2,2021-11-04T13:24:01.937Z,,,,,,,,,,,,,,,,53,,,,,,,,,,,,,,434.6339999985066,,response,,,99,,,,,,Space,keypress(Space),,,,,---- -- comes -- ------ - ------- --- ----------<br>------------- ------ ------ ---- ---- ------- ----- -- ----<br>-------- ------- -- ---------- --- - --- ----- ----- ----<br>---- --- --- ----- --- ---- ---- ------- ----- ---- -------<br>--- --- -- ----- -- --- ---- -- --- ---- -- ------ ------<br>--- ----- -- ----,61233.599999997765,61232.89999999851,60781.601,60785.79999999702,60798.266,61248.294,,2,comes
screen,html.Screen,0_2_0_1_3,2021-11-04T13:24:02.361Z,,,,,,,,,,,,,,,,53,,,,,,,,,,,,,,408.6059999985082,,response,,,99,,,,,,Space,keypress(Space),,,,,---- -- ----- to ------ - ------- --- ----------<br>------------- ------ ------ ---- ---- ------- ----- -- ----<br>-------- ------- -- ---------- --- - --- ----- ----- ----<br>---- --- --- ----- --- ---- ---- ------- ----- ---- -------<br>--- --- -- ----- -- --- ---- -- --- ---- -- ------ ------<br>--- ----- -- ----,61657.699999999255,61656.89999999851,61231.629,61233.699999999255,61248.294,61664.927,,3,to
screen,html.Screen,0_2_0_1_4,2021-11-04T13:24:02.785Z,,,,,,,,,,,,,,,,53,,,,,,,,,,,,,,416.0729999999967,,response,,,99,,,,,,Space,keypress(Space),,,,,---- -- ----- -- having - ------- --- ----------<br>------------- ------ ------ ---- ---- ------- ----- -- ----<br>-------- ------- -- ---------- --- - --- ----- ----- ----<br>---- --- --- ----- --- ---- ---- ------- ----- ---- -------<br>--- --- -- ----- -- --- ---- -- --- ---- -- ------ ------<br>--- ----- -- ----,62081.79999999702,62081,61648.262,61658.099999997765,61664.927,62098.214,,4,having
screen,html.Screen,0_2_0_1_5,2021-11-04T13:24:03.185Z,,,,,,,,,,,,,,,,53,,,,,,,,,,,,,,382.68599999850994,,response,,,99,,,,,,Space,keypress(Space),,,,,---- -- ----- -- ------ a ------- --- ----------<br>------------- ------ ------ ---- ---- ------- ----- -- ----<br>-------- ------- -- ---------- --- - --- ----- ----- ----<br>---- --- --- ----- --- ---- ---- ------- ----- ---- -------<br>--- --- -- ----- -- --- ---- -- --- ---- -- ------ ------<br>--- ----- -- ----,62481.599999997765,62480.89999999851,62081.549,62082,62098.214,62498.279,,5,a
screen,html.Screen,0_2_0_1_6,2021-11-04T13:24:03.497Z,,,,,,,,,,,,,,,,53,,,,,,,,,,,,,,294.72099999999773,,response,,,99,,,,,,Space,keypress(Space),,,,,---- -- ----- -- ------ - lasting --- ----------<br>------------- ------ ------ ---- ---- ------- ----- -- ----<br>-------- ------- -- ---------- --- - --- ----- ----- ----<br>---- --- --- ----- --- ---- ---- ------- ----- ---- -------<br>--- --- -- ----- -- --- ---- -- --- ---- -- ------ ------<br>--- ----- -- ----,62793.699999999255,62793,62481.613,62482.199999999255,62498.279,62798.161,,6,lasting
screen,html.Screen,0_2_0_1_7,2021-11-04T13:24:03.856Z,,,,,,,,,,,,,,,,53,,,,,,,,,,,,,,354.7389999985098,,response,,,99,,,,,,Space,keypress(Space),,,,,---- -- ----- -- ------ - ------- and ----------<br>------------- ------ ------ ---- ---- ------- ----- -- ----<br>-------- ------- -- ---------- --- - --- ----- ----- ----<br>---- --- --- ----- --- ---- ---- ------- ----- ---- -------<br>--- --- -- ----- -- --- ---- -- --- ---- -- ------ ------<br>--- ----- -- ----,63153.5,63152.89999999851,62781.497,62793.89999999851,62798.161,63164.911,,7,and
screen,html.Screen,0_2_0_1_8,2021-11-04T13:24:04.169Z,,,,,,,,,,,,,,,,53,,,,,,,,,,,,,,299.8889999970197,,response,,,99,,,,,,Space,keypress(Space),,,,,---- -- ----- -- ------ - ------- --- fulfilling<br>------------- ------ ------ ---- ---- ------- ----- -- ----<br>-------- ------- -- ---------- --- - --- ----- ----- ----<br>---- --- --- ----- --- ---- ---- ------- ----- ---- -------<br>--- --- -- ----- -- --- ---- -- --- ---- -- ------ ------<br>--- ----- -- ----,63465.599999997765,63464.79999999702,63148.245,63153.699999999255,63164.911,63481.553,,8,fulfilling
screen,html.Screen,0_2_0_1_9,2021-11-04T13:24:04.553Z,,,,,,,,,,,,,,,,53,,,,,,,,,,,,,,367.2469999970199,,response,,,99,,,,,,Space,keypress(Space),,,,,"---- -- ----- -- ------ - ------- --- ----------<br>relationship, ------ ------ ---- ---- ------- ----- -- ----<br>-------- ------- -- ---------- --- - --- ----- ----- ----<br>---- --- --- ----- --- ---- ---- ------- ----- ---- -------<br>--- --- -- ----- -- --- ---- -- --- ---- -- ------ ------<br>--- ----- -- ----",63849.599999997765,63848.79999999702,63464.887,63465.89999999851,63481.553,63864.831,,9,"relationship,"
screen,html.Screen,0_2_0_1_10,2021-11-04T13:24:04.904Z,,,,,,,,,,,,,,,,53,,,,,,,,,,,,,,335.96899999702146,,response,,,99,,,,,,Space,keypress(Space),,,,,---- -- ----- -- ------ - ------- --- ----------<br>------------- common ------ ---- ---- ------- ----- -- ----<br>-------- ------- -- ---------- --- - --- ----- ----- ----<br>---- --- --- ----- --- ---- ---- ------- ----- ---- -------<br>--- --- -- ----- -- --- ---- -- --- ---- -- ------ ------<br>--- ----- -- ----,64201.39999999851,64200.79999999702,63848.166,63849.699999999255,63864.831,64214.756,,10,common
screen,html.Screen,0_2_0_1_11,2021-11-04T13:24:05.249Z,,,,,,,,,,,,,,,,53,,,,,,,,,,,,,,330.04399999701855,,response,,,99,,,,,,Space,keypress(Space),,,,,---- -- ----- -- ------ - ------- --- ----------<br>------------- ------ wisdom ---- ---- ------- ----- -- ----<br>-------- ------- -- ---------- --- - --- ----- ----- ----<br>---- --- --- ----- --- ---- ---- ------- ----- ---- -------<br>--- --- -- ----- -- --- ---- -- --- ---- -- ------ ------<br>--- ----- -- ----,64545.5,64544.79999999702,64198.092,64201.699999999255,64214.756,64548.171,,11,wisdom
screen,html.Screen,0_2_0_1_12,2021-11-04T13:24:05.584Z,,,,,,,,,,,,,,,,53,,,,,,,,,,,,,,332.52899999925285,,response,,,99,,,,,,Space,keypress(Space),,,,,---- -- ----- -- ------ - ------- --- ----------<br>------------- ------ ------ says ---- ------- ----- -- ----<br>-------- ------- -- ---------- --- - --- ----- ----- ----<br>---- --- --- ----- --- ---- ---- ------- ----- ---- -------<br>--- --- -- ----- -- --- ---- -- --- ---- -- ------ ------<br>--- ----- -- ----,64881.39999999851,64880.699999999255,64531.505,64545.89999999851,64548.171,64898.101,,12,says
screen,html.Screen,0_2_0_1_13,2021-11-04T13:24:05.888Z,,,,,,,,,,,,,,,,53,,,,,,,,,,,,,,286.6989999970174,,response,,,99,,,,,,Space,keypress(Space),,,,,---- -- ----- -- ------ - ------- --- ----------<br>------------- ------ ------ ---- that ------- ----- -- ----<br>-------- ------- -- ---------- --- - --- ----- ----- ----<br>---- --- --- ----- --- ---- ---- ------- ----- ---- -------<br>--- --- -- ----- -- --- ---- -- --- ---- -- ------ ------<br>--- ----- -- ----,65185.39999999851,65184.79999999702,64881.436,64881.5,64898.101,65198.025,,13,that
screen,html.Screen,0_2_0_1_14,2021-11-04T13:24:06.184Z,,,,,,,,,,,,,,,,53,,,,,,,,,,,,,,282.7749999970183,,response,,,99,,,,,,Space,keypress(Space),,,,,---- -- ----- -- ------ - ------- --- ----------<br>------------- ------ ------ ---- ---- feeling ----- -- ----<br>-------- ------- -- ---------- --- - --- ----- ----- ----<br>---- --- --- ----- --- ---- ---- ------- ----- ---- -------<br>--- --- -- ----- -- --- ---- -- --- ---- -- ------ ------<br>--- ----- -- ----,65481.39999999851,65480.79999999702,65181.361,65185.5,65198.025,65498.088,,14,feeling
screen,html.Screen,0_2_0_1_15,2021-11-04T13:24:06.496Z,,,,,,,,,,,,,,,,53,,,,,,,,,,,,,,294.7119999970164,,response,,,99,,,,,,Space,keypress(Space),,,,,---- -- ----- -- ------ - ------- --- ----------<br>------------- ------ ------ ---- ---- ------- close -- ----<br>-------- ------- -- ---------- --- - --- ----- ----- ----<br>---- --- --- ----- --- ---- ---- ------- ----- ---- -------<br>--- --- -- ----- -- --- ---- -- --- ---- -- ------ ------<br>--- ----- -- ----,65793.39999999851,65792.79999999702,65481.422,65481.599999997765,65498.088,65798.131,,15,close
screen,html.Screen,0_2_0_1_16,2021-11-04T13:24:06.808Z,,,,,,,,,,,,,,,,53,,,,,,,,,,,,,,306.6689999970258,,response,,,99,,,,,,Space,keypress(Space),,,,,---- -- ----- -- ------ - ------- --- ----------<br>------------- ------ ------ ---- ---- ------- ----- to ----<br>-------- ------- -- ---------- --- - --- ----- ----- ----<br>---- --- --- ----- --- ---- ---- ------- ----- ---- -------<br>--- --- -- ----- -- --- ---- -- --- ---- -- ------ ------<br>--- ----- -- ----,66105.39999999851,66104.79999999702,65781.464,65793.59999999776,65798.131,66114.629,,16,to
screen,html.Screen,0_2_0_1_17,2021-11-04T13:24:07.152Z,,,,,,,,,,,,,,,,53,,,,,,,,,,,,,,334.17099999701895,,response,,,99,,,,,,Space,keypress(Space),,,,,---- -- ----- -- ------ - ------- --- ----------<br>------------- ------ ------ ---- ---- ------- ----- -- your<br>-------- ------- -- ---------- --- - --- ----- ----- ----<br>---- --- --- ----- --- ---- ---- ------- ----- ---- -------<br>--- --- -- ----- -- --- ---- -- --- ---- -- ------ ------<br>--- ----- -- ----,66449.39999999851,66448.79999999702,66097.966,66105.5,66114.629,66464.767,,17,your
screen,html.Screen,0_2_0_1_18,2021-11-04T13:24:07.456Z,,,,,,,,,,,,,,,,53,,,,,,,,,,,,,,287.8329999977577,,response,,,99,,,,,,Space,keypress(Space),,,,,---- -- ----- -- ------ - ------- --- ----------<br>------------- ------ ------ ---- ---- ------- ----- -- ----<br>romantic ------- -- ---------- --- - --- ----- ----- ----<br>---- --- --- ----- --- ---- ---- ------- ----- ---- -------<br>--- --- -- ----- -- --- ---- -- --- ---- -- ------ ------<br>--- ----- -- ----,66753.29999999702,66752.59999999776,66448.1,66449.5,66464.767,66764.672,,18,romantic
screen,html.Screen,0_2_0_1_19,2021-11-04T13:24:07.728Z,,,,,,,,,,,,,,,,53,,,,,,,,,,,,,,259.9279999977589,,response,,,99,,,,,,Space,keypress(Space),,,,,---- -- ----- -- ------ - ------- --- ----------<br>------------- ------ ------ ---- ---- ------- ----- -- ----<br>-------- partner -- ---------- --- - --- ----- ----- ----<br>---- --- --- ----- --- ---- ---- ------- ----- ---- -------<br>--- --- -- ----- -- --- ---- -- --- ---- -- ------ ------<br>--- ----- -- ----,67025.19999999925,67024.59999999776,66748.007,66753.39999999851,66764.672,67031.332,,19,partner
screen,html.Screen,0_2_0_1_20,2021-11-04T13:24:08.016Z,,,,,,,,,,,,,,,,53,,,,,,,,,,,,,,281.26799999776995,,response,,,99,,,,,,Space,keypress(Space),,,,,---- -- ----- -- ------ - ------- --- ----------<br>------------- ------ ------ ---- ---- ------- ----- -- ----<br>-------- ------- is ---------- --- - --- ----- ----- ----<br>---- --- --- ----- --- ---- ---- ------- ----- ---- -------<br>--- --- -- ----- -- --- ---- -- --- ---- -- ------ ------<br>--- ----- -- ----,67313.29999999702,67312.59999999776,67014.667,67025.39999999851,67031.332,67314.649,,20,is
screen,html.Screen,0_2_0_1_21,2021-11-04T13:24:08.304Z,,,,,,,,,,,,,,,,53,,,,,,,,,,,,,,285.95099999775994,,response,,,99,,,,,,Space,keypress(Space),,,,,---- -- ----- -- ------ - ------- --- ----------<br>------------- ------ ------ ---- ---- ------- ----- -- ----<br>-------- ------- -- paramount. --- - --- ----- ----- ----<br>---- --- --- ----- --- ---- ---- ------- ----- ---- -------<br>--- --- -- ----- -- --- ---- -- --- ---- -- ------ ------<br>--- ----- -- ----,67601.19999999925,67600.59999999776,67297.984,67313.5,67314.649,67614.478,,21,paramount.
screen,html.Screen,0_2_0_1_22,2021-11-04T13:24:08.664Z,,,,,,,,,,,,,,,,53,,,,,,,,,,,,,,346.12199999776203,,response,,,99,,,,,,Space,keypress(Space),,,,,---- -- ----- -- ------ - ------- --- ----------<br>------------- ------ ------ ---- ---- ------- ----- -- ----<br>-------- ------- -- ---------- But - --- ----- ----- ----<br>---- --- --- ----- --- ---- ---- ------- ----- ---- -------<br>--- --- -- ----- -- --- ---- -- --- ---- -- ------ ------<br>--- ----- -- ----,67961.19999999925,67960.59999999776,67597.816,67601.59999999776,67614.478,67964.707,,22,But
screen,html.Screen,0_2_0_1_23,2021-11-04T13:24:08.960Z,,,,,,,,,,,,,,,,53,,,,,,,,,,,,,,291.89299999776995,,response,,,99,,,,,,Space,keypress(Space),,,,,---- -- ----- -- ------ - ------- --- ----------<br>------------- ------ ------ ---- ---- ------- ----- -- ----<br>-------- ------- -- ---------- --- a --- ----- ----- ----<br>---- --- --- ----- --- ---- ---- ------- ----- ---- -------<br>--- --- -- ----- -- --- ---- -- --- ---- -- ------ ------<br>--- ----- -- ----,68257.19999999925,68256.59999999776,67948.039,67961.39999999851,67964.707,68264.588,,23,a
screen,html.Screen,0_2_0_1_24,2021-11-04T13:24:09.200Z,,,,,,,,,,,,,,,,53,,,,,,,,,,,,,,231.91199999999662,,response,,,99,,,,,,Space,keypress(Space),,,,,---- -- ----- -- ------ - ------- --- ----------<br>------------- ------ ------ ---- ---- ------- ----- -- ----<br>-------- ------- -- ---------- --- - new ----- ----- ----<br>---- --- --- ----- --- ---- ---- ------- ----- ---- -------<br>--- --- -- ----- -- --- ---- -- --- ---- -- ------ ------<br>--- ----- -- ----,68497.09999999776,68496.5,68247.923,68257.29999999702,68264.588,68497.924,,24,new
screen,html.Screen,0_2_0_1_25,2021-11-04T13:24:09.480Z,,,,,,,,,,,,,,,,53,,,,,,,,,,,,,,278.57600000000093,,response,,,99,,,,,,Space,keypress(Space),,,,,---- -- ----- -- ------ - ------- --- ----------<br>------------- ------ ------ ---- ---- ------- ----- -- ----<br>-------- ------- -- ---------- --- - --- study ----- ----<br>---- --- --- ----- --- ---- ---- ------- ----- ---- -------<br>--- --- -- ----- -- --- ---- -- --- ---- -- ------ ------<br>--- ----- -- ----,68777.09999999776,68776.5,68481.259,68497.29999999702,68497.924,68781.176,,25,study
screen,html.Screen,0_2_0_1_26,2021-11-04T13:24:09.760Z,,,,,,,,,,,,,,,,53,,,,,,,,,,,,,,275.32399999999325,,response,,,99,,,,,,Space,keypress(Space),,,,,---- -- ----- -- ------ - ------- --- ----------<br>------------- ------ ------ ---- ---- ------- ----- -- ----<br>-------- ------- -- ---------- --- - --- ----- finds ----<br>---- --- --- ----- --- ---- ---- ------- ----- ---- -------<br>--- --- -- ----- -- --- ---- -- --- ---- -- ------ ------<br>--- ----- -- ----,69057.19999999925,69056.5,68764.512,68777.29999999702,68781.176,69064.561,,26,finds
screen,html.Screen,0_2_0_1_27,2021-11-04T13:24:10.048Z,,,,,,,,,,,,,,,,53,,,,,,,,,,,,,,279.9389999999985,,response,,,99,,,,,,Space,keypress(Space),,,,,---- -- ----- -- ------ - ------- --- ----------<br>------------- ------ ------ ---- ---- ------- ----- -- ----<br>-------- ------- -- ---------- --- - --- ----- ----- that<br>---- --- --- ----- --- ---- ---- ------- ----- ---- -------<br>--- --- -- ----- -- --- ---- -- --- ---- -- ------ ------<br>--- ----- -- ----,69345.09999999776,69344.5,69047.895,69057.5,69064.561,69347.853,,27,that
screen,html.Screen,0_2_0_1_28,2021-11-04T13:24:10.296Z,,,,,,,,,,,,,,,,53,,,,,,,,,,,,,,244.5469999985071,,response,,,99,,,,,,Space,keypress(Space),,,,,---- -- ----- -- ------ - ------- --- ----------<br>------------- ------ ------ ---- ---- ------- ----- -- ----<br>-------- ------- -- ---------- --- - --- ----- ----- ----<br>it's --- --- ----- --- ---- ---- ------- ----- ---- -------<br>--- --- -- ----- -- --- ---- -- --- ---- -- ------ ------<br>--- ----- -- ----,69593,69592.39999999851,69331.188,69345.29999999702,69347.853,69597.881,,28,it's
screen,html.Screen,0_2_0_1_29,2021-11-04T13:24:10.552Z,,,,,,,,,,,,,,,,53,,,,,,,,,,,,,,250.51899999851594,,response,,,99,,,,,,Space,keypress(Space),,,,,---- -- ----- -- ------ - ------- --- ----------<br>------------- ------ ------ ---- ---- ------- ----- -- ----<br>-------- ------- -- ---------- --- - --- ----- ----- ----<br>---- not --- ----- --- ---- ---- ------- ----- ---- -------<br>--- --- -- ----- -- --- ---- -- --- ---- -- ------ ------<br>--- ----- -- ----,69849,69848.39999999851,69581.215,69593.19999999925,69597.881,69864.469,,29,not
screen,html.Screen,0_2_0_1_30,2021-11-04T13:24:10.888Z,,,,,,,,,,,,,,,,53,,,,,,,,,,,,,,320.0310000000027,,response,,,99,,,,,,Space,keypress(Space),,,,,---- -- ----- -- ------ - ------- --- ----------<br>------------- ------ ------ ---- ---- ------- ----- -- ----<br>-------- ------- -- ---------- --- - --- ----- ----- ----<br>---- --- how ----- --- ---- ---- ------- ----- ---- -------<br>--- --- -- ----- -- --- ---- -- --- ---- -- ------ ------<br>--- ----- -- ----,70185,70184.5,69847.805,69849.19999999925,69864.469,70197.802,,30,how
screen,html.Screen,0_2_0_1_31,2021-11-04T13:24:11.144Z,,,,,,,,,,,,,,,,53,,,,,,,,,,,,,,242.8979999992589,,response,,,99,,,,,,Space,keypress(Space),,,,,---- -- ----- -- ------ - ------- --- ----------<br>------------- ------ ------ ---- ---- ------- ----- -- ----<br>-------- ------- -- ---------- --- - --- ----- ----- ----<br>---- --- --- close --- ---- ---- ------- ----- ---- -------<br>--- --- -- ----- -- --- ---- -- --- ---- -- ------ ------<br>--- ----- -- ----,70441.19999999925,70440.69999999925,70181.137,70185.19999999925,70197.802,70447.837,,31,close
screen,html.Screen,0_2_0_1_32,2021-11-04T13:24:11.432Z,,,,,,,,,,,,,,,,53,,,,,,,,,,,,,,280.56299999851035,,response,,,99,,,,,,Space,keypress(Space),,,,,---- -- ----- -- ------ - ------- --- ----------<br>------------- ------ ------ ---- ---- ------- ----- -- ----<br>-------- ------- -- ---------- --- - --- ----- ----- ----<br>---- --- --- ----- you ---- ---- ------- ----- ---- -------<br>--- --- -- ----- -- --- ---- -- --- ---- -- ------ ------<br>--- ----- -- ----,70729,70728.39999999851,70431.171,70441.39999999851,70447.837,70731.084,,32,you
screen,html.Screen,0_2_0_1_33,2021-11-04T13:24:11.712Z,,,,,,,,,,,,,,,,53,,,,,,,,,,,,,,277.3159999985073,,response,,,99,,,,,,Space,keypress(Space),,,,,---- -- ----- -- ------ - ------- --- ----------<br>------------- ------ ------ ---- ---- ------- ----- -- ----<br>-------- ------- -- ---------- --- - --- ----- ----- ----<br>---- --- --- ----- --- feel ---- ------- ----- ---- -------<br>--- --- -- ----- -- --- ---- -- --- ---- -- ------ ------<br>--- ----- -- ----,71008.89999999851,71008.39999999851,70714.42,70729.19999999925,70731.084,71014.432,,33,feel
screen,html.Screen,0_2_0_1_34,2021-11-04T13:24:12.032Z,,,,,,,,,,,,,,,,53,,,,,,,,,,,,,,313.9679999985092,,response,,,99,,,,,,Space,keypress(Space),,,,,---- -- ----- -- ------ - ------- --- ----------<br>------------- ------ ------ ---- ---- ------- ----- -- ----<br>-------- ------- -- ---------- --- - --- ----- ----- ----<br>---- --- --- ----- --- ---- that ------- ----- ---- -------<br>--- --- -- ----- -- --- ---- -- --- ---- -- ------ ------<br>--- ----- -- ----,71328.89999999851,71328.39999999851,70997.767,71009.19999999925,71014.432,71331.072,,34,that
screen,html.Screen,0_2_0_1_35,2021-11-04T13:24:12.296Z,,,,,,,,,,,,,,,,53,,,,,,,,,,,,,,261.32799999850977,,response,,,99,,,,,,Space,keypress(Space),,,,,---- -- ----- -- ------ - ------- --- ----------<br>------------- ------ ------ ---- ---- ------- ----- -- ----<br>-------- ------- -- ---------- --- - --- ----- ----- ----<br>---- --- --- ----- --- ---- ---- matters ----- ---- -------<br>--- --- -- ----- -- --- ---- -- --- ---- -- ------ ------<br>--- ----- -- ----,71592.89999999851,71592.39999999851,71314.407,71329.09999999776,71331.072,71597.734,,35,matters
screen,html.Screen,0_2_0_1_36,2021-11-04T13:24:12.552Z,,,,,,,,,,,,,,,,53,,,,,,,,,,,,,,250.76600000000326,,response,,,99,,,,,,Space,keypress(Space),,,,,"---- -- ----- -- ------ - ------- --- ----------<br>------------- ------ ------ ---- ---- ------- ----- -- ----<br>-------- ------- -- ---------- --- - --- ----- ----- ----<br>---- --- --- ----- --- ---- ---- ------- most, ---- -------<br>--- --- -- ----- -- --- ---- -- --- ---- -- ------ ------<br>--- ----- -- ----",71849.29999999702,71848.5,71581.069,71593.09999999776,71597.734,71864.379,,36,"most,"
screen,html.Screen,0_2_0_1_37,2021-11-04T13:24:12.840Z,,,,,,,,,,,,,,,,53,,,,,,,,,,,,,,272.02099999850907,,response,,,99,,,,,,Space,keypress(Space),,,,,---- -- ----- -- ------ - ------- --- ----------<br>------------- ------ ------ ---- ---- ------- ----- -- ----<br>-------- ------- -- ---------- --- - --- ----- ----- ----<br>---- --- --- ----- --- ---- ---- ------- ----- it's -------<br>--- --- -- ----- -- --- ---- -- --- ---- -- ------ ------<br>--- ----- -- ----,72136.89999999851,72136.39999999851,71847.714,71849.39999999851,71864.379,72147.703,,37,it's
screen,html.Screen,0_2_0_1_38,2021-11-04T13:24:13.112Z,,,,,,,,,,,,,,,,53,,,,,,,,,,,,,,260.5969999970257,,response,,,99,,,,,,Space,keypress(Space),,,,,---- -- ----- -- ------ - ------- --- ----------<br>------------- ------ ------ ---- ---- ------- ----- -- ----<br>-------- ------- -- ---------- --- - --- ----- ----- ----<br>---- --- --- ----- --- ---- ---- ------- ----- ---- whether<br>--- --- -- ----- -- --- ---- -- --- ---- -- ------ ------<br>--- ----- -- ----,72408.89999999851,72408.29999999702,72131.038,72137.09999999776,72147.703,72414.303,,38,whether
screen,html.Screen,0_2_0_1_39,2021-11-04T13:24:13.368Z,,,,,,,,,,,,,,,,53,,,,,,,,,,,,,,249.99699999701988,,response,,,99,,,,,,Space,keypress(Space),,,,,---- -- ----- -- ------ - ------- --- ----------<br>------------- ------ ------ ---- ---- ------- ----- -- ----<br>-------- ------- -- ---------- --- - --- ----- ----- ----<br>---- --- --- ----- --- ---- ---- ------- ----- ---- -------<br>you --- -- ----- -- --- ---- -- --- ---- -- ------ ------<br>--- ----- -- ----,72664.89999999851,72664.29999999702,72397.639,72409.09999999776,72414.303,72681.039,,39,you
screen,html.Screen,0_2_0_1_40,2021-11-04T13:24:13.624Z,,,,,,,,,,,,,,,,53,,,,,,,,,,,,,,239.26099999701546,,response,,,99,,,,,,Space,keypress(Space),,,,,---- -- ----- -- ------ - ------- --- ----------<br>------------- ------ ------ ---- ---- ------- ----- -- ----<br>-------- ------- -- ---------- --- - --- ----- ----- ----<br>---- --- --- ----- --- ---- ---- ------- ----- ---- -------<br>--- are -- ----- -- --- ---- -- --- ---- -- ------ ------<br>--- ----- -- ----,72920.89999999851,72920.29999999702,72664.373,72665.09999999776,72681.039,72930.893,,40,are
screen,html.Screen,0_2_0_1_41,2021-11-04T13:24:13.856Z,,,,,,,,,,,,,,,,53,,,,,,,,,,,,,,221.30699999925855,,response,,,99,,,,,,Space,keypress(Space),,,,,---- -- ----- -- ------ - ------- --- ----------<br>------------- ------ ------ ---- ---- ------- ----- -- ----<br>-------- ------- -- ---------- --- - --- ----- ----- ----<br>---- --- --- ----- --- ---- ---- ------- ----- ---- -------<br>--- --- as ----- -- --- ---- -- --- ---- -- ------ ------<br>--- ----- -- ----,73152.79999999702,73152.19999999925,72914.23,72921.09999999776,72930.893,73164.365,,41,as
screen,html.Screen,0_2_0_1_42,2021-11-04T13:24:14.176Z,,,,,,,,,,,,,,,,53,,,,,,,,,,,,,,307.93499999701453,,response,,,99,,,,,,Space,keypress(Space),,,,,---- -- ----- -- ------ - ------- --- ----------<br>------------- ------ ------ ---- ---- ------- ----- -- ----<br>-------- ------- -- ---------- --- - --- ----- ----- ----<br>---- --- --- ----- --- ---- ---- ------- ----- ---- -------<br>--- --- -- close -- --- ---- -- --- ---- -- ------ ------<br>--- ----- -- ----,73472.79999999702,73472.29999999702,73147.698,73153,73164.365,73480.954,,42,close
screen,html.Screen,0_2_0_1_43,2021-11-04T13:24:14.456Z,,,,,,,,,,,,,,,,53,,,,,,,,,,,,,,271.24599999925704,,response,,,99,,,,,,Space,keypress(Space),,,,,---- -- ----- -- ------ - ------- --- ----------<br>------------- ------ ------ ---- ---- ------- ----- -- ----<br>-------- ------- -- ---------- --- - --- ----- ----- ----<br>---- --- --- ----- --- ---- ---- ------- ----- ---- -------<br>--- --- -- ----- as --- ---- -- --- ---- -- ------ ------<br>--- ----- -- ----,73752.79999999702,73752.19999999925,73464.289,73473.09999999776,73480.954,73764.351,,43,as
screen,html.Screen,0_2_0_1_44,2021-11-04T13:24:14.744Z,,,,,,,,,,,,,,,,53,,,,,,,,,,,,,,275.94899999702466,,response,,,99,,,,,,Space,keypress(Space),,,,,---- -- ----- -- ------ - ------- --- ----------<br>------------- ------ ------ ---- ---- ------- ----- -- ----<br>-------- ------- -- ---------- --- - --- ----- ----- ----<br>---- --- --- ----- --- ---- ---- ------- ----- ---- -------<br>--- --- -- ----- -- you ---- -- --- ---- -- ------ ------<br>--- ----- -- ----,74040.79999999702,74040.29999999702,73747.684,73753,73764.351,74047.554,,44,you
screen,html.Screen,0_2_0_1_45,2021-11-04T13:24:15.032Z,,,,,,,,,,,,,,,,53,,,,,,,,,,,,,,280.6459999992512,,response,,,99,,,,,,Space,keypress(Space),,,,,---- -- ----- -- ------ - ------- --- ----------<br>------------- ------ ------ ---- ---- ------- ----- -- ----<br>-------- ------- -- ---------- --- - --- ----- ----- ----<br>---- --- --- ----- --- ---- ---- ------- ----- ---- -------<br>--- --- -- ----- -- --- want -- --- ---- -- ------ ------<br>--- ----- -- ----,74328.79999999702,74328.19999999925,74030.89,74041,74047.554,74330.962,,45,want
screen,html.Screen,0_2_0_1_46,2021-11-04T13:24:15.280Z,,,,,,,,,,,,,,,,53,,,,,,,,,,,,,,245.2379999992554,,response,,,99,,,,,,Space,keypress(Space),,,,,---- -- ----- -- ------ - ------- --- ----------<br>------------- ------ ------ ---- ---- ------- ----- -- ----<br>-------- ------- -- ---------- --- - --- ----- ----- ----<br>---- --- --- ----- --- ---- ---- ------- ----- ---- -------<br>--- --- -- ----- -- --- ---- to --- ---- -- ------ ------<br>--- ----- -- ----,74576.69999999925,74576.19999999925,74314.295,74329,74330.962,74580.922,,46,to
screen,html.Screen,0_2_0_1_47,2021-11-04T13:24:15.584Z,,,,,,,,,,,,,,,,53,,,,,,,,,,,,,,299.277999999249,,response,,,99,,,,,,Space,keypress(Space),,,,,"---- -- ----- -- ------ - ------- --- ----------<br>------------- ------ ------ ---- ---- ------- ----- -- ----<br>-------- ------- -- ---------- --- - --- ----- ----- ----<br>---- --- --- ----- --- ---- ---- ------- ----- ---- -------<br>--- --- -- ----- -- --- ---- -- be, ---- -- ------ ------<br>--- ----- -- ----",74880.79999999702,74880.19999999925,74564.257,74577,74580.922,74897.484,,47,"be,"
screen,html.Screen,0_2_0_1_48,2021-11-04T13:24:15.944Z,,,,,,,,,,,,,,,,53,,,,,,,,,,,,,,342.7159999992582,,response,,,99,,,,,,Space,keypress(Space),,,,,---- -- ----- -- ------ - ------- --- ----------<br>------------- ------ ------ ---- ---- ------- ----- -- ----<br>-------- ------- -- ---------- --- - --- ----- ----- ----<br>---- --- --- ----- --- ---- ---- ------- ----- ---- -------<br>--- --- -- ----- -- --- ---- -- --- even -- ------ ------<br>--- ----- -- ----,75240.79999999702,75240.19999999925,74880.821,74881,74897.484,75247.528,,48,even
screen,html.Screen,0_2_0_1_49,2021-11-04T13:24:16.248Z,,,,,,,,,,,,,,,,53,,,,,,,,,,,,,,296.5719999977591,,response,,,99,,,,,,Space,keypress(Space),,,,,---- -- ----- -- ------ - ------- --- ----------<br>------------- ------ ------ ---- ---- ------- ----- -- ----<br>-------- ------- -- ---------- --- - --- ----- ----- ----<br>---- --- --- ----- --- ---- ---- ------- ----- ---- -------<br>--- --- -- ----- -- --- ---- -- --- ---- if ------ ------<br>--- ----- -- ----,75544.79999999702,75544.09999999776,75230.863,75240.89999999851,75247.528,75547.505,,49,if
screen,html.Screen,0_2_0_1_50,2021-11-04T13:24:16.456Z,,,,,,,,,,,,,,,,53,,,,,,,,,,,,,,204.59499999776017,,response,,,99,,,,,,Space,keypress(Space),,,,,---- -- ----- -- ------ - ------- --- ----------<br>------------- ------ ------ ---- ---- ------- ----- -- ----<br>-------- ------- -- ---------- --- - --- ----- ----- ----<br>---- --- --- ----- --- ---- ---- ------- ----- ---- -------<br>--- --- -- ----- -- --- ---- -- --- ---- -- that's ------<br>--- ----- -- ----,75752.69999999925,75752.09999999776,75530.84,75544.89999999851,75547.505,75764.22,,50,that's
screen,html.Screen,0_2_0_1_51,2021-11-04T13:24:16.832Z,,,,,,,,,,,,,,,,53,,,,,,,,,,,,,,363.9799999992538,,response,,,99,,,,,,Space,keypress(Space),,,,,---- -- ----- -- ------ - ------- --- ----------<br>------------- ------ ------ ---- ---- ------- ----- -- ----<br>-------- ------- -- ---------- --- - --- ----- ----- ----<br>---- --- --- ----- --- ---- ---- ------- ----- ---- -------<br>--- --- -- ----- -- --- ---- -- --- ---- -- ------ really<br>--- ----- -- ----,76128.79999999702,76128.19999999925,75747.554,75752.89999999851,75764.22,76130.775,,51,really
screen,html.Screen,0_2_0_1_52,2021-11-04T13:24:16.992Z,,,,,,,,,,,,,,,,53,,,,,,,,,,,,,,157.32499999777065,,response,,,99,,,,,,Space,keypress(Space),,,,,---- -- ----- -- ------ - ------- --- ----------<br>------------- ------ ------ ---- ---- ------- ----- -- ----<br>-------- ------- -- ---------- --- - --- ----- ----- ----<br>---- --- --- ----- --- ---- ---- ------- ----- ---- -------<br>--- --- -- ----- -- --- ---- -- --- ---- -- ------ ------<br>not ----- -- ----,76288.69999999925,76288.09999999776,76114.111,76129,76130.775,76297.551,,52,not
screen,html.Screen,0_2_0_1_53,2021-11-04T13:24:17.200Z,,,,,,,,,,,,,,,,53,,,,,,,,,,,,,,198.54899999775807,,response,,,99,,,,,,Space,keypress(Space),,,,,---- -- ----- -- ------ - ------- --- ----------<br>------------- ------ ------ ---- ---- ------- ----- -- ----<br>-------- ------- -- ---------- --- - --- ----- ----- ----<br>---- --- --- ----- --- ---- ---- ------- ----- ---- -------<br>--- --- -- ----- -- --- ---- -- --- ---- -- ------ ------<br>--- close -- ----,76496.69999999925,76496.09999999776,76280.884,76288.79999999702,76297.551,76514.105,,53,close
screen,html.Screen,0_2_0_1_54,2021-11-04T13:24:17.480Z,,,,,,,,,,,,,,,,53,,,,,,,,,,,,,,261.9949999977689,,response,,,99,,,,,,Space,keypress(Space),,,,,---- -- ----- -- ------ - ------- --- ----------<br>------------- ------ ------ ---- ---- ------- ----- -- ----<br>-------- ------- -- ---------- --- - --- ----- ----- ----<br>---- --- --- ----- --- ---- ---- ------- ----- ---- -------<br>--- --- -- ----- -- --- ---- -- --- ---- -- ------ ------<br>--- ----- at ----,76776.59999999776,76776.09999999776,76497.441,76496.89999999851,76514.105,76780.744,,54,at
screen,html.Screen,0_2_0_1_55,2021-11-04T13:24:18.000Z,,,,,,,,,,,,,,,,53,,,,,,,,,,,,,,515.3559999977588,,response,,,99,,,,,,Space,keypress(Space),,,,,---- -- ----- -- ------ - ------- --- ----------<br>------------- ------ ------ ---- ---- ------- ----- -- ----<br>-------- ------- -- ---------- --- - --- ----- ----- ----<br>---- --- --- ----- --- ---- ---- ------- ----- ---- -------<br>--- --- -- ----- -- --- ---- -- --- ---- -- ------ ------<br>--- ----- -- all.,77296.59999999776,77296.09999999776,76764.08,76776.69999999925,76780.744,77314.047,,55,all.
Item 99,flow.Loop,0_2_0_1,2021-11-04T13:24:18.003Z,,,,,,,,,,,,,,,,,,,,,,,,,,,,,,18231.038999997763,,completion,,,,B,,,,,,,,,,silence,,77300,77296.09999999776,59048.396,59052.199999999255,59065.061,77314.047,,,
Question 1,html.Screen,0_2_0_2,2021-11-04T13:24:23.086Z,,,,,,,,,,,,,,,,,,,,,,,,,,,false,FALSE,,5068.152999999249,,response,,,99,B,,,,,TRUE,click #choice-1,,,,silence,,82383.19999999925,82382.19999999925,77297.382,77300.09999999776,77314.047,82397.027,,,
Question 2,html.Screen,0_2_0_3,2021-11-04T13:24:30.428Z,,,,,,,,,,,,,,,,,,,,,,,,,,,true,TRUE,,7327.072999997763,,response,,,99,B,,,,,TRUE,click #choice-1,,,,silence,,89725,89724.09999999776,82380.364,82383.39999999851,82397.027,89730.171,,,
Item 99,flow.Sequence,0_2_0,2021-11-04T13:24:30.428Z,,,,,,,,,,,,,,,,,,,,,,,,,,,,,,40658.476999997765,,completion,,,,,,,,,,,,,,,,89725.29999999702,89724.09999999776,49048.958,49059.89999999851,49065.623,89730.171,,,
Holding screen,html.Screen,0_2_1_0,2021-11-04T13:24:40.416Z,,,,,,,,,,,,,,,,,,,,,,,,,,,,,,9999.313999999998,,timeout,,,,,,,,,,,,,,,,99713.39999999851,99712.82,89713.503,89725.5,89730.171,99729.485,,,
screen,html.Screen,0_2_1_1_0,2021-11-04T13:24:41.879Z,,,,,,,,,,,,,,,,54,,,,,,,,,,,,,,1445.6149999977642,,response,,,100,,,,,,Space,keypress(Space),,,,,At --- ---- --- ------ ----- ------- ---- -- --- ------- --<br>------- ---------- ------ -- ----- -- ----- -- ---- ------<br>--- ----- --- --- ------ -------- ----- --- ------ ----- --<br>----- ----- ---------- --- --- ------ ------ ---- -- ------<br>------- --- ------ ----- --- ---- ------- -- ---- --- --<br>------- ------,101175.69999999925,101175.09999999776,99712.82,99713.59999999776,99729.485,101179.362,,0,At
screen,html.Screen,0_2_1_1_1,2021-11-04T13:24:42.174Z,,,,,,,,,,,,,,,,54,,,,,,,,,,,,,,291.43799999702605,,response,,,100,,,,,,Space,keypress(Space),,,,,-- the ---- --- ------ ----- ------- ---- -- --- ------- --<br>------- ---------- ------ -- ----- -- ----- -- ---- ------<br>--- ----- --- --- ------ -------- ----- --- ------ ----- --<br>----- ----- ---------- --- --- ------ ------ ---- -- ------<br>------- --- ------ ----- --- ---- ------- -- ---- --- --<br>------- ------,101471.29999999702,101470.79999999702,101162.697,101175.89999999851,101179.362,101479.421,,1,the
screen,html.Screen,0_2_1_1_2,2021-11-04T13:24:42.494Z,,,,,,,,,,,,,,,,54,,,,,,,,,,,,,,311.3789999970177,,response,,,100,,,,,,Space,keypress(Space),,,,,-- --- time --- ------ ----- ------- ---- -- --- ------- --<br>------- ---------- ------ -- ----- -- ----- -- ---- ------<br>--- ----- --- --- ------ -------- ----- --- ------ ----- --<br>----- ----- ---------- --- --- ------ ------ ---- -- ------<br>------- --- ------ ----- --- ---- ------- -- ---- --- --<br>------- ------,101791.39999999851,101790.79999999702,101462.756,101471.5,101479.421,101796.059,,2,time
screen,html.Screen,0_2_1_1_3,2021-11-04T13:24:42.702Z,,,,,,,,,,,,,,,,54,,,,,,,,,,,,,,202.6409999992611,,response,,,100,,,,,,Space,keypress(Space),,,,,-- --- ---- the ------ ----- ------- ---- -- --- ------- --<br>------- ---------- ------ -- ----- -- ----- -- ---- ------<br>--- ----- --- --- ------ -------- ----- --- ------ ----- --<br>----- ----- ---------- --- --- ------ ------ ---- -- ------<br>------- --- ------ ----- --- ---- ------- -- ---- --- --<br>------- ------,101999.29999999702,101998.69999999925,101779.394,101791.59999999776,101796.059,102029.383,,3,the
screen,html.Screen,0_2_1_1_4,2021-11-04T13:24:43.030Z,,,,,,,,,,,,,,,,54,,,,,,,,,,,,,,297.3169999992533,,response,,,100,,,,,,Space,keypress(Space),,,,,-- --- ---- --- French ----- ------- ---- -- --- ------- --<br>------- ---------- ------ -- ----- -- ----- -- ---- ------<br>--- ----- --- --- ------ -------- ----- --- ------ ----- --<br>----- ----- ---------- --- --- ------ ------ ---- -- ------<br>------- --- ------ ----- --- ---- ------- -- ---- --- --<br>------- ------,102327.19999999925,102326.69999999925,102012.718,101999.5,102029.383,102329.369,,4,French
screen,html.Screen,0_2_1_1_5,2021-11-04T13:24:43.390Z,,,,,,,,,,,,,,,,54,,,,,,,,,,,,,,357.2309999977588,,response,,,100,,,,,,Space,keypress(Space),,,,,-- --- ---- --- ------ crown ------- ---- -- --- ------- --<br>------- ---------- ------ -- ----- -- ----- -- ---- ------<br>--- ----- --- --- ------ -------- ----- --- ------ ----- --<br>----- ----- ---------- --- --- ------ ------ ---- -- ------<br>------- --- ------ ----- --- ---- ------- -- ---- --- --<br>------- ------,102687.29999999702,102686.59999999776,102312.704,102327.39999999851,102329.369,102695.949,,5,crown
screen,html.Screen,0_2_1_1_6,2021-11-04T13:24:43.734Z,,,,,,,,,,,,,,,,54,,,,,,,,,,,,,,334.6509999977716,,response,,,100,,,,,,Space,keypress(Space),,,,,-- --- ---- --- ------ ----- secured ---- -- --- ------- --<br>------- ---------- ------ -- ----- -- ----- -- ---- ------<br>--- ----- --- --- ------ -------- ----- --- ------ ----- --<br>----- ----- ---------- --- --- ------ ------ ---- -- ------<br>------- --- ------ ----- --- ---- ------- -- ---- --- --<br>------- ------,103031.29999999702,103030.59999999776,102679.285,102687.39999999851,102695.949,103046.028,,6,secured
screen,html.Screen,0_2_1_1_7,2021-11-04T13:24:44.046Z,,,,,,,,,,,,,,,,54,,,,,,,,,,,,,,296.67199999924924,,response,,,100,,,,,,Space,keypress(Space),,,,,-- --- ---- --- ------ ----- ------- much -- --- ------- --<br>------- ---------- ------ -- ----- -- ----- -- ---- ------<br>--- ----- --- --- ------ -------- ----- --- ------ ----- --<br>----- ----- ---------- --- --- ------ ------ ---- -- ------<br>------- --- ------ ----- --- ---- ------- -- ---- --- --<br>------- ------,103343.19999999925,103342.69999999925,103029.362,103031.5,103046.028,103345.974,,7,much
screen,html.Screen,0_2_1_1_8,2021-11-04T13:24:44.374Z,,,,,,,,,,,,,,,,54,,,,,,,,,,,,,,324.62599999776285,,response,,,100,,,,,,Space,keypress(Space),,,,,-- --- ---- --- ------ ----- ------- ---- of --- ------- --<br>------- ---------- ------ -- ----- -- ----- -- ---- ------<br>--- ----- --- --- ------ -------- ----- --- ------ ----- --<br>----- ----- ---------- --- --- ------ ------ ---- -- ------<br>------- --- ------ ----- --- ---- ------- -- ---- --- --<br>------- ------,103671.29999999702,103670.59999999776,103329.309,103343.5,103345.974,103695.953,,8,of
screen,html.Screen,0_2_1_1_9,2021-11-04T13:24:44.662Z,,,,,,,,,,,,,,,,54,,,,,,,,,,,,,,262.64699999777076,,response,,,100,,,,,,Space,keypress(Space),,,,,-- --- ---- --- ------ ----- ------- ---- -- its ------- --<br>------- ---------- ------ -- ----- -- ----- -- ---- ------<br>--- ----- --- --- ------ -------- ----- --- ------ ----- --<br>----- ----- ---------- --- --- ------ ------ ---- -- ------<br>------- --- ------ ----- --- ---- ------- -- ---- --- --<br>------- ------,103959.19999999925,103958.59999999776,103679.288,103671.59999999776,103695.953,103962.617,,9,its
screen,html.Screen,0_2_1_1_10,2021-11-04T13:24:44.926Z,,,,,,,,,,,,,,,,54,,,,,,,,,,,,,,259.98299999776646,,response,,,100,,,,,,Space,keypress(Space),,,,,-- --- ---- --- ------ ----- ------- ---- -- --- revenue --<br>------- ---------- ------ -- ----- -- ----- -- ---- ------<br>--- ----- --- --- ------ -------- ----- --- ------ ----- --<br>----- ----- ---------- --- --- ------ ------ ---- -- ------<br>------- --- ------ ----- --- ---- ------- -- ---- --- --<br>------- ------,104223.19999999925,104222.59999999776,103945.952,103959.29999999702,103962.617,104229.215,,10,revenue
screen,html.Screen,0_2_1_1_11,2021-11-04T13:24:45.198Z,,,,,,,,,,,,,,,,54,,,,,,,,,,,,,,265.3849999977683,,response,,,100,,,,,,Space,keypress(Space),,,,,-- --- ---- --- ------ ----- ------- ---- -- --- ------- by<br>------- ---------- ------ -- ----- -- ----- -- ---- ------<br>--- ----- --- --- ------ -------- ----- --- ------ ----- --<br>----- ----- ---------- --- --- ------ ------ ---- -- ------<br>------- --- ------ ----- --- ---- ------- -- ---- --- --<br>------- ------,104495.09999999776,104494.59999999776,104212.551,104223.29999999702,104229.215,104495.952,,11,by
screen,html.Screen,0_2_1_1_12,2021-11-04T13:24:45.558Z,,,,,,,,,,,,,,,,54,,,,,,,,,,,,,,358.5479999999952,,response,,,100,,,,,,Space,keypress(Space),,,,,-- --- ---- --- ------ ----- ------- ---- -- --- ------- --<br>issuing ---------- ------ -- ----- -- ----- -- ---- ------<br>--- ----- --- --- ------ -------- ----- --- ------ ----- --<br>----- ----- ---------- --- --- ------ ------ ---- -- ------<br>------- --- ------ ----- --- ---- ------- -- ---- --- --<br>------- ------,104855.09999999776,104854.5,104479.286,104495.29999999702,104495.952,104862.548,,12,issuing
screen,html.Screen,0_2_1_1_13,2021-11-04T13:24:45.990Z,,,,,,,,,,,,,,,,54,,,,,,,,,,,,,,423.9520000000048,,response,,,100,,,,,,Space,keypress(Space),,,,,-- --- ---- --- ------ ----- ------- ---- -- --- ------- --<br>------- government ------ -- ----- -- ----- -- ---- ------<br>--- ----- --- --- ------ -------- ----- --- ------ ----- --<br>----- ----- ---------- --- --- ------ ------ ---- -- ------<br>------- --- ------ ----- --- ---- ------- -- ---- --- --<br>------- ------,105287.09999999776,105286.5,104845.883,104855.29999999702,104862.548,105295.868,,13,government
screen,html.Screen,0_2_1_1_14,2021-11-04T13:24:46.278Z,,,,,,,,,,,,,,,,54,,,,,,,,,,,,,,278.5319999985077,,response,,,100,,,,,,Space,keypress(Space),,,,,-- --- ---- --- ------ ----- ------- ---- -- --- ------- --<br>------- ---------- bonds. -- ----- -- ----- -- ---- ------<br>--- ----- --- --- ------ -------- ----- --- ------ ----- --<br>----- ----- ---------- --- --- ------ ------ ---- -- ------<br>------- --- ------ ----- --- ---- ------- -- ---- --- --<br>------- ------,105575.09999999776,105574.39999999851,105279.203,105287.19999999925,105295.868,105579.245,,14,bonds.
screen,html.Screen,0_2_1_1_15,2021-11-04T13:24:46.638Z,,,,,,,,,,,,,,,,54,,,,,,,,,,,,,,355.25500000000466,,response,,,100,,,,,,Space,keypress(Space),,,,,-- --- ---- --- ------ ----- ------- ---- -- --- ------- --<br>------- ---------- ------ In ----- -- ----- -- ---- ------<br>--- ----- --- --- ------ -------- ----- --- ------ ----- --<br>----- ----- ---------- --- --- ------ ------ ---- -- ------<br>------- --- ------ ----- --- ---- ------- -- ---- --- --<br>------- ------,105935.09999999776,105934.5,105562.579,105575.19999999925,105579.245,105945.799,,15,In
screen,html.Screen,0_2_1_1_16,2021-11-04T13:24:47.062Z,,,,,,,,,,,,,,,,54,,,,,,,,,,,,,,412.70100000000093,,response,,,100,,,,,,Space,keypress(Space),,,,,"-- --- ---- --- ------ ----- ------- ---- -- --- ------- --<br>------- ---------- ------ -- 1727, -- ----- -- ---- ------<br>--- ----- --- --- ------ -------- ----- --- ------ ----- --<br>----- ----- ---------- --- --- ------ ------ ---- -- ------<br>------- --- ------ ----- --- ---- ------- -- ---- --- --<br>------- ------",106359,106358.5,105929.135,105935.29999999702,105945.799,106362.467,,16,"1727,"
screen,html.Screen,0_2_1_1_17,2021-11-04T13:24:47.414Z,,,,,,,,,,,,,,,,54,,,,,,,,,,,,,,347.9329999985057,,response,,,100,,,,,,Space,keypress(Space),,,,,-- --- ---- --- ------ ----- ------- ---- -- --- ------- --<br>------- ---------- ------ -- ----- in ----- -- ---- ------<br>--- ----- --- --- ------ -------- ----- --- ------ ----- --<br>----- ----- ---------- --- --- ------ ------ ---- -- ------<br>------- --- ------ ----- --- ---- ------- -- ---- --- --<br>------- ------,106711,106710.39999999851,106345.802,106359.19999999925,106362.467,106712.449,,17,in
screen,html.Screen,0_2_1_1_18,2021-11-04T13:24:47.694Z,,,,,,,,,,,,,,,,54,,,,,,,,,,,,,,277.95099999851664,,response,,,100,,,,,,Space,keypress(Space),,,,,-- --- ---- --- ------ ----- ------- ---- -- --- ------- --<br>------- ---------- ------ -- ----- -- order -- ---- ------<br>--- ----- --- --- ------ -------- ----- --- ------ ----- --<br>----- ----- ---------- --- --- ------ ------ ---- -- ------<br>------- --- ------ ----- --- ---- ------- -- ---- --- --<br>------- ------,106991,106990.39999999851,106695.784,106711.19999999925,106712.449,106995.83,,18,order
screen,html.Screen,0_2_1_1_19,2021-11-04T13:24:47.934Z,,,,,,,,,,,,,,,,54,,,,,,,,,,,,,,234.46999999701802,,response,,,100,,,,,,Space,keypress(Space),,,,,-- --- ---- --- ------ ----- ------- ---- -- --- ------- --<br>------- ---------- ------ -- ----- -- ----- to ---- ------<br>--- ----- --- --- ------ -------- ----- --- ------ ----- --<br>----- ----- ---------- --- --- ------ ------ ---- -- ------<br>------- --- ------ ----- --- ---- ------- -- ---- --- --<br>------- ------,107231,107230.29999999702,106979.164,106991.09999999776,106995.83,107245.779,,19,to
screen,html.Screen,0_2_1_1_20,2021-11-04T13:24:48.174Z,,,,,,,,,,,,,,,,54,,,,,,,,,,,,,,224.6209999985149,,response,,,100,,,,,,Space,keypress(Space),,,,,-- --- ---- --- ------ ----- ------- ---- -- --- ------- --<br>------- ---------- ------ -- ----- -- ----- -- save ------<br>--- ----- --- --- ------ -------- ----- --- ------ ----- --<br>----- ----- ---------- --- --- ------ ------ ---- -- ------<br>------- --- ------ ----- --- ---- ------- -- ---- --- --<br>------- ------,107471,107470.39999999851,107229.114,107231.09999999776,107245.779,107479.088,,20,save
screen,html.Screen,0_2_1_1_21,2021-11-04T13:24:48.398Z,,,,,,,,,,,,,,,,54,,,,,,,,,,,,,,215.3119999985065,,response,,,100,,,,,,Space,keypress(Space),,,,,"-- --- ---- --- ------ ----- ------- ---- -- --- ------- --<br>------- ---------- ------ -- ----- -- ----- -- ---- money,<br>--- ----- --- --- ------ -------- ----- --- ------ ----- --<br>----- ----- ---------- --- --- ------ ------ ---- -- ------<br>------- --- ------ ----- --- ---- ------- -- ---- --- --<br>------- ------",107694.89999999851,107694.39999999851,107462.423,107471.09999999776,107479.088,107712.373,,21,"money,"
screen,html.Screen,0_2_1_1_22,2021-11-04T13:24:48.670Z,,,,,,,,,,,,,,,,54,,,,,,,,,,,,,,253.9269999970129,,response,,,100,,,,,,Space,keypress(Space),,,,,-- --- ---- --- ------ ----- ------- ---- -- --- ------- --<br>------- ---------- ------ -- ----- -- ----- -- ---- ------<br>the ----- --- --- ------ -------- ----- --- ------ ----- --<br>----- ----- ---------- --- --- ------ ------ ---- -- ------<br>------- --- ------ ----- --- ---- ------- -- ---- --- --<br>------- ------,107966.89999999851,107966.29999999702,107695.709,107695.09999999776,107712.373,107979.057,,22,the
screen,html.Screen,0_2_1_1_23,2021-11-04T13:24:48.846Z,,,,,,,,,,,,,,,,54,,,,,,,,,,,,,,163.24299999701907,,response,,,100,,,,,,Space,keypress(Space),,,,,-- --- ---- --- ------ ----- ------- ---- -- --- ------- --<br>------- ---------- ------ -- ----- -- ----- -- ---- ------<br>--- state --- --- ------ -------- ----- --- ------ ----- --<br>----- ----- ---------- --- --- ------ ------ ---- -- ------<br>------- --- ------ ----- --- ---- ------- -- ---- --- --<br>------- ------,108142.89999999851,108142.29999999702,107962.392,107967.09999999776,107979.057,108145.712,,23,state
screen,html.Screen,0_2_1_1_24,2021-11-04T13:24:49.134Z,,,,,,,,,,,,,,,,54,,,,,,,,,,,,,,284.58799999702023,,response,,,100,,,,,,Space,keypress(Space),,,,,-- --- ---- --- ------ ----- ------- ---- -- --- ------- --<br>------- ---------- ------ -- ----- -- ----- -- ---- ------<br>--- ----- cut --- ------ -------- ----- --- ------ ----- --<br>----- ----- ---------- --- --- ------ ------ ---- -- ------<br>------- --- ------ ----- --- ---- ------- -- ---- --- --<br>------- ------,108430.89999999851,108430.29999999702,108129.047,108143.09999999776,108145.712,108445.687,,24,cut
screen,html.Screen,0_2_1_1_25,2021-11-04T13:24:49.398Z,,,,,,,,,,,,,,,,54,,,,,,,,,,,,,,248.6129999970144,,response,,,100,,,,,,Space,keypress(Space),,,,,-- --- ---- --- ------ ----- ------- ---- -- --- ------- --<br>------- ---------- ------ -- ----- -- ----- -- ---- ------<br>--- ----- --- the ------ -------- ----- --- ------ ----- --<br>----- ----- ---------- --- --- ------ ------ ---- -- ------<br>------- --- ------ ----- --- ---- ------- -- ---- --- --<br>------- ------,108694.89999999851,108694.29999999702,108429.022,108431.09999999776,108445.687,108712.408,,25,the
screen,html.Screen,0_2_1_1_26,2021-11-04T13:24:49.630Z,,,,,,,,,,,,,,,,54,,,,,,,,,,,,,,213.89199999702396,,response,,,100,,,,,,Space,keypress(Space),,,,,-- --- ---- --- ------ ----- ------- ---- -- --- ------- --<br>------- ---------- ------ -- ----- -- ----- -- ---- ------<br>--- ----- --- --- bonds' -------- ----- --- ------ ----- --<br>----- ----- ---------- --- --- ------ ------ ---- -- ------<br>------- --- ------ ----- --- ---- ------- -- ---- --- --<br>------- ------,108926.89999999851,108926.29999999702,108695.741,108695.09999999776,108712.408,108928.929,,26,bonds'
screen,html.Screen,0_2_1_1_27,2021-11-04T13:24:49.878Z,,,,,,,,,,,,,,,,54,,,,,,,,,,,,,,245.37099999701604,,response,,,100,,,,,,Space,keypress(Space),,,,,-- --- ---- --- ------ ----- ------- ---- -- --- ------- --<br>------- ---------- ------ -- ----- -- ----- -- ---- ------<br>--- ----- --- --- ------ interest ----- --- ------ ----- --<br>----- ----- ---------- --- --- ------ ------ ---- -- ------<br>------- --- ------ ----- --- ---- ------- -- ---- --- --<br>------- ------,109174.89999999851,109174.29999999702,108912.266,108927.19999999925,108928.929,109178.993,,27,interest
screen,html.Screen,0_2_1_1_28,2021-11-04T13:24:50.094Z,,,,,,,,,,,,,,,,54,,,,,,,,,,,,,,211.30699999701756,,response,,,100,,,,,,Space,keypress(Space),,,,,-- --- ---- --- ------ ----- ------- ---- -- --- ------- --<br>------- ---------- ------ -- ----- -- ----- -- ---- ------<br>--- ----- --- --- ------ -------- rate. --- ------ ----- --<br>----- ----- ---------- --- --- ------ ------ ---- -- ------<br>------- --- ------ ----- --- ---- ------- -- ---- --- --<br>------- ------,109390.79999999702,109390.29999999702,109162.327,109175.09999999776,109178.993,109395.691,,28,rate.
screen,html.Screen,0_2_1_1_29,2021-11-04T13:24:50.342Z,,,,,,,,,,,,,,,,54,,,,,,,,,,,,,,242.50899999924877,,response,,,100,,,,,,Space,keypress(Space),,,,,-- --- ---- --- ------ ----- ------- ---- -- --- ------- --<br>------- ---------- ------ -- ----- -- ----- -- ---- ------<br>--- ----- --- --- ------ -------- ----- The ------ ----- --<br>----- ----- ---------- --- --- ------ ------ ---- -- ------<br>------- --- ------ ----- --- ---- ------- -- ---- --- --<br>------- ------,109638.79999999702,109638.19999999925,109379.024,109391,109395.691,109645.63,,29,The
screen,html.Screen,0_2_1_1_30,2021-11-04T13:24:50.622Z,,,,,,,,,,,,,,,,54,,,,,,,,,,,,,,272.6699999970151,,response,,,100,,,,,,Space,keypress(Space),,,,,-- --- ---- --- ------ ----- ------- ---- -- --- ------- --<br>------- ---------- ------ -- ----- -- ----- -- ---- ------<br>--- ----- --- --- ------ -------- ----- --- market ----- --<br>----- ----- ---------- --- --- ------ ------ ---- -- ------<br>------- --- ------ ----- --- ---- ------- -- ---- --- --<br>------- ------,109918.89999999851,109918.29999999702,109628.965,109639,109645.63,109929.036,,30,market
screen,html.Screen,0_2_1_1_31,2021-11-04T13:24:50.846Z,,,,,,,,,,,,,,,,54,,,,,,,,,,,,,,213.26399999702699,,response,,,100,,,,,,Space,keypress(Space),,,,,-- --- ---- --- ------ ----- ------- ---- -- --- ------- --<br>------- ---------- ------ -- ----- -- ----- -- ---- ------<br>--- ----- --- --- ------ -------- ----- --- ------ value --<br>----- ----- ---------- --- --- ------ ------ ---- -- ------<br>------- --- ------ ----- --- ---- ------- -- ---- --- --<br>------- ------,110142.79999999702,110142.29999999702,109912.369,109919.09999999776,109929.036,110145.638,,31,value
screen,html.Screen,0_2_1_1_32,2021-11-04T13:24:51.110Z,,,,,,,,,,,,,,,,54,,,,,,,,,,,,,,260.56199999924866,,response,,,100,,,,,,Space,keypress(Space),,,,,-- --- ---- --- ------ ----- ------- ---- -- --- ------- --<br>------- ---------- ------ -- ----- -- ----- -- ---- ------<br>--- ----- --- --- ------ -------- ----- --- ------ ----- of<br>----- ----- ---------- --- --- ------ ------ ---- -- ------<br>------- --- ------ ----- --- ---- ------- -- ---- --- --<br>------- ------,110406.89999999851,110406.19999999925,110128.973,110143,110145.638,110412.2,,32,of
screen,html.Screen,0_2_1_1_33,2021-11-04T13:24:51.398Z,,,,,,,,,,,,,,,,54,,,,,,,,,,,,,,281.99999999925785,,response,,,100,,,,,,Space,keypress(Space),,,,,-- --- ---- --- ------ ----- ------- ---- -- --- ------- --<br>------- ---------- ------ -- ----- -- ----- -- ---- ------<br>--- ----- --- --- ------ -------- ----- --- ------ ----- --<br>these ----- ---------- --- --- ------ ------ ---- -- ------<br>------- --- ------ ----- --- ---- ------- -- ---- --- --<br>------- ------,110694.79999999702,110694.19999999925,110395.537,110407.09999999776,110412.2,110712.336,,33,these
screen,html.Screen,0_2_1_1_34,2021-11-04T13:24:51.654Z,,,,,,,,,,,,,,,,54,,,,,,,,,,,,,,237.86399999925925,,response,,,100,,,,,,Space,keypress(Space),,,,,-- --- ---- --- ------ ----- ------- ---- -- --- ------- --<br>------- ---------- ------ -- ----- -- ----- -- ---- ------<br>--- ----- --- --- ------ -------- ----- --- ------ ----- --<br>----- bonds ---------- --- --- ------ ------ ---- -- ------<br>------- --- ------ ----- --- ---- ------- -- ---- --- --<br>------- ------,110950.79999999702,110950.19999999925,110695.669,110695,110712.336,110962.217,,34,bonds
screen,html.Screen,0_2_1_1_35,2021-11-04T13:24:51.950Z,,,,,,,,,,,,,,,,54,,,,,,,,,,,,,,284.1829999985057,,response,,,100,,,,,,Space,keypress(Space),,,,,"-- --- ---- --- ------ ----- ------- ---- -- --- ------- --<br>------- ---------- ------ -- ----- -- ----- -- ---- ------<br>--- ----- --- --- ------ -------- ----- --- ------ ----- --<br>----- ----- plummeted, --- --- ------ ------ ---- -- ------<br>------- --- ------ ----- --- ---- ------- -- ---- --- --<br>------- ------",111247,111246.39999999851,110945.553,110950.89999999851,110962.217,111262.258,,35,"plummeted,"
screen,html.Screen,0_2_1_1_36,2021-11-04T13:24:52.334Z,,,,,,,,,,,,,,,,54,,,,,,,,,,,,,,367.8419999977632,,response,,,100,,,,,,Space,keypress(Space),,,,,-- --- ---- --- ------ ----- ------- ---- -- --- ------- --<br>------- ---------- ------ -- ----- -- ----- -- ---- ------<br>--- ----- --- --- ------ -------- ----- --- ------ ----- --<br>----- ----- ---------- and --- ------ ------ ---- -- ------<br>------- --- ------ ----- --- ---- ------- -- ---- --- --<br>------- ------,111630.79999999702,111630.09999999776,111245.592,111247.19999999925,111262.258,111645.535,,36,and
screen,html.Screen,0_2_1_1_37,2021-11-04T13:24:52.630Z,,,,,,,,,,,,,,,,54,,,,,,,,,,,,,,280.66499999925145,,response,,,100,,,,,,Space,keypress(Space),,,,,-- --- ---- --- ------ ----- ------- ---- -- --- ------- --<br>------- ---------- ------ -- ----- -- ----- -- ---- ------<br>--- ----- --- --- ------ -------- ----- --- ------ ----- --<br>----- ----- ---------- --- the ------ ------ ---- -- ------<br>------- --- ------ ----- --- ---- ------- -- ---- --- --<br>------- ------,111926.69999999925,111926.19999999925,111628.87,111630.89999999851,111645.535,111928.759,,37,the
screen,html.Screen,0_2_1_1_38,2021-11-04T13:24:52.862Z,,,,,,,,,,,,,,,,54,,,,,,,,,,,,,,229.44099999924947,,response,,,100,,,,,,Space,keypress(Space),,,,,-- --- ---- --- ------ ----- ------- ---- -- --- ------- --<br>------- ---------- ------ -- ----- -- ----- -- ---- ------<br>--- ----- --- --- ------ -------- ----- --- ------ ----- --<br>----- ----- ---------- --- --- market ------ ---- -- ------<br>------- --- ------ ----- --- ---- ------- -- ---- --- --<br>------- ------,112158.79999999702,112158.19999999925,111912.096,111927.59999999776,111928.759,112162.232,,38,market
screen,html.Screen,0_2_1_1_39,2021-11-04T13:24:53.086Z,,,,,,,,,,,,,,,,54,,,,,,,,,,,,,,219.86799999776122,,response,,,100,,,,,,Space,keypress(Space),,,,,-- --- ---- --- ------ ----- ------- ---- -- --- ------- --<br>------- ---------- ------ -- ----- -- ----- -- ---- ------<br>--- ----- --- --- ------ -------- ----- --- ------ ----- --<br>----- ----- ---------- --- --- ------ became ---- -- ------<br>------- --- ------ ----- --- ---- ------- -- ---- --- --<br>------- ------,112382.69999999925,112382.09999999776,112145.565,112159,112162.232,112395.507,,39,became
screen,html.Screen,0_2_1_1_40,2021-11-04T13:24:53.326Z,,,,,,,,,,,,,,,,54,,,,,,,,,,,,,,226.59299999776704,,response,,,100,,,,,,Space,keypress(Space),,,,,-- --- ---- --- ------ ----- ------- ---- -- --- ------- --<br>------- ---------- ------ -- ----- -- ----- -- ---- ------<br>--- ----- --- --- ------ -------- ----- --- ------ ----- --<br>----- ----- ---------- --- --- ------ ------ wary -- ------<br>------- --- ------ ----- --- ---- ------- -- ---- --- --<br>------- ------,112622.69999999925,112622.09999999776,112378.842,112382.89999999851,112395.507,112628.817,,40,wary
screen,html.Screen,0_2_1_1_41,2021-11-04T13:24:53.590Z,,,,,,,,,,,,,,,,54,,,,,,,,,,,,,,257.28299999776937,,response,,,100,,,,,,Space,keypress(Space),,,,,-- --- ---- --- ------ ----- ------- ---- -- --- ------- --<br>------- ---------- ------ -- ----- -- ----- -- ---- ------<br>--- ----- --- --- ------ -------- ----- --- ------ ----- --<br>----- ----- ---------- --- --- ------ ------ ---- of ------<br>------- --- ------ ----- --- ---- ------- -- ---- --- --<br>------- ------,112886.79999999702,112886.09999999776,112612.152,112622.79999999702,112628.817,112895.5,,41,of
screen,html.Screen,0_2_1_1_42,2021-11-04T13:24:53.790Z,,,,,,,,,,,,,,,,54,,,,,,,,,,,,,,190.59999999776483,,response,,,100,,,,,,Space,keypress(Space),,,,,-- --- ---- --- ------ ----- ------- ---- -- --- ------- --<br>------- ---------- ------ -- ----- -- ----- -- ---- ------<br>--- ----- --- --- ------ -------- ----- --- ------ ----- --<br>----- ----- ---------- --- --- ------ ------ ---- -- French<br>------- --- ------ ----- --- ---- ------- -- ---- --- --<br>------- ------,113086.59999999776,113086.09999999776,112878.834,112886.89999999851,112895.5,113095.381,,42,French
screen,html.Screen,0_2_1_1_43,2021-11-04T13:24:53.998Z,,,,,,,,,,,,,,,,54,,,,,,,,,,,,,,198.61900000000605,,response,,,100,,,,,,Space,keypress(Space),,,,,-- --- ---- --- ------ ----- ------- ---- -- --- ------- --<br>------- ---------- ------ -- ----- -- ----- -- ---- ------<br>--- ----- --- --- ------ -------- ----- --- ------ ----- --<br>----- ----- ---------- --- --- ------ ------ ---- -- ------<br>credit. --- ------ ----- --- ---- ------- -- ---- --- --<br>------- ------,113294.69999999925,113294,113078.718,113086.79999999702,113095.381,113295.492,,43,credit.
screen,html.Screen,0_2_1_1_44,2021-11-04T13:24:54.230Z,,,,,,,,,,,,,,,,54,,,,,,,,,,,,,,230.50800000000163,,response,,,100,,,,,,Space,keypress(Space),,,,,-- --- ---- --- ------ ----- ------- ---- -- --- ------- --<br>------- ---------- ------ -- ----- -- ----- -- ---- ------<br>--- ----- --- --- ------ -------- ----- --- ------ ----- --<br>----- ----- ---------- --- --- ------ ------ ---- -- ------<br>------- The ------ ----- --- ---- ------- -- ---- --- --<br>------- ------,113526.59999999776,113526,113278.825,113294.79999999702,113295.492,113528.777,,44,The
screen,html.Screen,0_2_1_1_45,2021-11-04T13:24:54.478Z,,,,,,,,,,,,,,,,54,,,,,,,,,,,,,,245.32299999776296,,response,,,100,,,,,,Space,keypress(Space),,,,,-- --- ---- --- ------ ----- ------- ---- -- --- ------- --<br>------- ---------- ------ -- ----- -- ----- -- ---- ------<br>--- ----- --- --- ------ -------- ----- --- ------ ----- --<br>----- ----- ---------- --- --- ------ ------ ---- -- ------<br>------- --- French ----- --- ---- ------- -- ---- --- --<br>------- ------,113774.59999999776,113774.09999999776,113512.112,113526.69999999925,113528.777,113778.761,,45,French
screen,html.Screen,0_2_1_1_46,2021-11-04T13:24:54.718Z,,,,,,,,,,,,,,,,54,,,,,,,,,,,,,,235.2390000000014,,response,,,100,,,,,,Space,keypress(Space),,,,,-- --- ---- --- ------ ----- ------- ---- -- --- ------- --<br>------- ---------- ------ -- ----- -- ----- -- ---- ------<br>--- ----- --- --- ------ -------- ----- --- ------ ----- --<br>----- ----- ---------- --- --- ------ ------ ---- -- ------<br>------- --- ------ state --- ---- ------- -- ---- --- --<br>------- ------,114014.59999999776,114014,113762.096,113774.69999999925,113778.761,114028.575,,46,state
screen,html.Screen,0_2_1_1_47,2021-11-04T13:24:54.990Z,,,,,,,,,,,,,,,,54,,,,,,,,,,,,,,257.4250000000029,,response,,,100,,,,,,Space,keypress(Space),,,,,-- --- ---- --- ------ ----- ------- ---- -- --- ------- --<br>------- ---------- ------ -- ----- -- ----- -- ---- ------<br>--- ----- --- --- ------ -------- ----- --- ------ ----- --<br>----- ----- ---------- --- --- ------ ------ ---- -- ------<br>------- --- ------ ----- was ---- ------- -- ---- --- --<br>------- ------,114286.5,114286,114011.914,114014.79999999702,114028.575,114295.378,,47,was
screen,html.Screen,0_2_1_1_48,2021-11-04T13:24:55.269Z,,,,,,,,,,,,,,,,54,,,,,,,,,,,,,,270.622000000003,,response,,,100,,,,,,Space,keypress(Space),,,,,-- --- ---- --- ------ ----- ------- ---- -- --- ------- --<br>------- ---------- ------ -- ----- -- ----- -- ---- ------<br>--- ----- --- --- ------ -------- ----- --- ------ ----- --<br>----- ----- ---------- --- --- ------ ------ ---- -- ------<br>------- --- ------ ----- --- left ------- -- ---- --- --<br>------- ------,114566.5,114566,114278.712,114286.79999999702,114295.378,114578.702,,48,left
screen,html.Screen,0_2_1_1_49,2021-11-04T13:24:55.518Z,,,,,,,,,,,,,,,,54,,,,,,,,,,,,,,235.29799999999523,,response,,,100,,,,,,Space,keypress(Space),,,,,-- --- ---- --- ------ ----- ------- ---- -- --- ------- --<br>------- ---------- ------ -- ----- -- ----- -- ---- ------<br>--- ----- --- --- ------ -------- ----- --- ------ ----- --<br>----- ----- ---------- --- --- ------ ------ ---- -- ------<br>------- --- ------ ----- --- ---- without -- ---- --- --<br>------- ------,114814.5,114814,114562.036,114566.69999999925,114578.702,114828.771,,49,without
screen,html.Screen,0_2_1_1_50,2021-11-04T13:24:55.790Z,,,,,,,,,,,,,,,,54,,,,,,,,,,,,,,257.22900000000664,,response,,,100,,,,,,Space,keypress(Space),,,,,-- --- ---- --- ------ ----- ------- ---- -- --- ------- --<br>------- ---------- ------ -- ----- -- ----- -- ---- ------<br>--- ----- --- --- ------ -------- ----- --- ------ ----- --<br>----- ----- ---------- --- --- ------ ------ ---- -- ------<br>------- --- ------ ----- --- ---- ------- an ---- --- --<br>------- ------,115086.5,115086,114812.104,114814.69999999925,114828.771,115095.297,,50,an
screen,html.Screen,0_2_1_1_51,2021-11-04T13:24:56.046Z,,,,,,,,,,,,,,,,54,,,,,,,,,,,,,,246.70299999999406,,response,,,100,,,,,,Space,keypress(Space),,,,,-- --- ---- --- ------ ----- ------- ---- -- --- ------- --<br>------- ---------- ------ -- ----- -- ----- -- ---- ------<br>--- ----- --- --- ------ -------- ----- --- ------ ----- --<br>----- ----- ---------- --- --- ------ ------ ---- -- ------<br>------- --- ------ ----- --- ---- ------- -- easy --- --<br>------- ------,115342.5,115342,115078.633,115086.69999999925,115095.297,115345.316,,51,easy
screen,html.Screen,0_2_1_1_52,2021-11-04T13:24:56.301Z,,,,,,,,,,,,,,,,54,,,,,,,,,,,,,,252.5839999985037,,response,,,100,,,,,,Space,keypress(Space),,,,,-- --- ---- --- ------ ----- ------- ---- -- --- ------- --<br>------- ---------- ------ -- ----- -- ----- -- ---- ------<br>--- ----- --- --- ------ -------- ----- --- ------ ----- --<br>----- ----- ---------- --- --- ------ ------ ---- -- ------<br>------- --- ------ ----- --- ---- ------- -- ---- way --<br>------- ------,115598.5,115597.89999999851,115328.651,115342.69999999925,115345.316,115611.967,,52,way
screen,html.Screen,0_2_1_1_53,2021-11-04T13:24:56.550Z,,,,,,,,,,,,,,,,54,,,,,,,,,,,,,,234.0329999999958,,response,,,100,,,,,,Space,keypress(Space),,,,,-- --- ---- --- ------ ----- ------- ---- -- --- ------- --<br>------- ---------- ------ -- ----- -- ----- -- ---- ------<br>--- ----- --- --- ------ -------- ----- --- ------ ----- --<br>----- ----- ---------- --- --- ------ ------ ---- -- ------<br>------- --- ------ ----- --- ---- ------- -- ---- --- of<br>------- ------,115846.5,115846,115595.302,115598.69999999925,115611.967,115861.96,,53,of
screen,html.Screen,0_2_1_1_54,2021-11-04T13:24:56.813Z,,,,,,,,,,,,,,,,54,,,,,,,,,,,,,,247.93999999850348,,response,,,100,,,,,,Space,keypress(Space),,,,,-- --- ---- --- ------ ----- ------- ---- -- --- ------- --<br>------- ---------- ------ -- ----- -- ----- -- ---- ------<br>--- ----- --- --- ------ -------- ----- --- ------ ----- --<br>----- ----- ---------- --- --- ------ ------ ---- -- ------<br>------- --- ------ ----- --- ---- ------- -- ---- --- --<br>raising ------,116110.5,116109.89999999851,115845.295,115846.69999999925,115861.96,116111.99,,54,raising
screen,html.Screen,0_2_1_1_55,2021-11-04T13:24:57.125Z,,,,,,,,,,,,,,,,54,,,,,,,,,,,,,,310.00999999999476,,response,,,100,,,,,,Space,keypress(Space),,,,,-- --- ---- --- ------ ----- ------- ---- -- --- ------- --<br>------- ---------- ------ -- ----- -- ----- -- ---- ------<br>--- ----- --- --- ------ -------- ----- --- ------ ----- --<br>----- ----- ---------- --- --- ------ ------ ---- -- ------<br>------- --- ------ ----- --- ---- ------- -- ---- --- --<br>------- money.,116422.5,116422,116095.324,116110.69999999925,116111.99,116428.606,,55,money.
Item 100,flow.Loop,0_2_1_1,2021-11-04T13:24:57.126Z,,,,,,,,,,,,,,,,,,,,,,,,,,,,,,16692.515,,completion,,,,B,,,,,,,,,,silence,,116422.79999999702,116422,99712.82,99713.59999999776,99729.485,116428.606,,,
Question 1,html.Screen,0_2_1_2,2021-11-04T13:24:59.824Z,,,,,,,,,,,,,,,,,,,,,,,,,,,true,TRUE,,2691.19399999702,,response,,,100,B,,,,,TRUE,click #choice-1,,,,silence,,119120.59999999776,119119.79999999702,116411.941,116423,116428.606,119128.368,,,
Question 2,html.Screen,0_2_1_3,2021-11-04T13:25:02.006Z,,,,,,,,,,,,,,,,,,,,,,,,,,,true,FALSE,,2170.131999999998,,response,,,100,B,,,,,FALSE,click #choice-2,,,,silence,,121299.29999999702,121298.5,119111.703,119120.69999999925,119128.368,121311.683,,,
Item 100,flow.Sequence,0_2_1,2021-11-04T13:25:02.006Z,,,,,,,,,,,,,,,,,,,,,,,,,,,,,,31568.328999999998,,completion,,,,,,,,,,,,,,,,121299.59999999776,121298.5,89713.503,89725.5,89730.171,121311.683,,,
End of Practice,html.Page,0_2_2,2021-11-04T13:25:05.684Z,,,,,,,,,,,,,,,,,,,,,,,,,,,,,,3665.2169999985053,,form submission,,,,,,,,,,,,,,,,124977.29999999702,124976.89999999851,121295.017,121299.69999999925,121311.683,124994.816,,,
Practice,flow.Sequence,0_2,2021-11-04T13:25:05.684Z,,,,,,,,,,,,,,,,,,,,,,,,,,,,,,75911.27699999852,,completion,,,,,,,,,,,,,,,,124977.59999999776,124976.89999999851,49048.958,49059.89999999851,49065.623,124994.816,,,
Trap_instruction,html.Page,0_3_0,2021-11-04T13:25:08.078Z,,,,,,,,,,,,,,,,,,,,,,,,,,,,,,2376.5839999985037,,form submission,,,,,,,,,,,,,,,,127371.69999999925,127371.39999999851,124978.15,124977.69999999925,124994.816,127377.929,,,
trap_trial,html.Screen,0_3_1,2021-11-04T13:25:11.987Z,,,,,,,,,,,,,,,,,,,,,,,,,,,true,1,,3901.670999997761,,response,,,,,,,,,1,click #choice-1,,,,,,131280.29999999702,131279.59999999776,127361.265,127371.89999999851,127377.929,131311.593,,,
end of trap trial,html.Page,0_3_2,2021-11-04T13:25:13.577Z,,,,,,,,,,,,,,,,,,,,,,,,,,,,,,1558.4070000000065,,form submission,,,,,,,,,,,,,,,,132870.3999999985,132870,131294.925,131280.3999999985,131311.593,132877.641,,,
Trap 1,flow.Sequence,0_3,2021-11-04T13:25:13.577Z,,,,,,,,,,,,,,,,,,,,,,,,,,,,,,7875.183999999994,,completion,,,,,,,,,,,,,,,,132870.59999999776,132870,124978.15,124977.69999999925,124994.816,132877.641,,,
Standby,html.Page,0_4_0,2021-11-04T13:25:21.567Z,,,,,,,,,,,,,,,,,,,,,,,,,,,,,,7999.244000000006,,timeout,,,,,,,,,,,,,,,,140861.09999999776,140860.22,132860.976,132870.79999999702,132877.641,140876.885,,,
Holding screen,html.Screen,0_4_1_0_0,2021-11-04T13:25:28.567Z,,,,,,,,,,,,,,,,,,,,,,,,,,,,,,7000.019,,timeout,,,,,,,,,,,,,,,,147861,147860.238,140860.22,140861.29999999702,140876.885,147876.904,,,
screen,html.Screen,0_4_1_0_1_0,2021-11-04T13:25:30.151Z,,,,,,,,,,,,,,,,15,,,,,,,,,,,,,,1567.4959999985003,,response,,,7,B,,,,,Space,keypress(Space),,,,lyrical,Greg --------- ---------- - --- ------- -- --- ------------<br>----- -- -------- ------- ---- ------ - -------- ---- -----<br>--- ------- ---- -- --- -------- --- - ----- ------ ---- --<br>-------- --- -------- -------- --- -------- ---- -- ----- -<br>-------- ---- --- ---------- --------- -- ------- ------ -<br>--------- ----- -----,149445.09999999776,149444.3999999985,147860.238,147861.19999999925,147876.904,149460.062,,0,Greg
screen,html.Screen,0_4_1_0_1_1,2021-11-04T13:25:30.439Z,,,,,,,,,,,,,,,,15,,,,,,,,,,,,,,271.93799999999464,,response,,,7,B,,,,,Space,keypress(Space),,,,lyrical,"---- Anderson, ---------- - --- ------- -- --- ------------<br>----- -- -------- ------- ---- ------ - -------- ---- -----<br>--- ------- ---- -- --- -------- --- - ----- ------ ---- --<br>-------- --- -------- -------- --- -------- ---- -- ----- -<br>-------- ---- --- ---------- --------- -- ------- ------ -<br>--------- ----- -----",149732.69999999925,149732,149443.397,149445.29999999702,149460.062,149743.397,,1,"Anderson,"
screen,html.Screen,0_4_1_0_1_2,2021-11-04T13:25:30.839Z,,,,,,,,,,,,,,,,15,,,,,,,,,,,,,,388.7029999977676,,response,,,7,B,,,,,Space,keypress(Space),,,,lyrical,---- --------- considered - --- ------- -- --- ------------<br>----- -- -------- ------- ---- ------ - -------- ---- -----<br>--- ------- ---- -- --- -------- --- - ----- ------ ---- --<br>-------- --- -------- -------- --- -------- ---- -- ----- -<br>-------- ---- --- ---------- --------- -- ------- ------ -<br>--------- ----- -----,150132.59999999776,150132.09999999776,149726.732,149732.79999999702,149743.397,150143.381,,2,considered
screen,html.Screen,0_4_1_0_1_3,2021-11-04T13:25:31.303Z,,,,,,,,,,,,,,,,15,,,,,,,,,,,,,,452.61900000000605,,response,,,7,B,,,,,Space,keypress(Space),,,,lyrical,---- --------- ---------- a --- ------- -- --- ------------<br>----- -- -------- ------- ---- ------ - -------- ---- -----<br>--- ------- ---- -- --- -------- --- - ----- ------ ---- --<br>-------- --- -------- -------- --- -------- ---- -- ----- -<br>-------- ---- --- ---------- --------- -- ------- ------ -<br>--------- ----- -----,150596.59999999776,150596,150126.716,150132.79999999702,150143.381,150610.001,,3,a
screen,html.Screen,0_4_1_0_1_4,2021-11-04T13:25:31.591Z,,,,,,,,,,,,,,,,15,,,,,,,,,,,,,,274.09899999777554,,response,,,7,B,,,,,Space,keypress(Space),,,,lyrical,---- --------- ---------- - key ------- -- --- ------------<br>----- -- -------- ------- ---- ------ - -------- ---- -----<br>--- ------- ---- -- --- -------- --- - ----- ------ ---- --<br>-------- --- -------- -------- --- -------- ---- -- ----- -<br>-------- ---- --- ---------- --------- -- ------- ------ -<br>--------- ----- -----,150884.69999999925,150884.09999999776,150593.336,150596.8999999985,150610.001,150910.047,,4,key
screen,html.Screen,0_4_1_0_1_5,2021-11-04T13:25:32.047Z,,,,,,,,,,,,,,,,15,,,,,,,,,,,,,,429.9530000000086,,response,,,7,B,,,,,Space,keypress(Space),,,,lyrical,---- --------- ---------- - --- witness -- --- ------------<br>----- -- -------- ------- ---- ------ - -------- ---- -----<br>--- ------- ---- -- --- -------- --- - ----- ------ ---- --<br>-------- --- -------- -------- --- -------- ---- -- ----- -<br>-------- ---- --- ---------- --------- -- ------- ------ -<br>--------- ----- -----,151340.59999999776,151340,150893.381,150884.79999999702,150910.047,151343.245,,5,witness
screen,html.Screen,0_4_1_0_1_6,2021-11-04T13:25:32.399Z,,,,,,,,,,,,,,,,15,,,,,,,,,,,,,,348.75500000000466,,response,,,7,B,,,,,Space,keypress(Space),,,,lyrical,---- --------- ---------- - --- ------- by --- ------------<br>----- -- -------- ------- ---- ------ - -------- ---- -----<br>--- ------- ---- -- --- -------- --- - ----- ------ ---- --<br>-------- --- -------- -------- --- -------- ---- -- ----- -<br>-------- ---- --- ---------- --------- -- ------- ------ -<br>--------- ----- -----,151692.5,151692,151326.581,151340.79999999702,151343.245,151693.338,,6,by
screen,html.Screen,0_4_1_0_1_7,2021-11-04T13:25:32.679Z,,,,,,,,,,,,,,,,15,,,,,,,,,,,,,,278.56199999852106,,response,,,7,B,,,,,Space,keypress(Space),,,,lyrical,---- --------- ---------- - --- ------- -- the ------------<br>----- -- -------- ------- ---- ------ - -------- ---- -----<br>--- ------- ---- -- --- -------- --- - ----- ------ ---- --<br>-------- --- -------- -------- --- -------- ---- -- ----- -<br>-------- ---- --- ---------- --------- -- ------- ------ -<br>--------- ----- -----,151972.5,151971.8999999985,151676.672,151692.79999999702,151693.338,151976.617,,7,the
screen,html.Screen,0_4_1_0_1_8,2021-11-04T13:25:32.959Z,,,,,,,,,,,,,,,,15,,,,,,,,,,,,,,275.2829999985115,,response,,,7,B,,,,,Space,keypress(Space),,,,lyrical,"---- --------- ---------- - --- ------- -- --- prosecution,<br>----- -- -------- ------- ---- ------ - -------- ---- -----<br>--- ------- ---- -- --- -------- --- - ----- ------ ---- --<br>-------- --- -------- -------- --- -------- ---- -- ----- -<br>-------- ---- --- ---------- --------- -- ------- ------ -<br>--------- ----- -----",152252.5,152251.8999999985,151959.952,151972.79999999702,151976.617,152259.967,,8,"prosecution,"
screen,html.Screen,0_4_1_0_1_9,2021-11-04T13:25:33.287Z,,,,,,,,,,,,,,,,15,,,,,,,,,,,,,,319.9329999985057,,response,,,7,B,,,,,Space,keypress(Space),,,,lyrical,---- --------- ---------- - --- ------- -- --- ------------<br>vowed -- -------- ------- ---- ------ - -------- ---- -----<br>--- ------- ---- -- --- -------- --- - ----- ------ ---- --<br>-------- --- -------- -------- --- -------- ---- -- ----- -<br>-------- ---- --- ---------- --------- -- ------- ------ -<br>--------- ----- -----,152580.5,152579.8999999985,152243.301,152252.59999999776,152259.967,152593.262,,9,vowed
screen,html.Screen,0_4_1_0_1_10,2021-11-04T13:25:33.647Z,,,,,,,,,,,,,,,,15,,,,,,,,,,,,,,346.637999998522,,response,,,7,B,,,,,Space,keypress(Space),,,,lyrical,---- --------- ---------- - --- ------- -- --- ------------<br>----- he -------- ------- ---- ------ - -------- ---- -----<br>--- ------- ---- -- --- -------- --- - ----- ------ ---- --<br>-------- --- -------- -------- --- -------- ---- -- ----- -<br>-------- ---- --- ---------- --------- -- ------- ------ -<br>--------- ----- -----,152940.5,152939.8999999985,152576.597,152580.59999999776,152593.262,152943.125,,10,he
screen,html.Screen,0_4_1_0_1_11,2021-11-04T13:25:34.175Z,,,,,,,,,,,,,,,,15,,,,,,,,,,,,,,524.7749999985099,,response,,,7,B,,,,,Space,keypress(Space),,,,lyrical,---- --------- ---------- - --- ------- -- --- ------------<br>----- -- wouldn't ------- ---- ------ - -------- ---- -----<br>--- ------- ---- -- --- -------- --- - ----- ------ ---- --<br>-------- --- -------- -------- --- -------- ---- -- ----- -<br>-------- ---- --- ---------- --------- -- ------- ------ -<br>--------- ----- -----,153468.5,153467.8999999985,152926.462,152940.59999999776,152943.125,153476.64,,11,wouldn't
screen,html.Screen,0_4_1_0_1_12,2021-11-04T13:25:34.391Z,,,,,,,,,,,,,,,,15,,,,,,,,,,,,,,207.1599999970058,,response,,,7,B,,,,,Space,keypress(Space),,,,lyrical,---- --------- ---------- - --- ------- -- --- ------------<br>----- -- -------- testify ---- ------ - -------- ---- -----<br>--- ------- ---- -- --- -------- --- - ----- ------ ---- --<br>-------- --- -------- -------- --- -------- ---- -- ----- -<br>-------- ---- --- ---------- --------- -- ------- ------ -<br>--------- ----- -----,153684.29999999702,153683.79999999702,153459.973,153468.69999999925,153476.64,153693.133,,12,testify
screen,html.Screen,0_4_1_0_1_13,2021-11-04T13:25:34.631Z,,,,,,,,,,,,,,,,15,,,,,,,,,,,,,,230.5669999992533,,response,,,7,B,,,,,Space,keypress(Space),,,,lyrical,---- --------- ---------- - --- ------- -- --- ------------<br>----- -- -------- ------- when ------ - -------- ---- -----<br>--- ------- ---- -- --- -------- --- - ----- ------ ---- --<br>-------- --- -------- -------- --- -------- ---- -- ----- -<br>-------- ---- --- ---------- --------- -- ------- ------ -<br>--------- ----- -----,153924.29999999702,153923.69999999925,153676.469,153684.59999999776,153693.133,153926.523,,13,when
screen,html.Screen,0_4_1_0_1_14,2021-11-04T13:25:35.103Z,,,,,,,,,,,,,,,,15,,,,,,,,,,,,,,469.3769999985234,,response,,,7,B,,,,,Space,keypress(Space),,,,lyrical,---- --------- ---------- - --- ------- -- --- ------------<br>----- -- -------- ------- ---- served - -------- ---- -----<br>--- ------- ---- -- --- -------- --- - ----- ------ ---- --<br>-------- --- -------- -------- --- -------- ---- -- ----- -<br>-------- ---- --- ---------- --------- -- ------- ------ -<br>--------- ----- -----,154396.5,154395.8999999985,153909.858,153924.5,153926.523,154409.807,,14,served
screen,html.Screen,0_4_1_0_1_15,2021-11-04T13:25:35.503Z,,,,,,,,,,,,,,,,15,,,,,,,,,,,,,,385.99299999701907,,response,,,7,B,,,,,Space,keypress(Space),,,,lyrical,---- --------- ---------- - --- ------- -- --- ------------<br>----- -- -------- ------- ---- ------ a -------- ---- -----<br>--- ------- ---- -- --- -------- --- - ----- ------ ---- --<br>-------- --- -------- -------- --- -------- ---- -- ----- -<br>-------- ---- --- ---------- --------- -- ------- ------ -<br>--------- ----- -----,154796.5,154795.79999999702,154393.142,154396.59999999776,154409.807,154809.834,,15,a
screen,html.Screen,0_4_1_0_1_16,2021-11-04T13:25:35.799Z,,,,,,,,,,,,,,,,15,,,,,,,,,,,,,,281.8659999992524,,response,,,7,B,,,,,Space,keypress(Space),,,,lyrical,---- --------- ---------- - --- ------- -- --- ------------<br>----- -- -------- ------- ---- ------ - subpoena ---- -----<br>--- ------- ---- -- --- -------- --- - ----- ------ ---- --<br>-------- --- -------- -------- --- -------- ---- -- ----- -<br>-------- ---- --- ---------- --------- -- ------- ------ -<br>--------- ----- -----,155092.29999999702,155091.69999999925,154793.168,154796.59999999776,154809.834,155093.163,,16,subpoena
screen,html.Screen,0_4_1_0_1_17,2021-11-04T13:25:36.255Z,,,,,,,,,,,,,,,,15,,,,,,,,,,,,,,454.6369999970193,,response,,,7,B,,,,,Space,keypress(Space),,,,lyrical,---- --------- ---------- - --- ------- -- --- ------------<br>----- -- -------- ------- ---- ------ - -------- last -----<br>--- ------- ---- -- --- -------- --- - ----- ------ ---- --<br>-------- --- -------- -------- --- -------- ---- -- ----- -<br>-------- ---- --- ---------- --------- -- ------- ------ -<br>--------- ----- -----,155548.3999999985,155547.79999999702,155076.497,155092.59999999776,155093.163,155559.75,,17,last
screen,html.Screen,0_4_1_0_1_18,2021-11-04T13:25:36.743Z,,,,,,,,,,,,,,,,15,,,,,,,,,,,,,,476.04999999701977,,response,,,7,B,,,,,Space,keypress(Space),,,,lyrical,---- --------- ---------- - --- ------- -- --- ------------<br>----- -- -------- ------- ---- ------ - -------- ---- week.<br>--- ------- ---- -- --- -------- --- - ----- ------ ---- --<br>-------- --- -------- -------- --- -------- ---- -- ----- -<br>-------- ---- --- ---------- --------- -- ------- ------ -<br>--------- ----- -----,156036.3999999985,156035.79999999702,155543.085,155548.59999999776,155559.75,156042.988,,18,week.
screen,html.Screen,0_4_1_0_1_19,2021-11-04T13:25:37.159Z,,,,,,,,,,,,,,,,15,,,,,,,,,,,,,,408.71199999924283,,response,,,7,B,,,,,Space,keypress(Space),,,,lyrical,---- --------- ---------- - --- ------- -- --- ------------<br>----- -- -------- ------- ---- ------ - -------- ---- -----<br>His ------- ---- -- --- -------- --- - ----- ------ ---- --<br>-------- --- -------- -------- --- -------- ---- -- ----- -<br>-------- ---- --- ---------- --------- -- ------- ------ -<br>--------- ----- -----,156452.29999999702,156451.69999999925,156026.324,156036.59999999776,156042.988,156459.628,,19,His
screen,html.Screen,0_4_1_0_1_20,2021-11-04T13:25:37.455Z,,,,,,,,,,,,,,,,15,,,,,,,,,,,,,,288.07199999925797,,response,,,7,B,,,,,Space,keypress(Space),,,,lyrical,---- --------- ---------- - --- ------- -- --- ------------<br>----- -- -------- ------- ---- ------ - -------- ---- -----<br>--- lawyers ---- -- --- -------- --- - ----- ------ ---- --<br>-------- --- -------- -------- --- -------- ---- -- ----- -<br>-------- ---- --- ---------- --------- -- ------- ------ -<br>--------- ----- -----,156748.29999999702,156747.69999999925,156442.964,156452.5,156459.628,156759.75,,20,lawyers
screen,html.Screen,0_4_1_0_1_21,2021-11-04T13:25:37.727Z,,,,,,,,,,,,,,,,15,,,,,,,,,,,,,,259.94999999925494,,response,,,7,B,,,,,Space,keypress(Space),,,,lyrical,---- --------- ---------- - --- ------- -- --- ------------<br>----- -- -------- ------- ---- ------ - -------- ---- -----<br>--- ------- said -- --- -------- --- - ----- ------ ---- --<br>-------- --- -------- -------- --- -------- ---- -- ----- -<br>-------- ---- --- ---------- --------- -- ------- ------ -<br>--------- ----- -----,157020.19999999925,157019.69999999925,156743.083,156748.3999999985,156759.75,157026.255,,21,said
screen,html.Screen,0_4_1_0_1_22,2021-11-04T13:25:38.039Z,,,,,,,,,,,,,,,,15,,,,,,,,,,,,,,305.4449999992503,,response,,,7,B,,,,,Space,keypress(Space),,,,lyrical,---- --------- ---------- - --- ------- -- --- ------------<br>----- -- -------- ------- ---- ------ - -------- ---- -----<br>--- ------- ---- he --- -------- --- - ----- ------ ---- --<br>-------- --- -------- -------- --- -------- ---- -- ----- -<br>-------- ---- --- ---------- --------- -- ------- ------ -<br>--------- ----- -----,157332.29999999702,157331.69999999925,157009.592,157020.3999999985,157026.255,157342.965,,22,he
screen,html.Screen,0_4_1_0_1_23,2021-11-04T13:25:38.358Z,,,,,,,,,,,,,,,,15,,,,,,,,,,,,,,308.73499999925843,,response,,,7,B,,,,,Space,keypress(Space),,,,lyrical,---- --------- ---------- - --- ------- -- --- ------------<br>----- -- -------- ------- ---- ------ - -------- ---- -----<br>--- ------- ---- -- was -------- --- - ----- ------ ---- --<br>-------- --- -------- -------- --- -------- ---- -- ----- -<br>-------- ---- --- ---------- --------- -- ------- ------ -<br>--------- ----- -----,157652.19999999925,157651.69999999925,157326.3,157332.3999999985,157342.965,157659.662,,23,was
screen,html.Screen,0_4_1_0_1_24,2021-11-04T13:25:38.654Z,,,,,,,,,,,,,,,,15,,,,,,,,,,,,,,287.93799999775365,,response,,,7,B,,,,,Space,keypress(Space),,,,lyrical,---- --------- ---------- - --- ------- -- --- ------------<br>----- -- -------- ------- ---- ------ - -------- ---- -----<br>--- ------- ---- -- --- prepared --- - ----- ------ ---- --<br>-------- --- -------- -------- --- -------- ---- -- ----- -<br>-------- ---- --- ---------- --------- -- ------- ------ -<br>--------- ----- -----,157948.19999999925,157947.59999999776,157642.996,157652.3999999985,157659.662,157959.672,,24,prepared
screen,html.Screen,0_4_1_0_1_25,2021-11-04T13:25:38.998Z,,,,,,,,,,,,,,,,15,,,,,,,,,,,,,,331.7279999985185,,response,,,7,B,,,,,Space,keypress(Space),,,,lyrical,---- --------- ---------- - --- ------- -- --- ------------<br>----- -- -------- ------- ---- ------ - -------- ---- -----<br>--- ------- ---- -- --- -------- for - ----- ------ ---- --<br>-------- --- -------- -------- --- -------- ---- -- ----- -<br>-------- ---- --- ---------- --------- -- ------- ------ -<br>--------- ----- -----,158291.79999999702,158291.3999999985,157943.006,157948.29999999702,157959.672,158292.945,,25,for
screen,html.Screen,0_4_1_0_1_26,2021-11-04T13:25:39.263Z,,,,,,,,,,,,,,,,15,,,,,,,,,,,,,,262.65499999775784,,response,,,7,B,,,,,Space,keypress(Space),,,,lyrical,---- --------- ---------- - --- ------- -- --- ------------<br>----- -- -------- ------- ---- ------ - -------- ---- -----<br>--- ------- ---- -- --- -------- --- a ----- ------ ---- --<br>-------- --- -------- -------- --- -------- ---- -- ----- -<br>-------- ---- --- ---------- --------- -- ------- ------ -<br>--------- ----- -----,158556.29999999702,158555.59999999776,158276.28,158291.8999999985,158292.945,158559.485,,26,a
screen,html.Screen,0_4_1_0_1_27,2021-11-04T13:25:39.503Z,,,,,,,,,,,,,,,,15,,,,,,,,,,,,,,236.1149999977788,,response,,,7,B,,,,,Space,keypress(Space),,,,lyrical,---- --------- ---------- - --- ------- -- --- ------------<br>----- -- -------- ------- ---- ------ - -------- ---- -----<br>--- ------- ---- -- --- -------- --- - third ------ ---- --<br>-------- --- -------- -------- --- -------- ---- -- ----- -<br>-------- ---- --- ---------- --------- -- ------- ------ -<br>--------- ----- -----,158796.19999999925,158795.59999999776,158542.822,158556.3999999985,158559.485,158809.577,,27,third
screen,html.Screen,0_4_1_0_1_28,2021-11-04T13:25:39.830Z,,,,,,,,,,,,,,,,15,,,,,,,,,,,,,,313.9230000000098,,response,,,7,B,,,,,Space,keypress(Space),,,,lyrical,---- --------- ---------- - --- ------- -- --- ------------<br>----- -- -------- ------- ---- ------ - -------- ---- -----<br>--- ------- ---- -- --- -------- --- - ----- prison ---- --<br>-------- --- -------- -------- --- -------- ---- -- ----- -<br>-------- ---- --- ---------- --------- -- ------- ------ -<br>--------- ----- -----,159124.19999999925,159123.5,158792.911,158796.29999999702,158809.577,159126.291,,28,prison
screen,html.Screen,0_4_1_0_1_29,2021-11-04T13:25:40.142Z,,,,,,,,,,,,,,,,15,,,,,,,,,,,,,,309.3089999977674,,response,,,7,B,,,,,Space,keypress(Space),,,,lyrical,---- --------- ---------- - --- ------- -- --- ------------<br>----- -- -------- ------- ---- ------ - -------- ---- -----<br>--- ------- ---- -- --- -------- --- - ----- ------ stay --<br>-------- --- -------- -------- --- -------- ---- -- ----- -<br>-------- ---- --- ---------- --------- -- ------- ------ -<br>--------- ----- -----,159436.09999999776,159435.59999999776,159109.624,159124.29999999702,159126.291,159442.77,,29,stay
screen,html.Screen,0_4_1_0_1_30,2021-11-04T13:25:40.583Z,,,,,,,,,,,,,,,,15,,,,,,,,,,,,,,433.02999999703025,,response,,,7,B,,,,,Space,keypress(Space),,,,lyrical,---- --------- ---------- - --- ------- -- --- ------------<br>----- -- -------- ------- ---- ------ - -------- ---- -----<br>--- ------- ---- -- --- -------- --- - ----- ------ ---- to<br>-------- --- -------- -------- --- -------- ---- -- ----- -<br>-------- ---- --- ---------- --------- -- ------- ------ -<br>--------- ----- -----,159876.3999999985,159875.79999999702,159426.107,159436.29999999702,159442.77,159892.92,,30,to
screen,html.Screen,0_4_1_0_1_31,2021-11-04T13:25:40.958Z,,,,,,,,,,,,,,,,15,,,,,,,,,,,,,,358.4799999984971,,response,,,7,B,,,,,Space,keypress(Space),,,,lyrical,---- --------- ---------- - --- ------- -- --- ------------<br>----- -- -------- ------- ---- ------ - -------- ---- -----<br>--- ------- ---- -- --- -------- --- - ----- ------ ---- --<br>maintain --- -------- -------- --- -------- ---- -- ----- -<br>-------- ---- --- ---------- --------- -- ------- ------ -<br>--------- ----- -----,160252.09999999776,160251.3999999985,159876.253,159876.59999999776,159892.92,160259.501,,31,maintain
screen,html.Screen,0_4_1_0_1_32,2021-11-04T13:25:41.278Z,,,,,,,,,,,,,,,,15,,,,,,,,,,,,,,311.9990000000107,,response,,,7,B,,,,,Space,keypress(Space),,,,lyrical,---- --------- ---------- - --- ------- -- --- ------------<br>----- -- -------- ------- ---- ------ - -------- ---- -----<br>--- ------- ---- -- --- -------- --- - ----- ------ ---- --<br>-------- his -------- -------- --- -------- ---- -- ----- -<br>-------- ---- --- ---------- --------- -- ------- ------ -<br>--------- ----- -----,160572,160571.5,160242.836,160252.19999999925,160259.501,160576.146,,32,his
screen,html.Screen,0_4_1_0_1_33,2021-11-04T13:25:41.510Z,,,,,,,,,,,,,,,,15,,,,,,,,,,,,,,227.4539999977569,,response,,,7,B,,,,,Space,keypress(Space),,,,lyrical,---- --------- ---------- - --- ------- -- --- ------------<br>----- -- -------- ------- ---- ------ - -------- ---- -----<br>--- ------- ---- -- --- -------- --- - ----- ------ ---- --<br>-------- --- silence. -------- --- -------- ---- -- ----- -<br>-------- ---- --- ---------- --------- -- ------- ------ -<br>--------- ----- -----,160804.19999999925,160803.59999999776,160559.481,160572.19999999925,160576.146,160809.422,,33,silence.
screen,html.Screen,0_4_1_0_1_34,2021-11-04T13:25:41.894Z,,,,,,,,,,,,,,,,15,,,,,,,,,,,,,,378.0780000000086,,response,,,7,B,,,,,Space,keypress(Space),,,,lyrical,---- --------- ---------- - --- ------- -- --- ------------<br>----- -- -------- ------- ---- ------ - -------- ---- -----<br>--- ------- ---- -- --- -------- --- - ----- ------ ---- --<br>-------- --- -------- Anderson --- -------- ---- -- ----- -<br>-------- ---- --- ---------- --------- -- ------- ------ -<br>--------- ----- -----,161188,161187.5,160792.758,160804.29999999702,160809.422,161192.766,,34,Anderson
screen,html.Screen,0_4_1_0_1_35,2021-11-04T13:25:42.166Z,,,,,,,,,,,,,,,,15,,,,,,,,,,,,,,266.6339999985066,,response,,,7,B,,,,,Space,keypress(Space),,,,lyrical,---- --------- ---------- - --- ------- -- --- ------------<br>----- -- -------- ------- ---- ------ - -------- ---- -----<br>--- ------- ---- -- --- -------- --- - ----- ------ ---- --<br>-------- --- -------- -------- was -------- ---- -- ----- -<br>-------- ---- --- ---------- --------- -- ------- ------ -<br>--------- ----- -----,161460,161459.3999999985,161176.101,161188.19999999925,161192.766,161476.03,,35,was
screen,html.Screen,0_4_1_0_1_36,2021-11-04T13:25:42.430Z,,,,,,,,,,,,,,,,15,,,,,,,,,,,,,,247.36999999851105,,response,,,7,B,,,,,Space,keypress(Space),,,,lyrical,---- --------- ---------- - --- ------- -- --- ------------<br>----- -- -------- ------- ---- ------ - -------- ---- -----<br>--- ------- ---- -- --- -------- --- - ----- ------ ---- --<br>-------- --- -------- -------- --- released ---- -- ----- -<br>-------- ---- --- ---------- --------- -- ------- ------ -<br>--------- ----- -----,161724.09999999776,161723.3999999985,161459.366,161460.09999999776,161476.03,161726.106,,36,released
screen,html.Screen,0_4_1_0_1_37,2021-11-04T13:25:42.662Z,,,,,,,,,,,,,,,,15,,,,,,,,,,,,,,229.29399999851012,,response,,,7,B,,,,,Space,keypress(Space),,,,lyrical,---- --------- ---------- - --- ------- -- --- ------------<br>----- -- -------- ------- ---- ------ - -------- ---- -----<br>--- ------- ---- -- --- -------- --- - ----- ------ ---- --<br>-------- --- -------- -------- --- -------- July -- ----- -<br>-------- ---- --- ---------- --------- -- ------- ------ -<br>--------- ----- -----,161956,161955.3999999985,161709.44,161724.19999999925,161726.106,161959.441,,37,July
screen,html.Screen,0_4_1_0_1_38,2021-11-04T13:25:43.862Z,,,,,,,,,,,,,,,,15,,,,,,,,,,,,,,1196.0590000000084,,response,,,7,B,,,,,Space,keypress(Space),,,,lyrical,---- --------- ---------- - --- ------- -- --- ------------<br>----- -- -------- ------- ---- ------ - -------- ---- -----<br>--- ------- ---- -- --- -------- --- - ----- ------ ---- --<br>-------- --- -------- -------- --- -------- ---- 20 ----- -<br>-------- ---- --- ---------- --------- -- ------- ------ -<br>--------- ----- -----,163156,163155.5,161942.775,161956.19999999925,161959.441,163159.198,,38,20
screen,html.Screen,0_4_1_0_1_39,2021-11-04T13:25:44.286Z,,,,,,,,,,,,,,,,15,,,,,,,,,,,,,,420.1019999970158,,response,,,7,B,,,,,Space,keypress(Space),,,,lyrical,---- --------- ---------- - --- ------- -- --- ------------<br>----- -- -------- ------- ---- ------ - -------- ---- -----<br>--- ------- ---- -- --- -------- --- - ----- ------ ---- --<br>-------- --- -------- -------- --- -------- ---- -- after -<br>-------- ---- --- ---------- --------- -- ------- ------ -<br>--------- ----- -----,163580,163579.29999999702,163142.534,163156.29999999702,163159.198,163592.748,,39,after
screen,html.Screen,0_4_1_0_1_40,2021-11-04T13:25:44.582Z,,,,,,,,,,,,,,,,15,,,,,,,,,,,,,,282.55199999702745,,response,,,7,B,,,,,Space,keypress(Space),,,,lyrical,---- --------- ---------- - --- ------- -- --- ------------<br>----- -- -------- ------- ---- ------ - -------- ---- -----<br>--- ------- ---- -- --- -------- --- - ----- ------ ---- --<br>-------- --- -------- -------- --- -------- ---- -- ----- a<br>-------- ---- --- ---------- --------- -- ------- ------ -<br>--------- ----- -----,163875.8999999985,163875.29999999702,163576.081,163580.19999999925,163592.748,163892.635,,40,a
screen,html.Screen,0_4_1_0_1_41,2021-11-04T13:25:45.030Z,,,,,,,,,,,,,,,,15,,,,,,,,,,,,,,430.66499999701045,,response,,,7,B,,,,,Space,keypress(Space),,,,lyrical,---- --------- ---------- - --- ------- -- --- ------------<br>----- -- -------- ------- ---- ------ - -------- ---- -----<br>--- ------- ---- -- --- -------- --- - ----- ------ ---- --<br>-------- --- -------- -------- --- -------- ---- -- ----- -<br>two-week ---- --- ---------- --------- -- ------- ------ -<br>--------- ----- -----,164323.8999999985,164323.29999999702,163875.97,163876.09999999776,163892.635,164325.938,,41,two-week
screen,html.Screen,0_4_1_0_1_42,2021-11-04T13:25:45.398Z,,,,,,,,,,,,,,,,15,,,,,,,,,,,,,,365.2619999992603,,response,,,7,B,,,,,Space,keypress(Space),,,,lyrical,---- --------- ---------- - --- ------- -- --- ------------<br>----- -- -------- ------- ---- ------ - -------- ---- -----<br>--- ------- ---- -- --- -------- --- - ----- ------ ---- --<br>-------- --- -------- -------- --- -------- ---- -- ----- -<br>-------- stay --- ---------- --------- -- ------- ------ -<br>--------- ----- -----,164691.8999999985,164691.19999999925,164309.273,164324.09999999776,164325.938,164709.251,,42,stay
screen,html.Screen,0_4_1_0_1_43,2021-11-04T13:25:46.102Z,,,,,,,,,,,,,,,,15,,,,,,,,,,,,,,686.0489999970305,,response,,,7,B,,,,,Space,keypress(Space),,,,lyrical,---- --------- ---------- - --- ------- -- --- ------------<br>----- -- -------- ------- ---- ------ - -------- ---- -----<br>--- ------- ---- -- --- -------- --- - ----- ------ ---- --<br>-------- --- -------- -------- --- -------- ---- -- ----- -<br>-------- ---- for ---------- --------- -- ------- ------ -<br>--------- ----- -----,165395.8999999985,165395.29999999702,164692.586,164692.09999999776,164709.251,165409.198,,43,for
screen,html.Screen,0_4_1_0_1_44,2021-11-04T13:25:46.998Z,,,,,,,,,,,,,,,,15,,,,,,,,,,,,,,882.1019999970158,,response,,,7,B,,,,,Space,keypress(Space),,,,lyrical,---- --------- ---------- - --- ------- -- --- ------------<br>----- -- -------- ------- ---- ------ - -------- ---- -----<br>--- ------- ---- -- --- -------- --- - ----- ------ ---- --<br>-------- --- -------- -------- --- -------- ---- -- ----- -<br>-------- ---- --- previously --------- -- ------- ------ -<br>--------- ----- -----,166292,166291.29999999702,165392.533,165396.19999999925,165409.198,166309.224,,44,previously
screen,html.Screen,0_4_1_0_1_45,2021-11-04T13:25:47.350Z,,,,,,,,,,,,,,,,15,,,,,,,,,,,,,,333.7760000000126,,response,,,7,B,,,,,Space,keypress(Space),,,,lyrical,---- --------- ---------- - --- ------- -- --- ------------<br>----- -- -------- ------- ---- ------ - -------- ---- -----<br>--- ------- ---- -- --- -------- --- - ----- ------ ---- --<br>-------- --- -------- -------- --- -------- ---- -- ----- -<br>-------- ---- --- ---------- declining -- ------- ------ -<br>--------- ----- -----,166643.69999999925,166643,166292.558,166292.09999999776,166309.224,166659.118,,45,declining
screen,html.Screen,0_4_1_0_1_46,2021-11-04T13:25:47.686Z,,,,,,,,,,,,,,,,15,,,,,,,,,,,,,,319.98199999777717,,response,,,7,B,,,,,Space,keypress(Space),,,,lyrical,---- --------- ---------- - --- ------- -- --- ------------<br>----- -- -------- ------- ---- ------ - -------- ---- -----<br>--- ------- ---- -- --- -------- --- - ----- ------ ---- --<br>-------- --- -------- -------- --- -------- ---- -- ----- -<br>-------- ---- --- ---------- --------- to ------- ------ -<br>--------- ----- -----,166979.79999999702,166979.09999999776,166642.453,166643.8999999985,166659.118,166992.46,,46,to
screen,html.Screen,0_4_1_0_1_47,2021-11-04T13:25:47.942Z,,,,,,,,,,,,,,,,15,,,,,,,,,,,,,,242.63999999777297,,response,,,7,B,,,,,Space,keypress(Space),,,,lyrical,---- --------- ---------- - --- ------- -- --- ------------<br>----- -- -------- ------- ---- ------ - -------- ---- -----<br>--- ------- ---- -- --- -------- --- - ----- ------ ---- --<br>-------- --- -------- -------- --- -------- ---- -- ----- -<br>-------- ---- --- ---------- --------- -- testify ------ -<br>--------- ----- -----,167235.59999999776,167235.09999999776,166975.795,166979.8999999985,166992.46,167242.504,,47,testify
screen,html.Screen,0_4_1_0_1_48,2021-11-04T13:25:48.246Z,,,,,,,,,,,,,,,,15,,,,,,,,,,,,,,296.49600000001374,,response,,,7,B,,,,,Space,keypress(Space),,,,lyrical,---- --------- ---------- - --- ------- -- --- ------------<br>----- -- -------- ------- ---- ------ - -------- ---- -----<br>--- ------- ---- -- --- -------- --- - ----- ------ ---- --<br>-------- --- -------- -------- --- -------- ---- -- ----- -<br>-------- ---- --- ---------- --------- -- ------- before -<br>--------- ----- -----,167539.59999999776,167539,167225.838,167235.8999999985,167242.504,167542.406,,48,before
screen,html.Screen,0_4_1_0_1_49,2021-11-04T13:25:48.510Z,,,,,,,,,,,,,,,,15,,,,,,,,,,,,,,260.5940000000119,,response,,,7,B,,,,,Space,keypress(Space),,,,lyrical,---- --------- ---------- - --- ------- -- --- ------------<br>----- -- -------- ------- ---- ------ - -------- ---- -----<br>--- ------- ---- -- --- -------- --- - ----- ------ ---- --<br>-------- --- -------- -------- --- -------- ---- -- ----- -<br>-------- ---- --- ---------- --------- -- ------- ------ a<br>--------- ----- -----,167803.69999999925,167803,167525.742,167539.8999999985,167542.406,167809.05,,49,a
screen,html.Screen,0_4_1_0_1_50,2021-11-04T13:25:48.814Z,,,,,,,,,,,,,,,,15,,,,,,,,,,,,,,298.04999999777647,,response,,,7,B,,,,,Space,keypress(Space),,,,lyrical,---- --------- ---------- - --- ------- -- --- ------------<br>----- -- -------- ------- ---- ------ - -------- ---- -----<br>--- ------- ---- -- --- -------- --- - ----- ------ ---- --<br>-------- --- -------- -------- --- -------- ---- -- ----- -<br>-------- ---- --- ---------- --------- -- ------- ------ -<br>different ----- -----,168107.79999999702,168107.09999999776,167792.386,167803.79999999702,167809.05,168109.101,,50,different
screen,html.Screen,0_4_1_0_1_51,2021-11-04T13:25:49.126Z,,,,,,,,,,,,,,,,15,,,,,,,,,,,,,,309.9989999977697,,response,,,7,B,,,,,Space,keypress(Space),,,,lyrical,---- --------- ---------- - --- ------- -- --- ------------<br>----- -- -------- ------- ---- ------ - -------- ---- -----<br>--- ------- ---- -- --- -------- --- - ----- ------ ---- --<br>-------- --- -------- -------- --- -------- ---- -- ----- -<br>-------- ---- --- ---------- --------- -- ------- ------ -<br>--------- grand -----,168419.79999999702,168419.09999999776,168092.435,168108,168109.101,168425.725,,51,grand
screen,html.Screen,0_4_1_0_1_52,2021-11-04T13:25:49.390Z,,,,,,,,,,,,,,,,15,,,,,,,,,,,,,,257.2749999999942,,response,,,7,B,,,,,Space,keypress(Space),,,,lyrical,---- --------- ---------- - --- ------- -- --- ------------<br>----- -- -------- ------- ---- ------ - -------- ---- -----<br>--- ------- ---- -- --- -------- --- - ----- ------ ---- --<br>-------- --- -------- -------- --- -------- ---- -- ----- -<br>-------- ---- --- ---------- --------- -- ------- ------ -<br>--------- ----- jury.,168683.5,168683,168409.06,168419.8999999985,168425.725,168692.274,,52,jury.
Item 7,flow.Loop,0_4_1_0_1,2021-11-04T13:25:49.390Z,,,,,,,,,,,,,,,,,,,,,,,,,,,,,,20806.09599999999,,completion,,,,,,,,,,,,,,,,168683.8999999985,168683,147860.238,147861.19999999925,147876.904,168692.274,,,
