sender,sender_type,sender_id,timestamp,meta,,Blues,Classical,Country,Dance,Electronic,Folk,Gospel,Hip-Hop,Jazz,Latin,Musical/Film,New-age,Pop,Provo_ID,R&B,Rap,Reggae,Religious,Rock,Soul,Swing,Traditional,age,artist_name,correct,correctResponse,distraction,duration,education,ended_on,familiarity,gender,item,list,music_frequency,offensiveness,pleasantness,preference,response,response_action,snippet_file,song_name,song_rating,sound,text,time_commit,time_end,time_render,time_run,time_show,time_switch,url,word,word_ID
Instructions,html.Page,0_0,2021-11-26T10:01:51.873Z,"{""labjs_version"":""20.2.3"",""labjs_build"":{""flavor"":""production"",""commit"":""7ea907d66ca8aeef8054924ca5d82ffbe11e34e5""},""location"":""https://run.pavlovia.org/mvasilev/lab_music_f/"",""userAgent"":""Mozilla/5.0 (Windows NT 6.1; Win64; x64) AppleWebKit/537.36 (KHTML, like Gecko) Chrome/96.0.4664.45 Safari/537.36"",""platform"":""Win32"",""language"":""en-US"",""locale"":""en-US"",""timeZone"":""Europe/London"",""timezoneOffset"":0,""screen_width"":1920,""screen_height"":1080,""scroll_width"":1904,""scroll_height"":900,""window_innerWidth"":1904,""window_innerHeight"":948,""devicePixelRatio"":1}",,,,,,,,,,,,,,,,,,,,,,,,,,,,,16106.256000000094,,form submission,,,,,,,,,,,,,,,,26487.200000000186,26486.100000000093,10363.174,10367.5,10379.844,26483.123,{},,
Headphones,html.Page,0_1,2021-11-26T10:01:54.738Z,,,,,,,,,,,,,,,,,,,,,,,,,,,,,,2869.4770000000935,,form submission,,,,,,,,,,,,,,,,29353.100000000093,29352.600000000093,26466.382,26487.899999999907,26483.123,29368.232,,,
Holding screen,html.Screen,0_2_0_0,2021-11-26T10:02:04.747Z,,,,,,,,,,,,,,,,,,,,,,,,,,,,,,10035.553000000004,,timeout,,,,,,,,,,,,,,,,39361.299999999814,39353.778,29351.561,29353.600000000093,29368.232,39403.785,,,
screen,html.Screen,0_2_0_1_0,2021-11-26T10:02:06.290Z,,,,,,,,,,,,,,,,53,,,,,,,,,,,,,,1499.4150000001828,,response,,,99,,,,,,Space,keypress(Space),,,,,When -- ----- -- ------ - ------- --- ----------<br>------------- ------ ------ ---- ---- ------- ----- -- ----<br>-------- ------- -- ---------- --- - --- ----- ----- ----<br>---- --- --- ----- --- ---- ---- ------- ----- ---- -------<br>--- --- -- ----- -- --- ---- -- --- ---- -- ------ ------<br>--- ----- -- ----,40904.60000000009,40903.200000000186,39353.778,39361.89999999991,39403.785,40921.163,,0,When
screen,html.Screen,0_2_0_1_1,2021-11-26T10:02:07.377Z,,,,,,,,,,,,,,,,53,,,,,,,,,,,,,,1069.5370000001858,,response,,,99,,,,,,Space,keypress(Space),,,,,---- it ----- -- ------ - ------- --- ----------<br>------------- ------ ------ ---- ---- ------- ----- -- ----<br>-------- ------- -- ---------- --- - --- ----- ----- ----<br>---- --- --- ----- --- ---- ---- ------- ----- ---- -------<br>--- --- -- ----- -- --- ---- -- --- ---- -- ------ ------<br>--- ----- -- ----,41991.5,41990.700000000186,40904.492,40905,40921.163,42004.431,,1,it
screen,html.Screen,0_2_0_1_2,2021-11-26T10:02:08.369Z,,,,,,,,,,,,,,,,53,,,,,,,,,,,,,,978.1690000000963,,response,,,99,,,,,,Space,keypress(Space),,,,,---- -- comes -- ------ - ------- --- ----------<br>------------- ------ ------ ---- ---- ------- ----- -- ----<br>-------- ------- -- ---------- --- - --- ----- ----- ----<br>---- --- --- ----- --- ---- ---- ------- ----- ---- -------<br>--- --- -- ----- -- --- ---- -- --- ---- -- ------ ------<br>--- ----- -- ----,42983.5,42982.60000000009,41987.762,41991.700000000186,42004.431,42988.308,,2,comes
screen,html.Screen,0_2_0_1_3,2021-11-26T10:02:08.849Z,,,,,,,,,,,,,,,,53,,,,,,,,,,,,,,474.29200000009587,,response,,,99,,,,,,Space,keypress(Space),,,,,---- -- ----- to ------ - ------- --- ----------<br>------------- ------ ------ ---- ---- ------- ----- -- ----<br>-------- ------- -- ---------- --- - --- ----- ----- ----<br>---- --- --- ----- --- ---- ---- ------- ----- ---- -------<br>--- --- -- ----- -- --- ---- -- --- ---- -- ------ ------<br>--- ----- -- ----,43463.5,43462.60000000009,42971.637,42983.700000000186,42988.308,43471.62,,3,to
screen,html.Screen,0_2_0_1_4,2021-11-26T10:02:09.433Z,,,,,,,,,,,,,,,,53,,,,,,,,,,,,,,574.8799999999974,,response,,,99,,,,,,Space,keypress(Space),,,,,---- -- ----- -- having - ------- --- ----------<br>------------- ------ ------ ---- ---- ------- ----- -- ----<br>-------- ------- -- ---------- --- - --- ----- ----- ----<br>---- --- --- ----- --- ---- ---- ------- ----- ---- -------<br>--- --- -- ----- -- --- ---- -- --- ---- -- ------ ------<br>--- ----- -- ----,44047.60000000009,44046.5,43454.95,43463.89999999991,43471.62,44055.215,,4,having
screen,html.Screen,0_2_0_1_5,2021-11-26T10:02:10.257Z,,,,,,,,,,,,,,,,53,,,,,,,,,,,,,,815.1849999999104,,response,,,99,,,,,,Space,keypress(Space),,,,,---- -- ----- -- ------ a ------- --- ----------<br>------------- ------ ------ ---- ---- ------- ----- -- ----<br>-------- ------- -- ---------- --- - --- ----- ----- ----<br>---- --- --- ----- --- ---- ---- ------- ----- ---- -------<br>--- --- -- ----- -- --- ---- -- --- ---- -- ------ ------<br>--- ----- -- ----,44871.299999999814,44870.39999999991,44038.544,44047.89999999991,44055.215,44888.757,,5,a
screen,html.Screen,0_2_0_1_6,2021-11-26T10:02:10.689Z,,,,,,,,,,,,,,,,53,,,,,,,,,,,,,,413.6429999999091,,response,,,99,,,,,,Space,keypress(Space),,,,,---- -- ----- -- ------ - lasting --- ----------<br>------------- ------ ------ ---- ---- ------- ----- -- ----<br>-------- ------- -- ---------- --- - --- ----- ----- ----<br>---- --- --- ----- --- ---- ---- ------- ----- ---- -------<br>--- --- -- ----- -- --- ---- -- --- ---- -- ------ ------<br>--- ----- -- ----,45303.299999999814,45302.39999999991,44872.086,44871.799999999814,44888.757,45305.436,,6,lasting
screen,html.Screen,0_2_0_1_7,2021-11-26T10:02:11.209Z,,,,,,,,,,,,,,,,53,,,,,,,,,,,,,,516.9639999999054,,response,,,99,,,,,,Space,keypress(Space),,,,,---- -- ----- -- ------ - ------- and ----------<br>------------- ------ ------ ---- ---- ------- ----- -- ----<br>-------- ------- -- ---------- --- - --- ----- ----- ----<br>---- --- --- ----- --- ---- ---- ------- ----- ---- -------<br>--- --- -- ----- -- --- ---- -- --- ---- -- ------ ------<br>--- ----- -- ----,45823.39999999991,45822.39999999991,45288.766,45303.60000000009,45305.436,45838.936,,7,and
screen,html.Screen,0_2_0_1_8,2021-11-26T10:02:11.857Z,,,,,,,,,,,,,,,,53,,,,,,,,,,,,,,631.3639999998122,,response,,,99,,,,,,Space,keypress(Space),,,,,---- -- ----- -- ------ - ------- --- fulfilling<br>------------- ------ ------ ---- ---- ------- ----- -- ----<br>-------- ------- -- ---------- --- - --- ----- ----- ----<br>---- --- --- ----- --- ---- ---- ------- ----- ---- -------<br>--- --- -- ----- -- --- ---- -- --- ---- -- ------ ------<br>--- ----- -- ----,46471.5,46470.299999999814,45822.266,45823.60000000009,45838.936,46489.095,,8,fulfilling
screen,html.Screen,0_2_0_1_9,2021-11-26T10:02:13.360Z,,,,,,,,,,,,,,,,53,,,,,,,,,,,,,,1485.105000000185,,response,,,99,,,,,,Space,keypress(Space),,,,,"---- -- ----- -- ------ - ------- --- ----------<br>relationship, ------ ------ ---- ---- ------- ----- -- ----<br>-------- ------- -- ---------- --- - --- ----- ----- ----<br>---- --- --- ----- --- ---- ---- ------- ----- ---- -------<br>--- --- -- ----- -- --- ---- -- --- ---- -- ------ ------<br>--- ----- -- ----",47975.200000000186,47974.200000000186,46472.425,46471.89999999991,46489.095,47989.43,,9,"relationship,"
screen,html.Screen,0_2_0_1_10,2021-11-26T10:02:14.048Z,,,,,,,,,,,,,,,,53,,,,,,,,,,,,,,672.770000000186,,response,,,99,,,,,,Space,keypress(Space),,,,,---- -- ----- -- ------ - ------- --- ----------<br>------------- common ------ ---- ---- ------- ----- -- ----<br>-------- ------- -- ---------- --- - --- ----- ----- ----<br>---- --- --- ----- --- ---- ---- ------- ----- ---- -------<br>--- --- -- ----- -- --- ---- -- --- ---- -- ------ ------<br>--- ----- -- ----,48663.200000000186,48662.200000000186,47972.76,47975.5,47989.43,48672.967,,10,common
screen,html.Screen,0_2_0_1_11,2021-11-26T10:02:14.728Z,,,,,,,,,,,,,,,,53,,,,,,,,,,,,,,669.2330000001893,,response,,,99,,,,,,Space,keypress(Space),,,,,---- -- ----- -- ------ - ------- --- ----------<br>------------- ------ wisdom ---- ---- ------- ----- -- ----<br>-------- ------- -- ---------- --- - --- ----- ----- ----<br>---- --- --- ----- --- ---- ---- ------- ----- ---- -------<br>--- --- -- ----- -- --- ---- -- --- ---- -- ------ ------<br>--- ----- -- ----,49343.10000000009,49342.200000000186,48656.297,48663.39999999991,48672.967,49356.483,,11,wisdom
screen,html.Screen,0_2_0_1_12,2021-11-26T10:02:15.544Z,,,,,,,,,,,,,,,,53,,,,,,,,,,,,,,801.5169999999998,,response,,,99,,,,,,Space,keypress(Space),,,,,---- -- ----- -- ------ - ------- --- ----------<br>------------- ------ ------ says ---- ------- ----- -- ----<br>-------- ------- -- ---------- --- - --- ----- ----- ----<br>---- --- --- ----- --- ---- ---- ------- ----- ---- -------<br>--- --- -- ----- -- --- ---- -- --- ---- -- ------ ------<br>--- ----- -- ----,50158.89999999991,50158,49339.813,49343.39999999991,49356.483,50173.325,,12,says
screen,html.Screen,0_2_0_1_13,2021-11-26T10:02:15.912Z,,,,,,,,,,,,,,,,53,,,,,,,,,,,,,,352.77500000009604,,response,,,99,,,,,,Space,keypress(Space),,,,,---- -- ----- -- ------ - ------- --- ----------<br>------------- ------ ------ ---- that ------- ----- -- ----<br>-------- ------- -- ---------- --- - --- ----- ----- ----<br>---- --- --- ----- --- ---- ---- ------- ----- ---- -------<br>--- --- -- ----- -- --- ---- -- --- ---- -- ------ ------<br>--- ----- -- ----,50526.89999999991,50526.10000000009,50156.655,50159.200000000186,50173.325,50540.162,,13,that
screen,html.Screen,0_2_0_1_14,2021-11-26T10:02:16.944Z,,,,,,,,,,,,,,,,53,,,,,,,,,,,,,,1018.2379999999102,,response,,,99,,,,,,Space,keypress(Space),,,,,---- -- ----- -- ------ - ------- --- ----------<br>------------- ------ ------ ---- ---- feeling ----- -- ----<br>-------- ------- -- ---------- --- - --- ----- ----- ----<br>---- --- --- ----- --- ---- ---- ------- ----- ---- -------<br>--- --- -- ----- -- --- ---- -- --- ---- -- ------ ------<br>--- ----- -- ----,51559.200000000186,51558.39999999991,50523.491,50527.10000000009,50540.162,51573.689,,14,feeling
screen,html.Screen,0_2_0_1_15,2021-11-26T10:02:17.632Z,,,,,,,,,,,,,,,,53,,,,,,,,,,,,,,672.2109999999084,,response,,,99,,,,,,Space,keypress(Space),,,,,---- -- ----- -- ------ - ------- --- ----------<br>------------- ------ ------ ---- ---- ------- close -- ----<br>-------- ------- -- ---------- --- - --- ----- ----- ----<br>---- --- --- ----- --- ---- ---- ------- ----- ---- -------<br>--- --- -- ----- -- --- ---- -- --- ---- -- ------ ------<br>--- ----- -- ----,52246.799999999814,52245.89999999991,51557.019,51559.5,51573.689,52257.182,,15,close
screen,html.Screen,0_2_0_1_16,2021-11-26T10:02:18.008Z,,,,,,,,,,,,,,,,53,,,,,,,,,,,,,,364.8179999999993,,response,,,99,,,,,,Space,keypress(Space),,,,,---- -- ----- -- ------ - ------- --- ----------<br>------------- ------ ------ ---- ---- ------- ----- to ----<br>-------- ------- -- ---------- --- - --- ----- ----- ----<br>---- --- --- ----- --- ---- ---- ------- ----- ---- -------<br>--- --- -- ----- -- --- ---- -- --- ---- -- ------ ------<br>--- ----- -- ----,52622.799999999814,52622,52240.512,52247,52257.182,52623.977,,16,to
screen,html.Screen,0_2_0_1_17,2021-11-26T10:02:18.432Z,,,,,,,,,,,,,,,,53,,,,,,,,,,,,,,421.9229999999079,,response,,,99,,,,,,Space,keypress(Space),,,,,---- -- ----- -- ------ - ------- --- ----------<br>------------- ------ ------ ---- ---- ------- ----- -- your<br>-------- ------- -- ---------- --- - --- ----- ----- ----<br>---- --- --- ----- --- ---- ---- ------- ----- ---- -------<br>--- --- -- ----- -- --- ---- -- --- ---- -- ------ ------<br>--- ----- -- ----,53046.60000000009,53045.89999999991,52607.307,52623,52623.977,53057.414,,17,your
screen,html.Screen,0_2_0_1_18,2021-11-26T10:02:18.856Z,,,,,,,,,,,,,,,,53,,,,,,,,,,,,,,412.48599999990984,,response,,,99,,,,,,Space,keypress(Space),,,,,---- -- ----- -- ------ - ------- --- ----------<br>------------- ------ ------ ---- ---- ------- ----- -- ----<br>romantic ------- -- ---------- --- - --- ----- ----- ----<br>---- --- --- ----- --- ---- ---- ------- ----- ---- -------<br>--- --- -- ----- -- --- ---- -- --- ---- -- ------ ------<br>--- ----- -- ----,53470.60000000009,53469.89999999991,53040.744,53046.89999999991,53057.414,53474.156,,18,romantic
screen,html.Screen,0_2_0_1_19,2021-11-26T10:02:19.240Z,,,,,,,,,,,,,,,,53,,,,,,,,,,,,,,379.64399999981106,,response,,,99,,,,,,Space,keypress(Space),,,,,---- -- ----- -- ------ - ------- --- ----------<br>------------- ------ ------ ---- ---- ------- ----- -- ----<br>-------- partner -- ---------- --- - --- ----- ----- ----<br>---- --- --- ----- --- ---- ---- ------- ----- ---- -------<br>--- --- -- ----- -- --- ---- -- --- ---- -- ------ ------<br>--- ----- -- ----,53854.60000000009,53853.799999999814,53457.486,53470.89999999991,53474.156,53857.669,,19,partner
screen,html.Screen,0_2_0_1_20,2021-11-26T10:02:19.888Z,,,,,,,,,,,,,,,,53,,,,,,,,,,,,,,644.0310000001846,,response,,,99,,,,,,Space,keypress(Space),,,,,---- -- ----- -- ------ - ------- --- ----------<br>------------- ------ ------ ---- ---- ------- ----- -- ----<br>-------- ------- is ---------- --- - --- ----- ----- ----<br>---- --- --- ----- --- ---- ---- ------- ----- ---- -------<br>--- --- -- ----- -- --- ---- -- --- ---- -- ------ ------<br>--- ----- -- ----,54502.60000000009,54501.700000000186,53840.998,53854.89999999991,53857.669,54507.758,,20,is
screen,html.Screen,0_2_0_1_21,2021-11-26T10:02:20.792Z,,,,,,,,,,,,,,,,53,,,,,,,,,,,,,,897.9420000001846,,response,,,99,,,,,,Space,keypress(Space),,,,,---- -- ----- -- ------ - ------- --- ----------<br>------------- ------ ------ ---- ---- ------- ----- -- ----<br>-------- ------- -- paramount. --- - --- ----- ----- ----<br>---- --- --- ----- --- ---- ---- ------- ----- ---- -------<br>--- --- -- ----- -- --- ---- -- --- ---- -- ------ ------<br>--- ----- -- ----,55406.5,55405.700000000186,54491.088,54502.799999999814,54507.758,55407.978,,21,paramount.
screen,html.Screen,0_2_0_1_22,2021-11-26T10:02:21.208Z,,,,,,,,,,,,,,,,53,,,,,,,,,,,,,,413.72200000018347,,response,,,99,,,,,,Space,keypress(Space),,,,,---- -- ----- -- ------ - ------- --- ----------<br>------------- ------ ------ ---- ---- ------- ----- -- ----<br>-------- ------- -- ---------- But - --- ----- ----- ----<br>---- --- --- ----- --- ---- ---- ------- ----- ---- -------<br>--- --- -- ----- -- --- ---- -- --- ---- -- ------ ------<br>--- ----- -- ----,55822.5,55821.700000000186,55391.308,55407,55407.978,55824.776,,22,But
screen,html.Screen,0_2_0_1_23,2021-11-26T10:02:21.656Z,,,,,,,,,,,,,,,,53,,,,,,,,,,,,,,445.0239999998157,,response,,,99,,,,,,Space,keypress(Space),,,,,---- -- ----- -- ------ - ------- --- ----------<br>------------- ------ ------ ---- ---- ------- ----- -- ----<br>-------- ------- -- ---------- --- a --- ----- ----- ----<br>---- --- --- ----- --- ---- ---- ------- ----- ---- -------<br>--- --- -- ----- -- --- ---- -- --- ---- -- ------ ------<br>--- ----- -- ----,56270.5,56269.799999999814,55808.106,55822.799999999814,55824.776,56274.863,,23,a
screen,html.Screen,0_2_0_1_24,2021-11-26T10:02:21.984Z,,,,,,,,,,,,,,,,53,,,,,,,,,,,,,,322.8370000001887,,response,,,99,,,,,,Space,keypress(Space),,,,,---- -- ----- -- ------ - ------- --- ----------<br>------------- ------ ------ ---- ---- ------- ----- -- ----<br>-------- ------- -- ---------- --- - new ----- ----- ----<br>---- --- --- ----- --- ---- ---- ------- ----- ---- -------<br>--- --- -- ----- -- --- ---- -- --- ---- -- ------ ------<br>--- ----- -- ----,56598.5,56597.700000000186,56258.193,56270.799999999814,56274.863,56608.329,,24,new
screen,html.Screen,0_2_0_1_25,2021-11-26T10:02:22.688Z,,,,,,,,,,,,,,,,53,,,,,,,,,,,,,,693.4709999998158,,response,,,99,,,,,,Space,keypress(Space),,,,,---- -- ----- -- ------ - ------- --- ----------<br>------------- ------ ------ ---- ---- ------- ----- -- ----<br>-------- ------- -- ---------- --- - --- study ----- ----<br>---- --- --- ----- --- ---- ---- ------- ----- ---- -------<br>--- --- -- ----- -- --- ---- -- --- ---- -- ------ ------<br>--- ----- -- ----,57302.60000000009,57301.799999999814,56591.658,56598.700000000186,56608.329,57308.296,,25,study
screen,html.Screen,0_2_0_1_26,2021-11-26T10:02:23.080Z,,,,,,,,,,,,,,,,53,,,,,,,,,,,,,,385.30400000009104,,response,,,99,,,,,,Space,keypress(Space),,,,,---- -- ----- -- ------ - ------- --- ----------<br>------------- ------ ------ ---- ---- ------- ----- -- ----<br>-------- ------- -- ---------- --- - --- ----- finds ----<br>---- --- --- ----- --- ---- ---- ------- ----- ---- -------<br>--- --- -- ----- -- --- ---- -- --- ---- -- ------ ------<br>--- ----- -- ----,57694.39999999991,57693.60000000009,57291.628,57302.799999999814,57308.296,57708.71,,26,finds
screen,html.Screen,0_2_0_1_27,2021-11-26T10:02:23.768Z,,,,,,,,,,,,,,,,53,,,,,,,,,,,,,,672.890000000094,,response,,,99,,,,,,Space,keypress(Space),,,,,---- -- ----- -- ------ - ------- --- ----------<br>------------- ------ ------ ---- ---- ------- ----- -- ----<br>-------- ------- -- ---------- --- - --- ----- ----- that<br>---- --- --- ----- --- ---- ---- ------- ----- ---- -------<br>--- --- -- ----- -- --- ---- -- --- ---- -- ------ ------<br>--- ----- -- ----,58382.299999999814,58381.60000000009,57692.037,57694.60000000009,57708.71,58392.058,,27,that
screen,html.Screen,0_2_0_1_28,2021-11-26T10:02:24.216Z,,,,,,,,,,,,,,,,53,,,,,,,,,,,,,,437.44200000000274,,response,,,99,,,,,,Space,keypress(Space),,,,,---- -- ----- -- ------ - ------- --- ----------<br>------------- ------ ------ ---- ---- ------- ----- -- ----<br>-------- ------- -- ---------- --- - --- ----- ----- ----<br>it's --- --- ----- --- ---- ---- ------- ----- ---- -------<br>--- --- -- ----- -- --- ---- -- --- ---- -- ------ ------<br>--- ----- -- ----,58830.39999999991,58829.5,58375.388,58382.60000000009,58392.058,58842.141,,28,it's
screen,html.Screen,0_2_0_1_29,2021-11-26T10:02:24.896Z,,,,,,,,,,,,,,,,53,,,,,,,,,,,,,,667.3589999999967,,response,,,99,,,,,,Space,keypress(Space),,,,,---- -- ----- -- ------ - ------- --- ----------<br>------------- ------ ------ ---- ---- ------- ----- -- ----<br>-------- ------- -- ---------- --- - --- ----- ----- ----<br>---- not --- ----- --- ---- ---- ------- ----- ---- -------<br>--- --- -- ----- -- --- ---- -- --- ---- -- ------ ------<br>--- ----- -- ----,59510.5,59509.5,58825.471,58830.799999999814,58842.141,59525.726,,29,not
screen,html.Screen,0_2_0_1_30,2021-11-26T10:02:25.876Z,,,,,,,,,,,,,,,,53,,,,,,,,,,,,,,959.7739999999976,,response,,,99,,,,,,Space,keypress(Space),,,,,---- -- ----- -- ------ - ------- --- ----------<br>------------- ------ ------ ---- ---- ------- ----- -- ----<br>-------- ------- -- ---------- --- - --- ----- ----- ----<br>---- --- how ----- --- ---- ---- ------- ----- ---- -------<br>--- --- -- ----- -- --- ---- -- --- ---- -- ------ ------<br>--- ----- -- ----,60486.200000000186,60485.5,59509.055,59510.799999999814,59525.726,60492.549,,30,how
screen,html.Screen,0_2_0_1_31,2021-11-26T10:02:26.820Z,,,,,,,,,,,,,,,,53,,,,,,,,,,,,,,936.8509999999078,,response,,,99,,,,,,Space,keypress(Space),,,,,---- -- ----- -- ------ - ------- --- ----------<br>------------- ------ ------ ---- ---- ------- ----- -- ----<br>-------- ------- -- ---------- --- - --- ----- ----- ----<br>---- --- --- close --- ---- ---- ------- ----- ---- -------<br>--- --- -- ----- -- --- ---- -- --- ---- -- ------ ------<br>--- ----- -- ----,61430.200000000186,61429.39999999991,60475.879,60486.39999999991,60492.549,61442.88,,31,close
screen,html.Screen,0_2_0_1_32,2021-11-26T10:02:27.133Z,,,,,,,,,,,,,,,,53,,,,,,,,,,,,,,298.91999999981635,,response,,,99,,,,,,Space,keypress(Space),,,,,---- -- ----- -- ------ - ------- --- ----------<br>------------- ------ ------ ---- ---- ------- ----- -- ----<br>-------- ------- -- ---------- --- - --- ----- ----- ----<br>---- --- --- ----- you ---- ---- ------- ----- ---- -------<br>--- --- -- ----- -- --- ---- -- --- ---- -- ------ ------<br>--- ----- -- ----,61742.60000000009,61741.799999999814,61426.209,61430.39999999991,61442.88,61759.584,,32,you
screen,html.Screen,0_2_0_1_33,2021-11-26T10:02:27.916Z,,,,,,,,,,,,,,,,53,,,,,,,,,,,,,,765.8159999999043,,response,,,99,,,,,,Space,keypress(Space),,,,,---- -- ----- -- ------ - ------- --- ----------<br>------------- ------ ------ ---- ---- ------- ----- -- ----<br>-------- ------- -- ---------- --- - --- ----- ----- ----<br>---- --- --- ----- --- feel ---- ------- ----- ---- -------<br>--- --- -- ----- -- --- ---- -- --- ---- -- ------ ------<br>--- ----- -- ----,62526.10000000009,62525.39999999991,61742.914,61742.799999999814,61759.584,62543.082,,33,feel
screen,html.Screen,0_2_0_1_34,2021-11-26T10:02:28.300Z,,,,,,,,,,,,,,,,53,,,,,,,,,,,,,,366.2179999998116,,response,,,99,,,,,,Space,keypress(Space),,,,,---- -- ----- -- ------ - ------- --- ----------<br>------------- ------ ------ ---- ---- ------- ----- -- ----<br>-------- ------- -- ---------- --- - --- ----- ----- ----<br>---- --- --- ----- --- ---- that ------- ----- ---- -------<br>--- --- -- ----- -- --- ---- -- --- ---- -- ------ ------<br>--- ----- -- ----,62910.10000000009,62909.299999999814,62526.412,62526.39999999991,62543.082,62926.512,,34,that
screen,html.Screen,0_2_0_1_35,2021-11-26T10:02:28.796Z,,,,,,,,,,,,,,,,53,,,,,,,,,,,,,,478.7879999998113,,response,,,99,,,,,,Space,keypress(Space),,,,,---- -- ----- -- ------ - ------- --- ----------<br>------------- ------ ------ ---- ---- ------- ----- -- ----<br>-------- ------- -- ---------- --- - --- ----- ----- ----<br>---- --- --- ----- --- ---- ---- matters ----- ---- -------<br>--- --- -- ----- -- --- ---- -- --- ---- -- ------ ------<br>--- ----- -- ----,63406.10000000009,63405.299999999814,62909.842,62910.299999999814,62926.512,63409.98,,35,matters
screen,html.Screen,0_2_0_1_36,2021-11-26T10:02:29.308Z,,,,,,,,,,,,,,,,53,,,,,,,,,,,,,,507.31999999981053,,response,,,99,,,,,,Space,keypress(Space),,,,,"---- -- ----- -- ------ - ------- --- ----------<br>------------- ------ ------ ---- ---- ------- ----- -- ----<br>-------- ------- -- ---------- --- - --- ----- ----- ----<br>---- --- --- ----- --- ---- ---- ------- most, ---- -------<br>--- --- -- ----- -- --- ---- -- --- ---- -- ------ ------<br>--- ----- -- ----",63918.200000000186,63917.299999999814,63393.31,63406.39999999991,63409.98,63926.745,,36,"most,"
screen,html.Screen,0_2_0_1_37,2021-11-26T10:02:29.708Z,,,,,,,,,,,,,,,,53,,,,,,,,,,,,,,390.45500000018365,,response,,,99,,,,,,Space,keypress(Space),,,,,---- -- ----- -- ------ - ------- --- ----------<br>------------- ------ ------ ---- ---- ------- ----- -- ----<br>-------- ------- -- ---------- --- - --- ----- ----- ----<br>---- --- --- ----- --- ---- ---- ------- ----- it's -------<br>--- --- -- ----- -- --- ---- -- --- ---- -- ------ ------<br>--- ----- -- ----,64318,64317.200000000186,63910.075,63918.39999999991,63926.745,64326.91,,37,it's
screen,html.Screen,0_2_0_1_38,2021-11-26T10:02:30.068Z,,,,,,,,,,,,,,,,53,,,,,,,,,,,,,,350.2900000001828,,response,,,99,,,,,,Space,keypress(Space),,,,,---- -- ----- -- ------ - ------- --- ----------<br>------------- ------ ------ ---- ---- ------- ----- -- ----<br>-------- ------- -- ---------- --- - --- ----- ----- ----<br>---- --- --- ----- --- ---- ---- ------- ----- ---- whether<br>--- --- -- ----- -- --- ---- -- --- ---- -- ------ ------<br>--- ----- -- ----,64677.89999999991,64677.200000000186,64310.239,64318.200000000186,64326.91,64693.673,,38,whether
screen,html.Screen,0_2_0_1_39,2021-11-26T10:02:30.396Z,,,,,,,,,,,,,,,,53,,,,,,,,,,,,,,311.42700000009063,,response,,,99,,,,,,Space,keypress(Space),,,,,---- -- ----- -- ------ - ------- --- ----------<br>------------- ------ ------ ---- ---- ------- ----- -- ----<br>-------- ------- -- ---------- --- - --- ----- ----- ----<br>---- --- --- ----- --- ---- ---- ------- ----- ---- -------<br>you --- -- ----- -- --- ---- -- --- ---- -- ------ ------<br>--- ----- -- ----,65005.89999999991,65005.10000000009,64677.002,64678.200000000186,64693.673,65010.395,,39,you
screen,html.Screen,0_2_0_1_40,2021-11-26T10:02:30.732Z,,,,,,,,,,,,,,,,53,,,,,,,,,,,,,,330.6050000000032,,response,,,99,,,,,,Space,keypress(Space),,,,,---- -- ----- -- ------ - ------- --- ----------<br>------------- ------ ------ ---- ---- ------- ----- -- ----<br>-------- ------- -- ---------- --- - --- ----- ----- ----<br>---- --- --- ----- --- ---- ---- ------- ----- ---- -------<br>--- are -- ----- -- --- ---- -- --- ---- -- ------ ------<br>--- ----- -- ----,65341.799999999814,65341,64993.725,65006.10000000009,65010.395,65343.811,,40,are
screen,html.Screen,0_2_0_1_41,2021-11-26T10:02:31.252Z,,,,,,,,,,,,,,,,53,,,,,,,,,,,,,,517.2890000000916,,response,,,99,,,,,,Space,keypress(Space),,,,,---- -- ----- -- ------ - ------- --- ----------<br>------------- ------ ------ ---- ---- ------- ----- -- ----<br>-------- ------- -- ---------- --- - --- ----- ----- ----<br>---- --- --- ----- --- ---- ---- ------- ----- ---- -------<br>--- --- as ----- -- --- ---- -- --- ---- -- ------ ------<br>--- ----- -- ----,65861.8999999999,65861.1000000001,65327.141,65342.10000000009,65343.811,65877.259,,41,as
screen,html.Screen,0_2_0_1_42,2021-11-26T10:02:31.644Z,,,,,,,,,,,,,,,,53,,,,,,,,,,,,,,375.84100000008766,,response,,,99,,,,,,Space,keypress(Space),,,,,---- -- ----- -- ------ - ------- --- ----------<br>------------- ------ ------ ---- ---- ------- ----- -- ----<br>-------- ------- -- ---------- --- - --- ----- ----- ----<br>---- --- --- ----- --- ---- ---- ------- ----- ---- -------<br>--- --- -- close -- --- ---- -- --- ---- -- ------ ------<br>--- ----- -- ----,66253.79999999981,66253.1000000001,65860.589,65862.1000000001,65877.259,66260.538,,42,close
screen,html.Screen,0_2_0_1_43,2021-11-26T10:02:32.124Z,,,,,,,,,,,,,,,,53,,,,,,,,,,,,,,472.56200000009267,,response,,,99,,,,,,Space,keypress(Space),,,,,---- -- ----- -- ------ - ------- --- ----------<br>------------- ------ ------ ---- ---- ------- ----- -- ----<br>-------- ------- -- ---------- --- - --- ----- ----- ----<br>---- --- --- ----- --- ---- ---- ------- ----- ---- -------<br>--- --- -- ----- as --- ---- -- --- ---- -- ------ ------<br>--- ----- -- ----,66733.79999999981,66733.1000000001,66243.87,66254.1000000001,66260.538,66744.201,,43,as
screen,html.Screen,0_2_0_1_44,2021-11-26T10:02:32.468Z,,,,,,,,,,,,,,,,53,,,,,,,,,,,,,,332.79899999999907,,response,,,99,,,,,,Space,keypress(Space),,,,,---- -- ----- -- ------ - ------- --- ----------<br>------------- ------ ------ ---- ---- ------- ----- -- ----<br>-------- ------- -- ---------- --- - --- ----- ----- ----<br>---- --- --- ----- --- ---- ---- ------- ----- ---- -------<br>--- --- -- ----- -- you ---- -- --- ---- -- ------ ------<br>--- ----- -- ----,67077.79999999981,67077,66727.53,66734.1000000001,66744.201,67094.272,,44,you
screen,html.Screen,0_2_0_1_45,2021-11-26T10:02:32.796Z,,,,,,,,,,,,,,,,53,,,,,,,,,,,,,,310.7280000000028,,response,,,99,,,,,,Space,keypress(Space),,,,,---- -- ----- -- ------ - ------- --- ----------<br>------------- ------ ------ ---- ---- ------- ----- -- ----<br>-------- ------- -- ---------- --- - --- ----- ----- ----<br>---- --- --- ----- --- ---- ---- ------- ----- ---- -------<br>--- --- -- ----- -- --- want -- --- ---- -- ------ ------<br>--- ----- -- ----,67405.79999999981,67405,67077.601,67078,67094.272,67410.991,,45,want
screen,html.Screen,0_2_0_1_46,2021-11-26T10:02:33.164Z,,,,,,,,,,,,,,,,53,,,,,,,,,,,,,,362.00900000000547,,response,,,99,,,,,,Space,keypress(Space),,,,,---- -- ----- -- ------ - ------- --- ----------<br>------------- ------ ------ ---- ---- ------- ----- -- ----<br>-------- ------- -- ---------- --- - --- ----- ----- ----<br>---- --- --- ----- --- ---- ---- ------- ----- ---- -------<br>--- --- -- ----- -- --- ---- to --- ---- -- ------ ------<br>--- ----- -- ----,67773.70000000019,67773,67394.321,67406,67410.991,67777.78,,46,to
screen,html.Screen,0_2_0_1_47,2021-11-26T10:02:33.556Z,,,,,,,,,,,,,,,,53,,,,,,,,,,,,,,387.11999999990803,,response,,,99,,,,,,Space,keypress(Space),,,,,"---- -- ----- -- ------ - ------- --- ----------<br>------------- ------ ------ ---- ---- ------- ----- -- ----<br>-------- ------- -- ---------- --- - --- ----- ----- ----<br>---- --- --- ----- --- ---- ---- ------- ----- ---- -------<br>--- --- -- ----- -- --- ---- -- be, ---- -- ------ ------<br>--- ----- -- ----",68165.70000000019,68164.8999999999,67761.109,67773.8999999999,67777.78,68177.826,,47,"be,"
screen,html.Screen,0_2_0_1_48,2021-11-26T10:02:34.132Z,,,,,,,,,,,,,,,,53,,,,,,,,,,,,,,563.1739999999991,,response,,,99,,,,,,Space,keypress(Space),,,,,---- -- ----- -- ------ - ------- --- ----------<br>------------- ------ ------ ---- ---- ------- ----- -- ----<br>-------- ------- -- ---------- --- - --- ----- ----- ----<br>---- --- --- ----- --- ---- ---- ------- ----- ---- -------<br>--- --- -- ----- -- --- ---- -- --- even -- ------ ------<br>--- ----- -- ----,68741.70000000019,68741,68161.156,68166,68177.826,68744.626,,48,even
screen,html.Screen,0_2_0_1_49,2021-11-26T10:02:34.580Z,,,,,,,,,,,,,,,,53,,,,,,,,,,,,,,444.1739999998099,,response,,,99,,,,,,Space,keypress(Space),,,,,---- -- ----- -- ------ - ------- --- ----------<br>------------- ------ ------ ---- ---- ------- ----- -- ----<br>-------- ------- -- ---------- --- - --- ----- ----- ----<br>---- --- --- ----- --- ---- ---- ------- ----- ---- -------<br>--- --- -- ----- -- --- ---- -- --- ---- if ------ ------<br>--- ----- -- ----,69189.6000000001,69188.79999999981,68727.956,68741.8999999999,68744.626,69194.81,,49,if
screen,html.Screen,0_2_0_1_50,2021-11-26T10:02:35.012Z,,,,,,,,,,,,,,,,53,,,,,,,,,,,,,,426.0899999999092,,response,,,99,,,,,,Space,keypress(Space),,,,,---- -- ----- -- ------ - ------- --- ----------<br>------------- ------ ------ ---- ---- ------- ----- -- ----<br>-------- ------- -- ---------- --- - --- ----- ----- ----<br>---- --- --- ----- --- ---- ---- ------- ----- ---- -------<br>--- --- -- ----- -- --- ---- -- --- ---- -- that's ------<br>--- ----- -- ----,69621.6000000001,69620.8999999999,69178.139,69189.79999999981,69194.81,69628.249,,50,that's
screen,html.Screen,0_2_0_1_51,2021-11-26T10:02:35.524Z,,,,,,,,,,,,,,,,53,,,,,,,,,,,,,,504.5509999998176,,response,,,99,,,,,,Space,keypress(Space),,,,,---- -- ----- -- ------ - ------- --- ----------<br>------------- ------ ------ ---- ---- ------- ----- -- ----<br>-------- ------- -- ---------- --- - --- ----- ----- ----<br>---- --- --- ----- --- ---- ---- ------- ----- ---- -------<br>--- --- -- ----- -- --- ---- -- --- ---- -- ------ really<br>--- ----- -- ----,70133.6000000001,70132.79999999981,69611.578,69621.8999999999,69628.249,70144.83,,51,really
screen,html.Screen,0_2_0_1_52,2021-11-26T10:02:35.932Z,,,,,,,,,,,,,,,,53,,,,,,,,,,,,,,395.969999999812,,response,,,99,,,,,,Space,keypress(Space),,,,,---- -- ----- -- ------ - ------- --- ----------<br>------------- ------ ------ ---- ---- ------- ----- -- ----<br>-------- ------- -- ---------- --- - --- ----- ----- ----<br>---- --- --- ----- --- ---- ---- ------- ----- ---- -------<br>--- --- -- ----- -- --- ---- -- --- ---- -- ------ ------<br>not ----- -- ----,70541.5,70540.79999999981,70128.162,70133.79999999981,70144.83,70545.212,,52,not
screen,html.Screen,0_2_0_1_53,2021-11-26T10:02:36.284Z,,,,,,,,,,,,,,,,53,,,,,,,,,,,,,,347.5879999998142,,response,,,99,,,,,,Space,keypress(Space),,,,,---- -- ----- -- ------ - ------- --- ----------<br>------------- ------ ------ ---- ---- ------- ----- -- ----<br>-------- ------- -- ---------- --- - --- ----- ----- ----<br>---- --- --- ----- --- ---- ---- ------- ----- ---- -------<br>--- --- -- ----- -- --- ---- -- --- ---- -- ------ ------<br>--- close -- ----,70893.5,70892.79999999981,70528.54,70541.8999999999,70545.212,70895.128,,53,close
screen,html.Screen,0_2_0_1_54,2021-11-26T10:02:36.732Z,,,,,,,,,,,,,,,,53,,,,,,,,,,,,,,445.67199999981676,,response,,,99,,,,,,Space,keypress(Space),,,,,---- -- ----- -- ------ - ------- --- ----------<br>------------- ------ ------ ---- ---- ------- ----- -- ----<br>-------- ------- -- ---------- --- - --- ----- ----- ----<br>---- --- --- ----- --- ---- ---- ------- ----- ---- -------<br>--- --- -- ----- -- --- ---- -- --- ---- -- ------ ------<br>--- ----- at ----,71341.5,71340.79999999981,70878.459,70893.70000000019,70895.128,71345.34,,54,at
screen,html.Screen,0_2_0_1_55,2021-11-26T10:02:37.107Z,,,,,,,,,,,,,,,,53,,,,,,,,,,,,,,371.36000000018976,,response,,,99,,,,,,Space,keypress(Space),,,,,---- -- ----- -- ------ - ------- --- ----------<br>------------- ------ ------ ---- ---- ------- ----- -- ----<br>-------- ------- -- ---------- --- - --- ----- ----- ----<br>---- --- --- ----- --- ---- ---- ------- ----- ---- -------<br>--- --- -- ----- -- --- ---- -- --- ---- -- ------ ------<br>--- ----- -- all.,71717.5,71716.70000000019,71328.669,71341.70000000019,71345.34,71728.728,,55,all.
Item 99,flow.Loop,0_2_0_1,2021-11-26T10:02:37.112Z,,,,,,,,,,,,,,,,,,,,,,,,,,,,,,32312.915000000183,,completion,,,,F,,,,,,,,,,silence,,71721.79999999981,71716.70000000019,39353.778,39361.700000000186,39403.785,71728.728,,,
Question 1,html.Screen,0_2_0_2,2021-11-26T10:02:43.515Z,,,,,,,,,,,,,,,,,,,,,,,,,,,true,FALSE,,6395.37200000009,,response,,,99,F,,,,,FALSE,click #choice-2,,,,silence,,78125.5,78124.1000000001,71712.058,71722.1000000001,71728.728,78130.293,,,
Question 2,html.Screen,0_2_0_3,2021-11-26T10:02:49.011Z,,,,,,,,,,,,,,,,,,,,,,,,,,,true,TRUE,,5489.506999999809,,response,,,99,F,,,,,TRUE,click #choice-1,,,,silence,,83621,83619.79999999981,78113.623,78125.79999999981,78130.293,83631.712,,,
Item 99,flow.Sequence,0_2_0,2021-11-26T10:02:49.011Z,,,,,,,,,,,,,,,,,,,,,,,,,,,,,,54251.56799999981,,completion,,,,,,,,,,,,,,,,83621.3999999999,83619.79999999981,29351.561,29353.5,29368.232,83631.712,,,
Holding screen,html.Screen,0_2_1_0,2021-11-26T10:02:59.008Z,,,,,,,,,,,,,,,,,,,,,,,,,,,,,,10002.345000000001,,timeout,,,,,,,,,,,,,,,,93618.29999999981,93617.387,83615.041,83622.79999999981,83631.712,93634.057,,,
screen,html.Screen,0_2_1_1_0,2021-11-26T10:03:00.834Z,,,,,,,,,,,,,,,,54,,,,,,,,,,,,,,1809.5430000000924,,response,,,100,,,,,,Space,keypress(Space),,,,,At --- ---- --- ------ ----- ------- ---- -- --- ------- --<br>------- ---------- ------ -- ----- -- ----- -- ---- ------<br>--- ----- --- --- ------ -------- ----- --- ------ ----- --<br>----- ----- ---------- --- --- ------ ------ ---- -- ------<br>------- --- ------ ----- --- ---- ------- -- ---- --- --<br>------- ------,95444.5,95443.6000000001,93617.387,93618.6000000001,93634.057,95451.303,,0,At
screen,html.Screen,0_2_1_1_1,2021-11-26T10:03:01.986Z,,,,,,,,,,,,,,,,54,,,,,,,,,,,,,,1143.7970000000932,,response,,,100,,,,,,Space,keypress(Space),,,,,-- the ---- --- ------ ----- ------- ---- -- --- ------- --<br>------- ---------- ------ -- ----- -- ----- -- ---- ------<br>--- ----- --- --- ------ -------- ----- --- ------ ----- --<br>----- ----- ---------- --- --- ------ ------ ---- -- ------<br>------- --- ------ ----- --- ---- ------- -- ---- --- --<br>------- ------,96595.8999999999,96595.1000000001,95434.632,95444.70000000019,95451.303,96601.693,,1,the
screen,html.Screen,0_2_1_1_2,2021-11-26T10:03:02.930Z,,,,,,,,,,,,,,,,54,,,,,,,,,,,,,,937.4070000000938,,response,,,100,,,,,,Space,keypress(Space),,,,,-- --- time --- ------ ----- ------- ---- -- --- ------- --<br>------- ---------- ------ -- ----- -- ----- -- ---- ------<br>--- ----- --- --- ------ -------- ----- --- ------ ----- --<br>----- ----- ---------- --- --- ------ ------ ---- -- ------<br>------- --- ------ ----- --- ---- ------- -- ---- --- --<br>------- ------,97539.79999999981,97539.1000000001,96585.022,96596.1000000001,96601.693,97551.761,,2,time
screen,html.Screen,0_2_1_1_3,2021-11-26T10:03:03.962Z,,,,,,,,,,,,,,,,54,,,,,,,,,,,,,,1019.3390000000945,,response,,,100,,,,,,Space,keypress(Space),,,,,-- --- ---- the ------ ----- ------- ---- -- --- ------- --<br>------- ---------- ------ -- ----- -- ----- -- ---- ------<br>--- ----- --- --- ------ -------- ----- --- ------ ----- --<br>----- ----- ---------- --- --- ------ ------ ---- -- ------<br>------- --- ------ ----- --- ---- ------- -- ---- --- --<br>------- ------,98571.79999999981,98571.1000000001,97535.091,97540.1000000001,97551.761,98585.379,,3,the
screen,html.Screen,0_2_1_1_4,2021-11-26T10:03:05.002Z,,,,,,,,,,,,,,,,54,,,,,,,,,,,,,,1025.520999999906,,response,,,100,,,,,,Space,keypress(Space),,,,,-- --- ---- --- French ----- ------- ---- -- --- ------- --<br>------- ---------- ------ -- ----- -- ----- -- ---- ------<br>--- ----- --- --- ------ -------- ----- --- ------ ----- --<br>----- ----- ---------- --- --- ------ ------ ---- -- ------<br>------- --- ------ ----- --- ---- ------- -- ---- --- --<br>------- ------,99611.6000000001,99610.8999999999,98568.709,98572,98585.379,99618.803,,4,French
screen,html.Screen,0_2_1_1_5,2021-11-26T10:03:05.818Z,,,,,,,,,,,,,,,,54,,,,,,,,,,,,,,808.096999999907,,response,,,100,,,,,,Space,keypress(Space),,,,,-- --- ---- --- ------ crown ------- ---- -- --- ------- --<br>------- ---------- ------ -- ----- -- ----- -- ---- ------<br>--- ----- --- --- ------ -------- ----- --- ------ ----- --<br>----- ----- ---------- --- --- ------ ------ ---- -- ------<br>------- --- ------ ----- --- ---- ------- -- ---- --- --<br>------- ------,100427.70000000019,100426.8999999999,99602.134,99611.79999999981,99618.803,100435.954,,5,crown
screen,html.Screen,0_2_1_1_6,2021-11-26T10:03:06.730Z,,,,,,,,,,,,,,,,54,,,,,,,,,,,,,,902.8459999998158,,response,,,100,,,,,,Space,keypress(Space),,,,,-- --- ---- --- ------ ----- secured ---- -- --- ------- --<br>------- ---------- ------ -- ----- -- ----- -- ---- ------<br>--- ----- --- --- ------ -------- ----- --- ------ ----- --<br>----- ----- ---------- --- --- ------ ------ ---- -- ------<br>------- --- ------ ----- --- ---- ------- -- ---- --- --<br>------- ------,101339.5,101338.79999999981,100419.283,100428,100435.954,101352.72,,6,secured
screen,html.Screen,0_2_1_1_7,2021-11-26T10:03:07.642Z,,,,,,,,,,,,,,,,54,,,,,,,,,,,,,,898.0799999998126,,response,,,100,,,,,,Space,keypress(Space),,,,,-- --- ---- --- ------ ----- ------- much -- --- ------- --<br>------- ---------- ------ -- ----- -- ----- -- ---- ------<br>--- ----- --- --- ------ -------- ----- --- ------ ----- --<br>----- ----- ---------- --- --- ------ ------ ---- -- ------<br>------- --- ------ ----- --- ---- ------- -- ---- --- --<br>------- ------,102251.6000000001,102250.79999999981,101336.05,101339.79999999981,101352.72,102252.961,,7,much
screen,html.Screen,0_2_1_1_8,2021-11-26T10:03:08.138Z,,,,,,,,,,,,,,,,54,,,,,,,,,,,,,,493.7390000001906,,response,,,100,,,,,,Space,keypress(Space),,,,,-- --- ---- --- ------ ----- ------- ---- of --- ------- --<br>------- ---------- ------ -- ----- -- ----- -- ---- ------<br>--- ----- --- --- ------ -------- ----- --- ------ ----- --<br>----- ----- ---------- --- --- ------ ------ ---- -- ------<br>------- --- ------ ----- --- ---- ------- -- ---- --- --<br>------- ------,102747.6000000001,102746.70000000019,102236.291,102251.79999999981,102252.961,102753.083,,8,of
screen,html.Screen,0_2_1_1_9,2021-11-26T10:03:08.617Z,,,,,,,,,,,,,,,,54,,,,,,,,,,,,,,473.61700000018755,,response,,,100,,,,,,Space,keypress(Space),,,,,-- --- ---- --- ------ ----- ------- ---- -- its ------- --<br>------- ---------- ------ -- ----- -- ----- -- ---- ------<br>--- ----- --- --- ------ -------- ----- --- ------ ----- --<br>----- ----- ---------- --- --- ------ ------ ---- -- ------<br>------- --- ------ ----- --- ---- ------- -- ---- --- --<br>------- ------,103227.5,103226.70000000019,102736.413,102747.79999999981,102753.083,103236.611,,9,its
screen,html.Screen,0_2_1_1_10,2021-11-26T10:03:09.025Z,,,,,,,,,,,,,,,,54,,,,,,,,,,,,,,398.08900000018184,,response,,,100,,,,,,Space,keypress(Space),,,,,-- --- ---- --- ------ ----- ------- ---- -- --- revenue --<br>------- ---------- ------ -- ----- -- ----- -- ---- ------<br>--- ----- --- --- ------ -------- ----- --- ------ ----- --<br>----- ----- ---------- --- --- ------ ------ ---- -- ------<br>------- --- ------ ----- --- ---- ------- -- ---- --- --<br>------- ------,103635.5,103634.70000000019,103219.94,103227.79999999981,103236.611,103636.532,,10,revenue
screen,html.Screen,0_2_1_1_11,2021-11-26T10:03:09.473Z,,,,,,,,,,,,,,,,54,,,,,,,,,,,,,,446.16800000017975,,response,,,100,,,,,,Space,keypress(Space),,,,,-- --- ---- --- ------ ----- ------- ---- -- --- ------- by<br>------- ---------- ------ -- ----- -- ----- -- ---- ------<br>--- ----- --- --- ------ -------- ----- --- ------ ----- --<br>----- ----- ---------- --- --- ------ ------ ---- -- ------<br>------- --- ------ ----- --- ---- ------- -- ---- --- --<br>------- ------,104083.3999999999,104082.70000000019,103619.864,103635.70000000019,103636.532,104086.87,,11,by
screen,html.Screen,0_2_1_1_12,2021-11-26T10:03:09.866Z,,,,,,,,,,,,,,,,54,,,,,,,,,,,,,,388.4299999998184,,response,,,100,,,,,,Space,keypress(Space),,,,,-- --- ---- --- ------ ----- ------- ---- -- --- ------- --<br>issuing ---------- ------ -- ----- -- ----- -- ---- ------<br>--- ----- --- --- ------ -------- ----- --- ------ ----- --<br>----- ----- ---------- --- --- ------ ------ ---- -- ------<br>------- --- ------ ----- --- ---- ------- -- ---- --- --<br>------- ------,104476.1000000001,104475.29999999981,104070.198,104083.70000000019,104086.87,104486.868,,12,issuing
screen,html.Screen,0_2_1_1_13,2021-11-26T10:03:10.241Z,,,,,,,,,,,,,,,,54,,,,,,,,,,,,,,363.7320000000909,,response,,,100,,,,,,Space,keypress(Space),,,,,-- --- ---- --- ------ ----- ------- ---- -- --- ------- --<br>------- government ------ -- ----- -- ----- -- ---- ------<br>--- ----- --- --- ------ -------- ----- --- ------ ----- --<br>----- ----- ---------- --- --- ------ ------ ---- -- ------<br>------- --- ------ ----- --- ---- ------- -- ---- --- --<br>------- ------,104851.3999999999,104850.6000000001,104470.198,104476.29999999981,104486.868,104853.635,,13,government
screen,html.Screen,0_2_1_1_14,2021-11-26T10:03:11.450Z,,,,,,,,,,,,,,,,54,,,,,,,,,,,,,,1205.3650000000052,,response,,,100,,,,,,Space,keypress(Space),,,,,-- --- ---- --- ------ ----- ------- ---- -- --- ------- --<br>------- ---------- bonds. -- ----- -- ----- -- ---- ------<br>--- ----- --- --- ------ -------- ----- --- ------ ----- --<br>----- ----- ---------- --- --- ------ ------ ---- -- ------<br>------- --- ------ ----- --- ---- ------- -- ---- --- --<br>------- ------,106059.70000000019,106059,104836.965,104851.70000000019,104853.635,106070.551,,14,bonds.
screen,html.Screen,0_2_1_1_15,2021-11-26T10:03:11.833Z,,,,,,,,,,,,,,,,54,,,,,,,,,,,,,,372.0490000000864,,response,,,100,,,,,,Space,keypress(Space),,,,,-- --- ---- --- ------ ----- ------- ---- -- --- ------- --<br>------- ---------- ------ In ----- -- ----- -- ---- ------<br>--- ----- --- --- ------ -------- ----- --- ------ ----- --<br>----- ----- ---------- --- --- ------ ------ ---- -- ------<br>------- --- ------ ----- --- ---- ------- -- ---- --- --<br>------- ------,106443.29999999981,106442.6000000001,106053.881,106060,106070.551,106454.097,,15,In
screen,html.Screen,0_2_1_1_16,2021-11-26T10:03:13.113Z,,,,,,,,,,,,,,,,54,,,,,,,,,,,,,,1268.3029999999126,,response,,,100,,,,,,Space,keypress(Space),,,,,"-- --- ---- --- ------ ----- ------- ---- -- --- ------- --<br>------- ---------- ------ -- 1727, -- ----- -- ---- ------<br>--- ----- --- --- ------ -------- ----- --- ------ ----- --<br>----- ----- ---------- --- --- ------ ------ ---- -- ------<br>------- --- ------ ----- --- ---- ------- -- ---- --- --<br>------- ------",107723.29999999981,107722.3999999999,106437.426,106443.6000000001,106454.097,107737.644,,16,"1727,"
screen,html.Screen,0_2_1_1_17,2021-11-26T10:03:13.545Z,,,,,,,,,,,,,,,,54,,,,,,,,,,,,,,416.85599999999977,,response,,,100,,,,,,Space,keypress(Space),,,,,-- --- ---- --- ------ ----- ------- ---- -- --- ------- --<br>------- ---------- ------ -- ----- in ----- -- ---- ------<br>--- ----- --- --- ------ -------- ----- --- ------ ----- --<br>----- ----- ---------- --- --- ------ ------ ---- -- ------<br>------- --- ------ ----- --- ---- ------- -- ---- --- --<br>------- ------,108155.20000000019,108154.5,107720.974,107723.5,107737.644,108170.865,,17,in
screen,html.Screen,0_2_1_1_18,2021-11-26T10:03:14.129Z,,,,,,,,,,,,,,,,54,,,,,,,,,,,,,,567.5349999999016,,response,,,100,,,,,,Space,keypress(Space),,,,,-- --- ---- --- ------ ----- ------- ---- -- --- ------- --<br>------- ---------- ------ -- ----- -- order -- ---- ------<br>--- ----- --- --- ------ -------- ----- --- ------ ----- --<br>----- ----- ---------- --- --- ------ ------ ---- -- ------<br>------- --- ------ ----- --- ---- ------- -- ---- --- --<br>------- ------,108739.20000000019,108738.3999999999,108154.197,108155.5,108170.865,108754.649,,18,order
screen,html.Screen,0_2_1_1_19,2021-11-26T10:03:14.761Z,,,,,,,,,,,,,,,,54,,,,,,,,,,,,,,615.6509999998088,,response,,,100,,,,,,Space,keypress(Space),,,,,-- --- ---- --- ------ ----- ------- ---- -- --- ------- --<br>------- ---------- ------ -- ----- -- ----- to ---- ------<br>--- ----- --- --- ------ -------- ----- --- ------ ----- --<br>----- ----- ---------- --- --- ------ ------ ---- -- ------<br>------- --- ------ ----- --- ---- ------- -- ---- --- --<br>------- ------,109371,109370.29999999981,108737.978,108739.3999999999,108754.649,109388.072,,19,to
screen,html.Screen,0_2_1_1_20,2021-11-26T10:03:15.249Z,,,,,,,,,,,,,,,,54,,,,,,,,,,,,,,470.12800000018615,,response,,,100,,,,,,Space,keypress(Space),,,,,-- --- ---- --- ------ ----- ------- ---- -- --- ------- --<br>------- ---------- ------ -- ----- -- ----- -- save ------<br>--- ----- --- --- ------ -------- ----- --- ------ ----- --<br>----- ----- ---------- --- --- ------ ------ ---- -- ------<br>------- --- ------ ----- --- ---- ------- -- ---- --- --<br>------- ------,109859,109858.20000000019,109371.402,109371.29999999981,109388.072,109871.619,,20,save
screen,html.Screen,0_2_1_1_21,2021-11-26T10:03:16.041Z,,,,,,,,,,,,,,,,54,,,,,,,,,,,,,,778.5810000001802,,response,,,100,,,,,,Space,keypress(Space),,,,,"-- --- ---- --- ------ ----- ------- ---- -- --- ------- --<br>------- ---------- ------ -- ----- -- ----- -- ---- money,<br>--- ----- --- --- ------ -------- ----- --- ------ ----- --<br>----- ----- ---------- --- --- ------ ------ ---- -- ------<br>------- --- ------ ----- --- ---- ------- -- ---- --- --<br>------- ------",110650.8999999999,110650.20000000019,109854.948,109859.29999999981,109871.619,110654.98,,21,"money,"
screen,html.Screen,0_2_1_1_22,2021-11-26T10:03:16.985Z,,,,,,,,,,,,,,,,54,,,,,,,,,,,,,,939.1200000000972,,response,,,100,,,,,,Space,keypress(Space),,,,,-- --- ---- --- ------ ----- ------- ---- -- --- ------- --<br>------- ---------- ------ -- ----- -- ----- -- ---- ------<br>the ----- --- --- ------ -------- ----- --- ------ ----- --<br>----- ----- ---------- --- --- ------ ------ ---- -- ------<br>------- --- ------ ----- --- ---- ------- -- ---- --- --<br>------- ------,111594.8999999999,111594.1000000001,110638.311,110651.20000000019,110654.98,111605.282,,22,the
screen,html.Screen,0_2_1_1_23,2021-11-26T10:03:17.729Z,,,,,,,,,,,,,,,,54,,,,,,,,,,,,,,732.8180000000866,,response,,,100,,,,,,Space,keypress(Space),,,,,-- --- ---- --- ------ ----- ------- ---- -- --- ------- --<br>------- ---------- ------ -- ----- -- ----- -- ---- ------<br>--- state --- --- ------ -------- ----- --- ------ ----- --<br>----- ----- ---------- --- --- ------ ------ ---- -- ------<br>------- --- ------ ----- --- ---- ------- -- ---- --- --<br>------- ------,112338.8999999999,112338.1000000001,111588.612,111595.20000000019,111605.282,112355.486,,23,state
screen,html.Screen,0_2_1_1_24,2021-11-26T10:03:18.569Z,,,,,,,,,,,,,,,,54,,,,,,,,,,,,,,822.6140000000887,,response,,,100,,,,,,Space,keypress(Space),,,,,-- --- ---- --- ------ ----- ------- ---- -- --- ------- --<br>------- ---------- ------ -- ----- -- ----- -- ---- ------<br>--- ----- cut --- ------ -------- ----- --- ------ ----- --<br>----- ----- ---------- --- --- ------ ------ ---- -- ------<br>------- --- ------ ----- --- ---- ------- -- ---- --- --<br>------- ------,113178.79999999981,113178.1000000001,112338.816,112339.20000000019,112355.486,113189,,24,cut
screen,html.Screen,0_2_1_1_25,2021-11-26T10:03:19.465Z,,,,,,,,,,,,,,,,54,,,,,,,,,,,,,,885,,response,,,100,,,,,,Space,keypress(Space),,,,,-- --- ---- --- ------ ----- ------- ---- -- --- ------- --<br>------- ---------- ------ -- ----- -- ----- -- ---- ------<br>--- ----- --- the ------ -------- ----- --- ------ ----- --<br>----- ----- ---------- --- --- ------ ------ ---- -- ------<br>------- --- ------ ----- --- ---- ------- -- ---- --- --<br>------- ------,114074.8999999999,114074,113172.33,113179.1000000001,113189,114089.233,,25,the
screen,html.Screen,0_2_1_1_26,2021-11-26T10:03:20.345Z,,,,,,,,,,,,,,,,54,,,,,,,,,,,,,,864.7670000000071,,response,,,100,,,,,,Space,keypress(Space),,,,,-- --- ---- --- ------ ----- ------- ---- -- --- ------- --<br>------- ---------- ------ -- ----- -- ----- -- ---- ------<br>--- ----- --- --- bonds' -------- ----- --- ------ ----- --<br>----- ----- ---------- --- --- ------ ------ ---- -- ------<br>------- --- ------ ----- --- ---- ------- -- ---- --- --<br>------- ------,114954.79999999981,114954,114072.563,114075.1000000001,114089.233,114956.114,,26,bonds'
screen,html.Screen,0_2_1_1_27,2021-11-26T10:03:21.089Z,,,,,,,,,,,,,,,,54,,,,,,,,,,,,,,741.7859999999055,,response,,,100,,,,,,Space,keypress(Space),,,,,-- --- ---- --- ------ ----- ------- ---- -- --- ------- --<br>------- ---------- ------ -- ----- -- ----- -- ---- ------<br>--- ----- --- --- ------ interest ----- --- ------ ----- --<br>----- ----- ---------- --- --- ------ ------ ---- -- ------<br>------- --- ------ ----- --- ---- ------- -- ---- --- --<br>------- ------,115698.79999999981,115697.8999999999,114939.444,114955,114956.114,115706.313,,27,interest
screen,html.Screen,0_2_1_1_28,2021-11-26T10:03:22.049Z,,,,,,,,,,,,,,,,54,,,,,,,,,,,,,,951.9869999998191,,response,,,100,,,,,,Space,keypress(Space),,,,,-- --- ---- --- ------ ----- ------- ---- -- --- ------- --<br>------- ---------- ------ -- ----- -- ----- -- ---- ------<br>--- ----- --- --- ------ -------- rate. --- ------ ----- --<br>----- ----- ---------- --- --- ------ ------ ---- -- ------<br>------- --- ------ ----- --- ---- ------- -- ---- --- --<br>------- ------,116659.1000000001,116658.29999999981,115689.643,115699,115706.313,116673.293,,28,rate.
screen,html.Screen,0_2_1_1_29,2021-11-26T10:03:22.593Z,,,,,,,,,,,,,,,,54,,,,,,,,,,,,,,528.5069999998086,,response,,,100,,,,,,Space,keypress(Space),,,,,-- --- ---- --- ------ ----- ------- ---- -- --- ------- --<br>------- ---------- ------ -- ----- -- ----- -- ---- ------<br>--- ----- --- --- ------ -------- ----- The ------ ----- --<br>----- ----- ---------- --- --- ------ ------ ---- -- ------<br>------- --- ------ ----- --- ---- ------- -- ---- --- --<br>------- ------,117202.6000000001,117201.79999999981,116656.622,116659.29999999981,116673.293,117206.656,,29,The
screen,html.Screen,0_2_1_1_30,2021-11-26T10:03:23.425Z,,,,,,,,,,,,,,,,54,,,,,,,,,,,,,,827.1439999998111,,response,,,100,,,,,,Space,keypress(Space),,,,,-- --- ---- --- ------ ----- ------- ---- -- --- ------- --<br>------- ---------- ------ -- ----- -- ----- -- ---- ------<br>--- ----- --- --- ------ -------- ----- --- market ----- --<br>----- ----- ---------- --- --- ------ ------ ---- -- ------<br>------- --- ------ ----- --- ---- ------- -- ---- --- --<br>------- ------,118034.5,118033.79999999981,117189.986,117202.79999999981,117206.656,118040.222,,30,market
screen,html.Screen,0_2_1_1_31,2021-11-26T10:03:24.328Z,,,,,,,,,,,,,,,,54,,,,,,,,,,,,,,897.5779999998194,,response,,,100,,,,,,Space,keypress(Space),,,,,-- --- ---- --- ------ ----- ------- ---- -- --- ------- --<br>------- ---------- ------ -- ----- -- ----- -- ---- ------<br>--- ----- --- --- ------ -------- ----- --- ------ value --<br>----- ----- ---------- --- --- ------ ------ ---- -- ------<br>------- --- ------ ----- --- ---- ------- -- ---- --- --<br>------- ------,118938.5,118937.79999999981,118023.552,118034.79999999981,118040.222,118940.442,,31,value
screen,html.Screen,0_2_1_1_32,2021-11-26T10:03:24.840Z,,,,,,,,,,,,,,,,54,,,,,,,,,,,,,,509.1580000000977,,response,,,100,,,,,,Space,keypress(Space),,,,,-- --- ---- --- ------ ----- ------- ---- -- --- ------- --<br>------- ---------- ------ -- ----- -- ----- -- ---- ------<br>--- ----- --- --- ------ -------- ----- --- ------ ----- of<br>----- ----- ---------- --- --- ------ ------ ---- -- ------<br>------- --- ------ ----- --- ---- ------- -- ---- --- --<br>------- ------,119450.5,119449.6000000001,118923.772,118938.70000000019,118940.442,119457.191,,32,of
screen,html.Screen,0_2_1_1_33,2021-11-26T10:03:25.600Z,,,,,,,,,,,,,,,,54,,,,,,,,,,,,,,752.5090000001801,,response,,,100,,,,,,Space,keypress(Space),,,,,-- --- ---- --- ------ ----- ------- ---- -- --- ------- --<br>------- ---------- ------ -- ----- -- ----- -- ---- ------<br>--- ----- --- --- ------ -------- ----- --- ------ ----- --<br>these ----- ---------- --- --- ------ ------ ---- -- ------<br>------- --- ------ ----- --- ---- ------- -- ---- --- --<br>------- ------,120210.3999999999,120209.70000000019,119440.521,119450.70000000019,119457.191,120224.165,,33,these
screen,html.Screen,0_2_1_1_34,2021-11-26T10:03:26.307Z,,,,,,,,,,,,,,,,54,,,,,,,,,,,,,,689.3350000000064,,response,,,100,,,,,,Space,keypress(Space),,,,,-- --- ---- --- ------ ----- ------- ---- -- --- ------- --<br>------- ---------- ------ -- ----- -- ----- -- ---- ------<br>--- ----- --- --- ------ -------- ----- --- ------ ----- --<br>----- bonds ---------- --- --- ------ ------ ---- -- ------<br>------- --- ------ ----- --- ---- ------- -- ---- --- --<br>------- ------,120914.3999999999,120913.5,120207.494,120210.6000000001,120224.165,120924.131,,34,bonds
screen,html.Screen,0_2_1_1_35,2021-11-26T10:03:27.891Z,,,,,,,,,,,,,,,,54,,,,,,,,,,,,,,1573.369000000006,,response,,,100,,,,,,Space,keypress(Space),,,,,"-- --- ---- --- ------ ----- ------- ---- -- --- ------- --<br>------- ---------- ------ -- ----- -- ----- -- ---- ------<br>--- ----- --- --- ------ -------- ----- --- ------ ----- --<br>----- ----- plummeted, --- --- ------ ------ ---- -- ------<br>------- --- ------ ----- --- ---- ------- -- ---- --- --<br>------- ------",122498.3999999999,122497.5,120907.462,120914.70000000019,120924.131,122508.094,,35,"plummeted,"
screen,html.Screen,0_2_1_1_36,2021-11-26T10:03:28.515Z,,,,,,,,,,,,,,,,54,,,,,,,,,,,,,,613.4060000000027,,response,,,100,,,,,,Space,keypress(Space),,,,,-- --- ---- --- ------ ----- ------- ---- -- --- ------- --<br>------- ---------- ------ -- ----- -- ----- -- ---- ------<br>--- ----- --- --- ------ -------- ----- --- ------ ----- --<br>----- ----- ---------- and --- ------ ------ ---- -- ------<br>------- --- ------ ----- --- ---- ------- -- ---- --- --<br>------- ------,123122.29999999981,123121.5,122491.423,122498.6000000001,122508.094,123124.821,,36,and
screen,html.Screen,0_2_1_1_37,2021-11-26T10:03:29.059Z,,,,,,,,,,,,,,,,54,,,,,,,,,,,,,,540.5789999999106,,response,,,100,,,,,,Space,keypress(Space),,,,,-- --- ---- --- ------ ----- ------- ---- -- --- ------- --<br>------- ---------- ------ -- ----- -- ----- -- ---- ------<br>--- ----- --- --- ------ -------- ----- --- ------ ----- --<br>----- ----- ---------- --- the ------ ------ ---- -- ------<br>------- --- ------ ----- --- ---- ------- -- ---- --- --<br>------- ------,123666.20000000019,123665.3999999999,123108.151,123122.6000000001,123124.821,123674.903,,37,the
screen,html.Screen,0_2_1_1_38,2021-11-26T10:03:29.779Z,,,,,,,,,,,,,,,,54,,,,,,,,,,,,,,710.396999999808,,response,,,100,,,,,,Space,keypress(Space),,,,,-- --- ---- --- ------ ----- ------- ---- -- --- ------- --<br>------- ---------- ------ -- ----- -- ----- -- ---- ------<br>--- ----- --- --- ------ -------- ----- --- ------ ----- --<br>----- ----- ---------- --- --- market ------ ---- -- ------<br>------- --- ------ ----- --- ---- ------- -- ---- --- --<br>------- ------,124386.20000000019,124385.29999999981,123658.233,123666.5,123674.903,124391.927,,38,market
screen,html.Screen,0_2_1_1_39,2021-11-26T10:03:30.227Z,,,,,,,,,,,,,,,,54,,,,,,,,,,,,,,441.4729999999108,,response,,,100,,,,,,Space,keypress(Space),,,,,-- --- ---- --- ------ ----- ------- ---- -- --- ------- --<br>------- ---------- ------ -- ----- -- ----- -- ---- ------<br>--- ----- --- --- ------ -------- ----- --- ------ ----- --<br>----- ----- ---------- --- --- ------ became ---- -- ------<br>------- --- ------ ----- --- ---- ------- -- ---- --- --<br>------- ------,124834.1000000001,124833.3999999999,124375.255,124386.5,124391.927,124841.944,,39,became
screen,html.Screen,0_2_1_1_40,2021-11-26T10:03:30.811Z,,,,,,,,,,,,,,,,54,,,,,,,,,,,,,,575.3559999998106,,response,,,100,,,,,,Space,keypress(Space),,,,,-- --- ---- --- ------ ----- ------- ---- -- --- ------- --<br>------- ---------- ------ -- ----- -- ----- -- ---- ------<br>--- ----- --- --- ------ -------- ----- --- ------ ----- --<br>----- ----- ---------- --- --- ------ ------ wary -- ------<br>------- --- ------ ----- --- ---- ------- -- ---- --- --<br>------- ------,125418.1000000001,125417.29999999981,124825.274,124834.29999999981,124841.944,125425.397,,40,wary
screen,html.Screen,0_2_1_1_41,2021-11-26T10:03:31.171Z,,,,,,,,,,,,,,,,54,,,,,,,,,,,,,,351.90299999981653,,response,,,100,,,,,,Space,keypress(Space),,,,,-- --- ---- --- ------ ----- ------- ---- -- --- ------- --<br>------- ---------- ------ -- ----- -- ----- -- ---- ------<br>--- ----- --- --- ------ -------- ----- --- ------ ----- --<br>----- ----- ---------- --- --- ------ ------ ---- of ------<br>------- --- ------ ----- --- ---- ------- -- ---- --- --<br>------- ------,125778.1000000001,125777.29999999981,125408.727,125418.3999999999,125425.397,125792.215,,41,of
screen,html.Screen,0_2_1_1_42,2021-11-26T10:03:31.739Z,,,,,,,,,,,,,,,,54,,,,,,,,,,,,,,553.0849999998172,,response,,,100,,,,,,Space,keypress(Space),,,,,-- --- ---- --- ------ ----- ------- ---- -- --- ------- --<br>------- ---------- ------ -- ----- -- ----- -- ---- ------<br>--- ----- --- --- ------ -------- ----- --- ------ ----- --<br>----- ----- ---------- --- --- ------ ------ ---- -- French<br>------- --- ------ ----- --- ---- ------- -- ---- --- --<br>------- ------,126346.1000000001,126345.29999999981,125775.544,125778.29999999981,125792.215,126358.948,,42,French
screen,html.Screen,0_2_1_1_43,2021-11-26T10:03:32.763Z,,,,,,,,,,,,,,,,54,,,,,,,,,,,,,,1010.551999999996,,response,,,100,,,,,,Space,keypress(Space),,,,,-- --- ---- --- ------ ----- ------- ---- -- --- ------- --<br>------- ---------- ------ -- ----- -- ----- -- ---- ------<br>--- ----- --- --- ------ -------- ----- --- ------ ----- --<br>----- ----- ---------- --- --- ------ ------ ---- -- ------<br>credit. --- ------ ----- --- ---- ------- -- ---- --- --<br>------- ------,127370.29999999981,127369.5,126342.278,126346.3999999999,126358.948,127375.966,,43,credit.
screen,html.Screen,0_2_1_1_44,2021-11-26T10:03:33.147Z,,,,,,,,,,,,,,,,54,,,,,,,,,,,,,,377.2340000001859,,response,,,100,,,,,,Space,keypress(Space),,,,,-- --- ---- --- ------ ----- ------- ---- -- --- ------- --<br>------- ---------- ------ -- ----- -- ----- -- ---- ------<br>--- ----- --- --- ------ -------- ----- --- ------ ----- --<br>----- ----- ---------- --- --- ------ ------ ---- -- ------<br>------- The ------ ----- --- ---- ------- -- ---- --- --<br>------- ------,127753.8999999999,127753.20000000019,127359.295,127370.5,127375.966,127759.307,,44,The
screen,html.Screen,0_2_1_1_45,2021-11-26T10:03:33.587Z,,,,,,,,,,,,,,,,54,,,,,,,,,,,,,,433.79300000009243,,response,,,100,,,,,,Space,keypress(Space),,,,,-- --- ---- --- ------ ----- ------- ---- -- --- ------- --<br>------- ---------- ------ -- ----- -- ----- -- ---- ------<br>--- ----- --- --- ------ -------- ----- --- ------ ----- --<br>----- ----- ---------- --- --- ------ ------ ---- -- ------<br>------- --- French ----- --- ---- ------- -- ---- --- --<br>------- ------,128193.8999999999,128193.1000000001,127742.637,127754.1000000001,127759.307,128209.438,,45,French
screen,html.Screen,0_2_1_1_46,2021-11-26T10:03:34.019Z,,,,,,,,,,,,,,,,54,,,,,,,,,,,,,,415.6620000000985,,response,,,100,,,,,,Space,keypress(Space),,,,,-- --- ---- --- ------ ----- ------- ---- -- --- ------- --<br>------- ---------- ------ -- ----- -- ----- -- ---- ------<br>--- ----- --- --- ------ -------- ----- --- ------ ----- --<br>----- ----- ---------- --- --- ------ ------ ---- -- ------<br>------- --- ------ state --- ---- ------- -- ---- --- --<br>------- ------,128625.8999999999,128625.1000000001,128192.768,128194.20000000019,128209.438,128642.919,,46,state
screen,html.Screen,0_2_1_1_47,2021-11-26T10:03:34.579Z,,,,,,,,,,,,,,,,54,,,,,,,,,,,,,,542.0810000000056,,response,,,100,,,,,,Space,keypress(Space),,,,,-- --- ---- --- ------ ----- ------- ---- -- --- ------- --<br>------- ---------- ------ -- ----- -- ----- -- ---- ------<br>--- ----- --- --- ------ -------- ----- --- ------ ----- --<br>----- ----- ---------- --- --- ------ ------ ---- -- ------<br>------- --- ------ ----- was ---- ------- -- ---- --- --<br>------- ------,129185.70000000019,129185,128626.248,128626.29999999981,128642.919,129193.021,,47,was
screen,html.Screen,0_2_1_1_48,2021-11-26T10:03:35.035Z,,,,,,,,,,,,,,,,54,,,,,,,,,,,,,,447.97900000000664,,response,,,100,,,,,,Space,keypress(Space),,,,,-- --- ---- --- ------ ----- ------- ---- -- --- ------- --<br>------- ---------- ------ -- ----- -- ----- -- ---- ------<br>--- ----- --- --- ------ -------- ----- --- ------ ----- --<br>----- ----- ---------- --- --- ------ ------ ---- -- ------<br>------- --- ------ ----- --- left ------- -- ---- --- --<br>------- ------,129641.79999999981,129641,129176.351,129186,129193.021,129643.104,,48,left
screen,html.Screen,0_2_1_1_49,2021-11-26T10:03:35.955Z,,,,,,,,,,,,,,,,54,,,,,,,,,,,,,,917.7959999999002,,response,,,100,,,,,,Space,keypress(Space),,,,,-- --- ---- --- ------ ----- ------- ---- -- --- ------- --<br>------- ---------- ------ -- ----- -- ----- -- ---- ------<br>--- ----- --- --- ------ -------- ----- --- ------ ----- --<br>----- ----- ---------- --- --- ------ ------ ---- -- ------<br>------- --- ------ ----- --- ---- without -- ---- --- --<br>------- ------,130561.70000000019,130560.8999999999,129626.434,129642,129643.104,130576.756,,49,without
screen,html.Screen,0_2_1_1_50,2021-11-26T10:03:36.443Z,,,,,,,,,,,,,,,,54,,,,,,,,,,,,,,472.24400000000605,,response,,,100,,,,,,Space,keypress(Space),,,,,-- --- ---- --- ------ ----- ------- ---- -- --- ------- --<br>------- ---------- ------ -- ----- -- ----- -- ---- ------<br>--- ----- --- --- ------ -------- ----- --- ------ ----- --<br>----- ----- ---------- --- --- ------ ------ ---- -- ------<br>------- --- ------ ----- --- ---- ------- an ---- --- --<br>------- ------,131049.79999999981,131049,130560.085,130561.8999999999,130576.756,131060.032,,50,an
screen,html.Screen,0_2_1_1_51,2021-11-26T10:03:36.955Z,,,,,,,,,,,,,,,,54,,,,,,,,,,,,,,500.86799999990035,,response,,,100,,,,,,Space,keypress(Space),,,,,-- --- ---- --- ------ ----- ------- ---- -- --- ------- --<br>------- ---------- ------ -- ----- -- ----- -- ---- ------<br>--- ----- --- --- ------ -------- ----- --- ------ ----- --<br>----- ----- ---------- --- --- ------ ------ ---- -- ------<br>------- --- ------ ----- --- ---- ------- -- easy --- --<br>------- ------,131561.7000000002,131560.8999999999,131043.363,131050,131060.032,131577.007,,51,easy
screen,html.Screen,0_2_1_1_52,2021-11-26T10:03:37.491Z,,,,,,,,,,,,,,,,54,,,,,,,,,,,,,,519.7929999998014,,response,,,100,,,,,,Space,keypress(Space),,,,,-- --- ---- --- ------ ----- ------- ---- -- --- ------- --<br>------- ---------- ------ -- ----- -- ----- -- ---- ------<br>--- ----- --- --- ------ -------- ----- --- ------ ----- --<br>----- ----- ---------- --- --- ------ ------ ---- -- ------<br>------- --- ------ ----- --- ---- ------- -- ---- way --<br>------- ------,132097.7000000002,132096.7999999998,131560.336,131561.8999999999,131577.007,132110.404,,52,way
screen,html.Screen,0_2_1_1_53,2021-11-26T10:03:38.075Z,,,,,,,,,,,,,,,,54,,,,,,,,,,,,,,570.3959999998042,,response,,,100,,,,,,Space,keypress(Space),,,,,-- --- ---- --- ------ ----- ------- ---- -- --- ------- --<br>------- ---------- ------ -- ----- -- ----- -- ---- ------<br>--- ----- --- --- ------ -------- ----- --- ------ ----- --<br>----- ----- ---------- --- --- ------ ------ ---- -- ------<br>------- --- ------ ----- --- ---- ------- -- ---- --- of<br>------- ------,132681.6000000001,132680.7999999998,132093.734,132097.8999999999,132110.404,132693.871,,53,of
screen,html.Screen,0_2_1_1_54,2021-11-26T10:03:38.507Z,,,,,,,,,,,,,,,,54,,,,,,,,,,,,,,418.9289999998,,response,,,100,,,,,,Space,keypress(Space),,,,,-- --- ---- --- ------ ----- ------- ---- -- --- ------- --<br>------- ---------- ------ -- ----- -- ----- -- ---- ------<br>--- ----- --- --- ------ -------- ----- --- ------ ----- --<br>----- ----- ---------- --- --- ------ ------ ---- -- ------<br>------- --- ------ ----- --- ---- ------- -- ---- --- --<br>raising ------,133113.6000000001,133112.7999999998,132677.201,132681.8999999999,132693.871,133127.376,,54,raising
screen,html.Screen,0_2_1_1_55,2021-11-26T10:03:38.875Z,,,,,,,,,,,,,,,,54,,,,,,,,,,,,,,353.42399999982445,,response,,,100,,,,,,Space,keypress(Space),,,,,-- --- ---- --- ------ ----- ------- ---- -- --- ------- --<br>------- ---------- ------ -- ----- -- ----- -- ---- ------<br>--- ----- --- --- ------ -------- ----- --- ------ ----- --<br>----- ----- ---------- --- --- ------ ------ ---- -- ------<br>------- --- ------ ----- --- ---- ------- -- ---- --- --<br>------- money.,133481.6000000001,133480.7999999998,133110.705,133113.8999999999,133127.376,133494.032,,55,money.
Item 100,flow.Loop,0_2_1_1,2021-11-26T10:03:38.875Z,,,,,,,,,,,,,,,,,,,,,,,,,,,,,,39846.74299999981,,completion,,,,F,,,,,,,,,,silence,,133482.1000000001,133480.7999999998,93617.387,93618.5,93634.057,133494.032,,,
Question 1,html.Screen,0_2_1_2,2021-11-26T10:03:41.915Z,,,,,,,,,,,,,,,,,,,,,,,,,,,true,TRUE,,3026.3679999999003,,response,,,100,F,,,,,TRUE,click #choice-1,,,,silence,,136521.7000000002,136520.3999999999,133477.363,133482.2999999998,133494.032,136544.87,,,
Question 2,html.Screen,0_2_1_3,2021-11-26T10:03:43.819Z,,,,,,,,,,,,,,,,,,,,,,,,,,,true,FALSE,,1879.330000000191,,response,,,100,F,,,,,FALSE,click #choice-2,,,,silence,,138425.5,138424.2000000002,136528.2,136521.8999999999,136544.87,138428.636,,,
Item 100,flow.Sequence,0_2_1,2021-11-26T10:03:43.819Z,,,,,,,,,,,,,,,,,,,,,,,,,,,,,,54792.48800000019,,completion,,,,,,,,,,,,,,,,138425.8999999999,138424.2000000002,83615.041,83621.6000000001,83631.712,138428.636,,,
End of Practice,html.Page,0_2_2,2021-11-26T10:03:49.067Z,,,,,,,,,,,,,,,,,,,,,,,,,,,,,,5244.9640000000945,,form submission,,,,,,,,,,,,,,,,143674.2999999998,143673.6000000001,138411.966,138426.1000000001,138428.636,143679.968,,,
Practice,flow.Sequence,0_2,2021-11-26T10:03:49.068Z,,,,,,,,,,,,,,,,,,,,,,,,,,,,,,114305.36800000009,,completion,,,,,,,,,,,,,,,,143674.7999999998,143673.6000000001,29351.561,29353.399999999907,29368.232,143679.968,,,
Trap_instruction,html.Page,0_3_0,2021-11-26T10:03:52.475Z,,,,,,,,,,,,,,,,,,,,,,,,,,,,,,3401.3319999998203,,form submission,,,,,,,,,,,,,,,,147081.7999999998,147081.2999999998,143663.297,143675,143679.968,147096.808,,,
trap_trial,html.Screen,0_3_1,2021-11-26T10:03:56.138Z,,,,,,,,,,,,,,,,,,,,,,,,,,,true,1,,3646.69200000001,,response,,,,,,,,,1,click #choice-1,,,,,,150744.7000000002,150743.5,147080.141,147082.1000000001,147096.808,150759.073,,,
end of trap trial,html.Page,0_3_2,2021-11-26T10:03:58.242Z,,,,,,,,,,,,,,,,,,,,,,,,,,,,,,2089.72699999981,,form submission,,,,,,,,,,,,,,,,152849.3999999999,152848.7999999998,150742.43,150744.8999999999,150759.073,152848.851,,,
Trap 1,flow.Sequence,0_3,2021-11-26T10:03:58.243Z,,,,,,,,,,,,,,,,,,,,,,,,,,,,,,9168.83199999982,,completion,,,,,,,,,,,,,,,,152849.7000000002,152848.7999999998,143663.297,143675,143679.968,152848.851,,,
Standby,html.Page,0_4_0,2021-11-26T10:04:06.228Z,,,,,,,,,,,,,,,,,,,,,,,,,,,,,,8001.632000000012,,timeout,,,,,,,,,,,,,,,,160834.7000000002,160833.813,152832.181,152850,152848.851,160850.483,,,
Holding screen,html.Screen,0_4_1_0_0,2021-11-26T10:04:13.230Z,,,,,,,,,,,,,,,,,,,,,,,,,,,,,,7002.104999999981,,timeout,,,,,,,,,,,,,,,,167837.2000000002,167835.918,160833.813,160835.2000000002,160850.483,167852.588,,,
screen,html.Screen,0_4_1_0_1_0,2021-11-26T10:04:15.137Z,,,,,,,,,,,,,,,,15,,,,,,,,,,,,,,1890.5120000001043,,response,,,7,F,,,,,Space,keypress(Space),,,,instrumental,Greg --------- ---------- - --- ------- -- --- ------------<br>----- -- -------- ------- ---- ------ - -------- ---- -----<br>--- ------- ---- -- --- -------- --- - ----- ------ ---- --<br>-------- --- -------- -------- --- -------- ---- -- ----- -<br>-------- ---- --- ---------- --------- -- ------- ------ -<br>--------- ----- -----,169744,169743.1000000001,167835.918,167837.7000000002,167852.588,169752.813,,0,Greg
screen,html.Screen,0_4_1_0_1_1,2021-11-26T10:04:15.840Z,,,,,,,,,,,,,,,,15,,,,,,,,,,,,,,693.6870000000054,,response,,,7,F,,,,,Space,keypress(Space),,,,instrumental,"---- Anderson, ---------- - --- ------- -- --- ------------<br>----- -- -------- ------- ---- ------ - -------- ---- -----<br>--- ------- ---- -- --- -------- --- - ----- ------ ---- --<br>-------- --- -------- -------- --- -------- ---- -- ----- -<br>-------- ---- --- ---------- --------- -- ------- ------ -<br>--------- ----- -----",170447.2999999998,170446.5,169736.144,169744.2999999998,169752.813,170453.351,,1,"Anderson,"
screen,html.Screen,0_4_1_0_1_2,2021-11-26T10:04:16.664Z,,,,,,,,,,,,,,,,15,,,,,,,,,,,,,,816.9489999998186,,response,,,7,F,,,,,Space,keypress(Space),,,,instrumental,---- --------- considered - --- ------- -- --- ------------<br>----- -- -------- ------- ---- ------ - -------- ---- -----<br>--- ------- ---- -- --- -------- --- - ----- ------ ---- --<br>-------- --- -------- -------- --- -------- ---- -- ----- -<br>-------- ---- --- ---------- --------- -- ------- ------ -<br>--------- ----- -----,171271.1000000001,171270.2999999998,170436.68,170447.6000000001,170453.351,171286.782,,2,considered
screen,html.Screen,0_4_1_0_1_3,2021-11-26T10:04:17.824Z,,,,,,,,,,,,,,,,15,,,,,,,,,,,,,,1143.5179999998072,,response,,,7,F,,,,,Space,keypress(Space),,,,instrumental,---- --------- ---------- a --- ------- -- --- ------------<br>----- -- -------- ------- ---- ------ - -------- ---- -----<br>--- ------- ---- -- --- -------- --- - ----- ------ ---- --<br>-------- --- -------- -------- --- -------- ---- -- ----- -<br>-------- ---- --- ---------- --------- -- ------- ------ -<br>--------- ----- -----,172431.1000000001,172430.2999999998,171270.112,171271.3999999999,171286.782,172437.168,,3,a
screen,html.Screen,0_4_1_0_1_4,2021-11-26T10:04:19.016Z,,,,,,,,,,,,,,,,15,,,,,,,,,,,,,,1185.0320000001811,,response,,,7,F,,,,,Space,keypress(Space),,,,instrumental,---- --------- ---------- - key ------- -- --- ------------<br>----- -- -------- ------- ---- ------ - -------- ---- -----<br>--- ------- ---- -- --- -------- --- - ----- ------ ---- --<br>-------- --- -------- -------- --- -------- ---- -- ----- -<br>-------- ---- --- ---------- --------- -- ------- ------ -<br>--------- ----- -----,173623,173622.2000000002,172420.497,172431.2999999998,172437.168,173637.371,,4,key
screen,html.Screen,0_4_1_0_1_5,2021-11-26T10:04:20.312Z,,,,,,,,,,,,,,,,15,,,,,,,,,,,,,,1280.8290000001725,,response,,,7,F,,,,,Space,keypress(Space),,,,instrumental,---- --------- ---------- - --- witness -- --- ------------<br>----- -- -------- ------- ---- ------ - -------- ---- -----<br>--- ------- ---- -- --- -------- --- - ----- ------ ---- --<br>-------- --- -------- -------- --- -------- ---- -- ----- -<br>-------- ---- --- ---------- --------- -- ------- ------ -<br>--------- ----- -----,174919.1000000001,174918.2000000002,173620.701,173623.2000000002,173637.371,174920.932,,5,witness
screen,html.Screen,0_4_1_0_1_6,2021-11-26T10:04:20.872Z,,,,,,,,,,,,,,,,15,,,,,,,,,,,,,,557.1680000000924,,response,,,7,F,,,,,Space,keypress(Space),,,,instrumental,---- --------- ---------- - --- ------- by --- ------------<br>----- -- -------- ------- ---- ------ - -------- ---- -----<br>--- ------- ---- -- --- -------- --- - ----- ------ ---- --<br>-------- --- -------- -------- --- -------- ---- -- ----- -<br>-------- ---- --- ---------- --------- -- ------- ------ -<br>--------- ----- -----,175478.8999999999,175478.1000000001,174904.262,174919.2999999998,174920.932,175487.827,,6,by
screen,html.Screen,0_4_1_0_1_7,2021-11-26T10:04:21.344Z,,,,,,,,,,,,,,,,15,,,,,,,,,,,,,,462.1730000000098,,response,,,7,F,,,,,Space,keypress(Space),,,,instrumental,---- --------- ---------- - --- ------- -- the ------------<br>----- -- -------- ------- ---- ------ - -------- ---- -----<br>--- ------- ---- -- --- -------- --- - ----- ------ ---- --<br>-------- --- -------- -------- --- -------- ---- -- ----- -<br>-------- ---- --- ---------- --------- -- ------- ------ -<br>--------- ----- -----,175950.7999999998,175950,175471.157,175479.1000000001,175487.827,175954.689,,7,the
screen,html.Screen,0_4_1_0_1_8,2021-11-26T10:04:22.200Z,,,,,,,,,,,,,,,,15,,,,,,,,,,,,,,851.310999999987,,response,,,7,F,,,,,Space,keypress(Space),,,,instrumental,"---- --------- ---------- - --- ------- -- --- prosecution,<br>----- -- -------- ------- ---- ------ - -------- ---- -----<br>--- ------- ---- -- --- -------- --- - ----- ------ ---- --<br>-------- --- -------- -------- --- -------- ---- -- ----- -<br>-------- ---- --- ---------- --------- -- ------- ------ -<br>--------- ----- -----",176806.7999999998,176806,175938.018,175951.1000000001,175954.689,176821.513,,8,"prosecution,"
screen,html.Screen,0_4_1_0_1_9,2021-11-26T10:04:23.240Z,,,,,,,,,,,,,,,,15,,,,,,,,,,,,,,1024.4869999999937,,response,,,7,F,,,,,Space,keypress(Space),,,,instrumental,---- --------- ---------- - --- ------- -- --- ------------<br>vowed -- -------- ------- ---- ------ - -------- ---- -----<br>--- ------- ---- -- --- -------- --- - ----- ------ ---- --<br>-------- --- -------- -------- --- -------- ---- -- ----- -<br>-------- ---- --- ---------- --------- -- ------- ------ -<br>--------- ----- -----,177846.7000000002,177846,176804.843,176807,176821.513,177854.915,,9,vowed
screen,html.Screen,0_4_1_0_1_10,2021-11-26T10:04:23.608Z,,,,,,,,,,,,,,,,15,,,,,,,,,,,,,,359.08499999999185,,response,,,7,F,,,,,Space,keypress(Space),,,,instrumental,---- --------- ---------- - --- ------- -- --- ------------<br>----- he -------- ------- ---- ------ - -------- ---- -----<br>--- ------- ---- -- --- -------- --- - ----- ------ ---- --<br>-------- --- -------- -------- --- -------- ---- -- ----- -<br>-------- ---- --- ---------- --------- -- ------- ------ -<br>--------- ----- -----,178214.7999999998,178214,177838.246,177846.8999999999,177854.915,178221.902,,10,he
screen,html.Screen,0_4_1_0_1_11,2021-11-26T10:04:24.296Z,,,,,,,,,,,,,,,,15,,,,,,,,,,,,,,679.997999999905,,response,,,7,F,,,,,Space,keypress(Space),,,,instrumental,---- --------- ---------- - --- ------- -- --- ------------<br>----- -- wouldn't ------- ---- ------ - -------- ---- -----<br>--- ------- ---- -- --- -------- --- - ----- ------ ---- --<br>-------- --- -------- -------- --- -------- ---- -- ----- -<br>-------- ---- --- ---------- --------- -- ------- ------ -<br>--------- ----- -----,178902.7000000002,178901.8999999999,178205.231,178215,178221.902,178905.349,,11,wouldn't
screen,html.Screen,0_4_1_0_1_12,2021-11-26T10:04:24.976Z,,,,,,,,,,,,,,,,15,,,,,,,,,,,,,,676.3510000001988,,response,,,7,F,,,,,Space,keypress(Space),,,,instrumental,---- --------- ---------- - --- ------- -- --- ------------<br>----- -- -------- testify ---- ------ - -------- ---- -----<br>--- ------- ---- -- --- -------- --- - ----- ------ ---- --<br>-------- --- -------- -------- --- -------- ---- -- ----- -<br>-------- ---- --- ---------- --------- -- ------- ------ -<br>--------- ----- -----,179582.5,179581.7000000002,178888.679,178903,178905.349,179588.95,,12,testify
screen,html.Screen,0_4_1_0_1_13,2021-11-26T10:04:25.672Z,,,,,,,,,,,,,,,,15,,,,,,,,,,,,,,689.2500000001746,,response,,,7,F,,,,,Space,keypress(Space),,,,instrumental,---- --------- ---------- - --- ------- -- --- ------------<br>----- -- -------- ------- when ------ - -------- ---- -----<br>--- ------- ---- -- --- -------- --- - ----- ------ ---- --<br>-------- --- -------- -------- --- -------- ---- -- ----- -<br>-------- ---- --- ---------- --------- -- ------- ------ -<br>--------- ----- -----,180279.1000000001,180278.2000000002,179572.279,179582.7000000002,179588.95,180289.023,,13,when
screen,html.Screen,0_4_1_0_1_14,2021-11-26T10:04:26.489Z,,,,,,,,,,,,,,,,15,,,,,,,,,,,,,,804.6770000001998,,response,,,7,F,,,,,Space,keypress(Space),,,,instrumental,---- --------- ---------- - --- ------- -- --- ------------<br>----- -- -------- ------- ---- served - -------- ---- -----<br>--- ------- ---- -- --- -------- --- - ----- ------ ---- --<br>-------- --- -------- -------- --- -------- ---- -- ----- -<br>-------- ---- --- ---------- --------- -- ------- ------ -<br>--------- ----- -----,181094.3999999999,181093.7000000002,180272.353,180279.2000000002,180289.023,181105.975,,14,served
screen,html.Screen,0_4_1_0_1_15,2021-11-26T10:04:26.890Z,,,,,,,,,,,,,,,,15,,,,,,,,,,,,,,387.8249999998079,,response,,,7,F,,,,,Space,keypress(Space),,,,instrumental,---- --------- ---------- - --- ------- -- --- ------------<br>----- -- -------- ------- ---- ------ a -------- ---- -----<br>--- ------- ---- -- --- -------- --- - ----- ------ ---- --<br>-------- --- -------- -------- --- -------- ---- -- ----- -<br>-------- ---- --- ---------- --------- -- ------- ------ -<br>--------- ----- -----,181494.6000000001,181493.7999999998,181089.304,181094.7000000002,181105.975,181505.91,,15,a
screen,html.Screen,0_4_1_0_1_16,2021-11-26T10:04:27.905Z,,,,,,,,,,,,,,,,15,,,,,,,,,,,,,,1003.6900000000896,,response,,,7,F,,,,,Space,keypress(Space),,,,instrumental,---- --------- ---------- - --- ------- -- --- ------------<br>----- -- -------- ------- ---- ------ - subpoena ---- -----<br>--- ------- ---- -- --- -------- --- - ----- ------ ---- --<br>-------- --- -------- -------- --- -------- ---- -- ----- -<br>-------- ---- --- ---------- --------- -- ------- ------ -<br>--------- ----- -----,182510.2999999998,182509.6000000001,181489.241,181494.7999999998,181505.91,182523.006,,16,subpoena
screen,html.Screen,0_4_1_0_1_17,2021-11-26T10:04:28.409Z,,,,,,,,,,,,,,,,15,,,,,,,,,,,,,,490.5940000000992,,response,,,7,F,,,,,Space,keypress(Space),,,,instrumental,---- --------- ---------- - --- ------- -- --- ------------<br>----- -- -------- ------- ---- ------ - -------- last -----<br>--- ------- ---- -- --- -------- --- - ----- ------ ---- --<br>-------- --- -------- -------- --- -------- ---- -- ----- -<br>-------- ---- --- ---------- --------- -- ------- ------ -<br>--------- ----- -----,183014.5,183013.6000000001,182506.335,182510.6000000001,182523.006,183022.863,,17,last
screen,html.Screen,0_4_1_0_1_18,2021-11-26T10:04:28.961Z,,,,,,,,,,,,,,,,15,,,,,,,,,,,,,,542.8370000001742,,response,,,7,F,,,,,Space,keypress(Space),,,,instrumental,---- --------- ---------- - --- ------- -- --- ------------<br>----- -- -------- ------- ---- ------ - -------- ---- week.<br>--- ------- ---- -- --- -------- --- - ----- ------ ---- --<br>-------- --- -------- -------- --- -------- ---- -- ----- -<br>-------- ---- --- ---------- --------- -- ------- ------ -<br>--------- ----- -----,183566.3999999999,183565.7000000002,183006.195,183014.7000000002,183022.863,183573.166,,18,week.
screen,html.Screen,0_4_1_0_1_19,2021-11-26T10:04:29.705Z,,,,,,,,,,,,,,,,15,,,,,,,,,,,,,,736.3340000000026,,response,,,7,F,,,,,Space,keypress(Space),,,,instrumental,---- --------- ---------- - --- ------- -- --- ------------<br>----- -- -------- ------- ---- ------ - -------- ---- -----<br>His ------- ---- -- --- -------- --- - ----- ------ ---- --<br>-------- --- -------- -------- --- -------- ---- -- ----- -<br>-------- ---- --- ---------- --------- -- ------- ------ -<br>--------- ----- -----,184310.2999999998,184309.5,183556.496,183566.7000000002,183573.166,184323.529,,19,His
screen,html.Screen,0_4_1_0_1_20,2021-11-26T10:04:30.441Z,,,,,,,,,,,,,,,,15,,,,,,,,,,,,,,722.0710000000836,,response,,,7,F,,,,,Space,keypress(Space),,,,instrumental,---- --------- ---------- - --- ------- -- --- ------------<br>----- -- -------- ------- ---- ------ - -------- ---- -----<br>--- lawyers ---- -- --- -------- --- - ----- ------ ---- --<br>-------- --- -------- -------- --- -------- ---- -- ----- -<br>-------- ---- --- ---------- --------- -- ------- ------ -<br>--------- ----- -----,185046.2999999998,185045.6000000001,184306.857,184310.5,184323.529,185056.774,,20,lawyers
screen,html.Screen,0_4_1_0_1_21,2021-11-26T10:04:31.041Z,,,,,,,,,,,,,,,,15,,,,,,,,,,,,,,588.7259999999951,,response,,,7,F,,,,,Space,keypress(Space),,,,instrumental,---- --------- ---------- - --- ------- -- --- ------------<br>----- -- -------- ------- ---- ------ - -------- ---- -----<br>--- ------- said -- --- -------- --- - ----- ------ ---- --<br>-------- --- -------- -------- --- -------- ---- -- ----- -<br>-------- ---- --- ---------- --------- -- ------- ------ -<br>--------- ----- -----,185646.2999999998,185645.5,185040.105,185046.6000000001,185056.774,185657.14,,21,said
screen,html.Screen,0_4_1_0_1_22,2021-11-26T10:04:31.593Z,,,,,,,,,,,,,,,,15,,,,,,,,,,,,,,540.2599999998929,,response,,,7,F,,,,,Space,keypress(Space),,,,instrumental,---- --------- ---------- - --- ------- -- --- ------------<br>----- -- -------- ------- ---- ------ - -------- ---- -----<br>--- ------- ---- he --- -------- --- - ----- ------ ---- --<br>-------- --- -------- -------- --- -------- ---- -- ----- -<br>-------- ---- --- ---------- --------- -- ------- ------ -<br>--------- ----- -----,186198.2000000002,186197.3999999999,185640.469,185646.5,185657.14,186207.202,,22,he
screen,html.Screen,0_4_1_0_1_23,2021-11-26T10:04:32.473Z,,,,,,,,,,,,,,,,15,,,,,,,,,,,,,,870.1979999999166,,response,,,7,F,,,,,Space,keypress(Space),,,,instrumental,---- --------- ---------- - --- ------- -- --- ------------<br>----- -- -------- ------- ---- ------ - -------- ---- -----<br>--- ------- ---- -- was -------- --- - ----- ------ ---- --<br>-------- --- -------- -------- --- -------- ---- -- ----- -<br>-------- ---- --- ---------- --------- -- ------- ------ -<br>--------- ----- -----,187078.1000000001,187077.3999999999,186190.532,186198.3999999999,186207.202,187090.741,,23,was
screen,html.Screen,0_4_1_0_1_24,2021-11-26T10:04:33.273Z,,,,,,,,,,,,,,,,15,,,,,,,,,,,,,,786.5589999998047,,response,,,7,F,,,,,Space,keypress(Space),,,,instrumental,---- --------- ---------- - --- ------- -- --- ------------<br>----- -- -------- ------- ---- ------ - -------- ---- -----<br>--- ------- ---- -- --- prepared --- - ----- ------ ---- --<br>-------- --- -------- -------- --- -------- ---- -- ----- -<br>-------- ---- --- ---------- --------- -- ------- ------ -<br>--------- ----- -----,187878.1000000001,187877.2999999998,187074.071,187078.3999999999,187090.741,187890.919,,24,prepared
screen,html.Screen,0_4_1_0_1_25,2021-11-26T10:04:33.713Z,,,,,,,,,,,,,,,,15,,,,,,,,,,,,,,426.3809999998193,,response,,,7,F,,,,,Space,keypress(Space),,,,instrumental,---- --------- ---------- - --- ------- -- --- ------------<br>----- -- -------- ------- ---- ------ - -------- ---- -----<br>--- ------- ---- -- --- -------- for - ----- ------ ---- --<br>-------- --- -------- -------- --- -------- ---- -- ----- -<br>-------- ---- --- ---------- --------- -- ------- ------ -<br>--------- ----- -----,188318.1000000001,188317.2999999998,187874.249,187878.3999999999,187890.919,188324.344,,25,for
screen,html.Screen,0_4_1_0_1_26,2021-11-26T10:04:34.217Z,,,,,,,,,,,,,,,,15,,,,,,,,,,,,,,496.95599999980186,,response,,,7,F,,,,,Space,keypress(Space),,,,instrumental,---- --------- ---------- - --- ------- -- --- ------------<br>----- -- -------- ------- ---- ------ - -------- ---- -----<br>--- ------- ---- -- --- -------- --- a ----- ------ ---- --<br>-------- --- -------- -------- --- -------- ---- -- ----- -<br>-------- ---- --- ---------- --------- -- ------- ------ -<br>--------- ----- -----,188822.1000000001,188821.2999999998,188307.674,188318.3999999999,188324.344,188824.46,,26,a
screen,html.Screen,0_4_1_0_1_27,2021-11-26T10:04:34.577Z,,,,,,,,,,,,,,,,15,,,,,,,,,,,,,,356.8399999998219,,response,,,7,F,,,,,Space,keypress(Space),,,,instrumental,---- --------- ---------- - --- ------- -- --- ------------<br>----- -- -------- ------- ---- ------ - -------- ---- -----<br>--- ------- ---- -- --- -------- --- - third ------ ---- --<br>-------- --- -------- -------- --- -------- ---- -- ----- -<br>-------- ---- --- ---------- --------- -- ------- ------ -<br>--------- ----- -----,189182.1000000001,189181.2999999998,188807.79,188822.2999999998,188824.46,189191.35,,27,third
screen,html.Screen,0_4_1_0_1_28,2021-11-26T10:04:34.985Z,,,,,,,,,,,,,,,,15,,,,,,,,,,,,,,397.85000000018044,,response,,,7,F,,,,,Space,keypress(Space),,,,instrumental,---- --------- ---------- - --- ------- -- --- ------------<br>----- -- -------- ------- ---- ------ - -------- ---- -----<br>--- ------- ---- -- --- -------- --- - ----- prison ---- --<br>-------- --- -------- -------- --- -------- ---- -- ----- -<br>-------- ---- --- ---------- --------- -- ------- ------ -<br>--------- ----- -----,189589.8999999999,189589.2000000002,189174.678,189182.3999999999,189191.35,189591.285,,28,prison
screen,html.Screen,0_4_1_0_1_29,2021-11-26T10:04:35.353Z,,,,,,,,,,,,,,,,15,,,,,,,,,,,,,,365.9150000001828,,response,,,7,F,,,,,Space,keypress(Space),,,,instrumental,---- --------- ---------- - --- ------- -- --- ------------<br>----- -- -------- ------- ---- ------ - -------- ---- -----<br>--- ------- ---- -- --- -------- --- - ----- ------ stay --<br>-------- --- -------- -------- --- -------- ---- -- ----- -<br>-------- ---- --- ---------- --------- -- ------- ------ -<br>--------- ----- -----,189958,189957.2000000002,189574.616,189590.1000000001,189591.285,189974.767,,29,stay
screen,html.Screen,0_4_1_0_1_30,2021-11-26T10:04:35.793Z,,,,,,,,,,,,,,,,15,,,,,,,,,,,,,,422.8330000001006,,response,,,7,F,,,,,Space,keypress(Space),,,,instrumental,---- --------- ---------- - --- ------- -- --- ------------<br>----- -- -------- ------- ---- ------ - -------- ---- -----<br>--- ------- ---- -- --- -------- --- - ----- ------ ---- to<br>-------- --- -------- -------- --- -------- ---- -- ----- -<br>-------- ---- --- ---------- --------- -- ------- ------ -<br>--------- ----- -----,190398.3999999999,190397.6000000001,189958.097,189958.2999999998,189974.767,190408.342,,30,to
screen,html.Screen,0_4_1_0_1_31,2021-11-26T10:04:36.273Z,,,,,,,,,,,,,,,,15,,,,,,,,,,,,,,468.8580000001821,,response,,,7,F,,,,,Space,keypress(Space),,,,instrumental,---- --------- ---------- - --- ------- -- --- ------------<br>----- -- -------- ------- ---- ------ - -------- ---- -----<br>--- ------- ---- -- --- -------- --- - ----- ------ ---- --<br>maintain --- -------- -------- --- -------- ---- -- ----- -<br>-------- ---- --- ---------- --------- -- ------- ------ -<br>--------- ----- -----,190878,190877.2000000002,190391.67,190398.6000000001,190408.342,190891.704,,31,maintain
screen,html.Screen,0_4_1_0_1_32,2021-11-26T10:04:36.649Z,,,,,,,,,,,,,,,,15,,,,,,,,,,,,,,361.3960000000952,,response,,,7,F,,,,,Space,keypress(Space),,,,instrumental,---- --------- ---------- - --- ------- -- --- ------------<br>----- -- -------- ------- ---- ------ - -------- ---- -----<br>--- ------- ---- -- --- -------- --- - ----- ------ ---- --<br>-------- his -------- -------- --- -------- ---- -- ----- -<br>-------- ---- --- ---------- --------- -- ------- ------ -<br>--------- ----- -----,191253.8999999999,191253.1000000001,190875.034,190878.2000000002,190891.704,191258.464,,32,his
screen,html.Screen,0_4_1_0_1_33,2021-11-26T10:04:37.337Z,,,,,,,,,,,,,,,,15,,,,,,,,,,,,,,682.6360000000859,,response,,,7,F,,,,,Space,keypress(Space),,,,instrumental,---- --------- ---------- - --- ------- -- --- ------------<br>----- -- -------- ------- ---- ------ - -------- ---- -----<br>--- ------- ---- -- --- -------- --- - ----- ------ ---- --<br>-------- --- silence. -------- --- -------- ---- -- ----- -<br>-------- ---- --- ---------- --------- -- ------- ------ -<br>--------- ----- -----,191941.7999999998,191941.1000000001,191241.794,191254.1000000001,191258.464,191958.506,,33,silence.
screen,html.Screen,0_4_1_0_1_34,2021-11-26T10:04:37.897Z,,,,,,,,,,,,,,,,15,,,,,,,,,,,,,,542.494000000006,,response,,,7,F,,,,,Space,keypress(Space),,,,instrumental,---- --------- ---------- - --- ------- -- --- ------------<br>----- -- -------- ------- ---- ------ - -------- ---- -----<br>--- ------- ---- -- --- -------- --- - ----- ------ ---- --<br>-------- --- -------- Anderson --- -------- ---- -- ----- -<br>-------- ---- --- ---------- --------- -- ------- ------ -<br>--------- ----- -----,192501.7999999998,192501,191941.837,191942.1000000001,191958.506,192508.877,,34,Anderson
screen,html.Screen,0_4_1_0_1_35,2021-11-26T10:04:38.577Z,,,,,,,,,,,,,,,,15,,,,,,,,,,,,,,672.1229999999923,,response,,,7,F,,,,,Space,keypress(Space),,,,instrumental,---- --------- ---------- - --- ------- -- --- ------------<br>----- -- -------- ------- ---- ------ - -------- ---- -----<br>--- ------- ---- -- --- -------- --- - ----- ------ ---- --<br>-------- --- -------- -------- was -------- ---- -- ----- -<br>-------- ---- --- ---------- --------- -- ------- ------ -<br>--------- ----- -----,193181.7999999998,193181,192492.205,192502,192508.877,193192.321,,35,was
screen,html.Screen,0_4_1_0_1_36,2021-11-26T10:04:39.281Z,,,,,,,,,,,,,,,,15,,,,,,,,,,,,,,692.6790000000037,,response,,,7,F,,,,,Space,keypress(Space),,,,instrumental,---- --------- ---------- - --- ------- -- --- ------------<br>----- -- -------- ------- ---- ------ - -------- ---- -----<br>--- ------- ---- -- --- -------- --- - ----- ------ ---- --<br>-------- --- -------- -------- --- released ---- -- ----- -<br>-------- ---- --- ---------- --------- -- ------- ------ -<br>--------- ----- -----,193885.7000000002,193885,193175.65,193182,193192.321,193892.404,,36,released
screen,html.Screen,0_4_1_0_1_37,2021-11-26T10:04:39.929Z,,,,,,,,,,,,,,,,15,,,,,,,,,,,,,,640.4959999998973,,response,,,7,F,,,,,Space,keypress(Space),,,,instrumental,---- --------- ---------- - --- ------- -- --- ------------<br>----- -- -------- ------- ---- ------ - -------- ---- -----<br>--- ------- ---- -- --- -------- --- - ----- ------ ---- --<br>-------- --- -------- -------- --- -------- July -- ----- -<br>-------- ---- --- ---------- --------- -- ------- ------ -<br>--------- ----- -----,194533.7000000002,194532.8999999999,193875.734,193885.8999999999,193892.404,194542.482,,37,July
screen,html.Screen,0_4_1_0_1_38,2021-11-26T10:04:40.385Z,,,,,,,,,,,,,,,,15,,,,,,,,,,,,,,446.3179999998247,,response,,,7,F,,,,,Space,keypress(Space),,,,instrumental,---- --------- ---------- - --- ------- -- --- ------------<br>----- -- -------- ------- ---- ------ - -------- ---- -----<br>--- ------- ---- -- --- -------- --- - ----- ------ ---- --<br>-------- --- -------- -------- --- -------- ---- 20 ----- -<br>-------- ---- --- ---------- --------- -- ------- ------ -<br>--------- ----- -----,194989.6000000001,194988.7999999998,194525.813,194533.8999999999,194542.482,194992.783,,38,20
screen,html.Screen,0_4_1_0_1_39,2021-11-26T10:04:41.057Z,,,,,,,,,,,,,,,,15,,,,,,,,,,,,,,668.0169999998179,,response,,,7,F,,,,,Space,keypress(Space),,,,instrumental,---- --------- ---------- - --- ------- -- --- ------------<br>----- -- -------- ------- ---- ------ - -------- ---- -----<br>--- ------- ---- -- --- -------- --- - ----- ------ ---- --<br>-------- --- -------- -------- --- -------- ---- -- after -<br>-------- ---- --- ---------- --------- -- ------- ------ -<br>--------- ----- -----,195661.6000000001,195660.7999999998,194976.112,194989.7999999998,194992.783,195676.102,,39,after
screen,html.Screen,0_4_1_0_1_40,2021-11-26T10:04:41.705Z,,,,,,,,,,,,,,,,15,,,,,,,,,,,,,,632.6979999998002,,response,,,7,F,,,,,Space,keypress(Space),,,,instrumental,---- --------- ---------- - --- ------- -- --- ------------<br>----- -- -------- ------- ---- ------ - -------- ---- -----<br>--- ------- ---- -- --- -------- --- - ----- ------ ---- --<br>-------- --- -------- -------- --- -------- ---- -- ----- a<br>-------- ---- --- ---------- --------- -- ------- ------ -<br>--------- ----- -----,196309.6000000001,196308.7999999998,195659.433,195661.8999999999,195676.102,196326.53,,40,a
screen,html.Screen,0_4_1_0_1_41,2021-11-26T10:04:42.969Z,,,,,,,,,,,,,,,,15,,,,,,,,,,,,,,1246.1700000001874,,response,,,7,F,,,,,Space,keypress(Space),,,,instrumental,---- --------- ---------- - --- ------- -- --- ------------<br>----- -- -------- ------- ---- ------ - -------- ---- -----<br>--- ------- ---- -- --- -------- --- - ----- ------ ---- --<br>-------- --- -------- -------- --- -------- ---- -- ----- -<br>two-week ---- --- ---------- --------- -- ------- ------ -<br>--------- ----- -----,197573.7000000002,197572.7000000002,196309.858,196309.7999999998,196326.53,197576.503,,41,two-week
screen,html.Screen,0_4_1_0_1_42,2021-11-26T10:04:43.424Z,,,,,,,,,,,,,,,,15,,,,,,,,,,,,,,452.09700000009616,,response,,,7,F,,,,,Space,keypress(Space),,,,instrumental,---- --------- ---------- - --- ------- -- --- ------------<br>----- -- -------- ------- ---- ------ - -------- ---- -----<br>--- ------- ---- -- --- -------- --- - ----- ------ ---- --<br>-------- --- -------- -------- --- -------- ---- -- ----- -<br>-------- stay --- ---------- --------- -- ------- ------ -<br>--------- ----- -----,198029.2999999998,198028.6000000001,197559.834,197573.8999999999,197576.503,198043.566,,42,stay
screen,html.Screen,0_4_1_0_1_43,2021-11-26T10:04:43.792Z,,,,,,,,,,,,,,,,15,,,,,,,,,,,,,,353.13400000019465,,response,,,7,F,,,,,Space,keypress(Space),,,,instrumental,---- --------- ---------- - --- ------- -- --- ------------<br>----- -- -------- ------- ---- ------ - -------- ---- -----<br>--- ------- ---- -- --- -------- --- - ----- ------ ---- --<br>-------- --- -------- -------- --- -------- ---- -- ----- -<br>-------- ---- for ---------- --------- -- ------- ------ -<br>--------- ----- -----,198397.3999999999,198396.7000000002,198026.895,198029.6000000001,198043.566,198410.247,,43,for
screen,html.Screen,0_4_1_0_1_44,2021-11-26T10:04:44.176Z,,,,,,,,,,,,,,,,15,,,,,,,,,,,,,,370.3530000000901,,response,,,7,F,,,,,Space,keypress(Space),,,,instrumental,---- --------- ---------- - --- ------- -- --- ------------<br>----- -- -------- ------- ---- ------ - -------- ---- -----<br>--- ------- ---- -- --- -------- --- - ----- ------ ---- --<br>-------- --- -------- -------- --- -------- ---- -- ----- -<br>-------- ---- --- previously --------- -- ------- ------ -<br>--------- ----- -----,198781.3999999999,198780.6000000001,198393.577,198397.7000000002,198410.247,198793.676,,44,previously
screen,html.Screen,0_4_1_0_1_45,2021-11-26T10:04:44.632Z,,,,,,,,,,,,,,,,15,,,,,,,,,,,,,,442.9240000000864,,response,,,7,F,,,,,Space,keypress(Space),,,,instrumental,---- --------- ---------- - --- ------- -- --- ------------<br>----- -- -------- ------- ---- ------ - -------- ---- -----<br>--- ------- ---- -- --- -------- --- - ----- ------ ---- --<br>-------- --- -------- -------- --- -------- ---- -- ----- -<br>-------- ---- --- ---------- declining -- ------- ------ -<br>--------- ----- -----,199237.3999999999,199236.6000000001,198777.006,198781.6000000001,198793.676,199243.631,,45,declining
screen,html.Screen,0_4_1_0_1_46,2021-11-26T10:04:44.992Z,,,,,,,,,,,,,,,,15,,,,,,,,,,,,,,352.9690000000992,,response,,,7,F,,,,,Space,keypress(Space),,,,instrumental,---- --------- ---------- - --- ------- -- --- ------------<br>----- -- -------- ------- ---- ------ - -------- ---- -----<br>--- ------- ---- -- --- -------- --- - ----- ------ ---- --<br>-------- --- -------- -------- --- -------- ---- -- ----- -<br>-------- ---- --- ---------- --------- to ------- ------ -<br>--------- ----- -----,199597.5,199596.6000000001,199226.963,199237.6000000001,199243.631,199610.657,,46,to
screen,html.Screen,0_4_1_0_1_47,2021-11-26T10:04:45.440Z,,,,,,,,,,,,,,,,15,,,,,,,,,,,,,,433.9430000000866,,response,,,7,F,,,,,Space,keypress(Space),,,,instrumental,---- --------- ---------- - --- ------- -- --- ------------<br>----- -- -------- ------- ---- ------ - -------- ---- -----<br>--- ------- ---- -- --- -------- --- - ----- ------ ---- --<br>-------- --- -------- -------- --- -------- ---- -- ----- -<br>-------- ---- --- ---------- --------- -- testify ------ -<br>--------- ----- -----,200045.3999999999,200044.6000000001,199593.984,199597.7000000002,199610.657,200060.511,,47,testify
screen,html.Screen,0_4_1_0_1_48,2021-11-26T10:04:45.817Z,,,,,,,,,,,,,,,,15,,,,,,,,,,,,,,360.4890000000014,,response,,,7,F,,,,,Space,keypress(Space),,,,instrumental,---- --------- ---------- - --- ------- -- --- ------------<br>----- -- -------- ------- ---- ------ - -------- ---- -----<br>--- ------- ---- -- --- -------- --- - ----- ------ ---- --<br>-------- --- -------- -------- --- -------- ---- -- ----- -<br>-------- ---- --- ---------- --------- -- ------- before -<br>--------- ----- -----,200421.7999999998,200421,200043.843,200045.6000000001,200060.511,200427.369,,48,before
screen,html.Screen,0_4_1_0_1_49,2021-11-26T10:04:46.216Z,,,,,,,,,,,,,,,,15,,,,,,,,,,,,,,393.13099999999395,,response,,,7,F,,,,,Space,keypress(Space),,,,instrumental,---- --------- ---------- - --- ------- -- --- ------------<br>----- -- -------- ------- ---- ------ - -------- ---- -----<br>--- ------- ---- -- --- -------- --- - ----- ------ ---- --<br>-------- --- -------- -------- --- -------- ---- -- ----- -<br>-------- ---- --- ---------- --------- -- ------- ------ a<br>--------- ----- -----,200821.2999999998,200820.5,200410.699,200422,200427.369,200827.467,,49,a
screen,html.Screen,0_4_1_0_1_50,2021-11-26T10:04:46.656Z,,,,,,,,,,,,,,,,15,,,,,,,,,,,,,,432.9329999999027,,response,,,7,F,,,,,Space,keypress(Space),,,,instrumental,---- --------- ---------- - --- ------- -- --- ------------<br>----- -- -------- ------- ---- ------ - -------- ---- -----<br>--- ------- ---- -- --- -------- --- - ----- ------ ---- --<br>-------- --- -------- -------- --- -------- ---- -- ----- -<br>-------- ---- --- ---------- --------- -- ------- ------ -<br>different ----- -----,201261.2999999998,201260.3999999999,200810.797,200821.5,200827.467,201277.701,,50,different
screen,html.Screen,0_4_1_0_1_51,2021-11-26T10:04:47.152Z,,,,,,,,,,,,,,,,15,,,,,,,,,,,,,,478.79899999999907,,response,,,7,F,,,,,Space,keypress(Space),,,,instrumental,---- --------- ---------- - --- ------- -- --- ------------<br>----- -- -------- ------- ---- ------ - -------- ---- -----<br>--- ------- ---- -- --- -------- --- - ----- ------ ---- --<br>-------- --- -------- -------- --- -------- ---- -- ----- -<br>-------- ---- --- ---------- --------- -- ------- ------ -<br>--------- grand -----,201757.2000000002,201756.5,201261.029,201261.5,201277.701,201761.076,,51,grand
screen,html.Screen,0_4_1_0_1_52,2021-11-26T10:04:47.736Z,,,,,,,,,,,,,,,,15,,,,,,,,,,,,,,579.4239999999991,,response,,,7,F,,,,,Space,keypress(Space),,,,instrumental,---- --------- ---------- - --- ------- -- --- ------------<br>----- -- -------- ------- ---- ------ - -------- ---- -----<br>--- ------- ---- -- --- -------- --- - ----- ------ ---- --<br>-------- --- -------- -------- --- -------- ---- -- ----- -<br>-------- ---- --- ---------- --------- -- ------- ------ -<br>--------- ----- jury.,202341.2000000002,202340.5,201744.406,201757.5,201761.076,202344.553,,52,jury.
Item 7,flow.Loop,0_4_1_0_1,2021-11-26T10:04:47.737Z,,,,,,,,,,,,,,,,,,,,,,,,,,,,,,34487.91200000001,,completion,,,,,,,,,,,,,,,,202341.6000000001,202340.5,167835.918,167837.6000000001,167852.588,202344.553,,,
