sender,sender_type,sender_id,timestamp,meta,,Blues,Classical,Country,Dance,Electronic,Folk,Gospel,Hip-Hop,Jazz,Latin,Musical/Film,New-age,Pop,Provo_ID,R&B,Rap,Reggae,Religious,Rock,Soul,Swing,Traditional,age,artist_name,correct,correctResponse,distraction,duration,education,ended_on,familiarity,gender,item,list,music_frequency,offensiveness,pleasantness,preference,response,response_action,snippet_file,song_name,song_rating,sound,text,time_commit,time_end,time_render,time_run,time_show,time_switch,url,word,word_ID
Instructions,html.Page,0_0,2021-11-05T12:22:13.073Z,"{""labjs_version"":""20.2.3"",""labjs_build"":{""flavor"":""production"",""commit"":""7ea907d66ca8aeef8054924ca5d82ffbe11e34e5""},""location"":""https://run.pavlovia.org/mvasilev/lab_music_a/"",""userAgent"":""Mozilla/5.0 (Windows NT 6.1; Win64; x64) AppleWebKit/537.36 (KHTML, like Gecko) Chrome/95.0.4638.69 Safari/537.36"",""platform"":""Win32"",""language"":""en-US"",""locale"":""en-US"",""timeZone"":""Europe/London"",""timezoneOffset"":0,""screen_width"":1920,""screen_height"":1080,""scroll_width"":1920,""scroll_height"":959,""window_innerWidth"":1920,""window_innerHeight"":1007,""devicePixelRatio"":1}",,,,,,,,,,,,,,,,,,,,,,,,,,,,,14566.186,,form submission,,,,,,,,,,,,,,,,27041.29999999702,27040.5,12457.649,12465.60000000894,12474.314,27040.549,{},,
Headphones,html.Page,0_1,2021-11-05T12:22:16.128Z,,,,,,,,,,,,,,,,,,,,,,,,,,,,,,3055.8510000059614,,form submission,,,,,,,,,,,,,,,,30096.79999999702,30096.40000000596,27023.882,27041.90000000596,27040.549,30107.095,,,
Holding screen,html.Screen,0_2_0_0,2021-11-05T12:22:26.125Z,,,,,,,,,,,,,,,,,,,,,,,,,,,,,,9999.307,,timeout,,,,,,,,,,,,,,,,40093.20000000298,40089.737,30090.429,30097.20000000298,30107.095,40106.402,,,
screen,html.Screen,0_2_0_1_0,2021-11-05T12:22:27.533Z,,,,,,,,,,,,,,,,53,,,,,,,,,,,,,,1394.5979999999981,,response,,,99,,,,,,Space,keypress(Space),,,,,When -- ----- -- ------ - ------- --- ----------<br>------------- ------ ------ ---- ---- ------- ----- -- ----<br>-------- ------- -- ---------- --- - --- ----- ----- ----<br>---- --- --- ----- --- ---- ---- ------- ----- ---- -------<br>--- --- -- ----- -- --- ---- -- --- ---- -- ------ ------<br>--- ----- -- ----,41502.10000000894,41501,40089.737,40093.5,40106.402,41506.308,,0,When
screen,html.Screen,0_2_0_1_1,2021-11-05T12:22:28.197Z,,,,,,,,,,,,,,,,53,,,,,,,,,,,,,,658.2920000089434,,response,,,99,,,,,,Space,keypress(Space),,,,,---- it ----- -- ------ - ------- --- ----------<br>------------- ------ ------ ---- ---- ------- ----- -- ----<br>-------- ------- -- ---------- --- - --- ----- ----- ----<br>---- --- --- ----- --- ---- ---- ------- ----- ---- -------<br>--- --- -- ----- -- --- ---- -- --- ---- -- ------ ------<br>--- ----- -- ----,42165.40000000596,42164.60000000894,41489.643,41502.29999999702,41506.308,42172.958,,1,it
screen,html.Screen,0_2_0_1_2,2021-11-05T12:22:28.717Z,,,,,,,,,,,,,,,,53,,,,,,,,,,,,,,511.642000008942,,response,,,99,,,,,,Space,keypress(Space),,,,,---- -- comes -- ------ - ------- --- ----------<br>------------- ------ ------ ---- ---- ------- ----- -- ----<br>-------- ------- -- ---------- --- - --- ----- ----- ----<br>---- --- --- ----- --- ---- ---- ------- ----- ---- -------<br>--- --- -- ----- -- --- ---- -- --- ---- -- ------ ------<br>--- ----- -- ----,42685.29999999702,42684.60000000894,42156.293,42165.70000000298,42172.958,42689.632,,2,comes
screen,html.Screen,0_2_0_1_3,2021-11-05T12:22:29.189Z,,,,,,,,,,,,,,,,53,,,,,,,,,,,,,,466.9680000089429,,response,,,99,,,,,,Space,keypress(Space),,,,,---- -- ----- to ------ - ------- --- ----------<br>------------- ------ ------ ---- ---- ------- ----- -- ----<br>-------- ------- -- ---------- --- - --- ----- ----- ----<br>---- --- --- ----- --- ---- ---- ------- ----- ---- -------<br>--- --- -- ----- -- --- ---- -- --- ---- -- ------ ------<br>--- ----- -- ----,43157.40000000596,43156.60000000894,42672.967,42685.5,42689.632,43172.951,,3,to
screen,html.Screen,0_2_0_1_4,2021-11-05T12:22:29.645Z,,,,,,,,,,,,,,,,53,,,,,,,,,,,,,,439.64900000893977,,response,,,99,,,,,,Space,keypress(Space),,,,,---- -- ----- -- having - ------- --- ----------<br>------------- ------ ------ ---- ---- ------- ----- -- ----<br>-------- ------- -- ---------- --- - --- ----- ----- ----<br>---- --- --- ----- --- ---- ---- ------- ----- ---- -------<br>--- --- -- ----- -- --- ---- -- --- ---- -- ------ ------<br>--- ----- -- ----,43613.5,43612.60000000894,43156.286,43157.70000000298,43172.951,43622.839,,4,having
screen,html.Screen,0_2_0_1_5,2021-11-05T12:22:30.085Z,,,,,,,,,,,,,,,,53,,,,,,,,,,,,,,429.76100000894075,,response,,,99,,,,,,Space,keypress(Space),,,,,---- -- ----- -- ------ a ------- --- ----------<br>------------- ------ ------ ---- ---- ------- ----- -- ----<br>-------- ------- -- ---------- --- - --- ----- ----- ----<br>---- --- --- ----- --- ---- ---- ------- ----- ---- -------<br>--- --- -- ----- -- --- ---- -- --- ---- -- ------ ------<br>--- ----- -- ----,44053.20000000298,44052.60000000894,43606.175,43613.70000000298,43622.839,44056.328,,5,a
screen,html.Screen,0_2_0_1_6,2021-11-05T12:22:30.517Z,,,,,,,,,,,,,,,,53,,,,,,,,,,,,,,428.17199999999866,,response,,,99,,,,,,Space,keypress(Space),,,,,---- -- ----- -- ------ - lasting --- ----------<br>------------- ------ ------ ---- ---- ------- ----- -- ----<br>-------- ------- -- ---------- --- - --- ----- ----- ----<br>---- --- --- ----- --- ---- ---- ------- ----- ---- -------<br>--- --- -- ----- -- --- ---- -- --- ---- -- ------ ------<br>--- ----- -- ----,44485.29999999702,44484.5,44039.661,44053.5,44056.328,44489.548,,6,lasting
screen,html.Screen,0_2_0_1_7,2021-11-05T12:22:30.908Z,,,,,,,,,,,,,,,,53,,,,,,,,,,,,,,386.9519999999975,,response,,,99,,,,,,Space,keypress(Space),,,,,---- -- ----- -- ------ - ------- and ----------<br>------------- ------ ------ ---- ---- ------- ----- -- ----<br>-------- ------- -- ---------- --- - --- ----- ----- ----<br>---- --- --- ----- --- ---- ---- ------- ----- ---- -------<br>--- --- -- ----- -- --- ---- -- --- ---- -- ------ ------<br>--- ----- -- ----,44877.10000000894,44876.5,44472.883,44485.5,44489.548,44889.47,,7,and
screen,html.Screen,0_2_0_1_8,2021-11-05T12:22:31.333Z,,,,,,,,,,,,,,,,53,,,,,,,,,,,,,,411.02999999999884,,response,,,99,,,,,,Space,keypress(Space),,,,,---- -- ----- -- ------ - ------- --- fulfilling<br>------------- ------ ------ ---- ---- ------- ----- -- ----<br>-------- ------- -- ---------- --- - --- ----- ----- ----<br>---- --- --- ----- --- ---- ---- ------- ----- ---- -------<br>--- --- -- ----- -- --- ---- -- --- ---- -- ------ ------<br>--- ----- -- ----,45301.29999999702,45300.5,44872.806,44877.40000000596,44889.47,45306.095,,8,fulfilling
screen,html.Screen,0_2_0_1_9,2021-11-05T12:22:31.772Z,,,,,,,,,,,,,,,,53,,,,,,,,,,,,,,434.40499999999884,,response,,,99,,,,,,Space,keypress(Space),,,,,"---- -- ----- -- ------ - ------- --- ----------<br>relationship, ------ ------ ---- ---- ------- ----- -- ----<br>-------- ------- -- ---------- --- - --- ----- ----- ----<br>---- --- --- ----- --- ---- ---- ------- ----- ---- -------<br>--- --- -- ----- -- --- ---- -- --- ---- -- ------ ------<br>--- ----- -- ----",45741.10000000894,45740.5,45289.431,45301.5,45306.095,45756.186,,9,"relationship,"
screen,html.Screen,0_2_0_1_10,2021-11-05T12:22:32.196Z,,,,,,,,,,,,,,,,53,,,,,,,,,,,,,,408.3139999999985,,response,,,99,,,,,,Space,keypress(Space),,,,,---- -- ----- -- ------ - ------- --- ----------<br>------------- common ------ ---- ---- ------- ----- -- ----<br>-------- ------- -- ---------- --- - --- ----- ----- ----<br>---- --- --- ----- --- ---- ---- ------- ----- ---- -------<br>--- --- -- ----- -- --- ---- -- --- ---- -- ------ ------<br>--- ----- -- ----,46165.20000000298,46164.5,45739.52,45741.40000000596,45756.186,46172.771,,10,common
screen,html.Screen,0_2_0_1_11,2021-11-05T12:22:32.596Z,,,,,,,,,,,,,,,,53,,,,,,,,,,,,,,391.6290000059598,,response,,,99,,,,,,Space,keypress(Space),,,,,---- -- ----- -- ------ - ------- --- ----------<br>------------- ------ wisdom ---- ---- ------- ----- -- ----<br>-------- ------- -- ---------- --- - --- ----- ----- ----<br>---- --- --- ----- --- ---- ---- ------- ----- ---- -------<br>--- --- -- ----- -- --- ---- -- --- ---- -- ------ ------<br>--- ----- -- ----,46565.10000000894,46564.40000000596,46156.106,46165.40000000596,46172.771,46572.749,,11,wisdom
screen,html.Screen,0_2_0_1_12,2021-11-05T12:22:32.988Z,,,,,,,,,,,,,,,,53,,,,,,,,,,,,,,383.55099999701633,,response,,,99,,,,,,Space,keypress(Space),,,,,---- -- ----- -- ------ - ------- --- ----------<br>------------- ------ ------ says ---- ------- ----- -- ----<br>-------- ------- -- ---------- --- - --- ----- ----- ----<br>---- --- --- ----- --- ---- ---- ------- ----- ---- -------<br>--- --- -- ----- -- --- ---- -- --- ---- -- ------ ------<br>--- ----- -- ----,46956.90000000596,46956.29999999702,46556.084,46565.29999999702,46572.749,46972.794,,12,says
screen,html.Screen,0_2_0_1_13,2021-11-05T12:22:33.412Z,,,,,,,,,,,,,,,,53,,,,,,,,,,,,,,407.5059999970181,,response,,,99,,,,,,Space,keypress(Space),,,,,---- -- ----- -- ------ - ------- --- ----------<br>------------- ------ ------ ---- that ------- ----- -- ----<br>-------- ------- -- ---------- --- - --- ----- ----- ----<br>---- --- --- ----- --- ---- ---- ------- ----- ---- -------<br>--- --- -- ----- -- --- ---- -- --- ---- -- ------ ------<br>--- ----- -- ----,47381.10000000894,47380.29999999702,46956.128,46957.10000000894,46972.794,47389.335,,13,that
screen,html.Screen,0_2_0_1_14,2021-11-05T12:22:33.820Z,,,,,,,,,,,,,,,,53,,,,,,,,,,,,,,399.06500000596134,,response,,,99,,,,,,Space,keypress(Space),,,,,---- -- ----- -- ------ - ------- --- ----------<br>------------- ------ ------ ---- ---- feeling ----- -- ----<br>-------- ------- -- ---------- --- - --- ----- ----- ----<br>---- --- --- ----- --- ---- ---- ------- ----- ---- -------<br>--- --- -- ----- -- --- ---- -- --- ---- -- ------ ------<br>--- ----- -- ----,47789,47788.40000000596,47372.671,47381.20000000298,47389.335,47806.072,,14,feeling
screen,html.Screen,0_2_0_1_15,2021-11-05T12:22:34.252Z,,,,,,,,,,,,,,,,53,,,,,,,,,,,,,,414.22799999701965,,response,,,99,,,,,,Space,keypress(Space),,,,,---- -- ----- -- ------ - ------- --- ----------<br>------------- ------ ------ ---- ---- ------- close -- ----<br>-------- ------- -- ---------- --- - --- ----- ----- ----<br>---- --- --- ----- --- ---- ---- ------- ----- ---- -------<br>--- --- -- ----- -- --- ---- -- --- ---- -- ------ ------<br>--- ----- -- ----,48220.90000000596,48220.29999999702,47789.406,47789.10000000894,47806.072,48222.689,,15,close
screen,html.Screen,0_2_0_1_16,2021-11-05T12:22:34.620Z,,,,,,,,,,,,,,,,53,,,,,,,,,,,,,,365.6109999970213,,response,,,99,,,,,,Space,keypress(Space),,,,,---- -- ----- -- ------ - ------- --- ----------<br>------------- ------ ------ ---- ---- ------- ----- to ----<br>-------- ------- -- ---------- --- - --- ----- ----- ----<br>---- --- --- ----- --- ---- ---- ------- ----- ---- -------<br>--- --- -- ----- -- --- ---- -- --- ---- -- ------ ------<br>--- ----- -- ----,48589,48588.29999999702,48206.024,48221.10000000894,48222.689,48605.994,,16,to
screen,html.Screen,0_2_0_1_17,2021-11-05T12:22:35.012Z,,,,,,,,,,,,,,,,53,,,,,,,,,,,,,,374.20600000298145,,response,,,99,,,,,,Space,keypress(Space),,,,,---- -- ----- -- ------ - ------- --- ----------<br>------------- ------ ------ ---- ---- ------- ----- -- your<br>-------- ------- -- ---------- --- - --- ----- ----- ----<br>---- --- --- ----- --- ---- ---- ------- ----- ---- -------<br>--- --- -- ----- -- --- ---- -- --- ---- -- ------ ------<br>--- ----- -- ----,48980.79999999702,48980.20000000298,48589.329,48589.20000000298,48605.994,48989.238,,17,your
screen,html.Screen,0_2_0_1_18,2021-11-05T12:22:36.228Z,,,,,,,,,,,,,,,,53,,,,,,,,,,,,,,1207.0619999970222,,response,,,99,,,,,,Space,keypress(Space),,,,,---- -- ----- -- ------ - ------- --- ----------<br>------------- ------ ------ ---- ---- ------- ----- -- ----<br>romantic ------- -- ---------- --- - --- ----- ----- ----<br>---- --- --- ----- --- ---- ---- ------- ----- ---- -------<br>--- --- -- ----- -- --- ---- -- --- ---- -- ------ ------<br>--- ----- -- ----,50196.90000000596,50196.29999999702,48972.574,48981,48989.238,50205.948,,18,romantic
screen,html.Screen,0_2_0_1_19,2021-11-05T12:22:36.628Z,,,,,,,,,,,,,,,,53,,,,,,,,,,,,,,390.25200000298355,,response,,,99,,,,,,Space,keypress(Space),,,,,---- -- ----- -- ------ - ------- --- ----------<br>------------- ------ ------ ---- ---- ------- ----- -- ----<br>-------- partner -- ---------- --- - --- ----- ----- ----<br>---- --- --- ----- --- ---- ---- ------- ----- ---- -------<br>--- --- -- ----- -- --- ---- -- --- ---- -- ------ ------<br>--- ----- -- ----,50596.90000000596,50596.20000000298,50189.282,50197.10000000894,50205.948,50605.871,,19,partner
screen,html.Screen,0_2_0_1_20,2021-11-05T12:22:37.012Z,,,,,,,,,,,,,,,,53,,,,,,,,,,,,,,374.2290000089415,,response,,,99,,,,,,Space,keypress(Space),,,,,---- -- ----- -- ------ - ------- --- ----------<br>------------- ------ ------ ---- ---- ------- ----- -- ----<br>-------- ------- is ---------- --- - --- ----- ----- ----<br>---- --- --- ----- --- ---- ---- ------- ----- ---- -------<br>--- --- -- ----- -- --- ---- -- --- ---- -- ------ ------<br>--- ----- -- ----,50980.79999999702,50980.10000000894,50589.206,50597.10000000894,50605.871,50989.165,,20,is
screen,html.Screen,0_2_0_1_21,2021-11-05T12:22:37.412Z,,,,,,,,,,,,,,,,53,,,,,,,,,,,,,,391.03500000297936,,response,,,99,,,,,,Space,keypress(Space),,,,,---- -- ----- -- ------ - ------- --- ----------<br>------------- ------ ------ ---- ---- ------- ----- -- ----<br>-------- ------- -- paramount. --- - --- ----- ----- ----<br>---- --- --- ----- --- ---- ---- ------- ----- ---- -------<br>--- --- -- ----- -- --- ---- -- --- ---- -- ------ ------<br>--- ----- -- ----,51380.79999999702,51380.20000000298,50972.5,50980.90000000596,50989.165,51389.15,,21,paramount.
screen,html.Screen,0_2_0_1_22,2021-11-05T12:22:38.004Z,,,,,,,,,,,,,,,,53,,,,,,,,,,,,,,583.1499999970183,,response,,,99,,,,,,Space,keypress(Space),,,,,---- -- ----- -- ------ - ------- --- ----------<br>------------- ------ ------ ---- ---- ------- ----- -- ----<br>-------- ------- -- ---------- But - --- ----- ----- ----<br>---- --- --- ----- --- ---- ---- ------- ----- ---- -------<br>--- --- -- ----- -- --- ---- -- --- ---- -- ------ ------<br>--- ----- -- ----,51972.90000000596,51972.29999999702,51372.485,51381.10000000894,51389.15,51989.196,,22,But
screen,html.Screen,0_2_0_1_23,2021-11-05T12:22:38.388Z,,,,,,,,,,,,,,,,53,,,,,,,,,,,,,,366.80399999999645,,response,,,99,,,,,,Space,keypress(Space),,,,,---- -- ----- -- ------ - ------- --- ----------<br>------------- ------ ------ ---- ---- ------- ----- -- ----<br>-------- ------- -- ---------- --- a --- ----- ----- ----<br>---- --- --- ----- --- ---- ---- ------- ----- ---- -------<br>--- --- -- ----- -- --- ---- -- --- ---- -- ------ ------<br>--- ----- -- ----,52356.60000000894,52356,51972.53,51973.10000000894,51989.196,52372.451,,23,a
screen,html.Screen,0_2_0_1_24,2021-11-05T12:22:38.764Z,,,,,,,,,,,,,,,,53,,,,,,,,,,,,,,359.64900000893977,,response,,,99,,,,,,Space,keypress(Space),,,,,---- -- ----- -- ------ - ------- --- ----------<br>------------- ------ ------ ---- ---- ------- ----- -- ----<br>-------- ------- -- ---------- --- - new ----- ----- ----<br>---- --- --- ----- --- ---- ---- ------- ----- ---- -------<br>--- --- -- ----- -- --- ---- -- --- ---- -- ------ ------<br>--- ----- -- ----,52732.60000000894,52732.10000000894,52355.786,52356.90000000596,52372.451,52739.114,,24,new
screen,html.Screen,0_2_0_1_25,2021-11-05T12:22:39.156Z,,,,,,,,,,,,,,,,53,,,,,,,,,,,,,,384.8859999999986,,response,,,99,,,,,,Space,keypress(Space),,,,,---- -- ----- -- ------ - ------- --- ----------<br>------------- ------ ------ ---- ---- ------- ----- -- ----<br>-------- ------- -- ---------- --- - --- study ----- ----<br>---- --- --- ----- --- ---- ---- ------- ----- ---- -------<br>--- --- -- ----- -- --- ---- -- --- ---- -- ------ ------<br>--- ----- -- ----,53124.70000000298,53124,52722.449,52732.79999999702,52739.114,53139.086,,25,study
screen,html.Screen,0_2_0_1_26,2021-11-05T12:22:39.508Z,,,,,,,,,,,,,,,,53,,,,,,,,,,,,,,336.91399999999703,,response,,,99,,,,,,Space,keypress(Space),,,,,---- -- ----- -- ------ - ------- --- ----------<br>------------- ------ ------ ---- ---- ------- ----- -- ----<br>-------- ------- -- ---------- --- - --- ----- finds ----<br>---- --- --- ----- --- ---- ---- ------- ----- ---- -------<br>--- --- -- ----- -- --- ---- -- --- ---- -- ------ ------<br>--- ----- -- ----,53476.70000000298,53476,53122.421,53124.79999999702,53139.086,53489.054,,26,finds
screen,html.Screen,0_2_0_1_27,2021-11-05T12:22:39.868Z,,,,,,,,,,,,,,,,53,,,,,,,,,,,,,,346.94600000000355,,response,,,99,,,,,,Space,keypress(Space),,,,,---- -- ----- -- ------ - ------- --- ----------<br>------------- ------ ------ ---- ---- ------- ----- -- ----<br>-------- ------- -- ---------- --- - --- ----- ----- that<br>---- --- --- ----- --- ---- ---- ------- ----- ---- -------<br>--- --- -- ----- -- --- ---- -- --- ---- -- ------ ------<br>--- ----- -- ----,53836.60000000894,53836,53472.389,53476.79999999702,53489.054,53839.042,,27,that
screen,html.Screen,0_2_0_1_28,2021-11-05T12:22:40.236Z,,,,,,,,,,,,,,,,53,,,,,,,,,,,,,,364.9579999999987,,response,,,99,,,,,,Space,keypress(Space),,,,,---- -- ----- -- ------ - ------- --- ----------<br>------------- ------ ------ ---- ---- ------- ----- -- ----<br>-------- ------- -- ---------- --- - --- ----- ----- ----<br>it's --- --- ----- --- ---- ---- ------- ----- ---- -------<br>--- --- -- ----- -- --- ---- -- --- ---- -- ------ ------<br>--- ----- -- ----,54204.60000000894,54204,53822.377,53836.79999999702,53839.042,54205.688,,28,it's
screen,html.Screen,0_2_0_1_29,2021-11-05T12:22:40.564Z,,,,,,,,,,,,,,,,53,,,,,,,,,,,,,,326.21200000595854,,response,,,99,,,,,,Space,keypress(Space),,,,,---- -- ----- -- ------ - ------- --- ----------<br>------------- ------ ------ ---- ---- ------- ----- -- ----<br>-------- ------- -- ---------- --- - --- ----- ----- ----<br>---- not --- ----- --- ---- ---- ------- ----- ---- -------<br>--- --- -- ----- -- --- ---- -- --- ---- -- ------ ------<br>--- ----- -- ----,54532.60000000894,54531.90000000596,54189.023,54204.70000000298,54205.688,54539.003,,29,not
screen,html.Screen,0_2_0_1_30,2021-11-05T12:22:40.852Z,,,,,,,,,,,,,,,,53,,,,,,,,,,,,,,280.997000000003,,response,,,99,,,,,,Space,keypress(Space),,,,,---- -- ----- -- ------ - ------- --- ----------<br>------------- ------ ------ ---- ---- ------- ----- -- ----<br>-------- ------- -- ---------- --- - --- ----- ----- ----<br>---- --- how ----- --- ---- ---- ------- ----- ---- -------<br>--- --- -- ----- -- --- ---- -- --- ---- -- ------ ------<br>--- ----- -- ----,54820.5,54820,54522.338,54532.79999999702,54539.003,54822.202,,30,how
screen,html.Screen,0_2_0_1_31,2021-11-05T12:22:41.196Z,,,,,,,,,,,,,,,,53,,,,,,,,,,,,,,341.69800000596297,,response,,,99,,,,,,Space,keypress(Space),,,,,---- -- ----- -- ------ - ------- --- ----------<br>------------- ------ ------ ---- ---- ------- ----- -- ----<br>-------- ------- -- ---------- --- - --- ----- ----- ----<br>---- --- --- close --- ---- ---- ------- ----- ---- -------<br>--- --- -- ----- -- --- ---- -- --- ---- -- ------ ------<br>--- ----- -- ----,55164.5,55163.90000000596,54805.539,54820.70000000298,54822.202,55172.359,,31,close
screen,html.Screen,0_2_0_1_32,2021-11-05T12:22:41.532Z,,,,,,,,,,,,,,,,53,,,,,,,,,,,,,,327.64100000000326,,response,,,99,,,,,,Space,keypress(Space),,,,,---- -- ----- -- ------ - ------- --- ----------<br>------------- ------ ------ ---- ---- ------- ----- -- ----<br>-------- ------- -- ---------- --- - --- ----- ----- ----<br>---- --- --- ----- you ---- ---- ------- ----- ---- -------<br>--- --- -- ----- -- --- ---- -- --- ---- -- ------ ------<br>--- ----- -- ----,55500.60000000894,55500,55155.692,55164.70000000298,55172.359,55505.614,,32,you
screen,html.Screen,0_2_0_1_33,2021-11-05T12:22:41.868Z,,,,,,,,,,,,,,,,53,,,,,,,,,,,,,,330.18599999701837,,response,,,99,,,,,,Space,keypress(Space),,,,,---- -- ----- -- ------ - ------- --- ----------<br>------------- ------ ------ ---- ---- ------- ----- -- ----<br>-------- ------- -- ---------- --- - --- ----- ----- ----<br>---- --- --- ----- --- feel ---- ------- ----- ---- -------<br>--- --- -- ----- -- --- ---- -- --- ---- -- ------ ------<br>--- ----- -- ----,55836.5,55835.79999999702,55488.949,55500.70000000298,55505.614,55838.928,,33,feel
screen,html.Screen,0_2_0_1_34,2021-11-05T12:22:42.196Z,,,,,,,,,,,,,,,,53,,,,,,,,,,,,,,324.9720000059606,,response,,,99,,,,,,Space,keypress(Space),,,,,---- -- ----- -- ------ - ------- --- ----------<br>------------- ------ ------ ---- ---- ------- ----- -- ----<br>-------- ------- -- ---------- --- - --- ----- ----- ----<br>---- --- --- ----- --- ---- that ------- ----- ---- -------<br>--- --- -- ----- -- --- ---- -- --- ---- -- ------ ------<br>--- ----- -- ----,56164.5,56163.90000000596,55822.263,55836.60000000894,55838.928,56172.188,,34,that
screen,html.Screen,0_2_0_1_35,2021-11-05T12:22:42.516Z,,,,,,,,,,,,,,,,53,,,,,,,,,,,,,,311.61199999701785,,response,,,99,,,,,,Space,keypress(Space),,,,,---- -- ----- -- ------ - ------- --- ----------<br>------------- ------ ------ ---- ---- ------- ----- -- ----<br>-------- ------- -- ---------- --- - --- ----- ----- ----<br>---- --- --- ----- --- ---- ---- matters ----- ---- -------<br>--- --- -- ----- -- --- ---- -- --- ---- -- ------ ------<br>--- ----- -- ----,56484.40000000596,56483.79999999702,56155.524,56164.60000000894,56172.188,56488.93,,35,matters
screen,html.Screen,0_2_0_1_36,2021-11-05T12:22:42.852Z,,,,,,,,,,,,,,,,53,,,,,,,,,,,,,,330.8699999970195,,response,,,99,,,,,,Space,keypress(Space),,,,,"---- -- ----- -- ------ - ------- --- ----------<br>------------- ------ ------ ---- ---- ------- ----- -- ----<br>-------- ------- -- ---------- --- - --- ----- ----- ----<br>---- --- --- ----- --- ---- ---- ------- most, ---- -------<br>--- --- -- ----- -- --- ---- -- --- ---- -- ------ ------<br>--- ----- -- ----",56820.40000000596,56819.79999999702,56472.264,56484.60000000894,56488.93,56822.204,,36,"most,"
screen,html.Screen,0_2_0_1_37,2021-11-05T12:22:43.212Z,,,,,,,,,,,,,,,,53,,,,,,,,,,,,,,357.59599999702186,,response,,,99,,,,,,Space,keypress(Space),,,,,---- -- ----- -- ------ - ------- --- ----------<br>------------- ------ ------ ---- ---- ------- ----- -- ----<br>-------- ------- -- ---------- --- - --- ----- ----- ----<br>---- --- --- ----- --- ---- ---- ------- ----- it's -------<br>--- --- -- ----- -- --- ---- -- --- ---- -- ------ ------<br>--- ----- -- ----,57180.40000000596,57179.79999999702,56805.539,56820.60000000894,56822.204,57188.859,,37,it's
screen,html.Screen,0_2_0_1_38,2021-11-05T12:22:43.556Z,,,,,,,,,,,,,,,,53,,,,,,,,,,,,,,335.0410000059637,,response,,,99,,,,,,Space,keypress(Space),,,,,---- -- ----- -- ------ - ------- --- ----------<br>------------- ------ ------ ---- ---- ------- ----- -- ----<br>-------- ------- -- ---------- --- - --- ----- ----- ----<br>---- --- --- ----- --- ---- ---- ------- ----- ---- whether<br>--- --- -- ----- -- --- ---- -- --- ---- -- ------ ------<br>--- ----- -- ----,57524.5,57523.90000000596,57172.194,57180.60000000894,57188.859,57538.83,,38,whether
screen,html.Screen,0_2_0_1_39,2021-11-05T12:22:43.868Z,,,,,,,,,,,,,,,,53,,,,,,,,,,,,,,296.969999997018,,response,,,99,,,,,,Space,keypress(Space),,,,,---- -- ----- -- ------ - ------- --- ----------<br>------------- ------ ------ ---- ---- ------- ----- -- ----<br>-------- ------- -- ---------- --- - --- ----- ----- ----<br>---- --- --- ----- --- ---- ---- ------- ----- ---- -------<br>you --- -- ----- -- --- ---- -- --- ---- -- ------ ------<br>--- ----- -- ----,57836.29999999702,57835.79999999702,57522.165,57524.60000000894,57538.83,57838.826,,39,you
screen,html.Screen,0_2_0_1_40,2021-11-05T12:22:44.172Z,,,,,,,,,,,,,,,,53,,,,,,,,,,,,,,300.8740000029793,,response,,,99,,,,,,Space,keypress(Space),,,,,---- -- ----- -- ------ - ------- --- ----------<br>------------- ------ ------ ---- ---- ------- ----- -- ----<br>-------- ------- -- ---------- --- - --- ----- ----- ----<br>---- --- --- ----- --- ---- ---- ------- ----- ---- -------<br>--- are -- ----- -- --- ---- -- --- ---- -- ------ ------<br>--- ----- -- ----,58140.29999999702,58139.70000000298,57822.161,57836.5,57838.826,58155.47,,40,are
screen,html.Screen,0_2_0_1_41,2021-11-05T12:22:44.476Z,,,,,,,,,,,,,,,,53,,,,,,,,,,,,,,288.3299999970186,,response,,,99,,,,,,Space,keypress(Space),,,,,---- -- ----- -- ------ - ------- --- ----------<br>------------- ------ ------ ---- ---- ------- ----- -- ----<br>-------- ------- -- ---------- --- - --- ----- ----- ----<br>---- --- --- ----- --- ---- ---- ------- ----- ---- -------<br>--- --- as ----- -- --- ---- -- --- ---- -- ------ ------<br>--- ----- -- ----,58444.40000000596,58443.79999999702,58138.805,58140.5,58155.47,58455.399,,41,as
screen,html.Screen,0_2_0_1_42,2021-11-05T12:22:44.788Z,,,,,,,,,,,,,,,,53,,,,,,,,,,,,,,300.3010000029826,,response,,,99,,,,,,Space,keypress(Space),,,,,---- -- ----- -- ------ - ------- --- ----------<br>------------- ------ ------ ---- ---- ------- ----- -- ----<br>-------- ------- -- ---------- --- - --- ----- ----- ----<br>---- --- --- ----- --- ---- ---- ------- ----- ---- -------<br>--- --- -- close -- --- ---- -- --- ---- -- ------ ------<br>--- ----- -- ----,58756.29999999702,58755.70000000298,58438.735,58444.60000000894,58455.399,58772.08,,42,close
screen,html.Screen,0_2_0_1_43,2021-11-05T12:22:45.100Z,,,,,,,,,,,,,,,,53,,,,,,,,,,,,,,295.6200000029785,,response,,,99,,,,,,Space,keypress(Space),,,,,---- -- ----- -- ------ - ------- --- ----------<br>------------- ------ ------ ---- ---- ------- ----- -- ----<br>-------- ------- -- ---------- --- - --- ----- ----- ----<br>---- --- --- ----- --- ---- ---- ------- ----- ---- -------<br>--- --- -- ----- as --- ---- -- --- ---- -- ------ ------<br>--- ----- -- ----,59068.29999999702,59067.70000000298,58755.415,58756.5,58772.08,59072.07,,43,as
screen,html.Screen,0_2_0_1_44,2021-11-05T12:22:45.412Z,,,,,,,,,,,,,,,,53,,,,,,,,,,,,,,307.6300000029805,,response,,,99,,,,,,Space,keypress(Space),,,,,---- -- ----- -- ------ - ------- --- ----------<br>------------- ------ ------ ---- ---- ------- ----- -- ----<br>-------- ------- -- ---------- --- - --- ----- ----- ----<br>---- --- --- ----- --- ---- ---- ------- ----- ---- -------<br>--- --- -- ----- -- you ---- -- --- ---- -- ------ ------<br>--- ----- -- ----,59380.29999999702,59379.70000000298,59055.405,59068.5,59072.07,59388.758,,44,you
screen,html.Screen,0_2_0_1_45,2021-11-05T12:22:45.756Z,,,,,,,,,,,,,,,,53,,,,,,,,,,,,,,334.9420000029786,,response,,,99,,,,,,Space,keypress(Space),,,,,---- -- ----- -- ------ - ------- --- ----------<br>------------- ------ ------ ---- ---- ------- ----- -- ----<br>-------- ------- -- ---------- --- - --- ----- ----- ----<br>---- --- --- ----- --- ---- ---- ------- ----- ---- -------<br>--- --- -- ----- -- --- want -- --- ---- -- ------ ------<br>--- ----- -- ----,59724.29999999702,59723.70000000298,59372.092,59380.40000000596,59388.758,59738.711,,45,want
screen,html.Screen,0_2_0_1_46,2021-11-05T12:22:46.103Z,,,,,,,,,,,,,,,,53,,,,,,,,,,,,,,328.98900000297726,,response,,,99,,,,,,Space,keypress(Space),,,,,---- -- ----- -- ------ - ------- --- ----------<br>------------- ------ ------ ---- ---- ------- ----- -- ----<br>-------- ------- -- ---------- --- - --- ----- ----- ----<br>---- --- --- ----- --- ---- ---- ------- ----- ---- -------<br>--- --- -- ----- -- --- ---- to --- ---- -- ------ ------<br>--- ----- -- ----,60068.29999999702,60067.70000000298,59722.046,59724.40000000596,59738.711,60071.97,,46,to
screen,html.Screen,0_2_0_1_47,2021-11-05T12:22:46.423Z,,,,,,,,,,,,,,,,53,,,,,,,,,,,,,,315.63000000893953,,response,,,99,,,,,,Space,keypress(Space),,,,,"---- -- ----- -- ------ - ------- --- ----------<br>------------- ------ ------ ---- ---- ------- ----- -- ----<br>-------- ------- -- ---------- --- - --- ----- ----- ----<br>---- --- --- ----- --- ---- ---- ------- ----- ---- -------<br>--- --- -- ----- -- --- ---- -- be, ---- -- ------ ------<br>--- ----- -- ----",60388.20000000298,60387.60000000894,60055.306,60068.40000000596,60071.97,60405.252,,47,"be,"
screen,html.Screen,0_2_0_1_48,2021-11-05T12:22:46.791Z,,,,,,,,,,,,,,,,53,,,,,,,,,,,,,,350.4480000029798,,response,,,99,,,,,,Space,keypress(Space),,,,,---- -- ----- -- ------ - ------- --- ----------<br>------------- ------ ------ ---- ---- ------- ----- -- ----<br>-------- ------- -- ---------- --- - --- ----- ----- ----<br>---- --- --- ----- --- ---- ---- ------- ----- ---- -------<br>--- --- -- ----- -- --- ---- -- --- even -- ------ ------<br>--- ----- -- ----,60756.20000000298,60755.70000000298,60388.588,60388.40000000596,60405.252,60772.107,,48,even
screen,html.Screen,0_2_0_1_49,2021-11-05T12:22:47.151Z,,,,,,,,,,,,,,,,53,,,,,,,,,,,,,,343.4930000089371,,response,,,99,,,,,,Space,keypress(Space),,,,,---- -- ----- -- ------ - ------- --- ----------<br>------------- ------ ------ ---- ---- ------- ----- -- ----<br>-------- ------- -- ---------- --- - --- ----- ----- ----<br>---- --- --- ----- --- ---- ---- ------- ----- ---- -------<br>--- --- -- ----- -- --- ---- -- --- ---- if ------ ------<br>--- ----- -- ----,61116.29999999702,61115.60000000894,60755.439,60756.40000000596,60772.107,61121.92,,49,if
screen,html.Screen,0_2_0_1_50,2021-11-05T12:22:47.487Z,,,,,,,,,,,,,,,,53,,,,,,,,,,,,,,329.58000000000175,,response,,,99,,,,,,Space,keypress(Space),,,,,---- -- ----- -- ------ - ------- --- ----------<br>------------- ------ ------ ---- ---- ------- ----- -- ----<br>-------- ------- -- ---------- --- - --- ----- ----- ----<br>---- --- --- ----- --- ---- ---- ------- ----- ---- -------<br>--- --- -- ----- -- --- ---- -- --- ---- -- that's ------<br>--- ----- -- ----,61452.20000000298,61451.5,61105.256,61116.40000000596,61121.92,61455.313,,50,that's
screen,html.Screen,0_2_0_1_51,2021-11-05T12:22:47.839Z,,,,,,,,,,,,,,,,53,,,,,,,,,,,,,,348.2870000089388,,response,,,99,,,,,,Space,keypress(Space),,,,,---- -- ----- -- ------ - ------- --- ----------<br>------------- ------ ------ ---- ---- ------- ----- -- ----<br>-------- ------- -- ---------- --- - --- ----- ----- ----<br>---- --- --- ----- --- ---- ---- ------- ----- ---- -------<br>--- --- -- ----- -- --- ---- -- --- ---- -- ------ really<br>--- ----- -- ----,61804.10000000894,61803.60000000894,61438.647,61452.29999999702,61455.313,61805.274,,51,really
screen,html.Screen,0_2_0_1_52,2021-11-05T12:22:48.183Z,,,,,,,,,,,,,,,,53,,,,,,,,,,,,,,342.52599999702215,,response,,,99,,,,,,Space,keypress(Space),,,,,---- -- ----- -- ------ - ------- --- ----------<br>------------- ------ ------ ---- ---- ------- ----- -- ----<br>-------- ------- -- ---------- --- - --- ----- ----- ----<br>---- --- --- ----- --- ---- ---- ------- ----- ---- -------<br>--- --- -- ----- -- --- ---- -- --- ---- -- ------ ------<br>not ----- -- ----,62148.5,62147.79999999702,61788.609,61804.29999999702,61805.274,62155.187,,52,not
screen,html.Screen,0_2_0_1_53,2021-11-05T12:22:48.543Z,,,,,,,,,,,,,,,,53,,,,,,,,,,,,,,352.4130000089426,,response,,,99,,,,,,Space,keypress(Space),,,,,---- -- ----- -- ------ - ------- --- ----------<br>------------- ------ ------ ---- ---- ------- ----- -- ----<br>-------- ------- -- ---------- --- - --- ----- ----- ----<br>---- --- --- ----- --- ---- ---- ------- ----- ---- -------<br>--- --- -- ----- -- --- ---- -- --- ---- -- ------ ------<br>--- close -- ----,62508.20000000298,62507.60000000894,62138.523,62148.70000000298,62155.187,62521.872,,53,close
screen,html.Screen,0_2_0_1_54,2021-11-05T12:22:48.903Z,,,,,,,,,,,,,,,,53,,,,,,,,,,,,,,345.52800000595744,,response,,,99,,,,,,Space,keypress(Space),,,,,---- -- ----- -- ------ - ------- --- ----------<br>------------- ------ ------ ---- ---- ------- ----- -- ----<br>-------- ------- -- ---------- --- - --- ----- ----- ----<br>---- --- --- ----- --- ---- ---- ------- ----- ---- -------<br>--- --- -- ----- -- --- ---- -- --- ---- -- ------ ------<br>--- ----- at ----,62868,62867.40000000596,62505.207,62508.40000000596,62521.872,62871.852,,54,at
screen,html.Screen,0_2_0_1_55,2021-11-05T12:22:49.255Z,,,,,,,,,,,,,,,,53,,,,,,,,,,,,,,347.5480000059615,,response,,,99,,,,,,Space,keypress(Space),,,,,---- -- ----- -- ------ - ------- --- ----------<br>------------- ------ ------ ---- ---- ------- ----- -- ----<br>-------- ------- -- ---------- --- - --- ----- ----- ----<br>---- --- --- ----- --- ---- ---- ------- ----- ---- -------<br>--- --- -- ----- -- --- ---- -- --- ---- -- ------ ------<br>--- ----- -- all.,63220.10000000894,63219.40000000596,62855.187,62868.20000000298,62871.852,63238.558,,55,all.
Item 99,flow.Loop,0_2_0_1,2021-11-05T12:22:49.258Z,,,,,,,,,,,,,,,,,,,,,,,,,,,,,,23112.99800000596,,completion,,,,A,,,,,,,,,,silence,,63222.90000000596,63219.40000000596,40089.737,40093.5,40106.402,63238.558,,,
Question 1,html.Screen,0_2_0_2,2021-11-05T12:22:52.538Z,,,,,,,,,,,,,,,,,,,,,,,,,,,true,FALSE,,3262.142000002983,,response,,,99,A,,,,,FALSE,click #choice-2,,,,silence,,66502.90000000596,66500.70000000298,63221.892,63223.10000000894,63238.558,66521.54,,,
Question 2,html.Screen,0_2_0_3,2021-11-05T12:22:56.061Z,,,,,,,,,,,,,,,,,,,,,,,,,,,true,TRUE,,3503.4600000000064,,response,,,99,A,,,,,TRUE,click #choice-1,,,,silence,,70025.79999999702,70025,66504.876,66503,66521.54,70038.111,,,
Item 99,flow.Sequence,0_2_0,2021-11-05T12:22:56.061Z,,,,,,,,,,,,,,,,,,,,,,,,,,,,,,39917.905,,completion,,,,,,,,,,,,,,,,70026.10000000894,70025,30090.429,30097,30107.095,70038.111,,,
Holding screen,html.Screen,0_2_1_0,2021-11-05T12:23:06.056Z,,,,,,,,,,,,,,,,,,,,,,,,,,,,,,9999.426999999996,,timeout,,,,,,,,,,,,,,,,80021.60000000894,80020.873,70021.446,70026.40000000596,70038.111,80037.538,,,
screen,html.Screen,0_2_1_1_0,2021-11-05T12:23:06.774Z,,,,,,,,,,,,,,,,54,,,,,,,,,,,,,,701.2619999970193,,response,,,100,,,,,,Space,keypress(Space),,,,,At --- ---- --- ------ ----- ------- ---- -- --- ------- --<br>------- ---------- ------ -- ----- -- ----- -- ---- ------<br>--- ----- --- --- ------ -------- ----- --- ------ ----- --<br>----- ----- ---------- --- --- ------ ------ ---- -- ------<br>------- --- ------ ----- --- ---- ------- -- ---- --- --<br>------- ------,80739.60000000894,80738.79999999702,80020.873,80021.70000000298,80037.538,80754.174,,0,At
screen,html.Screen,0_2_1_1_1,2021-11-05T12:23:07.166Z,,,,,,,,,,,,,,,,54,,,,,,,,,,,,,,376.4260000089416,,response,,,100,,,,,,Space,keypress(Space),,,,,-- the ---- --- ------ ----- ------- ---- -- --- ------- --<br>------- ---------- ------ -- ----- -- ----- -- ---- ------<br>--- ----- --- --- ------ -------- ----- --- ------ ----- --<br>----- ----- ---------- --- --- ------ ------ ---- -- ------<br>------- --- ------ ----- --- ---- ------- -- ---- --- --<br>------- ------,81131.20000000298,81130.60000000894,80737.509,80739.79999999702,80754.174,81137.578,,1,the
screen,html.Screen,0_2_1_1_2,2021-11-05T12:23:07.726Z,,,,,,,,,,,,,,,,54,,,,,,,,,,,,,,552.9220000000059,,response,,,100,,,,,,Space,keypress(Space),,,,,-- --- time --- ------ ----- ------- ---- -- --- ------- --<br>------- ---------- ------ -- ----- -- ----- -- ---- ------<br>--- ----- --- --- ------ -------- ----- --- ------ ----- --<br>----- ----- ---------- --- --- ------ ------ ---- -- ------<br>------- --- ------ ----- --- ---- ------- -- ---- --- --<br>------- ------,81691,81690.5,81120.912,81131.40000000596,81137.578,81704.091,,2,time
screen,html.Screen,0_2_1_1_3,2021-11-05T12:23:08.078Z,,,,,,,,,,,,,,,,54,,,,,,,,,,,,,,338.40899999999965,,response,,,100,,,,,,Space,keypress(Space),,,,,-- --- ---- the ------ ----- ------- ---- -- --- ------- --<br>------- ---------- ------ -- ----- -- ----- -- ---- ------<br>--- ----- --- --- ------ -------- ----- --- ------ ----- --<br>----- ----- ---------- --- --- ------ ------ ---- -- ------<br>------- --- ------ ----- --- ---- ------- -- ---- --- --<br>------- ------,82042.90000000596,82042.5,81687.427,81691.10000000894,81704.091,82054.198,,3,the
screen,html.Screen,0_2_1_1_4,2021-11-05T12:23:08.518Z,,,,,,,,,,,,,,,,54,,,,,,,,,,,,,,428.30199999999604,,response,,,100,,,,,,Space,keypress(Space),,,,,-- --- ---- --- French ----- ------- ---- -- --- ------- --<br>------- ---------- ------ -- ----- -- ----- -- ---- ------<br>--- ----- --- --- ------ -------- ----- --- ------ ----- --<br>----- ----- ---------- --- --- ------ ------ ---- -- ------<br>------- --- ------ ----- --- ---- ------- -- ---- --- --<br>------- ------,82483.10000000894,82482.5,82037.532,82043.20000000298,82054.198,82487.398,,4,French
screen,html.Screen,0_2_1_1_5,2021-11-05T12:23:08.862Z,,,,,,,,,,,,,,,,54,,,,,,,,,,,,,,339.0020000059594,,response,,,100,,,,,,Space,keypress(Space),,,,,-- --- ---- --- ------ crown ------- ---- -- --- ------- --<br>------- ---------- ------ -- ----- -- ----- -- ---- ------<br>--- ----- --- --- ------ -------- ----- --- ------ ----- --<br>----- ----- ---------- --- --- ------ ------ ---- -- ------<br>------- --- ------ ----- --- ---- ------- -- ---- --- --<br>------- ------,82827,82826.40000000596,82470.734,82483.29999999702,82487.398,82837.416,,5,crown
screen,html.Screen,0_2_1_1_6,2021-11-05T12:23:09.174Z,,,,,,,,,,,,,,,,54,,,,,,,,,,,,,,300.88399999702233,,response,,,100,,,,,,Space,keypress(Space),,,,,-- --- ---- --- ------ ----- secured ---- -- --- ------- --<br>------- ---------- ------ -- ----- -- ----- -- ---- ------<br>--- ----- --- --- ------ -------- ----- --- ------ ----- --<br>----- ----- ---------- --- --- ------ ------ ---- -- ------<br>------- --- ------ ----- --- ---- ------- -- ---- --- --<br>------- ------,83138.90000000596,83138.29999999702,82820.751,82827.10000000894,82837.416,83154.137,,6,secured
screen,html.Screen,0_2_1_1_7,2021-11-05T12:23:09.518Z,,,,,,,,,,,,,,,,54,,,,,,,,,,,,,,328.263000005958,,response,,,100,,,,,,Space,keypress(Space),,,,,-- --- ---- --- ------ ----- ------- much -- --- ------- --<br>------- ---------- ------ -- ----- -- ----- -- ---- ------<br>--- ----- --- --- ------ -------- ----- --- ------ ----- --<br>----- ----- ---------- --- --- ------ ------ ---- -- ------<br>------- --- ------ ----- --- ---- ------- -- ---- --- --<br>------- ------,83482.90000000596,83482.40000000596,83137.471,83139.10000000894,83154.137,83487.407,,7,much
screen,html.Screen,0_2_1_1_8,2021-11-05T12:23:09.894Z,,,,,,,,,,,,,,,,54,,,,,,,,,,,,,,370.89299999701325,,response,,,100,,,,,,Space,keypress(Space),,,,,-- --- ---- --- ------ ----- ------- ---- of --- ------- --<br>------- ---------- ------ -- ----- -- ----- -- ---- ------<br>--- ----- --- --- ------ -------- ----- --- ------ ----- --<br>----- ----- ---------- --- --- ------ ------ ---- -- ------<br>------- --- ------ ----- --- ---- ------- -- ---- --- --<br>------- ------,83858.90000000596,83858.29999999702,83470.742,83483.20000000298,83487.407,83870.648,,8,of
screen,html.Screen,0_2_1_1_9,2021-11-05T12:23:10.214Z,,,,,,,,,,,,,,,,54,,,,,,,,,,,,,,307.6519999970187,,response,,,100,,,,,,Space,keypress(Space),,,,,-- --- ---- --- ------ ----- ------- ---- -- its ------- --<br>------- ---------- ------ -- ----- -- ----- -- ---- ------<br>--- ----- --- --- ------ -------- ----- --- ------ ----- --<br>----- ----- ---------- --- --- ------ ------ ---- -- ------<br>------- --- ------ ----- --- ---- ------- -- ---- --- --<br>------- ------,84178.90000000596,84178.29999999702,83853.984,83859.10000000894,83870.648,84187.415,,9,its
screen,html.Screen,0_2_1_1_10,2021-11-05T12:23:10.550Z,,,,,,,,,,,,,,,,54,,,,,,,,,,,,,,326.98500000596687,,response,,,100,,,,,,Space,keypress(Space),,,,,-- --- ---- --- ------ ----- ------- ---- -- --- revenue --<br>------- ---------- ------ -- ----- -- ----- -- ---- ------<br>--- ----- --- --- ------ -------- ----- --- ------ ----- --<br>----- ----- ---------- --- --- ------ ------ ---- -- ------<br>------- --- ------ ----- --- ---- ------- -- ---- --- --<br>------- ------,84515,84514.40000000596,84170.749,84179.20000000298,84187.415,84520.724,,10,revenue
screen,html.Screen,0_2_1_1_11,2021-11-05T12:23:10.894Z,,,,,,,,,,,,,,,,54,,,,,,,,,,,,,,337.47600000297825,,response,,,100,,,,,,Space,keypress(Space),,,,,-- --- ---- --- ------ ----- ------- ---- -- --- ------- by<br>------- ---------- ------ -- ----- -- ----- -- ---- ------<br>--- ----- --- --- ------ -------- ----- --- ------ ----- --<br>----- ----- ---------- --- --- ------ ------ ---- -- ------<br>------- --- ------ ----- --- ---- ------- -- ---- --- --<br>------- ------,84858.79999999702,84858.20000000298,84504.058,84515.10000000894,84520.724,84870.659,,11,by
screen,html.Screen,0_2_1_1_12,2021-11-05T12:23:11.198Z,,,,,,,,,,,,,,,,54,,,,,,,,,,,,,,291.7410000059608,,response,,,100,,,,,,Space,keypress(Space),,,,,-- --- ---- --- ------ ----- ------- ---- -- --- ------- --<br>issuing ---------- ------ -- ----- -- ----- -- ---- ------<br>--- ----- --- --- ------ -------- ----- --- ------ ----- --<br>----- ----- ---------- --- --- ------ ------ ---- -- ------<br>------- --- ------ ----- --- ---- ------- -- ---- --- --<br>------- ------,85162.90000000596,85162.40000000596,84853.994,84859,84870.659,85170.645,,12,issuing
screen,html.Screen,0_2_1_1_13,2021-11-05T12:23:11.494Z,,,,,,,,,,,,,,,,54,,,,,,,,,,,,,,287.55500000297616,,response,,,100,,,,,,Space,keypress(Space),,,,,-- --- ---- --- ------ ----- ------- ---- -- --- ------- --<br>------- government ------ -- ----- -- ----- -- ---- ------<br>--- ----- --- --- ------ -------- ----- --- ------ ----- --<br>----- ----- ---------- --- --- ------ ------ ---- -- ------<br>------- --- ------ ----- --- ---- ------- -- ---- --- --<br>------- ------,85458.79999999702,85458.20000000298,85153.98,85163.10000000894,85170.645,85470.667,,13,government
screen,html.Screen,0_2_1_1_14,2021-11-05T12:23:11.854Z,,,,,,,,,,,,,,,,54,,,,,,,,,,,,,,347.6329999970185,,response,,,100,,,,,,Space,keypress(Space),,,,,-- --- ---- --- ------ ----- ------- ---- -- --- ------- --<br>------- ---------- bonds. -- ----- -- ----- -- ---- ------<br>--- ----- --- --- ------ -------- ----- --- ------ ----- --<br>----- ----- ---------- --- --- ------ ------ ---- -- ------<br>------- --- ------ ----- --- ---- ------- -- ---- --- --<br>------- ------,85818.79999999702,85818.29999999702,85454.001,85459,85470.667,85820.617,,14,bonds.
screen,html.Screen,0_2_1_1_15,2021-11-05T12:23:12.318Z,,,,,,,,,,,,,,,,54,,,,,,,,,,,,,,461.58300000298186,,response,,,100,,,,,,Space,keypress(Space),,,,,-- --- ---- --- ------ ----- ------- ---- -- --- ------- --<br>------- ---------- ------ In ----- -- ----- -- ---- ------<br>--- ----- --- --- ------ -------- ----- --- ------ ----- --<br>----- ----- ---------- --- --- ------ ------ ---- -- ------<br>------- --- ------ ----- --- ---- ------- -- ---- --- --<br>------- ------,86282.79999999702,86282.20000000298,85803.952,85819,85820.617,86287.2,,15,In
screen,html.Screen,0_2_1_1_16,2021-11-05T12:23:12.846Z,,,,,,,,,,,,,,,,54,,,,,,,,,,,,,,523.0000000029831,,response,,,100,,,,,,Space,keypress(Space),,,,,"-- --- ---- --- ------ ----- ------- ---- -- --- ------- --<br>------- ---------- ------ -- 1727, -- ----- -- ---- ------<br>--- ----- --- --- ------ -------- ----- --- ------ ----- --<br>----- ----- ---------- --- --- ------ ------ ---- -- ------<br>------- --- ------ ----- --- ---- ------- -- ---- --- --<br>------- ------",86810.90000000596,86810.20000000298,86270.536,86283,86287.2,86820.553,,16,"1727,"
screen,html.Screen,0_2_1_1_17,2021-11-05T12:23:13.294Z,,,,,,,,,,,,,,,,54,,,,,,,,,,,,,,437.64700000298035,,response,,,100,,,,,,Space,keypress(Space),,,,,-- --- ---- --- ------ ----- ------- ---- -- --- ------- --<br>------- ---------- ------ -- ----- in ----- -- ---- ------<br>--- ----- --- --- ------ -------- ----- --- ------ ----- --<br>----- ----- ---------- --- --- ------ ------ ---- -- ------<br>------- --- ------ ----- --- ---- ------- -- ---- --- --<br>------- ------,87258.79999999702,87258.20000000298,86803.888,86811.10000000894,86820.553,87270.534,,17,in
screen,html.Screen,0_2_1_1_18,2021-11-05T12:23:13.669Z,,,,,,,,,,,,,,,,54,,,,,,,,,,,,,,363.56600000894105,,response,,,100,,,,,,Space,keypress(Space),,,,,-- --- ---- --- ------ ----- ------- ---- -- --- ------- --<br>------- ---------- ------ -- ----- -- order -- ---- ------<br>--- ----- --- --- ------ -------- ----- --- ------ ----- --<br>----- ----- ---------- --- --- ------ ------ ---- -- ------<br>------- --- ------ ----- --- ---- ------- -- ---- --- --<br>------- ------,87634.79999999702,87634.10000000894,87253.869,87258.90000000596,87270.534,87637.172,,18,order
screen,html.Screen,0_2_1_1_19,2021-11-05T12:23:14.014Z,,,,,,,,,,,,,,,,54,,,,,,,,,,,,,,341.0280000029743,,response,,,100,,,,,,Space,keypress(Space),,,,,-- --- ---- --- ------ ----- ------- ---- -- --- ------- --<br>------- ---------- ------ -- ----- -- ----- to ---- ------<br>--- ----- --- --- ------ -------- ----- --- ------ ----- --<br>----- ----- ---------- --- --- ------ ------ ---- -- ------<br>------- --- ------ ----- --- ---- ------- -- ---- --- --<br>------- ------,87978.79999999702,87978.20000000298,87620.507,87634.90000000596,87637.172,87987.154,,19,to
screen,html.Screen,0_2_1_1_20,2021-11-05T12:23:14.349Z,,,,,,,,,,,,,,,,54,,,,,,,,,,,,,,326.9460000089457,,response,,,100,,,,,,Space,keypress(Space),,,,,-- --- ---- --- ------ ----- ------- ---- -- --- ------- --<br>------- ---------- ------ -- ----- -- ----- -- save ------<br>--- ----- --- --- ------ -------- ----- --- ------ ----- --<br>----- ----- ---------- --- --- ------ ------ ---- -- ------<br>------- --- ------ ----- --- ---- ------- -- ---- --- --<br>------- ------,88314.70000000298,88314.10000000894,87970.489,87978.90000000596,87987.154,88320.48,,20,save
screen,html.Screen,0_2_1_1_21,2021-11-05T12:23:14.701Z,,,,,,,,,,,,,,,,54,,,,,,,,,,,,,,345.62000000894477,,response,,,100,,,,,,Space,keypress(Space),,,,,"-- --- ---- --- ------ ----- ------- ---- -- --- ------- --<br>------- ---------- ------ -- ----- -- ----- -- ---- money,<br>--- ----- --- --- ------ -------- ----- --- ------ ----- --<br>----- ----- ---------- --- --- ------ ------ ---- -- ------<br>------- --- ------ ----- --- ---- ------- -- ---- --- --<br>------- ------",88666.60000000894,88666.10000000894,88303.815,88314.79999999702,88320.48,88670.451,,21,"money,"
screen,html.Screen,0_2_1_1_22,2021-11-05T12:23:15.133Z,,,,,,,,,,,,,,,,54,,,,,,,,,,,,,,427.64900000893977,,response,,,100,,,,,,Space,keypress(Space),,,,,-- --- ---- --- ------ ----- ------- ---- -- --- ------- --<br>------- ---------- ------ -- ----- -- ----- -- ---- ------<br>the ----- --- --- ------ -------- ----- --- ------ ----- --<br>----- ----- ---------- --- --- ------ ------ ---- -- ------<br>------- --- ------ ----- --- ---- ------- -- ---- --- --<br>------- ------,89098.60000000894,89098.10000000894,88653.786,88666.90000000596,88670.451,89103.753,,22,the
screen,html.Screen,0_2_1_1_23,2021-11-05T12:23:15.453Z,,,,,,,,,,,,,,,,54,,,,,,,,,,,,,,314.247000000003,,response,,,100,,,,,,Space,keypress(Space),,,,,-- --- ---- --- ------ ----- ------- ---- -- --- ------- --<br>------- ---------- ------ -- ----- -- ----- -- ---- ------<br>--- state --- --- ------ -------- ----- --- ------ ----- --<br>----- ----- ---------- --- --- ------ ------ ---- -- ------<br>------- --- ------ ----- --- ---- ------- -- ---- --- --<br>------- ------,89418.60000000894,89418,89087.088,89098.90000000596,89103.753,89420.418,,23,state
screen,html.Screen,0_2_1_1_24,2021-11-05T12:23:15.798Z,,,,,,,,,,,,,,,,54,,,,,,,,,,,,,,341.6820000089356,,response,,,100,,,,,,Space,keypress(Space),,,,,-- --- ---- --- ------ ----- ------- ---- -- --- ------- --<br>------- ---------- ------ -- ----- -- ----- -- ---- ------<br>--- ----- cut --- ------ -------- ----- --- ------ ----- --<br>----- ----- ---------- --- --- ------ ------ ---- -- ------<br>------- --- ------ ----- --- ---- ------- -- ---- --- --<br>------- ------,89762.79999999702,89762.10000000894,89403.753,89418.79999999702,89420.418,89770.338,,24,cut
screen,html.Screen,0_2_1_1_25,2021-11-05T12:23:16.181Z,,,,,,,,,,,,,,,,54,,,,,,,,,,,,,,375.7620000089373,,response,,,100,,,,,,Space,keypress(Space),,,,,-- --- ---- --- ------ ----- ------- ---- -- --- ------- --<br>------- ---------- ------ -- ----- -- ----- -- ---- ------<br>--- ----- --- the ------ -------- ----- --- ------ ----- --<br>----- ----- ---------- --- --- ------ ------ ---- -- ------<br>------- --- ------ ----- --- ---- ------- -- ---- --- --<br>------- ------,90146.60000000894,90146.10000000894,89753.674,89763,89770.338,90153.63,,25,the
screen,html.Screen,0_2_1_1_26,2021-11-05T12:23:16.846Z,,,,,,,,,,,,,,,,54,,,,,,,,,,,,,,656.5700000029756,,response,,,100,,,,,,Space,keypress(Space),,,,,-- --- ---- --- ------ ----- ------- ---- -- --- ------- --<br>------- ---------- ------ -- ----- -- ----- -- ---- ------<br>--- ----- --- --- bonds' -------- ----- --- ------ ----- --<br>----- ----- ---------- --- --- ------ ------ ---- -- ------<br>------- --- ------ ----- --- ---- ------- -- ---- --- --<br>------- ------,90810.79999999702,90810.20000000298,90136.966,90146.79999999702,90153.63,90820.415,,26,bonds'
screen,html.Screen,0_2_1_1_27,2021-11-05T12:23:17.253Z,,,,,,,,,,,,,,,,54,,,,,,,,,,,,,,397.5850000000064,,response,,,100,,,,,,Space,keypress(Space),,,,,-- --- ---- --- ------ ----- ------- ---- -- --- ------- --<br>------- ---------- ------ -- ----- -- ----- -- ---- ------<br>--- ----- --- --- ------ interest ----- --- ------ ----- --<br>----- ----- ---------- --- --- ------ ------ ---- -- ------<br>------- --- ------ ----- --- ---- ------- -- ---- --- --<br>------- ------,91218.60000000894,91218,90803.748,90810.90000000596,90820.415,91220.222,,27,interest
screen,html.Screen,0_2_1_1_28,2021-11-05T12:23:17.613Z,,,,,,,,,,,,,,,,54,,,,,,,,,,,,,,357.7780000000057,,response,,,100,,,,,,Space,keypress(Space),,,,,-- --- ---- --- ------ ----- ------- ---- -- --- ------- --<br>------- ---------- ------ -- ----- -- ----- -- ---- ------<br>--- ----- --- --- ------ -------- rate. --- ------ ----- --<br>----- ----- ---------- --- --- ------ ------ ---- -- ------<br>------- --- ------ ----- --- ---- ------- -- ---- --- --<br>------- ------,91578.5,91578,91203.558,91218.70000000298,91220.222,91586.99,,28,rate.
screen,html.Screen,0_2_1_1_29,2021-11-05T12:23:17.989Z,,,,,,,,,,,,,,,,54,,,,,,,,,,,,,,366.9100000059552,,response,,,100,,,,,,Space,keypress(Space),,,,,-- --- ---- --- ------ ----- ------- ---- -- --- ------- --<br>------- ---------- ------ -- ----- -- ----- -- ---- ------<br>--- ----- --- --- ------ -------- ----- The ------ ----- --<br>----- ----- ---------- --- --- ------ ------ ---- -- ------<br>------- --- ------ ----- --- ---- ------- -- ---- --- --<br>------- ------,91954.40000000596,91953.90000000596,91570.324,91578.60000000894,91586.99,91970.266,,29,The
screen,html.Screen,0_2_1_1_30,2021-11-05T12:23:18.573Z,,,,,,,,,,,,,,,,54,,,,,,,,,,,,,,567.6340000059572,,response,,,100,,,,,,Space,keypress(Space),,,,,-- --- ---- --- ------ ----- ------- ---- -- --- ------- --<br>------- ---------- ------ -- ----- -- ----- -- ---- ------<br>--- ----- --- --- ------ -------- ----- --- market ----- --<br>----- ----- ---------- --- --- ------ ------ ---- -- ------<br>------- --- ------ ----- --- ---- ------- -- ---- --- --<br>------- ------,92538.5,92537.90000000596,91953.601,91954.60000000894,91970.266,92553.498,,30,market
screen,html.Screen,0_2_1_1_31,2021-11-05T12:23:19.045Z,,,,,,,,,,,,,,,,54,,,,,,,,,,,,,,456.3019999970129,,response,,,100,,,,,,Space,keypress(Space),,,,,-- --- ---- --- ------ ----- ------- ---- -- --- ------- --<br>------- ---------- ------ -- ----- -- ----- -- ---- ------<br>--- ----- --- --- ------ -------- ----- --- ------ value --<br>----- ----- ---------- --- --- ------ ------ ---- -- ------<br>------- --- ------ ----- --- ---- ------- -- ---- --- --<br>------- ------,93010.60000000894,93009.79999999702,92536.834,92538.70000000298,92553.498,93020.25,,31,value
screen,html.Screen,0_2_1_1_32,2021-11-05T12:23:19.437Z,,,,,,,,,,,,,,,,54,,,,,,,,,,,,,,381.65000000596046,,response,,,100,,,,,,Space,keypress(Space),,,,,-- --- ---- --- ------ ----- ------- ---- -- --- ------- --<br>------- ---------- ------ -- ----- -- ----- -- ---- ------<br>--- ----- --- --- ------ -------- ----- --- ------ ----- of<br>----- ----- ---------- --- --- ------ ------ ---- -- ------<br>------- --- ------ ----- --- ---- ------- -- ---- --- --<br>------- ------,93402.5,93401.90000000596,93003.584,93010.79999999702,93020.25,93403.459,,32,of
screen,html.Screen,0_2_1_1_33,2021-11-05T12:23:19.781Z,,,,,,,,,,,,,,,,54,,,,,,,,,,,,,,342.24100000297767,,response,,,100,,,,,,Space,keypress(Space),,,,,-- --- ---- --- ------ ----- ------- ---- -- --- ------- --<br>------- ---------- ------ -- ----- -- ----- -- ---- ------<br>--- ----- --- --- ------ -------- ----- --- ------ ----- --<br>these ----- ---------- --- --- ------ ------ ---- -- ------<br>------- --- ------ ----- --- ---- ------- -- ---- --- --<br>------- ------,93746.40000000596,93745.70000000298,93386.795,93402.70000000298,93403.459,93753.545,,33,these
screen,html.Screen,0_2_1_1_34,2021-11-05T12:23:20.133Z,,,,,,,,,,,,,,,,54,,,,,,,,,,,,,,344.2549999970215,,response,,,100,,,,,,Space,keypress(Space),,,,,-- --- ---- --- ------ ----- ------- ---- -- --- ------- --<br>------- ---------- ------ -- ----- -- ----- -- ---- ------<br>--- ----- --- --- ------ -------- ----- --- ------ ----- --<br>----- bonds ---------- --- --- ------ ------ ---- -- ------<br>------- --- ------ ----- --- ---- ------- -- ---- --- --<br>------- ------,94098.5,94097.79999999702,93736.879,93746.70000000298,93753.545,94103.424,,34,bonds
screen,html.Screen,0_2_1_1_35,2021-11-05T12:23:20.557Z,,,,,,,,,,,,,,,,54,,,,,,,,,,,,,,418.27600000298116,,response,,,100,,,,,,Space,keypress(Space),,,,,"-- --- ---- --- ------ ----- ------- ---- -- --- ------- --<br>------- ---------- ------ -- ----- -- ----- -- ---- ------<br>--- ----- --- --- ------ -------- ----- --- ------ ----- --<br>----- ----- plummeted, --- --- ------ ------ ---- -- ------<br>------- --- ------ ----- --- ---- ------- -- ---- --- --<br>------- ------",94522.29999999702,94521.70000000298,94086.76,94098.70000000298,94103.424,94536.768,,35,"plummeted,"
screen,html.Screen,0_2_1_1_36,2021-11-05T12:23:20.901Z,,,,,,,,,,,,,,,,54,,,,,,,,,,,,,,329.0319999970234,,response,,,100,,,,,,Space,keypress(Space),,,,,-- --- ---- --- ------ ----- ------- ---- -- --- ------- --<br>------- ---------- ------ -- ----- -- ----- -- ---- ------<br>--- ----- --- --- ------ -------- ----- --- ------ ----- --<br>----- ----- ---------- and --- ------ ------ ---- -- ------<br>------- --- ------ ----- --- ---- ------- -- ---- --- --<br>------- ------,94866.40000000596,94865.79999999702,94520.103,94522.5,94536.768,94870.095,,36,and
screen,html.Screen,0_2_1_1_37,2021-11-05T12:23:21.213Z,,,,,,,,,,,,,,,,54,,,,,,,,,,,,,,307.7049999970186,,response,,,100,,,,,,Space,keypress(Space),,,,,-- --- ---- --- ------ ----- ------- ---- -- --- ------- --<br>------- ---------- ------ -- ----- -- ----- -- ---- ------<br>--- ----- --- --- ------ -------- ----- --- ------ ----- --<br>----- ----- ---------- --- the ------ ------ ---- -- ------<br>------- --- ------ ----- --- ---- ------- -- ---- --- --<br>------- ------,95178.29999999702,95177.79999999702,94853.43,94866.70000000298,94870.095,95186.8,,37,the
screen,html.Screen,0_2_1_1_38,2021-11-05T12:23:21.525Z,,,,,,,,,,,,,,,,54,,,,,,,,,,,,,,302.9000000029773,,response,,,100,,,,,,Space,keypress(Space),,,,,-- --- ---- --- ------ ----- ------- ---- -- --- ------- --<br>------- ---------- ------ -- ----- -- ----- -- ---- ------<br>--- ----- --- --- ------ -------- ----- --- ------ ----- --<br>----- ----- ---------- --- --- market ------ ---- -- ------<br>------- --- ------ ----- --- ---- ------- -- ---- --- --<br>------- ------,95490.29999999702,95489.70000000298,95170.134,95178.40000000596,95186.8,95503.371,,38,market
screen,html.Screen,0_2_1_1_39,2021-11-05T12:23:21.829Z,,,,,,,,,,,,,,,,54,,,,,,,,,,,,,,290.32900000298105,,response,,,100,,,,,,Space,keypress(Space),,,,,-- --- ---- --- ------ ----- ------- ---- -- --- ------- --<br>------- ---------- ------ -- ----- -- ----- -- ---- ------<br>--- ----- --- --- ------ -------- ----- --- ------ ----- --<br>----- ----- ---------- --- --- ------ became ---- -- ------<br>------- --- ------ ----- --- ---- ------- -- ---- --- --<br>------- ------,95794.20000000298,95793.70000000298,95486.707,95490.5,95503.371,95803.431,,39,became
screen,html.Screen,0_2_1_1_40,2021-11-05T12:23:22.149Z,,,,,,,,,,,,,,,,54,,,,,,,,,,,,,,310.2690000029834,,response,,,100,,,,,,Space,keypress(Space),,,,,-- --- ---- --- ------ ----- ------- ---- -- --- ------- --<br>------- ---------- ------ -- ----- -- ----- -- ---- ------<br>--- ----- --- --- ------ -------- ----- --- ------ ----- --<br>----- ----- ---------- --- --- ------ ------ wary -- ------<br>------- --- ------ ----- --- ---- ------- -- ---- --- --<br>------- ------,96114.29999999702,96113.70000000298,95786.765,95794.5,95803.431,96119.981,,40,wary
screen,html.Screen,0_2_1_1_41,2021-11-05T12:23:22.485Z,,,,,,,,,,,,,,,,54,,,,,,,,,,,,,,329.71900000298047,,response,,,100,,,,,,Space,keypress(Space),,,,,-- --- ---- --- ------ ----- ------- ---- -- --- ------- --<br>------- ---------- ------ -- ----- -- ----- -- ---- ------<br>--- ----- --- --- ------ -------- ----- --- ------ ----- --<br>----- ----- ---------- --- --- ------ ------ ---- of ------<br>------- --- ------ ----- --- ---- ------- -- ---- --- --<br>------- ------,96450.20000000298,96449.70000000298,96103.317,96114.40000000596,96119.981,96453.341,,41,of
screen,html.Screen,0_2_1_1_42,2021-11-05T12:23:22.877Z,,,,,,,,,,,,,,,,54,,,,,,,,,,,,,,388.25900000894035,,response,,,100,,,,,,Space,keypress(Space),,,,,-- --- ---- --- ------ ----- ------- ---- -- --- ------- --<br>------- ---------- ------ -- ----- -- ----- -- ---- ------<br>--- ----- --- --- ------ -------- ----- --- ------ ----- --<br>----- ----- ---------- --- --- ------ ------ ---- -- French<br>------- --- ------ ----- --- ---- ------- -- ---- --- --<br>------- ------,96842.20000000298,96841.60000000894,96436.676,96450.40000000596,96453.341,96853.308,,42,French
screen,html.Screen,0_2_1_1_43,2021-11-05T12:23:23.237Z,,,,,,,,,,,,,,,,54,,,,,,,,,,,,,,348.29200000893616,,response,,,100,,,,,,Space,keypress(Space),,,,,-- --- ---- --- ------ ----- ------- ---- -- --- ------- --<br>------- ---------- ------ -- ----- -- ----- -- ---- ------<br>--- ----- --- --- ------ -------- ----- --- ------ ----- --<br>----- ----- ---------- --- --- ------ ------ ---- -- ------<br>credit. --- ------ ----- --- ---- ------- -- ---- --- --<br>------- ------,97202.20000000298,97201.60000000894,96836.643,96842.29999999702,96853.308,97203.291,,43,credit.
screen,html.Screen,0_2_1_1_44,2021-11-05T12:23:23.581Z,,,,,,,,,,,,,,,,54,,,,,,,,,,,,,,342.4090000029828,,response,,,100,,,,,,Space,keypress(Space),,,,,-- --- ---- --- ------ ----- ------- ---- -- --- ------- --<br>------- ---------- ------ -- ----- -- ----- -- ---- ------<br>--- ----- --- --- ------ -------- ----- --- ------ ----- --<br>----- ----- ---------- --- --- ------ ------ ---- -- ------<br>------- The ------ ----- --- ---- ------- -- ---- --- --<br>------- ------,97546.29999999702,97545.70000000298,97186.626,97202.40000000596,97203.291,97553.273,,44,The
screen,html.Screen,0_2_1_1_45,2021-11-05T12:23:23.869Z,,,,,,,,,,,,,,,,54,,,,,,,,,,,,,,280.32700000893965,,response,,,100,,,,,,Space,keypress(Space),,,,,-- --- ---- --- ------ ----- ------- ---- -- --- ------- --<br>------- ---------- ------ -- ----- -- ----- -- ---- ------<br>--- ----- --- --- ------ -------- ----- --- ------ ----- --<br>----- ----- ---------- --- --- ------ ------ ---- -- ------<br>------- --- French ----- --- ---- ------- -- ---- --- --<br>------- ------,97834.20000000298,97833.60000000894,97536.608,97546.5,97553.273,97836.601,,45,French
screen,html.Screen,0_2_1_1_46,2021-11-05T12:23:24.109Z,,,,,,,,,,,,,,,,54,,,,,,,,,,,,,,236.8990000000049,,response,,,100,,,,,,Space,keypress(Space),,,,,-- --- ---- --- ------ ----- ------- ---- -- --- ------- --<br>------- ---------- ------ -- ----- -- ----- -- ---- ------<br>--- ----- --- --- ------ -------- ----- --- ------ ----- --<br>----- ----- ---------- --- --- ------ ------ ---- -- ------<br>------- --- ------ state --- ---- ------- -- ---- --- --<br>------- ------,98074.20000000298,98073.5,97819.936,97834.29999999702,97836.601,98086.584,,46,state
screen,html.Screen,0_2_1_1_47,2021-11-05T12:23:24.397Z,,,,,,,,,,,,,,,,54,,,,,,,,,,,,,,274.91599999999744,,response,,,100,,,,,,Space,keypress(Space),,,,,-- --- ---- --- ------ ----- ------- ---- -- --- ------- --<br>------- ---------- ------ -- ----- -- ----- -- ---- ------<br>--- ----- --- --- ------ -------- ----- --- ------ ----- --<br>----- ----- ---------- --- --- ------ ------ ---- -- ------<br>------- --- ------ ----- was ---- ------- -- ---- --- --<br>------- ------,98362.10000000894,98361.5,98069.919,98074.29999999702,98086.584,98369.978,,47,was
screen,html.Screen,0_2_1_1_48,2021-11-05T12:23:24.693Z,,,,,,,,,,,,,,,,54,,,,,,,,,,,,,,287.821999997017,,response,,,100,,,,,,Space,keypress(Space),,,,,-- --- ---- --- ------ ----- ------- ---- -- --- ------- --<br>------- ---------- ------ -- ----- -- ----- -- ---- ------<br>--- ----- --- --- ------ -------- ----- --- ------ ----- --<br>----- ----- ---------- --- --- ------ ------ ---- -- ------<br>------- --- ------ ----- --- left ------- -- ---- --- --<br>------- ------,98658.5,98657.79999999702,98353.311,98362.29999999702,98369.978,98669.913,,48,left
screen,html.Screen,0_2_1_1_49,2021-11-05T12:23:24.989Z,,,,,,,,,,,,,,,,54,,,,,,,,,,,,,,283.68700000894023,,response,,,100,,,,,,Space,keypress(Space),,,,,-- --- ---- --- ------ ----- ------- ---- -- --- ------- --<br>------- ---------- ------ -- ----- -- ----- -- ---- ------<br>--- ----- --- --- ------ -------- ----- --- ------ ----- --<br>----- ----- ---------- --- --- ------ ------ ---- -- ------<br>------- --- ------ ----- --- ---- without -- ---- --- --<br>------- ------,98954.10000000894,98953.60000000894,98653.248,98658.70000000298,98669.913,98969.901,,49,without
screen,html.Screen,0_2_1_1_50,2021-11-05T12:23:25.285Z,,,,,,,,,,,,,,,,54,,,,,,,,,,,,,,279.599000000002,,response,,,100,,,,,,Space,keypress(Space),,,,,-- --- ---- --- ------ ----- ------- ---- -- --- ------- --<br>------- ---------- ------ -- ----- -- ----- -- ---- ------<br>--- ----- --- --- ------ -------- ----- --- ------ ----- --<br>----- ----- ---------- --- --- ------ ------ ---- -- ------<br>------- --- ------ ----- --- ---- ------- an ---- --- --<br>------- ------,99250.10000000894,99249.5,98953.236,98954.29999999702,98969.901,99253.172,,50,an
screen,html.Screen,0_2_1_1_51,2021-11-05T12:23:25.621Z,,,,,,,,,,,,,,,,54,,,,,,,,,,,,,,332.32799999999406,,response,,,100,,,,,,Space,keypress(Space),,,,,-- --- ---- --- ------ ----- ------- ---- -- --- ------- --<br>------- ---------- ------ -- ----- -- ----- -- ---- ------<br>--- ----- --- --- ------ -------- ----- --- ------ ----- --<br>----- ----- ---------- --- --- ------ ------ ---- -- ------<br>------- --- ------ ----- --- ---- ------- -- easy --- --<br>------- ------,99586.10000000894,99585.5,99236.508,99250.29999999702,99253.172,99603.178,,51,easy
screen,html.Screen,0_2_1_1_52,2021-11-05T12:23:26.021Z,,,,,,,,,,,,,,,,54,,,,,,,,,,,,,,382.2220000059606,,response,,,100,,,,,,Space,keypress(Space),,,,,-- --- ---- --- ------ ----- ------- ---- -- --- ------- --<br>------- ---------- ------ -- ----- -- ----- -- ---- ------<br>--- ----- --- --- ------ -------- ----- --- ------ ----- --<br>----- ----- ---------- --- --- ------ ------ ---- -- ------<br>------- --- ------ ----- --- ---- ------- -- ---- way --<br>------- ------,99986.10000000894,99985.40000000596,99586.513,99586.20000000298,99603.178,100003.093,,52,way
screen,html.Screen,0_2_1_1_53,2021-11-05T12:23:26.349Z,,,,,,,,,,,,,,,,54,,,,,,,,,,,,,,310.307000005967,,response,,,100,,,,,,Space,keypress(Space),,,,,-- --- ---- --- ------ ----- ------- ---- -- --- ------- --<br>------- ---------- ------ -- ----- -- ----- -- ---- ------<br>--- ----- --- --- ------ -------- ----- --- ------ ----- --<br>----- ----- ---------- --- --- ------ ------ ---- -- ------<br>------- --- ------ ----- --- ---- ------- -- ---- --- of<br>------- ------,100314,100313.40000000596,99986.429,99986.20000000298,100003.093,100319.86,,53,of
screen,html.Screen,0_2_1_1_54,2021-11-05T12:23:26.637Z,,,,,,,,,,,,,,,,54,,,,,,,,,,,,,,281.5400000059599,,response,,,100,,,,,,Space,keypress(Space),,,,,-- --- ---- --- ------ ----- ------- ---- -- --- ------- --<br>------- ---------- ------ -- ----- -- ----- -- ---- ------<br>--- ----- --- --- ------ -------- ----- --- ------ ----- --<br>----- ----- ---------- --- --- ------ ------ ---- -- ------<br>------- --- ------ ----- --- ---- ------- -- ---- --- --<br>raising ------,100602.10000000894,100601.40000000596,100303.194,100314.10000000894,100319.86,100603.143,,54,raising
screen,html.Screen,0_2_1_1_55,2021-11-05T12:23:26.965Z,,,,,,,,,,,,,,,,54,,,,,,,,,,,,,,326.4570000089443,,response,,,100,,,,,,Space,keypress(Space),,,,,-- --- ---- --- ------ ----- ------- ---- -- --- ------- --<br>------- ---------- ------ -- ----- -- ----- -- ---- ------<br>--- ----- --- --- ------ -------- ----- --- ------ ----- --<br>----- ----- ---------- --- --- ------ ------ ---- -- ------<br>------- --- ------ ----- --- ---- ------- -- ---- --- --<br>------- money.,100930.20000000298,100929.60000000894,100586.478,100602.20000000298,100603.143,100936.437,,55,money.
Item 100,flow.Loop,0_2_1_1,2021-11-05T12:23:26.965Z,,,,,,,,,,,,,,,,,,,,,,,,,,,,,,20892.06200000894,,completion,,,,A,,,,,,,,,,silence,,100930.5,100929.60000000894,80020.873,80021.60000000894,80037.538,100936.437,,,
Question 1,html.Screen,0_2_1_2,2021-11-05T12:23:30.149Z,,,,,,,,,,,,,,,,,,,,,,,,,,,true,TRUE,,3177.263000002975,,response,,,100,A,,,,,TRUE,click #choice-1,,,,silence,,104114.40000000596,104113.70000000298,100919.772,100930.60000000894,100936.437,104119.668,,,
Question 2,html.Screen,0_2_1_3,2021-11-05T12:23:32.165Z,,,,,,,,,,,,,,,,,,,,,,,,,,,true,FALSE,,2009.7320000059553,,response,,,100,A,,,,,FALSE,click #choice-2,,,,silence,,106130.29999999702,106129.40000000596,104102.999,104114.60000000894,104119.668,106136.138,,,
Item 100,flow.Sequence,0_2_1,2021-11-05T12:23:32.165Z,,,,,,,,,,,,,,,,,,,,,,,,,,,,,,36091.289000005956,,completion,,,,,,,,,,,,,,,,106130.60000000894,106129.40000000596,70021.446,70026.20000000298,70038.111,106136.138,,,
End of Practice,html.Page,0_2_2,2021-11-05T12:23:36.468Z,,,,,,,,,,,,,,,,,,,,,,,,,,,,,,4296.462000008934,,form submission,,,,,,,,,,,,,,,,110433,110432.60000000894,106119.473,106130.70000000298,106136.138,110436.078,,,
Practice,flow.Sequence,0_2,2021-11-05T12:23:36.468Z,,,,,,,,,,,,,,,,,,,,,,,,,,,,,,80325.50500000894,,completion,,,,,,,,,,,,,,,,110433.40000000596,110432.60000000894,30090.429,30096.90000000596,30107.095,110436.078,,,
Trap_instruction,html.Page,0_3_0,2021-11-05T12:23:40.687Z,,,,,,,,,,,,,,,,,,,,,,,,,,,,,,4215.622000002986,,form submission,,,,,,,,,,,,,,,,114652.10000000894,114651.70000000298,110419.406,110433.60000000894,110436.078,114668.919,,,
trap_trial,html.Screen,0_3_1,2021-11-05T12:23:44.353Z,,,,,,,,,,,,,,,,,,,,,,,,,,,true,1,,3647.981000005966,,response,,,,,,,,,1,click #choice-1,,,,,,118317.79999999702,118316.90000000596,114635.589,114652.20000000298,114668.919,118331.69,,,
end of trap trial,html.Page,0_3_2,2021-11-05T12:23:45.926Z,,,,,,,,,,,,,,,,,,,,,,,,,,,,,,1559.1099999970174,,form submission,,,,,,,,,,,,,,,,119891.20000000298,119890.79999999702,118315.042,118318,118331.69,119902.393,,,
Trap 1,flow.Sequence,0_3,2021-11-05T12:23:45.926Z,,,,,,,,,,,,,,,,,,,,,,,,,,,,,,9454.721999997026,,completion,,,,,,,,,,,,,,,,119891.40000000596,119890.79999999702,110419.406,110433.40000000596,110436.078,119902.393,,,
Standby,html.Page,0_4_0,2021-11-05T12:23:53.923Z,,,,,,,,,,,,,,,,,,,,,,,,,,,,,,7998.876000000004,,timeout,,,,,,,,,,,,,,,,127885.20000000298,127884.604,119885.709,119891.60000000894,119902.393,127901.269,,,
Holding screen,html.Screen,0_4_1_0_0,2021-11-05T12:24:00.923Z,,,,,,,,,,,,,,,,,,,,,,,,,,,,,,6999.926000000007,,timeout,,,,,,,,,,,,,,,,134885.29999999702,134884.53,127884.604,127885.60000000894,127901.269,134901.195,,,
screen,html.Screen,0_4_1_0_1_0,2021-11-05T12:24:01.670Z,,,,,,,,,,,,,,,,2,,,,,,,,,,,,,,730.7050000059535,,response,,,1,A,,,,,Space,keypress(Space),,,,silence,Two ---- ------ --- ------- ---------- ------- ----------<br>--- --------- --- ----------- ------- ----- ------- ---<br>--------- ---- -- --- ---- -- --------- -- ---- -------<br>-- --------- ------ --- ----- ------ ---- --- --------- --<br>------ - ---- -- --- ----------- ------- ---- ----- -----<br>--- -------- - ------ ---- -- ----- ---- --- --- -----------<br>-- -------,135632.70000000298,135631.90000000596,134884.53,134885.60000000894,134901.195,135634.5,,0,Two
screen,html.Screen,0_4_1_0_1_1,2021-11-05T12:24:02.126Z,,,,,,,,,,,,,,,,2,,,,,,,,,,,,,,453,,response,,,1,A,,,,,Space,keypress(Space),,,,silence,--- days ------ --- ------- ---------- ------- ----------<br>--- --------- --- ----------- ------- ----- ------- ---<br>--------- ---- -- --- ---- -- --------- -- ---- -------<br>-- --------- ------ --- ----- ------ ---- --- --------- --<br>------ - ---- -- --- ----------- ------- ---- ----- -----<br>--- -------- - ------ ---- -- ----- ---- --- --- -----------<br>-- -------,136088.10000000894,136087.5,135617.835,135632.90000000596,135634.5,136101.123,,1,days
screen,html.Screen,0_4_1_0_1_2,2021-11-05T12:24:02.534Z,,,,,,,,,,,,,,,,2,,,,,,,,,,,,,,394.27700000596815,,response,,,1,A,,,,,Space,keypress(Space),,,,silence,"--- ---- later, --- ------- ---------- ------- ----------<br>--- --------- --- ----------- ------- ----- ------- ---<br>--------- ---- -- --- ---- -- --------- -- ---- -------<br>-- --------- ------ --- ----- ------ ---- --- --------- --<br>------ - ---- -- --- ----------- ------- ---- ----- -----<br>--- -------- - ------ ---- -- ----- ---- --- --- -----------<br>-- -------",136496.10000000894,136495.40000000596,136084.458,136088.29999999702,136101.123,136501.121,,2,"later,"
screen,html.Screen,0_4_1_0_1_3,2021-11-05T12:24:02.982Z,,,,,,,,,,,,,,,,2,,,,,,,,,,,,,,442.2790000059467,,response,,,1,A,,,,,Space,keypress(Space),,,,silence,--- ---- ------ the ------- ---------- ------- ----------<br>--- --------- --- ----------- ------- ----- ------- ---<br>--------- ---- -- --- ---- -- --------- -- ---- -------<br>-- --------- ------ --- ----- ------ ---- --- --------- --<br>------ - ---- -- --- ----------- ------- ---- ----- -----<br>--- -------- - ------ ---- -- ----- ---- --- --- -----------<br>-- -------,136944.10000000894,136943.40000000596,136484.456,136496.29999999702,136501.121,136951.017,,3,the
screen,html.Screen,0_4_1_0_1_4,2021-11-05T12:24:03.398Z,,,,,,,,,,,,,,,,2,,,,,,,,,,,,,,408.3830000059679,,response,,,1,A,,,,,Space,keypress(Space),,,,silence,--- ---- ------ --- British ---------- ------- ----------<br>--- --------- --- ----------- ------- ----- ------- ---<br>--------- ---- -- --- ---- -- --------- -- ---- -------<br>-- --------- ------ --- ----- ------ ---- --- --------- --<br>------ - ---- -- --- ----------- ------- ---- ----- -----<br>--- -------- - ------ ---- -- ----- ---- --- --- -----------<br>-- -------,137360,137359.40000000596,136934.353,136944.29999999702,136951.017,137367.779,,4,British
screen,html.Screen,0_4_1_0_1_5,2021-11-05T12:24:03.765Z,,,,,,,,,,,,,,,,2,,,,,,,,,,,,,,359.6210000059509,,response,,,1,A,,,,,Space,keypress(Space),,,,silence,--- ---- ------ --- ------- astronomer ------- ----------<br>--- --------- --- ----------- ------- ----- ------- ---<br>--------- ---- -- --- ---- -- --------- -- ---- -------<br>-- --------- ------ --- ----- ------ ---- --- --------- --<br>------ - ---- -- --- ----------- ------- ---- ----- -----<br>--- -------- - ------ ---- -- ----- ---- --- --- -----------<br>-- -------,137727.90000000596,137727.40000000596,137351.113,137360.10000000894,137367.779,137734.396,,5,astronomer
screen,html.Screen,0_4_1_0_1_6,2021-11-05T12:24:04.213Z,,,,,,,,,,,,,,,,2,,,,,,,,,,,,,,440.90399999701185,,response,,,1,A,,,,,Space,keypress(Space),,,,silence,--- ---- ------ --- ------- ---------- Richard ----------<br>--- --------- --- ----------- ------- ----- ------- ---<br>--------- ---- -- --- ---- -- --------- -- ---- -------<br>-- --------- ------ --- ----- ------ ---- --- --------- --<br>------ - ---- -- --- ----------- ------- ---- ----- -----<br>--- -------- - ------ ---- -- ----- ---- --- --- -----------<br>-- -------,138175.90000000596,138175.29999999702,137717.731,137728.20000000298,137734.396,138184.424,,6,Richard
screen,html.Screen,0_4_1_0_1_7,2021-11-05T12:24:04.789Z,,,,,,,,,,,,,,,,2,,,,,,,,,,,,,,566.9760000059614,,response,,,1,A,,,,,Space,keypress(Space),,,,silence,--- ---- ------ --- ------- ---------- ------- Carrington<br>--- --------- --- ----------- ------- ----- ------- ---<br>--------- ---- -- --- ---- -- --------- -- ---- -------<br>-- --------- ------ --- ----- ------ ---- --- --------- --<br>------ - ---- -- --- ----------- ------- ---- ----- -----<br>--- -------- - ------ ---- -- ----- ---- --- --- -----------<br>-- -------,138752,138751.40000000596,138167.758,138176.20000000298,138184.424,138767.514,,7,Carrington
screen,html.Screen,0_4_1_0_1_8,2021-11-05T12:24:05.141Z,,,,,,,,,,,,,,,,2,,,,,,,,,,,,,,335.7859999970242,,response,,,1,A,,,,,Space,keypress(Space),,,,silence,--- ---- ------ --- ------- ---------- ------- ----------<br>was --------- --- ----------- ------- ----- ------- ---<br>--------- ---- -- --- ---- -- --------- -- ---- -------<br>-- --------- ------ --- ----- ------ ---- --- --------- --<br>------ - ---- -- --- ----------- ------- ---- ----- -----<br>--- -------- - ------ ---- -- ----- ---- --- --- -----------<br>-- -------,139103.90000000596,139103.29999999702,138750.851,138752.10000000894,138767.514,139117.696,,8,was
screen,html.Screen,0_4_1_0_1_9,2021-11-05T12:24:05.645Z,,,,,,,,,,,,,,,,2,,,,,,,,,,,,,,489.6039999970235,,response,,,1,A,,,,,Space,keypress(Space),,,,silence,--- ---- ------ --- ------- ---------- ------- ----------<br>--- observing --- ----------- ------- ----- ------- ---<br>--------- ---- -- --- ---- -- --------- -- ---- -------<br>-- --------- ------ --- ----- ------ ---- --- --------- --<br>------ - ---- -- --- ----------- ------- ---- ----- -----<br>--- -------- - ------ ---- -- ----- ---- --- --- -----------<br>-- -------,139607.90000000596,139607.29999999702,139101.03,139104,139117.696,139617.677,,9,observing
screen,html.Screen,0_4_1_0_1_10,2021-11-05T12:24:06.069Z,,,,,,,,,,,,,,,,2,,,,,,,,,,,,,,413.5230000029842,,response,,,1,A,,,,,Space,keypress(Space),,,,silence,--- ---- ------ --- ------- ---------- ------- ----------<br>--- --------- the ----------- ------- ----- ------- ---<br>--------- ---- -- --- ---- -- --------- -- ---- -------<br>-- --------- ------ --- ----- ------ ---- --- --------- --<br>------ - ---- -- --- ----------- ------- ---- ----- -----<br>--- -------- - ------ ---- -- ----- ---- --- --- -----------<br>-- -------,140031.79999999702,140031.20000000298,139601.011,139608.10000000894,139617.677,140034.266,,10,the
screen,html.Screen,0_4_1_0_1_11,2021-11-05T12:24:06.405Z,,,,,,,,,,,,,,,,2,,,,,,,,,,,,,,332.934000002977,,response,,,1,A,,,,,Space,keypress(Space),,,,silence,--- ---- ------ --- ------- ---------- ------- ----------<br>--- --------- --- interesting ------- ----- ------- ---<br>--------- ---- -- --- ---- -- --------- -- ---- -------<br>-- --------- ------ --- ----- ------ ---- --- --------- --<br>------ - ---- -- --- ----------- ------- ---- ----- -----<br>--- -------- - ------ ---- -- ----- ---- --- --- -----------<br>-- -------,140367.79999999702,140367.20000000298,140017.601,140032.20000000298,140034.266,140384.273,,11,interesting
screen,html.Screen,0_4_1_0_1_12,2021-11-05T12:24:06.749Z,,,,,,,,,,,,,,,,2,,,,,,,,,,,,,,326.92700000299374,,response,,,1,A,,,,,Space,keypress(Space),,,,silence,--- ---- ------ --- ------- ---------- ------- ----------<br>--- --------- --- ----------- sunspot ----- ------- ---<br>--------- ---- -- --- ---- -- --------- -- ---- -------<br>-- --------- ------ --- ----- ------ ---- --- --------- --<br>------ - ---- -- --- ----------- ------- ---- ----- -----<br>--- -------- - ------ ---- -- ----- ---- --- --- -----------<br>-- -------,140711.79999999702,140711.20000000298,140367.608,140368.10000000894,140384.273,140717.59,,12,sunspot
screen,html.Screen,0_4_1_0_1_13,2021-11-05T12:24:07.221Z,,,,,,,,,,,,,,,,2,,,,,,,,,,,,,,465.6100000029837,,response,,,1,A,,,,,Space,keypress(Space),,,,silence,--- ---- ------ --- ------- ---------- ------- ----------<br>--- --------- --- ----------- ------- group ------- ---<br>--------- ---- -- --- ---- -- --------- -- ---- -------<br>-- --------- ------ --- ----- ------ ---- --- --------- --<br>------ - ---- -- --- ----------- ------- ---- ----- -----<br>--- -------- - ------ ---- -- ----- ---- --- --- -----------<br>-- -------,141183.79999999702,141183.20000000298,140700.925,140711.90000000596,140717.59,141200.885,,13,group
screen,html.Screen,0_4_1_0_1_14,2021-11-05T12:24:07.597Z,,,,,,,,,,,,,,,,2,,,,,,,,,,,,,,358.3150000029709,,response,,,1,A,,,,,Space,keypress(Space),,,,silence,--- ---- ------ --- ------- ---------- ------- ----------<br>--- --------- --- ----------- ------- ----- through ---<br>--------- ---- -- --- ---- -- --------- -- ---- -------<br>-- --------- ------ --- ----- ------ ---- --- --------- --<br>------ - ---- -- --- ----------- ------- ---- ----- -----<br>--- -------- - ------ ---- -- ----- ---- --- --- -----------<br>-- -------,141559.70000000298,141559.20000000298,141184.22,141184,141200.885,141567.529,,14,through
screen,html.Screen,0_4_1_0_1_15,2021-11-05T12:24:07.997Z,,,,,,,,,,,,,,,,2,,,,,,,,,,,,,,391.6710000029707,,response,,,1,A,,,,,Space,keypress(Space),,,,silence,--- ---- ------ --- ------- ---------- ------- ----------<br>--- --------- --- ----------- ------- ----- ------- his<br>--------- ---- -- --- ---- -- --------- -- ---- -------<br>-- --------- ------ --- ----- ------ ---- --- --------- --<br>------ - ---- -- --- ----------- ------- ---- ----- -----<br>--- -------- - ------ ---- -- ----- ---- --- --- -----------<br>-- -------,141959.70000000298,141959.20000000298,141550.864,141559.90000000596,141567.529,141967.451,,15,his
screen,html.Screen,0_4_1_0_1_16,2021-11-05T12:24:08.349Z,,,,,,,,,,,,,,,,2,,,,,,,,,,,,,,343.7490000029793,,response,,,1,A,,,,,Space,keypress(Space),,,,silence,--- ---- ------ --- ------- ---------- ------- ----------<br>--- --------- --- ----------- ------- ----- ------- ---<br>telescope ---- -- --- ---- -- --------- -- ---- -------<br>-- --------- ------ --- ----- ------ ---- --- --------- --<br>------ - ---- -- --- ----------- ------- ---- ----- -----<br>--- -------- - ------ ---- -- ----- ---- --- --- -----------<br>-- -------,142311.70000000298,142311.20000000298,141950.787,141959.90000000596,141967.451,142317.464,,16,telescope
screen,html.Screen,0_4_1_0_1_17,2021-11-05T12:24:08.693Z,,,,,,,,,,,,,,,,2,,,,,,,,,,,,,,337.6360000089335,,response,,,1,A,,,,,Space,keypress(Space),,,,silence,--- ---- ------ --- ------- ---------- ------- ----------<br>--- --------- --- ----------- ------- ----- ------- ---<br>--------- when -- --- ---- -- --------- -- ---- -------<br>-- --------- ------ --- ----- ------ ---- --- --------- --<br>------ - ---- -- --- ----------- ------- ---- ----- -----<br>--- -------- - ------ ---- -- ----- ---- --- --- -----------<br>-- -------,142655.70000000298,142655.10000000894,142300.799,142311.90000000596,142317.464,142667.455,,17,when
screen,html.Screen,0_4_1_0_1_18,2021-11-05T12:24:09.181Z,,,,,,,,,,,,,,,,2,,,,,,,,,,,,,,475.5450000000128,,response,,,1,A,,,,,Space,keypress(Space),,,,silence,--- ---- ------ --- ------- ---------- ------- ----------<br>--- --------- --- ----------- ------- ----- ------- ---<br>--------- ---- he --- ---- -- --------- -- ---- -------<br>-- --------- ------ --- ----- ------ ---- --- --------- --<br>------ - ---- -- --- ----------- ------- ---- ----- -----<br>--- -------- - ------ ---- -- ----- ---- --- --- -----------<br>-- -------,143143.60000000894,143143,142650.79,142655.90000000596,142667.455,143150.758,,18,he
screen,html.Screen,0_4_1_0_1_19,2021-11-05T12:24:09.533Z,,,,,,,,,,,,,,,,2,,,,,,,,,,,,,,344.24199999999837,,response,,,1,A,,,,,Space,keypress(Space),,,,silence,--- ---- ------ --- ------- ---------- ------- ----------<br>--- --------- --- ----------- ------- ----- ------- ---<br>--------- ---- -- saw ---- -- --------- -- ---- -------<br>-- --------- ------ --- ----- ------ ---- --- --------- --<br>------ - ---- -- --- ----------- ------- ---- ----- -----<br>--- -------- - ------ ---- -- ----- ---- --- --- -----------<br>-- -------,143495.60000000894,143495,143134.093,143143.70000000298,143150.758,143500.654,,19,saw
screen,html.Screen,0_4_1_0_1_20,2021-11-05T12:24:09.869Z,,,,,,,,,,,,,,,,2,,,,,,,,,,,,,,330.34599999999045,,response,,,1,A,,,,,Space,keypress(Space),,,,silence,--- ---- ------ --- ------- ---------- ------- ----------<br>--- --------- --- ----------- ------- ----- ------- ---<br>--------- ---- -- --- what -- --------- -- ---- -------<br>-- --------- ------ --- ----- ------ ---- --- --------- --<br>------ - ---- -- --- ----------- ------- ---- ----- -----<br>--- -------- - ------ ---- -- ----- ---- --- --- -----------<br>-- -------,143831.60000000894,143831,143483.99,143495.90000000596,143500.654,143834.099,,20,what
screen,html.Screen,0_4_1_0_1_21,2021-11-05T12:24:10.221Z,,,,,,,,,,,,,,,,2,,,,,,,,,,,,,,348.9010000000126,,response,,,1,A,,,,,Space,keypress(Space),,,,silence,--- ---- ------ --- ------- ---------- ------- ----------<br>--- --------- --- ----------- ------- ----- ------- ---<br>--------- ---- -- --- ---- he --------- -- ---- -------<br>-- --------- ------ --- ----- ------ ---- --- --------- --<br>------ - ---- -- --- ----------- ------- ---- ----- -----<br>--- -------- - ------ ---- -- ----- ---- --- --- -----------<br>-- -------,144183.60000000894,144183,143817.433,143831.79999999702,143834.099,144200.699,,21,he
screen,html.Screen,0_4_1_0_1_22,2021-11-05T12:24:10.653Z,,,,,,,,,,,,,,,,2,,,,,,,,,,,,,,414.30100000000675,,response,,,1,A,,,,,Space,keypress(Space),,,,silence,--- ---- ------ --- ------- ---------- ------- ----------<br>--- --------- --- ----------- ------- ----- ------- ---<br>--------- ---- -- --- ---- -- described -- ---- -------<br>-- --------- ------ --- ----- ------ ---- --- --------- --<br>------ - ---- -- --- ----------- ------- ---- ----- -----<br>--- -------- - ------ ---- -- ----- ---- --- --- -----------<br>-- -------,144615.60000000894,144615,144184.034,144183.79999999702,144200.699,144617.447,,22,described
screen,html.Screen,0_4_1_0_1_23,2021-11-05T12:24:11.045Z,,,,,,,,,,,,,,,,2,,,,,,,,,,,,,,389.55300000001444,,response,,,1,A,,,,,Space,keypress(Space),,,,silence,--- ---- ------ --- ------- ---------- ------- ----------<br>--- --------- --- ----------- ------- ----- ------- ---<br>--------- ---- -- --- ---- -- --------- as ---- -------<br>-- --------- ------ --- ----- ------ ---- --- --------- --<br>------ - ---- -- --- ----------- ------- ---- ----- -----<br>--- -------- - ------ ---- -- ----- ---- --- --- -----------<br>-- -------,145007.5,145007,144600.78,144615.90000000596,144617.447,145017.265,,23,as
screen,html.Screen,0_4_1_0_1_24,2021-11-05T12:24:12.173Z,,,,,,,,,,,,,,,,2,,,,,,,,,,,,,,1117.9350000029663,,response,,,1,A,,,,,Space,keypress(Space),,,,silence,"--- ---- ------ --- ------- ---------- ------- ----------<br>--- --------- --- ----------- ------- ----- ------- ---<br>--------- ---- -- --- ---- -- --------- -- ""two -------<br>-- --------- ------ --- ----- ------ ---- --- --------- --<br>------ - ---- -- --- ----------- ------- ---- ----- -----<br>--- -------- - ------ ---- -- ----- ---- --- --- -----------<br>-- -------",146135.90000000596,146135.20000000298,145000.601,145007.79999999702,145017.265,146150.683,,24,"""two"
screen,html.Screen,0_4_1_0_1_25,2021-11-05T12:24:12.565Z,,,,,,,,,,,,,,,,2,,,,,,,,,,,,,,376.1169999970298,,response,,,1,A,,,,,Space,keypress(Space),,,,silence,--- ---- ------ --- ------- ---------- ------- ----------<br>--- --------- --- ----------- ------- ----- ------- ---<br>--------- ---- -- --- ---- -- --------- -- ---- patches<br>-- --------- ------ --- ----- ------ ---- --- --------- --<br>------ - ---- -- --- ----------- ------- ---- ----- -----<br>--- -------- - ------ ---- -- ----- ---- --- --- -----------<br>-- -------,146527.5,146526.79999999702,146134.017,146136.10000000894,146150.683,146533.92,,25,patches
screen,html.Screen,0_4_1_0_1_26,2021-11-05T12:24:12.973Z,,,,,,,,,,,,,,,,2,,,,,,,,,,,,,,400.98000000594766,,response,,,1,A,,,,,Space,keypress(Space),,,,silence,--- ---- ------ --- ------- ---------- ------- ----------<br>--- --------- --- ----------- ------- ----- ------- ---<br>--------- ---- -- --- ---- -- --------- -- ---- -------<br>of --------- ------ --- ----- ------ ---- --- --------- --<br>------ - ---- -- --- ----------- ------- ---- ----- -----<br>--- -------- - ------ ---- -- ----- ---- --- --- -----------<br>-- -------,146935.5,146934.90000000596,146517.255,146527.70000000298,146533.92,146950.539,,26,of
screen,html.Screen,0_4_1_0_1_27,2021-11-05T12:24:13.485Z,,,,,,,,,,,,,,,,2,,,,,,,,,,,,,,496.3610000059707,,response,,,1,A,,,,,Space,keypress(Space),,,,silence,--- ---- ------ --- ------- ---------- ------- ----------<br>--- --------- --- ----------- ------- ----- ------- ---<br>--------- ---- -- --- ---- -- --------- -- ---- -------<br>-- intensely ------ --- ----- ------ ---- --- --------- --<br>------ - ---- -- --- ----------- ------- ---- ----- -----<br>--- -------- - ------ ---- -- ----- ---- --- --- -----------<br>-- -------,147447.60000000894,147446.90000000596,146933.874,146935.60000000894,146950.539,147450.597,,27,intensely
screen,html.Screen,0_4_1_0_1_28,2021-11-05T12:24:13.933Z,,,,,,,,,,,,,,,,2,,,,,,,,,,,,,,444.3030000059516,,response,,,1,A,,,,,Space,keypress(Space),,,,silence,--- ---- ------ --- ------- ---------- ------- ----------<br>--- --------- --- ----------- ------- ----- ------- ---<br>--------- ---- -- --- ---- -- --------- -- ---- -------<br>-- --------- bright --- ----- ------ ---- --- --------- --<br>------ - ---- -- --- ----------- ------- ---- ----- -----<br>--- -------- - ------ ---- -- ----- ---- --- --- -----------<br>-- -------,147895.40000000596,147894.90000000596,147433.931,147447.79999999702,147450.597,147900.432,,28,bright
screen,html.Screen,0_4_1_0_1_29,2021-11-05T12:24:14.333Z,,,,,,,,,,,,,,,,2,,,,,,,,,,,,,,394.36799999701907,,response,,,1,A,,,,,Space,keypress(Space),,,,silence,--- ---- ------ --- ------- ---------- ------- ----------<br>--- --------- --- ----------- ------- ----- ------- ---<br>--------- ---- -- --- ---- -- --------- -- ---- -------<br>-- --------- ------ and ----- ------ ---- --- --------- --<br>------ - ---- -- --- ----------- ------- ---- ----- -----<br>--- -------- - ------ ---- -- ----- ---- --- --- -----------<br>-- -------,148295.40000000596,148294.79999999702,147883.768,147895.60000000894,147900.432,148300.466,,29,and
screen,html.Screen,0_4_1_0_1_30,2021-11-05T12:24:14.733Z,,,,,,,,,,,,,,,,2,,,,,,,,,,,,,,394.23400000299443,,response,,,1,A,,,,,Space,keypress(Space),,,,silence,--- ---- ------ --- ------- ---------- ------- ----------<br>--- --------- --- ----------- ------- ----- ------- ---<br>--------- ---- -- --- ---- -- --------- -- ---- -------<br>-- --------- ------ --- white ------ ---- --- --------- --<br>------ - ---- -- --- ----------- ------- ---- ----- -----<br>--- -------- - ------ ---- -- ----- ---- --- --- -----------<br>-- -------,148695.40000000596,148694.70000000298,148283.801,148295.5,148300.466,148700.457,,30,white
screen,html.Screen,0_4_1_0_1_31,2021-11-05T12:24:15.125Z,,,,,,,,,,,,,,,,2,,,,,,,,,,,,,,386.24300000298535,,response,,,1,A,,,,,Space,keypress(Space),,,,silence,"--- ---- ------ --- ------- ---------- ------- ----------<br>--- --------- --- ----------- ------- ----- ------- ---<br>--------- ---- -- --- ---- -- --------- -- ---- -------<br>-- --------- ------ --- ----- light"" ---- --- --------- --<br>------ - ---- -- --- ----------- ------- ---- ----- -----<br>--- -------- - ------ ---- -- ----- ---- --- --- -----------<br>-- -------",149087.29999999702,149086.70000000298,148683.792,148695.70000000298,148700.457,149100.372,,31,"light"""
screen,html.Screen,0_4_1_0_1_32,2021-11-05T12:24:15.517Z,,,,,,,,,,,,,,,,2,,,,,,,,,,,,,,378.3280000029772,,response,,,1,A,,,,,Space,keypress(Space),,,,silence,--- ---- ------ --- ------- ---------- ------- ----------<br>--- --------- --- ----------- ------- ----- ------- ---<br>--------- ---- -- --- ---- -- --------- -- ---- -------<br>-- --------- ------ --- ----- ------ over --- --------- --<br>------ - ---- -- --- ----------- ------- ---- ----- -----<br>--- -------- - ------ ---- -- ----- ---- --- --- -----------<br>-- -------,149479.29999999702,149478.70000000298,149083.708,149087.5,149100.372,149483.768,,32,over
screen,html.Screen,0_4_1_0_1_33,2021-11-05T12:24:15.893Z,,,,,,,,,,,,,,,,2,,,,,,,,,,,,,,370.9320000029693,,response,,,1,A,,,,,Space,keypress(Space),,,,silence,--- ---- ------ --- ------- ---------- ------- ----------<br>--- --------- --- ----------- ------- ----- ------- ---<br>--------- ---- -- --- ---- -- --------- -- ---- -------<br>-- --------- ------ --- ----- ------ ---- the --------- --<br>------ - ---- -- --- ----------- ------- ---- ----- -----<br>--- -------- - ------ ---- -- ----- ---- --- --- -----------<br>-- -------,149855.29999999702,149854.70000000298,149467.102,149479.5,149483.768,149867.09,,33,the
screen,html.Screen,0_4_1_0_1_34,2021-11-05T12:24:16.389Z,,,,,,,,,,,,,,,,2,,,,,,,,,,,,,,483.6100000029837,,response,,,1,A,,,,,Space,keypress(Space),,,,silence,--- ---- ------ --- ------- ---------- ------- ----------<br>--- --------- --- ----------- ------- ----- ------- ---<br>--------- ---- -- --- ---- -- --------- -- ---- -------<br>-- --------- ------ --- ----- ------ ---- --- sunspots. --<br>------ - ---- -- --- ----------- ------- ---- ----- -----<br>--- -------- - ------ ---- -- ----- ---- --- --- -----------<br>-- -------,150351.29999999702,150350.70000000298,149850.424,149855.5,149867.09,150367.091,,34,sunspots.
screen,html.Screen,0_4_1_0_1_35,2021-11-05T12:24:16.885Z,,,,,,,,,,,,,,,,2,,,,,,,,,,,,,,479.60900000299443,,response,,,1,A,,,,,Space,keypress(Space),,,,silence,--- ---- ------ --- ------- ---------- ------- ----------<br>--- --------- --- ----------- ------- ----- ------- ---<br>--------- ---- -- --- ---- -- --------- -- ---- -------<br>-- --------- ------ --- ----- ------ ---- --- --------- He<br>------ - ---- -- --- ----------- ------- ---- ----- -----<br>--- -------- - ------ ---- -- ----- ---- --- --- -----------<br>-- -------,150847.29999999702,150846.70000000298,150350.425,150351.5,150367.091,150850.27,,35,He
screen,html.Screen,0_4_1_0_1_36,2021-11-05T12:24:17.277Z,,,,,,,,,,,,,,,,2,,,,,,,,,,,,,,388.4300000029907,,response,,,1,A,,,,,Space,keypress(Space),,,,silence,--- ---- ------ --- ------- ---------- ------- ----------<br>--- --------- --- ----------- ------- ----- ------- ---<br>--------- ---- -- --- ---- -- --------- -- ---- -------<br>-- --------- ------ --- ----- ------ ---- --- --------- --<br>jotted - ---- -- --- ----------- ------- ---- ----- -----<br>--- -------- - ------ ---- -- ----- ---- --- --- -----------<br>-- -------,151239.29999999702,151238.70000000298,150833.606,150847.40000000596,150850.27,151250.365,,36,jotted
screen,html.Screen,0_4_1_0_1_37,2021-11-05T12:24:17.821Z,,,,,,,,,,,,,,,,2,,,,,,,,,,,,,,532.23500000895,,response,,,1,A,,,,,Space,keypress(Space),,,,silence,--- ---- ------ --- ------- ---------- ------- ----------<br>--- --------- --- ----------- ------- ----- ------- ---<br>--------- ---- -- --- ---- -- --------- -- ---- -------<br>-- --------- ------ --- ----- ------ ---- --- --------- --<br>------ a ---- -- --- ----------- ------- ---- ----- -----<br>--- -------- - ------ ---- -- ----- ---- --- --- -----------<br>-- -------,151783.29999999702,151782.60000000894,151233.699,151239.5,151250.365,151800.224,,37,a
screen,html.Screen,0_4_1_0_1_38,2021-11-05T12:24:18.221Z,,,,,,,,,,,,,,,,2,,,,,,,,,,,,,,382.2760000000126,,response,,,1,A,,,,,Space,keypress(Space),,,,silence,--- ---- ------ --- ------- ---------- ------- ----------<br>--- --------- --- ----------- ------- ----- ------- ---<br>--------- ---- -- --- ---- -- --------- -- ---- -------<br>-- --------- ------ --- ----- ------ ---- --- --------- --<br>------ - note -- --- ----------- ------- ---- ----- -----<br>--- -------- - ------ ---- -- ----- ---- --- --- -----------<br>-- -------,152183.20000000298,152182.5,151783.56,151783.5,151800.224,152200.252,,38,note
screen,html.Screen,0_4_1_0_1_39,2021-11-05T12:24:18.573Z,,,,,,,,,,,,,,,,2,,,,,,,,,,,,,,334.348000008933,,response,,,1,A,,,,,Space,keypress(Space),,,,silence,--- ---- ------ --- ------- ---------- ------- ----------<br>--- --------- --- ----------- ------- ----- ------- ---<br>--------- ---- -- --- ---- -- --------- -- ---- -------<br>-- --------- ------ --- ----- ------ ---- --- --------- --<br>------ - ---- in --- ----------- ------- ---- ----- -----<br>--- -------- - ------ ---- -- ----- ---- --- --- -----------<br>-- -------,152535.29999999702,152534.60000000894,152183.587,152183.29999999702,152200.252,152550.239,,39,in
screen,html.Screen,0_4_1_0_1_40,2021-11-05T12:24:18.917Z,,,,,,,,,,,,,,,,2,,,,,,,,,,,,,,328.2609999999986,,response,,,1,A,,,,,Space,keypress(Space),,,,silence,--- ---- ------ --- ------- ---------- ------- ----------<br>--- --------- --- ----------- ------- ----- ------- ---<br>--------- ---- -- --- ---- -- --------- -- ---- -------<br>-- --------- ------ --- ----- ------ ---- --- --------- --<br>------ - ---- -- his ----------- ------- ---- ----- -----<br>--- -------- - ------ ---- -- ----- ---- --- --- -----------<br>-- -------,152879.10000000894,152878.5,152533.574,152535.40000000596,152550.239,152883.551,,40,his
screen,html.Screen,0_4_1_0_1_41,2021-11-05T12:24:19.261Z,,,,,,,,,,,,,,,,2,,,,,,,,,,,,,,338.94899999999325,,response,,,1,A,,,,,Space,keypress(Space),,,,silence,--- ---- ------ --- ------- ---------- ------- ----------<br>--- --------- --- ----------- ------- ----- ------- ---<br>--------- ---- -- --- ---- -- --------- -- ---- -------<br>-- --------- ------ --- ----- ------ ---- --- --------- --<br>------ - ---- -- --- painstaking ------- ---- ----- -----<br>--- -------- - ------ ---- -- ----- ---- --- --- -----------<br>-- -------,153223.90000000596,153222.5,152866.886,152879.20000000298,152883.551,153233.542,,41,painstaking
screen,html.Screen,0_4_1_0_1_42,2021-11-05T12:24:19.813Z,,,,,,,,,,,,,,,,2,,,,,,,,,,,,,,540.9580000000133,,response,,,1,A,,,,,Space,keypress(Space),,,,silence,--- ---- ------ --- ------- ---------- ------- ----------<br>--- --------- --- ----------- ------- ----- ------- ---<br>--------- ---- -- --- ---- -- --------- -- ---- -------<br>-- --------- ------ --- ----- ------ ---- --- --------- --<br>------ - ---- -- --- ----------- record. ---- ----- -----<br>--- -------- - ------ ---- -- ----- ---- --- --- -----------<br>-- -------,153775.20000000298,153774.5,153216.877,153224.10000000894,153233.542,153783.483,,42,record.
screen,html.Screen,0_4_1_0_1_43,2021-11-05T12:24:20.221Z,,,,,,,,,,,,,,,,2,,,,,,,,,,,,,,399.01699999999255,,response,,,1,A,,,,,Space,keypress(Space),,,,silence,--- ---- ------ --- ------- ---------- ------- ----------<br>--- --------- --- ----------- ------- ----- ------- ---<br>--------- ---- -- --- ---- -- --------- -- ---- -------<br>-- --------- ------ --- ----- ------ ---- --- --------- --<br>------ - ---- -- --- ----------- ------- That ----- -----<br>--- -------- - ------ ---- -- ----- ---- --- --- -----------<br>-- -------,154183.10000000894,154182.5,153766.818,153775.29999999702,153783.483,154200.059,,43,That
screen,html.Screen,0_4_1_0_1_44,2021-11-05T12:24:20.709Z,,,,,,,,,,,,,,,,2,,,,,,,,,,,,,,470.4409999999916,,response,,,1,A,,,,,Space,keypress(Space),,,,silence,--- ---- ------ --- ------- ---------- ------- ----------<br>--- --------- --- ----------- ------- ----- ------- ---<br>--------- ---- -- --- ---- -- --------- -- ---- -------<br>-- --------- ------ --- ----- ------ ---- --- --------- --<br>------ - ---- -- --- ----------- ------- ---- night -----<br>--- -------- - ------ ---- -- ----- ---- --- --- -----------<br>-- -------,154671,154670.5,154183.395,154183.20000000298,154200.059,154683.513,,44,night
screen,html.Screen,0_4_1_0_1_45,2021-11-05T12:24:21.173Z,,,,,,,,,,,,,,,,2,,,,,,,,,,,,,,450.9869999999937,,response,,,1,A,,,,,Space,keypress(Space),,,,silence,--- ---- ------ --- ------- ---------- ------- ----------<br>--- --------- --- ----------- ------- ----- ------- ---<br>--------- ---- -- --- ---- -- --------- -- ---- -------<br>-- --------- ------ --- ----- ------ ---- --- --------- --<br>------ - ---- -- --- ----------- ------- ---- ----- there<br>--- -------- - ------ ---- -- ----- ---- --- --- -----------<br>-- -------,155135.10000000894,155134.5,154666.847,154671.20000000298,154683.513,155150.081,,45,there
screen,html.Screen,0_4_1_0_1_46,2021-11-05T12:24:21.572Z,,,,,,,,,,,,,,,,2,,,,,,,,,,,,,,384.3190000059549,,response,,,1,A,,,,,Space,keypress(Space),,,,silence,--- ---- ------ --- ------- ---------- ------- ----------<br>--- --------- --- ----------- ------- ----- ------- ---<br>--------- ---- -- --- ---- -- --------- -- ---- -------<br>-- --------- ------ --- ----- ------ ---- --- --------- --<br>------ - ---- -- --- ----------- ------- ---- ----- -----<br>was -------- - ------ ---- -- ----- ---- --- --- -----------<br>-- -------,155535,155534.40000000596,155133.416,155135.29999999702,155150.081,155550.146,,46,was
screen,html.Screen,0_4_1_0_1_47,2021-11-05T12:24:22.509Z,,,,,,,,,,,,,,,,2,,,,,,,,,,,,,,920.5540000029723,,response,,,1,A,,,,,Space,keypress(Space),,,,silence,--- ---- ------ --- ------- ---------- ------- ----------<br>--- --------- --- ----------- ------- ----- ------- ---<br>--------- ---- -- --- ---- -- --------- -- ---- -------<br>-- --------- ------ --- ----- ------ ---- --- --------- --<br>------ - ---- -- --- ----------- ------- ---- ----- -----<br>--- scarcely - ------ ---- -- ----- ---- --- --- -----------<br>-- -------,156471.29999999702,156470.70000000298,155533.48,155535.20000000298,155550.146,156483.251,,47,scarcely
screen,html.Screen,0_4_1_0_1_48,2021-11-05T12:24:22.868Z,,,,,,,,,,,,,,,,2,,,,,,,,,,,,,,347.0489999970305,,response,,,1,A,,,,,Space,keypress(Space),,,,silence,--- ---- ------ --- ------- ---------- ------- ----------<br>--- --------- --- ----------- ------- ----- ------- ---<br>--------- ---- -- --- ---- -- --------- -- ---- -------<br>-- --------- ------ --- ----- ------ ---- --- --------- --<br>------ - ---- -- --- ----------- ------- ---- ----- -----<br>--- -------- a ------ ---- -- ----- ---- --- --- -----------<br>-- -------,156830.90000000596,156830.29999999702,156466.587,156471.5,156483.251,156833.327,,48,a
screen,html.Screen,0_4_1_0_1_49,2021-11-05T12:24:23.212Z,,,,,,,,,,,,,,,,2,,,,,,,,,,,,,,340.97299999702955,,response,,,1,A,,,,,Space,keypress(Space),,,,silence,--- ---- ------ --- ------- ---------- ------- ----------<br>--- --------- --- ----------- ------- ----- ------- ---<br>--------- ---- -- --- ---- -- --------- -- ---- -------<br>-- --------- ------ --- ----- ------ ---- --- --------- --<br>------ - ---- -- --- ----------- ------- ---- ----- -----<br>--- -------- - square ---- -- ----- ---- --- --- -----------<br>-- -------,157174.90000000596,157174.29999999702,156816.662,156831,156833.327,157183.375,,49,square
