sender,sender_type,sender_id,timestamp,meta,,Blues,Classical,Country,Dance,Electronic,Folk,Gospel,Hip-Hop,Jazz,Latin,Musical/Film,New-age,Pop,Provo_ID,R&B,Rap,Reggae,Religious,Rock,Soul,Swing,Traditional,age,artist_name,correct,correctResponse,distraction,duration,education,ended_on,familiarity,gender,item,list,music_frequency,offensiveness,pleasantness,preference,response,response_action,snippet_file,song_name,song_rating,sound,text,time_commit,time_end,time_render,time_run,time_show,time_switch,url,word,word_ID
Instructions,html.Page,0_0,2021-12-02T15:15:20.146Z,"{""labjs_version"":""20.2.3"",""labjs_build"":{""flavor"":""production"",""commit"":""7ea907d66ca8aeef8054924ca5d82ffbe11e34e5""},""location"":""https://run.pavlovia.org/mvasilev/lab_music_e/"",""userAgent"":""Mozilla/5.0 (Windows NT 6.1; Win64; x64) AppleWebKit/537.36 (KHTML, like Gecko) Chrome/96.0.4664.45 Safari/537.36"",""platform"":""Win32"",""language"":""en-US"",""locale"":""en-US"",""timeZone"":""Europe/London"",""timezoneOffset"":0,""screen_width"":1920,""screen_height"":1080,""scroll_width"":1920,""scroll_height"":959,""window_innerWidth"":1920,""window_innerHeight"":1007,""devicePixelRatio"":1}",,,,,,,,,,,,,,,,,,,,,,,,,,,,,65758.29799999777,,form submission,,,,,,,,,,,,,,,,82256.79999999702,82255.59999999776,16480.632,16487.79999999702,16497.302,82262.668,{},,
Headphones,html.Page,0_1,2021-12-02T15:15:26.716Z,,,,,,,,,,,,,,,,,,,,,,,,,,,,,,6563.331999999995,,form submission,,,,,,,,,,,,,,,,88826.59999999776,88826,82246.007,82257.59999999776,82262.668,88833.89,,,
Holding screen,html.Screen,0_2_0_0,2021-12-02T15:15:36.715Z,,,,,,,,,,,,,,,,,,,,,,,,,,,,,,10002.646999999997,,timeout,,,,,,,,,,,,,,,,98825.69999999925,98819.867,88817.22,88827.29999999702,88833.89,98836.537,,,
screen,html.Screen,0_2_0_1_0,2021-12-02T15:15:36.868Z,,,,,,,,,,,,,,,,53,,,,,,,,,,,,,,140.5629999977682,,response,,,99,,,,,,Space,keypress(Space),,,,,When -- ----- -- ------ - ------- --- ----------<br>------------- ------ ------ ---- ---- ------- ----- -- ----<br>-------- ------- -- ---------- --- - --- ----- ----- ----<br>---- --- --- ----- --- ---- ---- ------- ----- ---- -------<br>--- --- -- ----- -- --- ---- -- --- ---- -- ------ ------<br>--- ----- -- ----,98978.59999999776,98977.09999999776,98819.867,98826.19999999925,98836.537,98986.784,,0,When
screen,html.Screen,0_2_0_1_1,2021-12-02T15:15:43.122Z,,,,,,,,,,,,,,,,53,,,,,,,,,,,,,,6245.315999997765,,response,,,99,,,,,,Space,keypress(Space),,,,,---- it ----- -- ------ - ------- --- ----------<br>------------- ------ ------ ---- ---- ------- ----- -- ----<br>-------- ------- -- ---------- --- - --- ----- ----- ----<br>---- --- --- ----- --- ---- ---- ------- ----- ---- -------<br>--- --- -- ----- -- --- ---- -- --- ---- -- ------ ------<br>--- ----- -- ----,105233.09999999776,105232.09999999776,98970.113,98978.89999999851,98986.784,105238.016,,1,it
screen,html.Screen,0_2_0_1_2,2021-12-02T15:15:45.890Z,,,,,,,,,,,,,,,,53,,,,,,,,,,,,,,2761.9839999999967,,response,,,99,,,,,,Space,keypress(Space),,,,,---- -- comes -- ------ - ------- --- ----------<br>------------- ------ ------ ---- ---- ------- ----- -- ----<br>-------- ------- -- ---------- --- - --- ----- ----- ----<br>---- --- --- ----- --- ---- ---- ------- ----- ---- -------<br>--- --- -- ----- -- --- ---- -- --- ---- -- ------ ------<br>--- ----- -- ----,108000.79999999702,108000,105221.346,105233.29999999702,105238.016,108005.758,,2,comes
screen,html.Screen,0_2_0_1_3,2021-12-02T15:15:47.547Z,,,,,,,,,,,,,,,,53,,,,,,,,,,,,,,1650.6419999985083,,response,,,99,,,,,,Space,keypress(Space),,,,,---- -- ----- to ------ - ------- --- ----------<br>------------- ------ ------ ---- ---- ------- ----- -- ----<br>-------- ------- -- ---------- --- - --- ----- ----- ----<br>---- --- --- ----- --- ---- ---- ------- ----- ---- -------<br>--- --- -- ----- -- --- ---- -- --- ---- -- ------ ------<br>--- ----- -- ----,109657.39999999851,109656.39999999851,107989.087,108001.09999999776,108005.758,109672.582,,3,to
screen,html.Screen,0_2_0_1_4,2021-12-02T15:15:48.730Z,,,,,,,,,,,,,,,,53,,,,,,,,,,,,,,1167.317999998515,,response,,,99,,,,,,Space,keypress(Space),,,,,---- -- ----- -- having - ------- --- ----------<br>------------- ------ ------ ---- ---- ------- ----- -- ----<br>-------- ------- -- ---------- --- - --- ----- ----- ----<br>---- --- --- ----- --- ---- ---- ------- ----- ---- -------<br>--- --- -- ----- -- --- ---- -- --- ---- -- ------ ------<br>--- ----- -- ----,110841,110839.89999999851,109655.912,109657.89999999851,109672.582,110856.542,,4,having
screen,html.Screen,0_2_0_1_5,2021-12-02T15:15:49.754Z,,,,,,,,,,,,,,,,53,,,,,,,,,,,,,,1007.2579999970185,,response,,,99,,,,,,Space,keypress(Space),,,,,---- -- ----- -- ------ a ------- --- ----------<br>------------- ------ ------ ---- ---- ------- ----- -- ----<br>-------- ------- -- ---------- --- - --- ----- ----- ----<br>---- --- --- ----- --- ---- ---- ------- ----- ---- -------<br>--- --- -- ----- -- --- ---- -- --- ---- -- ------ ------<br>--- ----- -- ----,111864.69999999925,111863.79999999702,110839.871,110841.29999999702,110856.542,111873.353,,5,a
screen,html.Screen,0_2_0_1_6,2021-12-02T15:15:51.274Z,,,,,,,,,,,,,,,,53,,,,,,,,,,,,,,1510.446999997017,,response,,,99,,,,,,Space,keypress(Space),,,,,---- -- ----- -- ------ - lasting --- ----------<br>------------- ------ ------ ---- ---- ------- ----- -- ----<br>-------- ------- -- ---------- --- - --- ----- ----- ----<br>---- --- --- ----- --- ---- ---- ------- ----- ---- -------<br>--- --- -- ----- -- --- ---- -- --- ---- -- ------ ------<br>--- ----- -- ----,113384.69999999925,113383.79999999702,111856.683,111865.09999999776,111873.353,113390.585,,6,lasting
screen,html.Screen,0_2_0_1_7,2021-12-02T15:15:52.434Z,,,,,,,,,,,,,,,,53,,,,,,,,,,,,,,1153.2149999970134,,response,,,99,,,,,,Space,keypress(Space),,,,,---- -- ----- -- ------ - ------- and ----------<br>------------- ------ ------ ---- ---- ------- ----- -- ----<br>-------- ------- -- ---------- --- - --- ----- ----- ----<br>---- --- --- ----- --- ---- ---- ------- ----- ---- -------<br>--- --- -- ----- -- --- ---- -- --- ---- -- ------ ------<br>--- ----- -- ----,114544.59999999776,114543.79999999702,113373.914,113385,113390.585,114557.49,,7,and
screen,html.Screen,0_2_0_1_8,2021-12-02T15:15:56.946Z,,,,,,,,,,,,,,,,53,,,,,,,,,,,,,,4498.10999999776,,response,,,99,,,,,,Space,keypress(Space),,,,,---- -- ----- -- ------ - ------- --- fulfilling<br>------------- ------ ------ ---- ---- ------- ----- -- ----<br>-------- ------- -- ---------- --- - --- ----- ----- ----<br>---- --- --- ----- --- ---- ---- ------- ----- ---- -------<br>--- --- -- ----- -- --- ---- -- --- ---- -- ------ ------<br>--- ----- -- ----,119056.89999999851,119055.59999999776,114540.82,114545,114557.49,119058.436,,8,fulfilling
screen,html.Screen,0_2_0_1_9,2021-12-02T15:15:58.828Z,,,,,,,,,,,,,,,,53,,,,,,,,,,,,,,1877.4639999985084,,response,,,99,,,,,,Space,keypress(Space),,,,,"---- -- ----- -- ------ - ------- --- ----------<br>relationship, ------ ------ ---- ---- ------- ----- -- ----<br>-------- ------- -- ---------- --- - --- ----- ----- ----<br>---- --- --- ----- --- ---- ---- ------- ----- ---- -------<br>--- --- -- ----- -- --- ---- -- --- ---- -- ------ ------<br>--- ----- -- ----",120936.79999999702,120935.89999999851,119041.766,119057.19999999925,119058.436,120942.447,,9,"relationship,"
screen,html.Screen,0_2_0_1_10,2021-12-02T15:16:00.588Z,,,,,,,,,,,,,,,,53,,,,,,,,,,,,,,1752.9529999985098,,response,,,99,,,,,,Space,keypress(Space),,,,,---- -- ----- -- ------ - ------- --- ----------<br>------------- common ------ ---- ---- ------- ----- -- ----<br>-------- ------- -- ---------- --- - --- ----- ----- ----<br>---- --- --- ----- --- ---- ---- ------- ----- ---- -------<br>--- --- -- ----- -- --- ---- -- --- ---- -- ------ ------<br>--- ----- -- ----,122696.29999999702,122695.39999999851,120925.777,120937,120942.447,122709.507,,10,common
screen,html.Screen,0_2_0_1_11,2021-12-02T15:16:03.012Z,,,,,,,,,,,,,,,,53,,,,,,,,,,,,,,2409.692999999257,,response,,,99,,,,,,Space,keypress(Space),,,,,---- -- ----- -- ------ - ------- --- ----------<br>------------- ------ wisdom ---- ---- ------- ----- -- ----<br>-------- ------- -- ---------- --- - --- ----- ----- ----<br>---- --- --- ----- --- ---- ---- ------- ----- ---- -------<br>--- --- -- ----- -- --- ---- -- --- ---- -- ------ ------<br>--- ----- -- ----,125120.09999999776,125119.19999999925,122692.837,122696.59999999776,122709.507,125127.079,,11,wisdom
screen,html.Screen,0_2_0_1_12,2021-12-02T15:16:04.403Z,,,,,,,,,,,,,,,,53,,,,,,,,,,,,,,1384.020999997767,,response,,,99,,,,,,Space,keypress(Space),,,,,---- -- ----- -- ------ - ------- --- ----------<br>------------- ------ ------ says ---- ------- ----- -- ----<br>-------- ------- -- ---------- --- - --- ----- ----- ----<br>---- --- --- ----- --- ---- ---- ------- ----- ---- -------<br>--- --- -- ----- -- --- ---- -- --- ---- -- ------ ------<br>--- ----- -- ----,126511.89999999851,126511.09999999776,125110.408,125120.39999999851,125127.079,126527.295,,12,says
screen,html.Screen,0_2_0_1_13,2021-12-02T15:16:05.668Z,,,,,,,,,,,,,,,,53,,,,,,,,,,,,,,1247.8049999977666,,response,,,99,,,,,,Space,keypress(Space),,,,,---- -- ----- -- ------ - ------- --- ----------<br>------------- ------ ------ ---- that ------- ----- -- ----<br>-------- ------- -- ---------- --- - --- ----- ----- ----<br>---- --- --- ----- --- ---- ---- ------- ----- ---- -------<br>--- --- -- ----- -- --- ---- -- --- ---- -- ------ ------<br>--- ----- -- ----,127775.89999999851,127775.09999999776,126510.625,126512.19999999925,126527.295,127777.557,,13,that
screen,html.Screen,0_2_0_1_14,2021-12-02T15:16:07.420Z,,,,,,,,,,,,,,,,53,,,,,,,,,,,,,,1749.4429999999993,,response,,,99,,,,,,Space,keypress(Space),,,,,---- -- ----- -- ------ - ------- --- ----------<br>------------- ------ ------ ---- ---- feeling ----- -- ----<br>-------- ------- -- ---------- --- - --- ----- ----- ----<br>---- --- --- ----- --- ---- ---- ------- ----- ---- -------<br>--- --- -- ----- -- --- ---- -- --- ---- -- ------ ------<br>--- ----- -- ----,129528,129527,127760.887,127776.19999999925,127777.557,129544.819,,14,feeling
screen,html.Screen,0_2_0_1_15,2021-12-02T15:16:08.611Z,,,,,,,,,,,,,,,,53,,,,,,,,,,,,,,1174.1809999999969,,response,,,99,,,,,,Space,keypress(Space),,,,,---- -- ----- -- ------ - ------- --- ----------<br>------------- ------ ------ ---- ---- ------- close -- ----<br>-------- ------- -- ---------- --- - --- ----- ----- ----<br>---- --- --- ----- --- ---- ---- ------- ----- ---- -------<br>--- --- -- ----- -- --- ---- -- --- ---- -- ------ ------<br>--- ----- -- ----,130719.79999999702,130719,129528.148,129528.29999999702,129544.819,130728.331,,15,close
screen,html.Screen,0_2_0_1_16,2021-12-02T15:16:09.964Z,,,,,,,,,,,,,,,,53,,,,,,,,,,,,,,1342.9689999970142,,response,,,99,,,,,,Space,keypress(Space),,,,,---- -- ----- -- ------ - ------- --- ----------<br>------------- ------ ------ ---- ---- ------- ----- to ----<br>-------- ------- -- ---------- --- - --- ----- ----- ----<br>---- --- --- ----- --- ---- ---- ------- ----- ---- -------<br>--- --- -- ----- -- --- ---- -- --- ---- -- ------ ------<br>--- ----- -- ----,132072.3999999985,132071.29999999702,130711.661,130720.09999999776,130728.331,132078.862,,16,to
screen,html.Screen,0_2_0_1_17,2021-12-02T15:16:11.155Z,,,,,,,,,,,,,,,,53,,,,,,,,,,,,,,1184.0379999985162,,response,,,99,,,,,,Space,keypress(Space),,,,,---- -- ----- -- ------ - ------- --- ----------<br>------------- ------ ------ ---- ---- ------- ----- -- your<br>-------- ------- -- ---------- --- - --- ----- ----- ----<br>---- --- --- ----- --- ---- ---- ------- ----- ---- -------<br>--- --- -- ----- -- --- ---- -- --- ---- -- ------ ------<br>--- ----- -- ----,133263.79999999702,133262.8999999985,132062.191,132072.59999999776,132078.862,133279.17,,17,your
screen,html.Screen,0_2_0_1_18,2021-12-02T15:16:13.539Z,,,,,,,,,,,,,,,,53,,,,,,,,,,,,,,2367.529999999242,,response,,,99,,,,,,Space,keypress(Space),,,,,---- -- ----- -- ------ - ------- --- ----------<br>------------- ------ ------ ---- ---- ------- ----- -- ----<br>romantic ------- -- ---------- --- - --- ----- ----- ----<br>---- --- --- ----- --- ---- ---- ------- ----- ---- -------<br>--- --- -- ----- -- --- ---- -- --- ---- -- ------ ------<br>--- ----- -- ----,135647.69999999925,135646.69999999925,133262.499,133264.09999999776,133279.17,135662.92,,18,romantic
screen,html.Screen,0_2_0_1_19,2021-12-02T15:16:14.659Z,,,,,,,,,,,,,,,,53,,,,,,,,,,,,,,1103.7799999992421,,response,,,99,,,,,,Space,keypress(Space),,,,,---- -- ----- -- ------ - ------- --- ----------<br>------------- ------ ------ ---- ---- ------- ----- -- ----<br>-------- partner -- ---------- --- - --- ----- ----- ----<br>---- --- --- ----- --- ---- ---- ------- ----- ---- -------<br>--- --- -- ----- -- --- ---- -- --- ---- -- ------ ------<br>--- ----- -- ----,136767.59999999776,136766.69999999925,135646.25,135647.8999999985,135662.92,136780.19,,19,partner
screen,html.Screen,0_2_0_1_20,2021-12-02T15:16:15.779Z,,,,,,,,,,,,,,,,53,,,,,,,,,,,,,,1106.4099999977625,,response,,,99,,,,,,Space,keypress(Space),,,,,---- -- ----- -- ------ - ------- --- ----------<br>------------- ------ ------ ---- ---- ------- ----- -- ----<br>-------- ------- is ---------- --- - --- ----- ----- ----<br>---- --- --- ----- --- ---- ---- ------- ----- ---- -------<br>--- --- -- ----- -- --- ---- -- --- ---- -- ------ ------<br>--- ----- -- ----,137887.5,137886.59999999776,136763.519,136767.8999999985,136780.19,137896.96,,20,is
screen,html.Screen,0_2_0_1_21,2021-12-02T15:16:19.483Z,,,,,,,,,,,,,,,,53,,,,,,,,,,,,,,3693.540000000008,,response,,,99,,,,,,Space,keypress(Space),,,,,---- -- ----- -- ------ - ------- --- ----------<br>------------- ------ ------ ---- ---- ------- ----- -- ----<br>-------- ------- -- paramount. --- - --- ----- ----- ----<br>---- --- --- ----- --- ---- ---- ------- ----- ---- -------<br>--- --- -- ----- -- --- ---- -- --- ---- -- ------ ------<br>--- ----- -- ----,141591.59999999776,141590.5,137880.29,137887.79999999702,137896.96,141598.055,,21,paramount.
screen,html.Screen,0_2_0_1_22,2021-12-02T15:16:20.747Z,,,,,,,,,,,,,,,,53,,,,,,,,,,,,,,1256.7449999970268,,response,,,99,,,,,,Space,keypress(Space),,,,,---- -- ----- -- ------ - ------- --- ----------<br>------------- ------ ------ ---- ---- ------- ----- -- ----<br>-------- ------- -- ---------- But - --- ----- ----- ----<br>---- --- --- ----- --- ---- ---- ------- ----- ---- -------<br>--- --- -- ----- -- --- ---- -- --- ---- -- ------ ------<br>--- ----- -- ----,142855.69999999925,142854.79999999702,141581.384,141592.09999999776,141598.055,142864.985,,22,But
screen,html.Screen,0_2_0_1_23,2021-12-02T15:16:21.691Z,,,,,,,,,,,,,,,,53,,,,,,,,,,,,,,933.3149999970337,,response,,,99,,,,,,Space,keypress(Space),,,,,---- -- ----- -- ------ - ------- --- ----------<br>------------- ------ ------ ---- ---- ------- ----- -- ----<br>-------- ------- -- ---------- --- a --- ----- ----- ----<br>---- --- --- ----- --- ---- ---- ------- ----- ---- -------<br>--- --- -- ----- -- --- ---- -- --- ---- -- ------ ------<br>--- ----- -- ----,143799.09999999776,143798.29999999702,142848.315,142855.8999999985,142864.985,143815.152,,23,a
screen,html.Screen,0_2_0_1_24,2021-12-02T15:16:22.427Z,,,,,,,,,,,,,,,,53,,,,,,,,,,,,,,719.0479999992531,,response,,,99,,,,,,Space,keypress(Space),,,,,---- -- ----- -- ------ - ------- --- ----------<br>------------- ------ ------ ---- ---- ------- ----- -- ----<br>-------- ------- -- ---------- --- - new ----- ----- ----<br>---- --- --- ----- --- ---- ---- ------- ----- ---- -------<br>--- --- -- ----- -- --- ---- -- --- ---- -- ------ ------<br>--- ----- -- ----,144535.09999999776,144534.19999999925,143798.482,143799.3999999985,143815.152,144548.896,,24,new
screen,html.Screen,0_2_0_1_25,2021-12-02T15:16:23.539Z,,,,,,,,,,,,,,,,53,,,,,,,,,,,,,,1097.303999999247,,response,,,99,,,,,,Space,keypress(Space),,,,,---- -- ----- -- ------ - ------- --- ----------<br>------------- ------ ------ ---- ---- ------- ----- -- ----<br>-------- ------- -- ---------- --- - --- study ----- ----<br>---- --- --- ----- --- ---- ---- ------- ----- ---- -------<br>--- --- -- ----- -- --- ---- -- --- ---- -- ------ ------<br>--- ----- -- ----,145647.19999999925,145646.19999999925,144532.225,144535.5,144548.896,145649.071,,25,study
screen,html.Screen,0_2_0_1_26,2021-12-02T15:16:25.915Z,,,,,,,,,,,,,,,,53,,,,,,,,,,,,,,2373.1289999992587,,response,,,99,,,,,,Space,keypress(Space),,,,,---- -- ----- -- ------ - ------- --- ----------<br>------------- ------ ------ ---- ---- ------- ----- -- ----<br>-------- ------- -- ---------- --- - --- ----- finds ----<br>---- --- --- ----- --- ---- ---- ------- ----- ---- -------<br>--- --- -- ----- -- --- ---- -- --- ---- -- ------ ------<br>--- ----- -- ----,148023,148022.19999999925,145632.401,145647.3999999985,145649.071,148032.972,,26,finds
screen,html.Screen,0_2_0_1_27,2021-12-02T15:16:27.051Z,,,,,,,,,,,,,,,,53,,,,,,,,,,,,,,1125.127999997756,,response,,,99,,,,,,Space,keypress(Space),,,,,---- -- ----- -- ------ - ------- --- ----------<br>------------- ------ ------ ---- ---- ------- ----- -- ----<br>-------- ------- -- ---------- --- - --- ----- ----- that<br>---- --- --- ----- --- ---- ---- ------- ----- ---- -------<br>--- --- -- ----- -- --- ---- -- --- ---- -- ------ ------<br>--- ----- -- ----,149158.8999999985,149158.09999999776,148016.302,148023.19999999925,148032.972,149166.536,,27,that
screen,html.Screen,0_2_0_1_28,2021-12-02T15:16:28.602Z,,,,,,,,,,,,,,,,53,,,,,,,,,,,,,,1543.563999997772,,response,,,99,,,,,,Space,keypress(Space),,,,,---- -- ----- -- ------ - ------- --- ----------<br>------------- ------ ------ ---- ---- ------- ----- -- ----<br>-------- ------- -- ---------- --- - --- ----- ----- ----<br>it's --- --- ----- --- ---- ---- ------- ----- ---- -------<br>--- --- -- ----- -- --- ---- -- --- ---- -- ------ ------<br>--- ----- -- ----,150710.8999999985,150710.09999999776,149149.866,149159.19999999925,149166.536,150716.998,,28,it's
screen,html.Screen,0_2_0_1_29,2021-12-02T15:16:29.482Z,,,,,,,,,,,,,,,,53,,,,,,,,,,,,,,873.0020000000077,,response,,,99,,,,,,Space,keypress(Space),,,,,---- -- ----- -- ------ - ------- --- ----------<br>------------- ------ ------ ---- ---- ------- ----- -- ----<br>-------- ------- -- ---------- --- - --- ----- ----- ----<br>---- not --- ----- --- ---- ---- ------- ----- ---- -------<br>--- --- -- ----- -- --- ---- -- --- ---- -- ------ ------<br>--- ----- -- ----,151590.79999999702,151590,150700.328,150711.19999999925,150716.998,151600.708,,29,not
screen,html.Screen,0_2_0_1_30,2021-12-02T15:16:30.482Z,,,,,,,,,,,,,,,,53,,,,,,,,,,,,,,989.2919999999867,,response,,,99,,,,,,Space,keypress(Space),,,,,---- -- ----- -- ------ - ------- --- ----------<br>------------- ------ ------ ---- ---- ------- ----- -- ----<br>-------- ------- -- ---------- --- - --- ----- ----- ----<br>---- --- how ----- --- ---- ---- ------- ----- ---- -------<br>--- --- -- ----- -- --- ---- -- --- ---- -- ------ ------<br>--- ----- -- ----,152590.8999999985,152590,151584.037,151593.3999999985,151600.708,152600.86,,30,how
screen,html.Screen,0_2_0_1_31,2021-12-02T15:16:31.931Z,,,,,,,,,,,,,,,,53,,,,,,,,,,,,,,1437.4399999970337,,response,,,99,,,,,,Space,keypress(Space),,,,,---- -- ----- -- ------ - ------- --- ----------<br>------------- ------ ------ ---- ---- ------- ----- -- ----<br>-------- ------- -- ---------- --- - --- ----- ----- ----<br>---- --- --- close --- ---- ---- ------- ----- ---- -------<br>--- --- -- ----- -- --- ---- -- --- ---- -- ------ ------<br>--- ----- -- ----,154039.29999999702,154038.29999999702,152584.19,152591.3999999985,152600.86,154051.378,,31,close
screen,html.Screen,0_2_0_1_32,2021-12-02T15:16:32.794Z,,,,,,,,,,,,,,,,53,,,,,,,,,,,,,,850.4219999970228,,response,,,99,,,,,,Space,keypress(Space),,,,,---- -- ----- -- ------ - ------- --- ----------<br>------------- ------ ------ ---- ---- ------- ----- -- ----<br>-------- ------- -- ---------- --- - --- ----- ----- ----<br>---- --- --- ----- you ---- ---- ------- ----- ---- -------<br>--- --- -- ----- -- --- ---- -- --- ---- -- ------ ------<br>--- ----- -- ----,154902.69999999925,154901.79999999702,154034.707,154039.5,154051.378,154918.247,,32,you
screen,html.Screen,0_2_0_1_33,2021-12-02T15:16:33.874Z,,,,,,,,,,,,,,,,53,,,,,,,,,,,,,,1063.5529999970167,,response,,,99,,,,,,Space,keypress(Space),,,,,---- -- ----- -- ------ - ------- --- ----------<br>------------- ------ ------ ---- ---- ------- ----- -- ----<br>-------- ------- -- ---------- --- - --- ----- ----- ----<br>---- --- --- ----- --- feel ---- ------- ----- ---- -------<br>--- --- -- ----- -- --- ---- -- --- ---- -- ------ ------<br>--- ----- -- ----,155982.59999999776,155981.79999999702,154901.576,154902.8999999985,154918.247,155985.075,,33,feel
screen,html.Screen,0_2_0_1_34,2021-12-02T15:16:34.978Z,,,,,,,,,,,,,,,,53,,,,,,,,,,,,,,1100.7249999970081,,response,,,99,,,,,,Space,keypress(Space),,,,,---- -- ----- -- ------ - ------- --- ----------<br>------------- ------ ------ ---- ---- ------- ----- -- ----<br>-------- ------- -- ---------- --- - --- ----- ----- ----<br>---- --- --- ----- --- ---- that ------- ----- ---- -------<br>--- --- -- ----- -- --- ---- -- --- ---- -- ------ ------<br>--- ----- -- ----,157086.59999999776,157085.79999999702,155968.405,155982.79999999702,155985.075,157102.243,,34,that
screen,html.Screen,0_2_0_1_35,2021-12-02T15:16:36.466Z,,,,,,,,,,,,,,,,53,,,,,,,,,,,,,,1471.4569999992673,,response,,,99,,,,,,Space,keypress(Space),,,,,---- -- ----- -- ------ - ------- --- ----------<br>------------- ------ ------ ---- ---- ------- ----- -- ----<br>-------- ------- -- ---------- --- - --- ----- ----- ----<br>---- --- --- ----- --- ---- ---- matters ----- ---- -------<br>--- --- -- ----- -- --- ---- -- --- ---- -- ------ ------<br>--- ----- -- ----,158574.5,158573.69999999925,157085.572,157086.79999999702,157102.243,158585.876,,35,matters
screen,html.Screen,0_2_0_1_36,2021-12-02T15:16:37.674Z,,,,,,,,,,,,,,,,53,,,,,,,,,,,,,,1195.7239999977755,,response,,,99,,,,,,Space,keypress(Space),,,,,"---- -- ----- -- ------ - ------- --- ----------<br>------------- ------ ------ ---- ---- ------- ----- -- ----<br>-------- ------- -- ---------- --- - --- ----- ----- ----<br>---- --- --- ----- --- ---- ---- ------- most, ---- -------<br>--- --- -- ----- -- --- ---- -- --- ---- -- ------ ------<br>--- ----- -- ----",159782.59999999776,159781.59999999776,158569.205,158574.79999999702,158585.876,159786.041,,36,"most,"
screen,html.Screen,0_2_0_1_37,2021-12-02T15:16:38.970Z,,,,,,,,,,,,,,,,53,,,,,,,,,,,,,,1291.5589999977674,,response,,,99,,,,,,Space,keypress(Space),,,,,---- -- ----- -- ------ - ------- --- ----------<br>------------- ------ ------ ---- ---- ------- ----- -- ----<br>-------- ------- -- ---------- --- - --- ----- ----- ----<br>---- --- --- ----- --- ---- ---- ------- ----- it's -------<br>--- --- -- ----- -- --- ---- -- --- ---- -- ------ ------<br>--- ----- -- ----,161078.29999999702,161077.59999999776,159769.371,159782.8999999985,159786.041,161086.385,,37,it's
screen,html.Screen,0_2_0_1_38,2021-12-02T15:16:40.506Z,,,,,,,,,,,,,,,,53,,,,,,,,,,,,,,1527.1149999999907,,response,,,99,,,,,,Space,keypress(Space),,,,,---- -- ----- -- ------ - ------- --- ----------<br>------------- ------ ------ ---- ---- ------- ----- -- ----<br>-------- ------- -- ---------- --- - --- ----- ----- ----<br>---- --- --- ----- --- ---- ---- ------- ----- ---- whether<br>--- --- -- ----- -- --- ---- -- --- ---- -- ------ ------<br>--- ----- -- ----,162614.3999999985,162613.5,161069.715,161078.59999999776,161086.385,162620.316,,38,whether
screen,html.Screen,0_2_0_1_39,2021-12-02T15:16:41.594Z,,,,,,,,,,,,,,,,53,,,,,,,,,,,,,,1081.1840000000084,,response,,,99,,,,,,Space,keypress(Space),,,,,---- -- ----- -- ------ - ------- --- ----------<br>------------- ------ ------ ---- ---- ------- ----- -- ----<br>-------- ------- -- ---------- --- - --- ----- ----- ----<br>---- --- --- ----- --- ---- ---- ------- ----- ---- -------<br>you --- -- ----- -- --- ---- -- --- ---- -- ------ ------<br>--- ----- -- ----,163702.19999999925,163701.5,162603.645,162614.59999999776,162620.316,163703.743,,39,you
screen,html.Screen,0_2_0_1_40,2021-12-02T15:16:42.570Z,,,,,,,,,,,,,,,,53,,,,,,,,,,,,,,974.1569999985222,,response,,,99,,,,,,Space,keypress(Space),,,,,---- -- ----- -- ------ - ------- --- ----------<br>------------- ------ ------ ---- ---- ------- ----- -- ----<br>-------- ------- -- ---------- --- - --- ----- ----- ----<br>---- --- --- ----- --- ---- ---- ------- ----- ---- -------<br>--- are -- ----- -- --- ---- -- --- ---- -- ------ ------<br>--- ----- -- ----,164678.59999999776,164677.8999999985,163687.073,163702.3999999985,163703.743,164687.58,,40,are
screen,html.Screen,0_2_0_1_41,2021-12-02T15:16:43.481Z,,,,,,,,,,,,,,,,53,,,,,,,,,,,,,,901.7199999970326,,response,,,99,,,,,,Space,keypress(Space),,,,,---- -- ----- -- ------ - ------- --- ----------<br>------------- ------ ------ ---- ---- ------- ----- -- ----<br>-------- ------- -- ---------- --- - --- ----- ----- ----<br>---- --- --- ----- --- ---- ---- ------- ----- ---- -------<br>--- --- as ----- -- --- ---- -- --- ---- -- ------ ------<br>--- ----- -- ----,165589.79999999702,165589.29999999702,164670.909,164678.79999999702,164687.58,165604.353,,41,as
screen,html.Screen,0_2_0_1_42,2021-12-02T15:16:44.530Z,,,,,,,,,,,,,,,,53,,,,,,,,,,,,,,1032.746999997762,,response,,,99,,,,,,Space,keypress(Space),,,,,---- -- ----- -- ------ - ------- --- ----------<br>------------- ------ ------ ---- ---- ------- ----- -- ----<br>-------- ------- -- ---------- --- - --- ----- ----- ----<br>---- --- --- ----- --- ---- ---- ------- ----- ---- -------<br>--- --- -- close -- --- ---- -- --- ---- -- ------ ------<br>--- ----- -- ----,166638,166637.09999999776,165587.683,165589.8999999985,165604.353,166654.649,,42,close
screen,html.Screen,0_2_0_1_43,2021-12-02T15:16:45.314Z,,,,,,,,,,,,,,,,53,,,,,,,,,,,,,,766.6509999970149,,response,,,99,,,,,,Space,keypress(Space),,,,,---- -- ----- -- ------ - ------- --- ----------<br>------------- ------ ------ ---- ---- ------- ----- -- ----<br>-------- ------- -- ---------- --- - --- ----- ----- ----<br>---- --- --- ----- --- ---- ---- ------- ----- ---- -------<br>--- --- -- ----- as --- ---- -- --- ---- -- ------ ------<br>--- ----- -- ----,167422,167421.29999999702,166637.979,166638.19999999925,166654.649,167438.117,,43,as
screen,html.Screen,0_2_0_1_44,2021-12-02T15:16:46.298Z,,,,,,,,,,,,,,,,53,,,,,,,,,,,,,,967.1829999970214,,response,,,99,,,,,,Space,keypress(Space),,,,,---- -- ----- -- ------ - ------- --- ----------<br>------------- ------ ------ ---- ---- ------- ----- -- ----<br>-------- ------- -- ---------- --- - --- ----- ----- ----<br>---- --- --- ----- --- ---- ---- ------- ----- ---- -------<br>--- --- -- ----- -- you ---- -- --- ---- -- ------ ------<br>--- ----- -- ----,168406.09999999776,168405.29999999702,167421.447,167422.29999999702,167438.117,168421.913,,44,you
screen,html.Screen,0_2_0_1_45,2021-12-02T15:16:47.506Z,,,,,,,,,,,,,,,,53,,,,,,,,,,,,,,1191.2869999992545,,response,,,99,,,,,,Space,keypress(Space),,,,,---- -- ----- -- ------ - ------- --- ----------<br>------------- ------ ------ ---- ---- ------- ----- -- ----<br>-------- ------- -- ---------- --- - --- ----- ----- ----<br>---- --- --- ----- --- ---- ---- ------- ----- ---- -------<br>--- --- -- ----- -- --- want -- --- ---- -- ------ ------<br>--- ----- -- ----,169614,169613.19999999925,168405.242,168406.29999999702,168421.913,169622.024,,45,want
screen,html.Screen,0_2_0_1_46,2021-12-02T15:16:48.577Z,,,,,,,,,,,,,,,,53,,,,,,,,,,,,,,1063.07599999776,,response,,,99,,,,,,Space,keypress(Space),,,,,---- -- ----- -- ------ - ------- --- ----------<br>------------- ------ ------ ---- ---- ------- ----- -- ----<br>-------- ------- -- ---------- --- - --- ----- ----- ----<br>---- --- --- ----- --- ---- ---- ------- ----- ---- -------<br>--- --- -- ----- -- --- ---- to --- ---- -- ------ ------<br>--- ----- -- ----,170685.8999999985,170685.09999999776,169605.354,169614.09999999776,169622.024,170689.136,,46,to
screen,html.Screen,0_2_0_1_47,2021-12-02T15:16:49.433Z,,,,,,,,,,,,,,,,53,,,,,,,,,,,,,,851.9639999977662,,response,,,99,,,,,,Space,keypress(Space),,,,,"---- -- ----- -- ------ - ------- --- ----------<br>------------- ------ ------ ---- ---- ------- ----- -- ----<br>-------- ------- -- ---------- --- - --- ----- ----- ----<br>---- --- --- ----- --- ---- ---- ------- ----- ---- -------<br>--- --- -- ----- -- --- ---- -- be, ---- -- ------ ------<br>--- ----- -- ----",171541.79999999702,171541.09999999776,170672.465,170686.09999999776,170689.136,171555.989,,47,"be,"
screen,html.Screen,0_2_0_1_48,2021-12-02T15:16:50.793Z,,,,,,,,,,,,,,,,53,,,,,,,,,,,,,,1345.0109999999986,,response,,,99,,,,,,Space,keypress(Space),,,,,---- -- ----- -- ------ - ------- --- ----------<br>------------- ------ ------ ---- ---- ------- ----- -- ----<br>-------- ------- -- ---------- --- - --- ----- ----- ----<br>---- --- --- ----- --- ---- ---- ------- ----- ---- -------<br>--- --- -- ----- -- --- ---- -- --- even -- ------ ------<br>--- ----- -- ----,172901.79999999702,172901,171539.319,171542,171555.989,172906.322,,48,even
screen,html.Screen,0_2_0_1_49,2021-12-02T15:16:53.010Z,,,,,,,,,,,,,,,,53,,,,,,,,,,,,,,2210.977999997034,,response,,,99,,,,,,Space,keypress(Space),,,,,---- -- ----- -- ------ - ------- --- ----------<br>------------- ------ ------ ---- ---- ------- ----- -- ----<br>-------- ------- -- ---------- --- - --- ----- ----- ----<br>---- --- --- ----- --- ---- ---- ------- ----- ---- -------<br>--- --- -- ----- -- --- ---- -- --- ---- if ------ ------<br>--- ----- -- ----,175118,175117.29999999702,172889.652,172902.09999999776,172906.322,175123.487,,49,if
screen,html.Screen,0_2_0_1_50,2021-12-02T15:16:55.401Z,,,,,,,,,,,,,,,,53,,,,,,,,,,,,,,2385.312999997026,,response,,,99,,,,,,Space,keypress(Space),,,,,---- -- ----- -- ------ - ------- --- ----------<br>------------- ------ ------ ---- ---- ------- ----- -- ----<br>-------- ------- -- ---------- --- - --- ----- ----- ----<br>---- --- --- ----- --- ---- ---- ------- ----- ---- -------<br>--- --- -- ----- -- --- ---- -- --- ---- -- that's ------<br>--- ----- -- ----,177509.79999999702,177508.79999999702,175106.817,175118.29999999702,175123.487,177524,,50,that's
screen,html.Screen,0_2_0_1_51,2021-12-02T15:16:56.593Z,,,,,,,,,,,,,,,,53,,,,,,,,,,,,,,1176.699999999255,,response,,,99,,,,,,Space,keypress(Space),,,,,---- -- ----- -- ------ - ------- --- ----------<br>------------- ------ ------ ---- ---- ------- ----- -- ----<br>-------- ------- -- ---------- --- - --- ----- ----- ----<br>---- --- --- ----- --- ---- ---- ------- ----- ---- -------<br>--- --- -- ----- -- --- ---- -- --- ---- -- ------ really<br>--- ----- -- ----,178701.5,178700.69999999925,177507.33,177510.09999999776,177524,178707.667,,51,really
screen,html.Screen,0_2_0_1_52,2021-12-02T15:16:57.824Z,,,,,,,,,,,,,,,,53,,,,,,,,,,,,,,1224.632999997033,,response,,,99,,,,,,Space,keypress(Space),,,,,---- -- ----- -- ------ - ------- --- ----------<br>------------- ------ ------ ---- ---- ------- ----- -- ----<br>-------- ------- -- ---------- --- - --- ----- ----- ----<br>---- --- --- ----- --- ---- ---- ------- ----- ---- -------<br>--- --- -- ----- -- --- ---- -- --- ---- -- ------ ------<br>not ----- -- ----,179932.69999999925,179932.29999999702,178690.997,178701.79999999702,178707.667,179941.471,,52,not
screen,html.Screen,0_2_0_1_53,2021-12-02T15:16:59.164Z,,,,,,,,,,,,,,,,53,,,,,,,,,,,,,,1327.1289999977744,,response,,,99,,,,,,Space,keypress(Space),,,,,---- -- ----- -- ------ - ------- --- ----------<br>------------- ------ ------ ---- ---- ------- ----- -- ----<br>-------- ------- -- ---------- --- - --- ----- ----- ----<br>---- --- --- ----- --- ---- ---- ------- ----- ---- -------<br>--- --- -- ----- -- --- ---- -- --- ---- -- ------ ------<br>--- close -- ----,181269.5,181268.59999999776,179924.801,179932.79999999702,179941.471,181275.163,,53,close
screen,html.Screen,0_2_0_1_54,2021-12-02T15:17:00.212Z,,,,,,,,,,,,,,,,53,,,,,,,,,,,,,,1041.4369999977644,,response,,,99,,,,,,Space,keypress(Space),,,,,---- -- ----- -- ------ - ------- --- ----------<br>------------- ------ ------ ---- ---- ------- ----- -- ----<br>-------- ------- -- ---------- --- - --- ----- ----- ----<br>---- --- --- ----- --- ---- ---- ------- ----- ---- -------<br>--- --- -- ----- -- --- ---- -- --- ---- -- ------ ------<br>--- ----- at ----,182317.5,182316.59999999776,181258.493,181269.69999999925,181275.163,182325.413,,54,at
screen,html.Screen,0_2_0_1_55,2021-12-02T15:17:01.716Z,,,,,,,,,,,,,,,,53,,,,,,,,,,,,,,1495.0869999999995,,response,,,99,,,,,,Space,keypress(Space),,,,,---- -- ----- -- ------ - ------- --- ----------<br>------------- ------ ------ ---- ---- ------- ----- -- ----<br>-------- ------- -- ---------- --- - --- ----- ----- ----<br>---- --- --- ----- --- ---- ---- ------- ----- ---- -------<br>--- --- -- ----- -- --- ---- -- --- ---- -- ------ ------<br>--- ----- -- all.,183821.29999999702,183820.5,182308.743,182317.69999999925,182325.413,183842.589,,55,all.
Item 99,flow.Loop,0_2_0_1,2021-12-02T15:17:01.721Z,,,,,,,,,,,,,,,,,,,,,,,,,,,,,,84983.963,,completion,,,,E,,,,,,,,,,silence,,183826.8999999985,183820.5,98819.867,98826.09999999776,98836.537,183842.589,,,
Question 1,html.Screen,0_2_0_2,2021-12-02T15:17:30.283Z,,,,,,,,,,,,,,,,,,,,,,,,,,,true,FALSE,,28544.410999999993,,response,,,99,E,,,,,FALSE,click #choice-2,,,,silence,,212388.5,212387,183825.918,183827.19999999925,183842.589,212400.14,,,
Question 2,html.Screen,0_2_0_3,2021-12-02T15:17:52.498Z,,,,,,,,,,,,,,,,,,,,,,,,,,,true,TRUE,,22201.759999998496,,response,,,99,E,,,,,TRUE,click #choice-1,,,,silence,,234603.09999999776,234601.8999999985,212383.47,212389,212400.14,234606.127,,,
Item 99,flow.Sequence,0_2_0,2021-12-02T15:17:52.498Z,,,,,,,,,,,,,,,,,,,,,,,,,,,,,,145768.0099999985,,completion,,,,,,,,,,,,,,,,234603.5,234601.8999999985,88817.22,88827.09999999776,88833.89,234606.127,,,
Holding screen,html.Screen,0_2_1_0,2021-12-02T15:18:02.490Z,,,,,,,,,,,,,,,,,,,,,,,,,,,,,,10002.666999999987,,timeout,,,,,,,,,,,,,,,,244593.5,244592.123,234589.457,234603.8999999985,234606.127,244608.794,,,
screen,html.Screen,0_2_1_1_0,2021-12-02T15:18:03.812Z,,,,,,,,,,,,,,,,54,,,,,,,,,,,,,,1305.1059999985155,,response,,,100,,,,,,Space,keypress(Space),,,,,At --- ---- --- ------ ----- ------- ---- -- --- ------- --<br>------- ---------- ------ -- ----- -- ----- -- ---- ------<br>--- ----- --- --- ------ -------- ----- --- ------ ----- --<br>----- ----- ---------- --- --- ------ ------ ---- -- ------<br>------- --- ------ ----- --- ---- ------- -- ---- --- --<br>------- ------,245914.8999999985,245913.8999999985,244592.123,244593.79999999702,244608.794,245925.706,,0,At
screen,html.Screen,0_2_1_1_1,2021-12-02T15:18:04.675Z,,,,,,,,,,,,,,,,54,,,,,,,,,,,,,,851.7939999999944,,response,,,100,,,,,,Space,keypress(Space),,,,,-- the ---- --- ------ ----- ------- ---- -- --- ------- --<br>------- ---------- ------ -- ----- -- ----- -- ---- ------<br>--- ----- --- --- ------ -------- ----- --- ------ ----- --<br>----- ----- ---------- --- --- ------ ------ ---- -- ------<br>------- --- ------ ----- --- ---- ------- -- ---- --- --<br>------- ------,246778.3999999985,246777.5,245909.036,245915.19999999925,245925.706,246792.606,,1,the
screen,html.Screen,0_2_1_1_2,2021-12-02T15:18:05.835Z,,,,,,,,,,,,,,,,54,,,,,,,,,,,,,,1144.8940000000002,,response,,,100,,,,,,Space,keypress(Space),,,,,-- --- time --- ------ ----- ------- ---- -- --- ------- --<br>------- ---------- ------ -- ----- -- ----- -- ---- ------<br>--- ----- --- --- ------ -------- ----- --- ------ ----- --<br>----- ----- ---------- --- --- ------ ------ ---- -- ------<br>------- --- ------ ----- --- ---- ------- -- ---- --- --<br>------- ------,247938.29999999702,247937.5,246775.936,246778.69999999925,246792.606,247943.033,,2,time
screen,html.Screen,0_2_1_1_3,2021-12-02T15:18:06.763Z,,,,,,,,,,,,,,,,54,,,,,,,,,,,,,,922.3669999985141,,response,,,100,,,,,,Space,keypress(Space),,,,,-- --- ---- the ------ ----- ------- ---- -- --- ------- --<br>------- ---------- ------ -- ----- -- ----- -- ---- ------<br>--- ----- --- --- ------ -------- ----- --- ------ ----- --<br>----- ----- ---------- --- --- ------ ------ ---- -- ------<br>------- --- ------ ----- --- ---- ------- -- ---- --- --<br>------- ------,248866.19999999925,248865.3999999985,247926.362,247938.59999999776,247943.033,248876.451,,3,the
screen,html.Screen,0_2_1_1_4,2021-12-02T15:18:08.963Z,,,,,,,,,,,,,,,,54,,,,,,,,,,,,,,2188.848999997019,,response,,,100,,,,,,Space,keypress(Space),,,,,-- --- ---- --- French ----- ------- ---- -- --- ------- --<br>------- ---------- ------ -- ----- -- ----- -- ---- ------<br>--- ----- --- --- ------ -------- ----- --- ------ ----- --<br>----- ----- ---------- --- --- ------ ------ ---- -- ------<br>------- --- ------ ----- --- ---- ------- -- ---- --- --<br>------- ------,251066.09999999776,251065.29999999702,248859.781,248866.3999999985,248876.451,251076.979,,4,French
screen,html.Screen,0_2_1_1_5,2021-12-02T15:18:11.579Z,,,,,,,,,,,,,,,,54,,,,,,,,,,,,,,2604.220999999263,,response,,,100,,,,,,Space,keypress(Space),,,,,-- --- ---- --- ------ crown ------- ---- -- --- ------- --<br>------- ---------- ------ -- ----- -- ----- -- ---- ------<br>--- ----- --- --- ------ -------- ----- --- ------ ----- --<br>----- ----- ---------- --- --- ------ ------ ---- -- ------<br>------- --- ------ ----- --- ---- ------- -- ---- --- --<br>------- ------,253682.09999999776,253681.19999999925,251060.309,251066.29999999702,251076.979,253694.591,,5,crown
screen,html.Screen,0_2_1_1_6,2021-12-02T15:18:14.867Z,,,,,,,,,,,,,,,,54,,,,,,,,,,,,,,3275.008999997779,,response,,,100,,,,,,Space,keypress(Space),,,,,-- --- ---- --- ------ ----- secured ---- -- --- ------- --<br>------- ---------- ------ -- ----- -- ----- -- ---- ------<br>--- ----- --- --- ------ -------- ----- --- ------ ----- --<br>----- ----- ---------- --- --- ------ ------ ---- -- ------<br>------- --- ------ ----- --- ---- ------- -- ---- --- --<br>------- ------,256970.3999999985,256969.59999999776,253677.92,253682.29999999702,253694.591,256978.385,,6,secured
screen,html.Screen,0_2_1_1_7,2021-12-02T15:18:16.099Z,,,,,,,,,,,,,,,,54,,,,,,,,,,,,,,1222.7149999977555,,response,,,100,,,,,,Space,keypress(Space),,,,,-- --- ---- --- ------ ----- ------- much -- --- ------- --<br>------- ---------- ------ -- ----- -- ----- -- ---- ------<br>--- ----- --- --- ------ -------- ----- --- ------ ----- --<br>----- ----- ---------- --- --- ------ ------ ---- -- ------<br>------- --- ------ ----- --- ---- ------- -- ---- --- --<br>------- ------,258201.8999999985,258201.09999999776,256961.715,256970.79999999702,256978.385,258212.197,,7,much
screen,html.Screen,0_2_1_1_8,2021-12-02T15:18:17.083Z,,,,,,,,,,,,,,,,54,,,,,,,,,,,,,,972.8030000000144,,response,,,100,,,,,,Space,keypress(Space),,,,,-- --- ---- --- ------ ----- ------- ---- of --- ------- --<br>------- ---------- ------ -- ----- -- ----- -- ---- ------<br>--- ----- --- --- ------ -------- ----- --- ------ ----- --<br>----- ----- ---------- --- --- ------ ------ ---- -- ------<br>------- --- ------ ----- --- ---- ------- -- ---- --- --<br>------- ------,259185.79999999702,259185,258195.527,258202.29999999702,258212.197,259195.882,,8,of
screen,html.Screen,0_2_1_1_9,2021-12-02T15:18:18.955Z,,,,,,,,,,,,,,,,54,,,,,,,,,,,,,,1861.0179999984975,,response,,,100,,,,,,Space,keypress(Space),,,,,-- --- ---- --- ------ ----- ------- ---- -- its ------- --<br>------- ---------- ------ -- ----- -- ----- -- ---- ------<br>--- ----- --- --- ------ -------- ----- --- ------ ----- --<br>----- ----- ---------- --- --- ------ ------ ---- -- ------<br>------- --- ------ ----- --- ---- ------- -- ---- --- --<br>------- ------,261058.09999999776,261056.8999999985,259179.212,259186.09999999776,259195.882,261063.214,,9,its
screen,html.Screen,0_2_1_1_10,2021-12-02T15:18:21.498Z,,,,,,,,,,,,,,,,54,,,,,,,,,,,,,,2537.5859999970126,,response,,,100,,,,,,Space,keypress(Space),,,,,-- --- ---- --- ------ ----- ------- ---- -- --- revenue --<br>------- ---------- ------ -- ----- -- ----- -- ---- ------<br>--- ----- --- --- ------ -------- ----- --- ------ ----- --<br>----- ----- ---------- --- --- ------ ------ ---- -- ------<br>------- --- ------ ----- --- ---- ------- -- ---- --- --<br>------- ------,263601.69999999925,263600.799999997,261046.543,261058.19999999925,261063.214,263613.682,,10,revenue
screen,html.Screen,0_2_1_1_11,2021-12-02T15:18:22.570Z,,,,,,,,,,,,,,,,54,,,,,,,,,,,,,,1059.1179999970482,,response,,,100,,,,,,Space,keypress(Space),,,,,-- --- ---- --- ------ ----- ------- ---- -- --- ------- by<br>------- ---------- ------ -- ----- -- ----- -- ---- ------<br>--- ----- --- --- ------ -------- ----- --- ------ ----- --<br>----- ----- ---------- --- --- ------ ------ ---- -- ------<br>------- --- ------ ----- --- ---- ------- -- ---- --- --<br>------- ------,264673.59999999776,264672.799999997,263597.012,263601.8999999985,263613.682,264680.695,,11,by
screen,html.Screen,0_2_1_1_12,2021-12-02T15:18:24.394Z,,,,,,,,,,,,,,,,54,,,,,,,,,,,,,,1816.004999999248,,response,,,100,,,,,,Space,keypress(Space),,,,,-- --- ---- --- ------ ----- ------- ---- -- --- ------- --<br>issuing ---------- ------ -- ----- -- ----- -- ---- ------<br>--- ----- --- --- ------ -------- ----- --- ------ ----- --<br>----- ----- ---------- --- --- ------ ------ ---- -- ------<br>------- --- ------ ----- --- ---- ------- -- ---- --- --<br>------- ------,266497.59999999776,266496.69999999925,264664.025,264673.799999997,264680.695,266514.37,,12,issuing
screen,html.Screen,0_2_1_1_13,2021-12-02T15:18:26.299Z,,,,,,,,,,,,,,,,54,,,,,,,,,,,,,,1886.6300000000047,,response,,,100,,,,,,Space,keypress(Space),,,,,-- --- ---- --- ------ ----- ------- ---- -- --- ------- --<br>------- government ------ -- ----- -- ----- -- ---- ------<br>--- ----- --- --- ------ -------- ----- --- ------ ----- --<br>----- ----- ---------- --- --- ------ ------ ---- -- ------<br>------- --- ------ ----- --- ---- ------- -- ---- --- --<br>------- ------,268401.8999999985,268401,266497.7,266497.8999999985,266514.37,268415.079,,13,government
screen,html.Screen,0_2_1_1_14,2021-12-02T15:18:28.202Z,,,,,,,,,,,,,,,,54,,,,,,,,,,,,,,1889.3209999984829,,response,,,100,,,,,,Space,keypress(Space),,,,,-- --- ---- --- ------ ----- ------- ---- -- --- ------- --<br>------- ---------- bonds. -- ----- -- ----- -- ---- ------<br>--- ----- --- --- ------ -------- ----- --- ------ ----- --<br>----- ----- ---------- --- --- ------ ------ ---- -- ------<br>------- --- ------ ----- --- ---- ------- -- ---- --- --<br>------- ------,270305.299999997,270304.3999999985,268398.408,268402.19999999925,268415.079,270315.337,,14,bonds.
screen,html.Screen,0_2_1_1_15,2021-12-02T15:18:29.242Z,,,,,,,,,,,,,,,,54,,,,,,,,,,,,,,1029.0629999985103,,response,,,100,,,,,,Space,keypress(Space),,,,,-- --- ---- --- ------ ----- ------- ---- -- --- ------- --<br>------- ---------- ------ In ----- -- ----- -- ---- ------<br>--- ----- --- --- ------ -------- ----- --- ------ ----- --<br>----- ----- ---------- --- --- ------ ------ ---- -- ------<br>------- --- ------ ----- --- ---- ------- -- ---- --- --<br>------- ------,271345.19999999925,271344.3999999985,270298.667,270305.59999999776,270315.337,271349.202,,15,In
screen,html.Screen,0_2_1_1_16,2021-12-02T15:18:35.082Z,,,,,,,,,,,,,,,,54,,,,,,,,,,,,,,5834.897999997775,,response,,,100,,,,,,Space,keypress(Space),,,,,"-- --- ---- --- ------ ----- ------- ---- -- --- ------- --<br>------- ---------- ------ -- 1727, -- ----- -- ---- ------<br>--- ----- --- --- ------ -------- ----- --- ------ ----- --<br>----- ----- ---------- --- --- ------ ------ ---- -- ------<br>------- --- ------ ----- --- ---- ------- -- ---- --- --<br>------- ------",277185.09999999776,277184.09999999776,271332.531,271345.5,271349.202,277200.321,,16,"1727,"
screen,html.Screen,0_2_1_1_17,2021-12-02T15:18:36.058Z,,,,,,,,,,,,,,,,54,,,,,,,,,,,,,,959.7789999977686,,response,,,100,,,,,,Space,keypress(Space),,,,,-- --- ---- --- ------ ----- ------- ---- -- --- ------- --<br>------- ---------- ------ -- ----- in ----- -- ---- ------<br>--- ----- --- --- ------ -------- ----- --- ------ ----- --<br>----- ----- ---------- --- --- ------ ------ ---- -- ------<br>------- --- ------ ----- --- ---- ------- -- ---- --- --<br>------- ------,278160.8999999985,278160.09999999776,277183.651,277185.299999997,277200.321,278167.739,,17,in
screen,html.Screen,0_2_1_1_18,2021-12-02T15:18:37.226Z,,,,,,,,,,,,,,,,54,,,,,,,,,,,,,,1160.6609999985085,,response,,,100,,,,,,Space,keypress(Space),,,,,-- --- ---- --- ------ ----- ------- ---- -- --- ------- --<br>------- ---------- ------ -- ----- -- order -- ---- ------<br>--- ----- --- --- ------ -------- ----- --- ------ ----- --<br>----- ----- ---------- --- --- ------ ------ ---- -- ------<br>------- --- ------ ----- --- ---- ------- -- ---- --- --<br>------- ------,279329.19999999925,279328.3999999985,278151.067,278161.299999997,278167.739,279334.535,,18,order
screen,html.Screen,0_2_1_1_19,2021-12-02T15:18:38.201Z,,,,,,,,,,,,,,,,54,,,,,,,,,,,,,,969.4650000000256,,response,,,100,,,,,,Space,keypress(Space),,,,,-- --- ---- --- ------ ----- ------- ---- -- --- ------- --<br>------- ---------- ------ -- ----- -- ----- to ---- ------<br>--- ----- --- --- ------ -------- ----- --- ------ ----- --<br>----- ----- ---------- --- --- ------ ------ ---- -- ------<br>------- --- ------ ----- --- ---- ------- -- ---- --- --<br>------- ------,280304.69999999925,280304,279317.865,279329.3999999985,279334.535,280318.41,,19,to
screen,html.Screen,0_2_1_1_20,2021-12-02T15:18:40.113Z,,,,,,,,,,,,,,,,54,,,,,,,,,,,,,,1897.3899999970454,,response,,,100,,,,,,Space,keypress(Space),,,,,-- --- ---- --- ------ ----- ------- ---- -- --- ------- --<br>------- ---------- ------ -- ----- -- ----- -- save ------<br>--- ----- --- --- ------ -------- ----- --- ------ ----- --<br>----- ----- ---------- --- --- ------ ------ ---- -- ------<br>------- --- ------ ----- --- ---- ------- -- ---- --- --<br>------- ------,282216.69999999925,282215.799999997,280301.738,280304.8999999985,280318.41,282218.665,,20,save
screen,html.Screen,0_2_1_1_21,2021-12-02T15:18:41.417Z,,,,,,,,,,,,,,,,54,,,,,,,,,,,,,,1301.1349999970407,,response,,,100,,,,,,Space,keypress(Space),,,,,"-- --- ---- --- ------ ----- ------- ---- -- --- ------- --<br>------- ---------- ------ -- ----- -- ----- -- ---- money,<br>--- ----- --- --- ------ -------- ----- --- ------ ----- --<br>----- ----- ---------- --- --- ------ ------ ---- -- ------<br>------- --- ------ ----- --- ---- ------- -- ---- --- --<br>------- ------",283520.59999999776,283519.799999997,282201.995,282216.8999999985,282218.665,283535.716,,21,"money,"
screen,html.Screen,0_2_1_1_22,2021-12-02T15:18:42.481Z,,,,,,,,,,,,,,,,54,,,,,,,,,,,,,,1048.0839999970049,,response,,,100,,,,,,Space,keypress(Space),,,,,-- --- ---- --- ------ ----- ------- ---- -- --- ------- --<br>------- ---------- ------ -- ----- -- ----- -- ---- ------<br>the ----- --- --- ------ -------- ----- --- ------ ----- --<br>----- ----- ---------- --- --- ------ ------ ---- -- ------<br>------- --- ------ ----- --- ---- ------- -- ---- --- --<br>------- ------,284584.59999999776,284583.799999997,283519.046,283520.8999999985,283535.716,284585.984,,22,the
screen,html.Screen,0_2_1_1_23,2021-12-02T15:18:43.689Z,,,,,,,,,,,,,,,,54,,,,,,,,,,,,,,1205.7159999992582,,response,,,100,,,,,,Space,keypress(Space),,,,,-- --- ---- --- ------ ----- ------- ---- -- --- ------- --<br>------- ---------- ------ -- ----- -- ----- -- ---- ------<br>--- state --- --- ------ -------- ----- --- ------ ----- --<br>----- ----- ---------- --- --- ------ ------ ---- -- ------<br>------- --- ------ ----- --- ---- ------- -- ---- --- --<br>------- ------,285792.5,285791.69999999925,284569.314,284584.8999999985,284585.984,285802.895,,23,state
screen,html.Screen,0_2_1_1_24,2021-12-02T15:18:44.665Z,,,,,,,,,,,,,,,,54,,,,,,,,,,,,,,964.8049999992363,,response,,,100,,,,,,Space,keypress(Space),,,,,-- --- ---- --- ------ ----- ------- ---- -- --- ------- --<br>------- ---------- ------ -- ----- -- ----- -- ---- ------<br>--- ----- cut --- ------ -------- ----- --- ------ ----- --<br>----- ----- ---------- --- --- ------ ------ ---- -- ------<br>------- --- ------ ----- --- ---- ------- -- ---- --- --<br>------- ------,286768.5,286767.69999999925,285786.225,285792.799999997,285802.895,286769.822,,24,cut
screen,html.Screen,0_2_1_1_25,2021-12-02T15:18:45.505Z,,,,,,,,,,,,,,,,54,,,,,,,,,,,,,,837.9779999970342,,response,,,100,,,,,,Space,keypress(Space),,,,,-- --- ---- --- ------ ----- ------- ---- -- --- ------- --<br>------- ---------- ------ -- ----- -- ----- -- ---- ------<br>--- ----- --- the ------ -------- ----- --- ------ ----- --<br>----- ----- ---------- --- --- ------ ------ ---- -- ------<br>------- --- ------ ----- --- ---- ------- -- ---- --- --<br>------- ------,287608.69999999925,287607.799999997,286753.152,286768.799999997,286769.822,287620.105,,25,the
screen,html.Screen,0_2_1_1_26,2021-12-02T15:18:46.953Z,,,,,,,,,,,,,,,,54,,,,,,,,,,,,,,1435.4949999977835,,response,,,100,,,,,,Space,keypress(Space),,,,,-- --- ---- --- ------ ----- ------- ---- -- --- ------- --<br>------- ---------- ------ -- ----- -- ----- -- ---- ------<br>--- ----- --- --- bonds' -------- ----- --- ------ ----- --<br>----- ----- ---------- --- --- ------ ------ ---- -- ------<br>------- --- ------ ----- --- ---- ------- -- ---- --- --<br>------- ------,289056.3999999985,289055.59999999776,287603.435,287608.8999999985,287620.105,289070.476,,26,bonds'
screen,html.Screen,0_2_1_1_27,2021-12-02T15:18:48.914Z,,,,,,,,,,,,,,,,54,,,,,,,,,,,,,,1945.5239999999758,,response,,,100,,,,,,Space,keypress(Space),,,,,-- --- ---- --- ------ ----- ------- ---- -- --- ------- --<br>------- ---------- ------ -- ----- -- ----- -- ---- ------<br>--- ----- --- --- ------ interest ----- --- ------ ----- --<br>----- ----- ---------- --- --- ------ ------ ---- -- ------<br>------- --- ------ ----- --- ---- ------- -- ---- --- --<br>------- ------,291016.69999999925,291016,289053.806,289056.59999999776,289070.476,291021.095,,27,interest
screen,html.Screen,0_2_1_1_28,2021-12-02T15:18:49.913Z,,,,,,,,,,,,,,,,54,,,,,,,,,,,,,,994.4050000000279,,response,,,100,,,,,,Space,keypress(Space),,,,,-- --- ---- --- ------ ----- ------- ---- -- --- ------- --<br>------- ---------- ------ -- ----- -- ----- -- ---- ------<br>--- ----- --- --- ------ -------- rate. --- ------ ----- --<br>----- ----- ---------- --- --- ------ ------ ---- -- ------<br>------- --- ------ ----- --- ---- ------- -- ---- --- --<br>------- ------,292016.299999997,292015.5,291004.424,291017,291021.095,292021.209,,28,rate.
screen,html.Screen,0_2_1_1_29,2021-12-02T15:18:51.033Z,,,,,,,,,,,,,,,,54,,,,,,,,,,,,,,1114.1909999985364,,response,,,100,,,,,,Space,keypress(Space),,,,,-- --- ---- --- ------ ----- ------- ---- -- --- ------- --<br>------- ---------- ------ -- ----- -- ----- -- ---- ------<br>--- ----- --- --- ------ -------- ----- The ------ ----- --<br>----- ----- ---------- --- --- ------ ------ ---- -- ------<br>------- --- ------ ----- --- ---- ------- -- ---- --- --<br>------- ------,293136.09999999776,293135.3999999985,292004.539,292016.5,292021.209,293138.363,,29,The
screen,html.Screen,0_2_1_1_30,2021-12-02T15:18:52.937Z,,,,,,,,,,,,,,,,54,,,,,,,,,,,,,,1900.9369999970077,,response,,,100,,,,,,Space,keypress(Space),,,,,-- --- ---- --- ------ ----- ------- ---- -- --- ------- --<br>------- ---------- ------ -- ----- -- ----- -- ---- ------<br>--- ----- --- --- ------ -------- ----- --- market ----- --<br>----- ----- ---------- --- --- ------ ------ ---- -- ------<br>------- --- ------ ----- --- ---- ------- -- ---- --- --<br>------- ------,295040.09999999776,295039.299999997,293121.692,293136.3999999985,293138.363,295055.41,,30,market
screen,html.Screen,0_2_1_1_31,2021-12-02T15:18:54.233Z,,,,,,,,,,,,,,,,54,,,,,,,,,,,,,,1279.8899999970454,,response,,,100,,,,,,Space,keypress(Space),,,,,-- --- ---- --- ------ ----- ------- ---- -- --- ------- --<br>------- ---------- ------ -- ----- -- ----- -- ---- ------<br>--- ----- --- --- ------ -------- ----- --- ------ value --<br>----- ----- ---------- --- --- ------ ------ ---- -- ------<br>------- --- ------ ----- --- ---- ------- -- ---- --- --<br>------- ------,296336,296335.299999997,295038.74,295040.299999997,295055.41,296339.123,,31,value
screen,html.Screen,0_2_1_1_32,2021-12-02T15:18:55.105Z,,,,,,,,,,,,,,,,54,,,,,,,,,,,,,,868.0769999992335,,response,,,100,,,,,,Space,keypress(Space),,,,,-- --- ---- --- ------ ----- ------- ---- -- --- ------- --<br>------- ---------- ------ -- ----- -- ----- -- ---- ------<br>--- ----- --- --- ------ -------- ----- --- ------ ----- of<br>----- ----- ---------- --- --- ------ ------ ---- -- ------<br>------- --- ------ ----- --- ---- ------- -- ---- --- --<br>------- ------,297208.09999999776,297207.19999999925,296322.453,296336.299999997,296339.123,297222.681,,32,of
screen,html.Screen,0_2_1_1_33,2021-12-02T15:18:56.721Z,,,,,,,,,,,,,,,,54,,,,,,,,,,,,,,1600.4189999977825,,response,,,100,,,,,,Space,keypress(Space),,,,,-- --- ---- --- ------ ----- ------- ---- -- --- ------- --<br>------- ---------- ------ -- ----- -- ----- -- ---- ------<br>--- ----- --- --- ------ -------- ----- --- ------ ----- --<br>these ----- ---------- --- --- ------ ------ ---- -- ------<br>------- --- ------ ----- --- ---- ------- -- ---- --- --<br>------- ------,298823.8999999985,298823.09999999776,297206.011,297208.3999999985,297222.681,298839.69,,33,these
screen,html.Screen,0_2_1_1_34,2021-12-02T15:18:58.970Z,,,,,,,,,,,,,,,,54,,,,,,,,,,,,,,2231.7099999985076,,response,,,100,,,,,,Space,keypress(Space),,,,,-- --- ---- --- ------ ----- ------- ---- -- --- ------- --<br>------- ---------- ------ -- ----- -- ----- -- ---- ------<br>--- ----- --- --- ------ -------- ----- --- ------ ----- --<br>----- bonds ---------- --- --- ------ ------ ---- -- ------<br>------- --- ------ ----- --- ---- ------- -- ---- --- --<br>------- ------,301073.59999999776,301071.3999999985,298823.02,298824.19999999925,298839.69,301090.443,,34,bonds
screen,html.Screen,0_2_1_1_35,2021-12-02T15:19:03.684Z,,,,,,,,,,,,,,,,54,,,,,,,,,,,,,,4692.356999996991,,response,,,100,,,,,,Space,keypress(Space),,,,,"-- --- ---- --- ------ ----- ------- ---- -- --- ------- --<br>------- ---------- ------ -- ----- -- ----- -- ---- ------<br>--- ----- --- --- ------ -------- ----- --- ------ ----- --<br>----- ----- plummeted, --- --- ------ ------ ---- -- ------<br>------- --- ------ ----- --- ---- ------- -- ---- --- --<br>------- ------",305783.69999999925,305782.799999997,301073.772,301073.8999999985,301090.443,305791.376,,35,"plummeted,"
screen,html.Screen,0_2_1_1_36,2021-12-02T15:19:04.980Z,,,,,,,,,,,,,,,,54,,,,,,,,,,,,,,1287.4239999970305,,response,,,100,,,,,,Space,keypress(Space),,,,,-- --- ---- --- ------ ----- ------- ---- -- --- ------- --<br>------- ---------- ------ -- ----- -- ----- -- ---- ------<br>--- ----- --- --- ------ -------- ----- --- ------ ----- --<br>----- ----- ---------- and --- ------ ------ ---- -- ------<br>------- --- ------ ----- --- ---- ------- -- ---- --- --<br>------- ------,307079.59999999776,307078.799999997,305774.706,305783.8999999985,305791.376,307091.832,,36,and
screen,html.Screen,0_2_1_1_37,2021-12-02T15:19:06.268Z,,,,,,,,,,,,,,,,54,,,,,,,,,,,,,,1274.86799999926,,response,,,100,,,,,,Space,keypress(Space),,,,,-- --- ---- --- ------ ----- ------- ---- -- --- ------- --<br>------- ---------- ------ -- ----- -- ----- -- ---- ------<br>--- ----- --- --- ------ -------- ----- --- ------ ----- --<br>----- ----- ---------- --- the ------ ------ ---- -- ------<br>------- --- ------ ----- --- ---- ------- -- ---- --- --<br>------- ------,308367.5,308366.69999999925,307075.162,307079.8999999985,307091.832,308375.592,,37,the
screen,html.Screen,0_2_1_1_38,2021-12-02T15:19:07.612Z,,,,,,,,,,,,,,,,54,,,,,,,,,,,,,,1335.0079999977606,,response,,,100,,,,,,Space,keypress(Space),,,,,-- --- ---- --- ------ ----- ------- ---- -- --- ------- --<br>------- ---------- ------ -- ----- -- ----- -- ---- ------<br>--- ----- --- --- ------ -------- ----- --- ------ ----- --<br>----- ----- ---------- --- --- market ------ ---- -- ------<br>------- --- ------ ----- --- ---- ------- -- ---- --- --<br>------- ------,309711.299999997,309710.59999999776,308358.922,308367.69999999925,308375.592,309726.099,,38,market
screen,html.Screen,0_2_1_1_39,2021-12-02T15:19:08.820Z,,,,,,,,,,,,,,,,54,,,,,,,,,,,,,,1192.5009999977774,,response,,,100,,,,,,Space,keypress(Space),,,,,-- --- ---- --- ------ ----- ------- ---- -- --- ------- --<br>------- ---------- ------ -- ----- -- ----- -- ---- ------<br>--- ----- --- --- ------ -------- ----- --- ------ ----- --<br>----- ----- ---------- --- --- ------ became ---- -- ------<br>------- --- ------ ----- --- ---- ------- -- ---- --- --<br>------- ------,310919.3999999985,310918.59999999776,309709.428,309711.5,309726.099,310926.35,,39,became
screen,html.Screen,0_2_1_1_40,2021-12-02T15:19:11.460Z,,,,,,,,,,,,,,,,54,,,,,,,,,,,,,,2632.449999997043,,response,,,100,,,,,,Space,keypress(Space),,,,,-- --- ---- --- ------ ----- ------- ---- -- --- ------- --<br>------- ---------- ------ -- ----- -- ----- -- ---- ------<br>--- ----- --- --- ------ -------- ----- --- ------ ----- --<br>----- ----- ---------- --- --- ------ ------ wary -- ------<br>------- --- ------ ----- --- ---- ------- -- ---- --- --<br>------- ------,313559.69999999925,313558.799999997,310909.68,310919.59999999776,310926.35,313576.868,,40,wary
screen,html.Screen,0_2_1_1_41,2021-12-02T15:19:12.700Z,,,,,,,,,,,,,,,,54,,,,,,,,,,,,,,1221.5319999984931,,response,,,100,,,,,,Space,keypress(Space),,,,,-- --- ---- --- ------ ----- ------- ---- -- --- ------- --<br>------- ---------- ------ -- ----- -- ----- -- ---- ------<br>--- ----- --- --- ------ -------- ----- --- ------ ----- --<br>----- ----- ---------- --- --- ------ ------ ---- of ------<br>------- --- ------ ----- --- ---- ------- -- ---- --- --<br>------- ------,314799.19999999925,314798.3999999985,313560.198,313559.8999999985,313576.868,314810.778,,41,of
screen,html.Screen,0_2_1_1_42,2021-12-02T15:19:14.044Z,,,,,,,,,,,,,,,,54,,,,,,,,,,,,,,1331.5219999970286,,response,,,100,,,,,,Space,keypress(Space),,,,,-- --- ---- --- ------ ----- ------- ---- -- --- ------- --<br>------- ---------- ------ -- ----- -- ----- -- ---- ------<br>--- ----- --- --- ------ -------- ----- --- ------ ----- --<br>----- ----- ---------- --- --- ------ ------ ---- -- French<br>------- --- ------ ----- --- ---- ------- -- ---- --- --<br>------- ------,316143.09999999776,316142.299999997,314794.107,314799.3999999985,314810.778,316144.314,,42,French
screen,html.Screen,0_2_1_1_43,2021-12-02T15:19:17.003Z,,,,,,,,,,,,,,,,54,,,,,,,,,,,,,,2957.685999999987,,response,,,100,,,,,,Space,keypress(Space),,,,,-- --- ---- --- ------ ----- ------- ---- -- --- ------- --<br>------- ---------- ------ -- ----- -- ----- -- ---- ------<br>--- ----- --- --- ------ -------- ----- --- ------ ----- --<br>----- ----- ---------- --- --- ------ ------ ---- -- ------<br>credit. --- ------ ----- --- ---- ------- -- ---- --- --<br>------- ------,319102.799999997,319102,316127.644,316143.3999999985,316144.314,319111.865,,43,credit.
screen,html.Screen,0_2_1_1_44,2021-12-02T15:19:17.891Z,,,,,,,,,,,,,,,,54,,,,,,,,,,,,,,878.2349999977741,,response,,,100,,,,,,Space,keypress(Space),,,,,-- --- ---- --- ------ ----- ------- ---- -- --- ------- --<br>------- ---------- ------ -- ----- -- ----- -- ---- ------<br>--- ----- --- --- ------ -------- ----- --- ------ ----- --<br>----- ----- ---------- --- --- ------ ------ ---- -- ------<br>------- The ------ ----- --- ---- ------- -- ---- --- --<br>------- ------,319991,319990.09999999776,319095.194,319103.09999999776,319111.865,319995.206,,44,The
screen,html.Screen,0_2_1_1_45,2021-12-02T15:19:18.907Z,,,,,,,,,,,,,,,,54,,,,,,,,,,,,,,1010.8939999977592,,response,,,100,,,,,,Space,keypress(Space),,,,,-- --- ---- --- ------ ----- ------- ---- -- --- ------- --<br>------- ---------- ------ -- ----- -- ----- -- ---- ------<br>--- ----- --- --- ------ -------- ----- --- ------ ----- --<br>----- ----- ---------- --- --- ------ ------ ---- -- ------<br>------- --- French ----- --- ---- ------- -- ---- --- --<br>------- ------,321007,321006.09999999776,319978.536,319991.19999999925,319995.206,321012.457,,45,French
screen,html.Screen,0_2_1_1_46,2021-12-02T15:19:20.283Z,,,,,,,,,,,,,,,,54,,,,,,,,,,,,,,1369.5430000000051,,response,,,100,,,,,,Space,keypress(Space),,,,,-- --- ---- --- ------ ----- ------- ---- -- --- ------- --<br>------- ---------- ------ -- ----- -- ----- -- ---- ------<br>--- ----- --- --- ------ -------- ----- --- ------ ----- --<br>----- ----- ---------- --- --- ------ ------ ---- -- ------<br>------- --- ------ state --- ---- ------- -- ---- --- --<br>------- ------,322382.8999999985,322382,320995.786,321007.299999997,321012.457,322395.853,,46,state
screen,html.Screen,0_2_1_1_47,2021-12-02T15:19:21.443Z,,,,,,,,,,,,,,,,54,,,,,,,,,,,,,,1146.046999998507,,response,,,100,,,,,,Space,keypress(Space),,,,,-- --- ---- --- ------ ----- ------- ---- -- --- ------- --<br>------- ---------- ------ -- ----- -- ----- -- ---- ------<br>--- ----- --- --- ------ -------- ----- --- ------ ----- --<br>----- ----- ---------- --- --- ------ ------ ---- -- ------<br>------- --- ------ ----- was ---- ------- -- ---- --- --<br>------- ------,323542.69999999925,323541.8999999985,322379.184,322383.09999999776,322395.853,323546.475,,47,was
screen,html.Screen,0_2_1_1_48,2021-12-02T15:19:24.228Z,,,,,,,,,,,,,,,,54,,,,,,,,,,,,,,2779.824999997043,,response,,,100,,,,,,Space,keypress(Space),,,,,-- --- ---- --- ------ ----- ------- ---- -- --- ------- --<br>------- ---------- ------ -- ----- -- ----- -- ---- ------<br>--- ----- --- --- ------ -------- ----- --- ------ ----- --<br>----- ----- ---------- --- --- ------ ------ ---- -- ------<br>------- --- ------ ----- --- left ------- -- ---- --- --<br>------- ------,326327,326326.299999997,323529.804,323543,323546.475,326330.251,,48,left
screen,html.Screen,0_2_1_1_49,2021-12-02T15:19:26.763Z,,,,,,,,,,,,,,,,54,,,,,,,,,,,,,,2531.5489999970305,,response,,,100,,,,,,Space,keypress(Space),,,,,-- --- ---- --- ------ ----- ------- ---- -- --- ------- --<br>------- ---------- ------ -- ----- -- ----- -- ---- ------<br>--- ----- --- --- ------ -------- ----- --- ------ ----- --<br>----- ----- ---------- --- --- ------ ------ ---- -- ------<br>------- --- ------ ----- --- ---- without -- ---- --- --<br>------- ------,328862.5,328861.799999997,326313.581,326327.299999997,326330.251,328864.487,,49,without
screen,html.Screen,0_2_1_1_50,2021-12-02T15:19:30.875Z,,,,,,,,,,,,,,,,54,,,,,,,,,,,,,,4109.012999999977,,response,,,100,,,,,,Space,keypress(Space),,,,,-- --- ---- --- ------ ----- ------- ---- -- --- ------- --<br>------- ---------- ------ -- ----- -- ----- -- ---- ------<br>--- ----- --- --- ------ -------- ----- --- ------ ----- --<br>----- ----- ---------- --- --- ------ ------ ---- -- ------<br>------- --- ------ ----- --- ---- ------- an ---- --- --<br>------- ------,332974.3999999985,332973.5,328847.816,328862.799999997,328864.487,332981.913,,50,an
screen,html.Screen,0_2_1_1_51,2021-12-02T15:19:32.251Z,,,,,,,,,,,,,,,,54,,,,,,,,,,,,,,1367.5869999999995,,response,,,100,,,,,,Space,keypress(Space),,,,,-- --- ---- --- ------ ----- ------- ---- -- --- ------- --<br>------- ---------- ------ -- ----- -- ----- -- ---- ------<br>--- ----- --- --- ------ -------- ----- --- ------ ----- --<br>----- ----- ---------- --- --- ------ ------ ---- -- ------<br>------- --- ------ ----- --- ---- ------- -- easy --- --<br>------- ------,334350.19999999925,334349.5,332965.243,332974.59999999776,332981.913,334365.829,,51,easy
screen,html.Screen,0_2_1_1_52,2021-12-02T15:19:33.947Z,,,,,,,,,,,,,,,,54,,,,,,,,,,,,,,1679.5709999984829,,response,,,100,,,,,,Space,keypress(Space),,,,,-- --- ---- --- ------ ----- ------- ---- -- --- ------- --<br>------- ---------- ------ -- ----- -- ----- -- ---- ------<br>--- ----- --- --- ------ -------- ----- --- ------ ----- --<br>----- ----- ---------- --- --- ------ ------ ---- -- ------<br>------- --- ------ ----- --- ---- ------- -- ---- way --<br>------- ------,336046.299999997,336045.3999999985,334349.159,334350.5,334365.829,336049.603,,52,way
screen,html.Screen,0_2_1_1_53,2021-12-02T15:19:35.323Z,,,,,,,,,,,,,,,,54,,,,,,,,,,,,,,1372.196999997017,,response,,,100,,,,,,Space,keypress(Space),,,,,-- --- ---- --- ------ ----- ------- ---- -- --- ------- --<br>------- ---------- ------ -- ----- -- ----- -- ---- ------<br>--- ----- --- --- ------ -------- ----- --- ------ ----- --<br>----- ----- ---------- --- --- ------ ------ ---- -- ------<br>------- --- ------ ----- --- ---- ------- -- ---- --- of<br>------- ------,337422.5,337421.799999997,336032.933,336046.5,336049.603,337433.52,,53,of
screen,html.Screen,0_2_1_1_54,2021-12-02T15:19:38.066Z,,,,,,,,,,,,,,,,54,,,,,,,,,,,,,,2731.6799999992363,,response,,,100,,,,,,Space,keypress(Space),,,,,-- --- ---- --- ------ ----- ------- ---- -- --- ------- --<br>------- ---------- ------ -- ----- -- ----- -- ---- ------<br>--- ----- --- --- ------ -------- ----- --- ------ ----- --<br>----- ----- ---------- --- --- ------ ------ ---- -- ------<br>------- --- ------ ----- --- ---- ------- -- ---- --- --<br>raising ------,340166,340165.19999999925,337416.849,337422.69999999925,337433.52,340167.31,,54,raising
screen,html.Screen,0_2_1_1_55,2021-12-02T15:19:39.890Z,,,,,,,,,,,,,,,,54,,,,,,,,,,,,,,1821.7899999977672,,response,,,100,,,,,,Space,keypress(Space),,,,,-- --- ---- --- ------ ----- ------- ---- -- --- ------- --<br>------- ---------- ------ -- ----- -- ----- -- ---- ------<br>--- ----- --- --- ------ -------- ----- --- ------ ----- --<br>----- ----- ---------- --- --- ------ ------ ---- -- ------<br>------- --- ------ ----- --- ---- ------- -- ---- --- --<br>------- money.,341989.8999999985,341989.09999999776,340150.64,340166.299999997,340167.31,342001.073,,55,money.
Item 100,flow.Loop,0_2_1_1,2021-12-02T15:19:39.891Z,,,,,,,,,,,,,,,,,,,,,,,,,,,,,,97380.30599999777,,completion,,,,E,,,,,,,,,,silence,,341990.5,341989.09999999776,244592.123,244593.69999999925,244608.794,342001.073,,,
Question 1,html.Screen,0_2_1_2,2021-12-02T15:20:07.084Z,,,,,,,,,,,,,,,,,,,,,,,,,,,true,TRUE,,27178.62699999928,,response,,,100,E,,,,,TRUE,click #choice-1,,,,silence,,369180.799999997,369179.69999999925,341984.403,341990.799999997,342001.073,369191.949,,,
Question 2,html.Screen,0_2_1_3,2021-12-02T15:20:18.868Z,,,,,,,,,,,,,,,,,,,,,,,,,,,true,FALSE,,11771.150999997742,,response,,,100,E,,,,,FALSE,click #choice-2,,,,silence,,380964.19999999925,380963.09999999776,369175.278,369181.19999999925,369191.949,380978.222,,,
Item 100,flow.Sequence,0_2_1,2021-12-02T15:20:18.868Z,,,,,,,,,,,,,,,,,,,,,,,,,,,,,,146356.97299999776,,completion,,,,,,,,,,,,,,,,380964.59999999776,380963.09999999776,234589.457,234603.79999999702,234606.127,380978.222,,,
End of Practice,html.Page,0_2_2,2021-12-02T15:20:32.861Z,,,,,,,,,,,,,,,,,,,,,,,,,,,,,,13977.977999999246,,form submission,,,,,,,,,,,,,,,,394957,394956.19999999925,380961.552,380964.799999997,380978.222,394964.516,,,
Practice,flow.Sequence,0_2,2021-12-02T15:20:32.861Z,,,,,,,,,,,,,,,,,,,,,,,,,,,,,,306122.30999999924,,completion,,,,,,,,,,,,,,,,394957.3999999985,394956.19999999925,88817.22,88827,88833.89,394964.516,,,
Trap_instruction,html.Page,0_3_0,2021-12-02T15:20:34.684Z,,,,,,,,,,,,,,,,,,,,,,,,,,,,,,1815.1839999992517,,form submission,,,,,,,,,,,,,,,,396780.19999999925,396779.69999999925,394947.846,394957.8999999985,394964.516,396799.066,,,
trap_trial,html.Screen,0_3_1,2021-12-02T15:20:41.427Z,,,,,,,,,,,,,,,,,,,,,,,,,,,true,1,,6723.033999997773,,response,,,,,,,,,1,click #choice-1,,,,,,403523.3999999985,403522.09999999776,396765.726,396780.3999999985,396799.066,403532.679,,,
end of trap trial,html.Page,0_3_2,2021-12-02T15:20:47.427Z,,,,,,,,,,,,,,,,,,,,,,,,,,,,,,5990.620999997016,,form submission,,,,,,,,,,,,,,,,409523.799999997,409523.299999997,403516.012,403523.69999999925,403532.679,409535.759,,,
Trap 1,flow.Sequence,0_3,2021-12-02T15:20:47.428Z,,,,,,,,,,,,,,,,,,,,,,,,,,,,,,14558.783999997017,,completion,,,,,,,,,,,,,,,,409524.299999997,409523.299999997,394947.846,394957.799999997,394964.516,409535.759,,,
Standby,html.Page,0_4_0,2021-12-02T15:20:55.426Z,,,,,,,,,,,,,,,,,,,,,,,,,,,,,,8001.625,,timeout,,,,,,,,,,,,,,,,417522.09999999776,417520.714,409519.089,409524.59999999776,409535.759,417537.384,,,
Holding screen,html.Screen,0_4_1_0_0,2021-12-02T15:21:02.428Z,,,,,,,,,,,,,,,,,,,,,,,,,,,,,,7002.422999999952,,timeout,,,,,,,,,,,,,,,,424524.69999999925,424523.137,417520.714,417522.5,417537.384,424539.807,,,
screen,html.Screen,0_4_1_0_1_0,2021-12-02T15:21:05.717Z,,,,,,,,,,,,,,,,2,,,,,,,,,,,,,,3270.0929999985383,,response,,,1,E,,,,,Space,keypress(Space),,,,lyrical,Two ---- ------ --- ------- ---------- ------- ----------<br>--- --------- --- ----------- ------- ----- ------- ---<br>--------- ---- -- --- ---- -- --------- -- ---- -------<br>-- --------- ------ --- ----- ------ ---- --- --------- --<br>------ - ---- -- --- ----------- ------- ---- ----- -----<br>--- -------- - ------ ---- -- ----- ---- --- --- -----------<br>-- -------,427810.799999997,427809.8999999985,424523.137,424525.19999999925,424539.807,427823.854,,0,Two
screen,html.Screen,0_4_1_0_1_1,2021-12-02T15:21:06.876Z,,,,,,,,,,,,,,,,2,,,,,,,,,,,,,,1145.146000000008,,response,,,1,E,,,,,Space,keypress(Space),,,,lyrical,--- days ------ --- ------- ---------- ------- ----------<br>--- --------- --- ----------- ------- ----- ------- ---<br>--------- ---- -- --- ---- -- --------- -- ---- -------<br>-- --------- ------ --- ----- ------ ---- --- --------- --<br>------ - ---- -- --- ----------- ------- ---- ----- -----<br>--- -------- - ------ ---- -- ----- ---- --- --- -----------<br>-- -------,428969.8999999985,428969,427807.184,427811,427823.854,428974.433,,1,days
screen,html.Screen,0_4_1_0_1_2,2021-12-02T15:21:08.012Z,,,,,,,,,,,,,,,,2,,,,,,,,,,,,,,1130.566999999981,,response,,,1,E,,,,,Space,keypress(Space),,,,lyrical,"--- ---- later, --- ------- ---------- ------- ----------<br>--- --------- --- ----------- ------- ----- ------- ---<br>--------- ---- -- --- ---- -- --------- -- ---- -------<br>-- --------- ------ --- ----- ------ ---- --- --------- --<br>------ - ---- -- --- ----------- ------- ---- ----- -----<br>--- -------- - ------ ---- -- ----- ---- --- --- -----------<br>-- -------",430105.8999999985,430105,428957.762,428970.09999999776,428974.433,430107.955,,2,"later,"
screen,html.Screen,0_4_1_0_1_3,2021-12-02T15:21:09.612Z,,,,,,,,,,,,,,,,2,,,,,,,,,,,,,,1597.0449999999837,,response,,,1,E,,,,,Space,keypress(Space),,,,lyrical,--- ---- ------ the ------- ---------- ------- ----------<br>--- --------- --- ----------- ------- ----- ------- ---<br>--------- ---- -- --- ---- -- --------- -- ---- -------<br>-- --------- ------ --- ----- ------ ---- --- --------- --<br>------ - ---- -- --- ----------- ------- ---- ----- -----<br>--- -------- - ------ ---- -- ----- ---- --- --- -----------<br>-- -------,431705.69999999925,431705,430091.285,430106.19999999925,430107.955,431708.375,,3,the
screen,html.Screen,0_4_1_0_1_4,2021-12-02T15:21:10.748Z,,,,,,,,,,,,,,,,2,,,,,,,,,,,,,,1132.625,,response,,,1,E,,,,,Space,keypress(Space),,,,lyrical,--- ---- ------ --- British ---------- ------- ----------<br>--- --------- --- ----------- ------- ----- ------- ---<br>--------- ---- -- --- ---- -- --------- -- ---- -------<br>-- --------- ------ --- ----- ------ ---- --- --------- --<br>------ - ---- -- --- ----------- ------- ---- ----- -----<br>--- -------- - ------ ---- -- ----- ---- --- --- -----------<br>-- -------,432841.69999999925,432841,431691.705,431706,431708.375,432858.711,,4,British
screen,html.Screen,0_4_1_0_1_5,2021-12-02T15:21:12.636Z,,,,,,,,,,,,,,,,2,,,,,,,,,,,,,,1870.0889999970095,,response,,,1,E,,,,,Space,keypress(Space),,,,lyrical,--- ---- ------ --- ------- astronomer ------- ----------<br>--- --------- --- ----------- ------- ----- ------- ---<br>--------- ---- -- --- ---- -- --------- -- ---- -------<br>-- --------- ------ --- ----- ------ ---- --- --------- --<br>------ - ---- -- --- ----------- ------- ---- ----- -----<br>--- -------- - ------ ---- -- ----- ---- --- --- -----------<br>-- -------,434729.799999997,434728.799999997,432842.041,432842,432858.711,434742.499,,5,astronomer
screen,html.Screen,0_4_1_0_1_6,2021-12-02T15:21:15.532Z,,,,,,,,,,,,,,,,2,,,,,,,,,,,,,,2882.2009999992442,,response,,,1,E,,,,,Space,keypress(Space),,,,lyrical,--- ---- ------ --- ------- ---------- Richard ----------<br>--- --------- --- ----------- ------- ----- ------- ---<br>--------- ---- -- --- ---- -- --------- -- ---- -------<br>-- --------- ------ --- ----- ------ ---- --- --------- --<br>------ - ---- -- --- ----------- ------- ---- ----- -----<br>--- -------- - ------ ---- -- ----- ---- --- --- -----------<br>-- -------,437625.5,437624.69999999925,434725.829,434729.8999999985,434742.499,437626.705,,6,Richard
screen,html.Screen,0_4_1_0_1_7,2021-12-02T15:21:18.764Z,,,,,,,,,,,,,,,,2,,,,,,,,,,,,,,3230.1949999984936,,response,,,1,E,,,,,Space,keypress(Space),,,,lyrical,--- ---- ------ --- ------- ---------- ------- Carrington<br>--- --------- --- ----------- ------- ----- ------- ---<br>--------- ---- -- --- ---- -- --------- -- ---- -------<br>-- --------- ------ --- ----- ------ ---- --- --------- --<br>------ - ---- -- --- ----------- ------- ---- ----- -----<br>--- -------- - ------ ---- -- ----- ---- --- --- -----------<br>-- -------,440857.69999999925,440856.8999999985,437610.034,437625.69999999925,437626.705,440860.571,,7,Carrington
screen,html.Screen,0_4_1_0_1_8,2021-12-02T15:21:19.963Z,,,,,,,,,,,,,,,,2,,,,,,,,,,,,,,1195.9290000000037,,response,,,1,E,,,,,Space,keypress(Space),,,,lyrical,--- ---- ------ --- ------- ---------- ------- ----------<br>was --------- --- ----------- ------- ----- ------- ---<br>--------- ---- -- --- ---- -- --------- -- ---- -------<br>-- --------- ------ --- ----- ------ ---- --- --------- --<br>------ - ---- -- --- ----------- ------- ---- ----- -----<br>--- -------- - ------ ---- -- ----- ---- --- --- -----------<br>-- -------,442057.19999999925,442056.5,440843.901,440858,440860.571,442061.241,,8,was
screen,html.Screen,0_4_1_0_1_9,2021-12-02T15:21:21.819Z,,,,,,,,,,,,,,,,2,,,,,,,,,,,,,,1851.0589999970398,,response,,,1,E,,,,,Space,keypress(Space),,,,lyrical,--- ---- ------ --- ------- ---------- ------- ----------<br>--- observing --- ----------- ------- ----- ------- ---<br>--------- ---- -- --- ---- -- --------- -- ---- -------<br>-- --------- ------ --- ----- ------ ---- --- --------- --<br>------ - ---- -- --- ----------- ------- ---- ----- -----<br>--- -------- - ------ ---- -- ----- ---- --- --- -----------<br>-- -------,443913.19999999925,443912.299999997,442044.57,442057.3999999985,442061.241,443928.248,,9,observing
screen,html.Screen,0_4_1_0_1_10,2021-12-02T15:21:23.163Z,,,,,,,,,,,,,,,,2,,,,,,,,,,,,,,1328.0519999969983,,response,,,1,E,,,,,Space,keypress(Space),,,,lyrical,--- ---- ------ --- ------- ---------- ------- ----------<br>--- --------- the ----------- ------- ----- ------- ---<br>--------- ---- -- --- ---- -- --------- -- ---- -------<br>-- --------- ------ --- ----- ------ ---- --- --------- --<br>------ - ---- -- --- ----------- ------- ---- ----- -----<br>--- -------- - ------ ---- -- ----- ---- --- --- -----------<br>-- -------,445257.19999999925,445256.299999997,443911.578,443913.5,443928.248,445261.994,,10,the
screen,html.Screen,0_4_1_0_1_11,2021-12-02T15:21:25.195Z,,,,,,,,,,,,,,,,2,,,,,,,,,,,,,,2026.3059999970137,,response,,,1,E,,,,,Space,keypress(Space),,,,lyrical,--- ---- ------ --- ------- ---------- ------- ----------<br>--- --------- --- interesting ------- ----- ------- ---<br>--------- ---- -- --- ---- -- --------- -- ---- -------<br>-- --------- ------ --- ----- ------ ---- --- --------- --<br>------ - ---- -- --- ----------- ------- ---- ----- -----<br>--- -------- - ------ ---- -- ----- ---- --- --- -----------<br>-- -------,447289,447288.299999997,445245.324,445257.3999999985,445261.994,447295.98,,11,interesting
screen,html.Screen,0_4_1_0_1_12,2021-12-02T15:21:28.515Z,,,,,,,,,,,,,,,,2,,,,,,,,,,,,,,3312.2199999992736,,response,,,1,E,,,,,Space,keypress(Space),,,,lyrical,--- ---- ------ --- ------- ---------- ------- ----------<br>--- --------- --- ----------- sunspot ----- ------- ---<br>--------- ---- -- --- ---- -- --------- -- ---- -------<br>-- --------- ------ --- ----- ------ ---- --- --------- --<br>------ - ---- -- --- ----------- ------- ---- ----- -----<br>--- -------- - ------ ---- -- ----- ---- --- --- -----------<br>-- -------,450609,450608.19999999925,447279.309,447289.19999999925,447295.98,450613.207,,12,sunspot
screen,html.Screen,0_4_1_0_1_13,2021-12-02T15:21:29.515Z,,,,,,,,,,,,,,,,2,,,,,,,,,,,,,,995.2930000000051,,response,,,1,E,,,,,Space,keypress(Space),,,,lyrical,--- ---- ------ --- ------- ---------- ------- ----------<br>--- --------- --- ----------- ------- group ------- ---<br>--------- ---- -- --- ---- -- --------- -- ---- -------<br>-- --------- ------ --- ----- ------ ---- --- --------- --<br>------ - ---- -- --- ----------- ------- ---- ----- -----<br>--- -------- - ------ ---- -- ----- ---- --- --- -----------<br>-- -------,451609.299999997,451608.5,450596.537,450609.299999997,450613.207,451613.5,,13,group
screen,html.Screen,0_4_1_0_1_14,2021-12-02T15:21:30.579Z,,,,,,,,,,,,,,,,2,,,,,,,,,,,,,,1058.3999999985099,,response,,,1,E,,,,,Space,keypress(Space),,,,lyrical,--- ---- ------ --- ------- ---------- ------- ----------<br>--- --------- --- ----------- ------- ----- through ---<br>--------- ---- -- --- ---- -- --------- -- ---- -------<br>-- --------- ------ --- ----- ------ ---- --- --------- --<br>------ - ---- -- --- ----------- ------- ---- ----- -----<br>--- -------- - ------ ---- -- ----- ---- --- --- -----------<br>-- -------,452672.69999999925,452671.8999999985,451596.83,451609.5,451613.5,452680.645,,14,through
screen,html.Screen,0_4_1_0_1_15,2021-12-02T15:21:31.339Z,,,,,,,,,,,,,,,,2,,,,,,,,,,,,,,751.1549999970011,,response,,,1,E,,,,,Space,keypress(Space),,,,lyrical,--- ---- ------ --- ------- ---------- ------- ----------<br>--- --------- --- ----------- ------- ----- ------- his<br>--------- ---- -- --- ---- -- --------- -- ---- -------<br>-- --------- ------ --- ----- ------ ---- --- --------- --<br>------ - ---- -- --- ----------- ------- ---- ----- -----<br>--- -------- - ------ ---- -- ----- ---- --- --- -----------<br>-- -------,453432.59999999776,453431.799999997,452663.975,452673.09999999776,452680.645,453447.634,,15,his
screen,html.Screen,0_4_1_0_1_16,2021-12-02T15:21:34.227Z,,,,,,,,,,,,,,,,2,,,,,,,,,,,,,,2872.26599999849,,response,,,1,E,,,,,Space,keypress(Space),,,,lyrical,--- ---- ------ --- ------- ---------- ------- ----------<br>--- --------- --- ----------- ------- ----- ------- ---<br>telescope ---- -- --- ---- -- --------- -- ---- -------<br>-- --------- ------ --- ----- ------ ---- --- --------- --<br>------ - ---- -- --- ----------- ------- ---- ----- -----<br>--- -------- - ------ ---- -- ----- ---- --- --- -----------<br>-- -------,456320.8999999985,456319.8999999985,453430.963,453432.799999997,453447.634,456331.553,,16,telescope
screen,html.Screen,0_4_1_0_1_17,2021-12-02T15:21:35.107Z,,,,,,,,,,,,,,,,2,,,,,,,,,,,,,,868.2469999970053,,response,,,1,E,,,,,Space,keypress(Space),,,,lyrical,--- ---- ------ --- ------- ---------- ------- ----------<br>--- --------- --- ----------- ------- ----- ------- ---<br>--------- when -- --- ---- -- --------- -- ---- -------<br>-- --------- ------ --- ----- ------ ---- --- --------- --<br>------ - ---- -- --- ----------- ------- ---- ----- -----<br>--- -------- - ------ ---- -- ----- ---- --- --- -----------<br>-- -------,457200.59999999776,457199.799999997,456314.883,456321.09999999776,456331.553,457215.071,,17,when
screen,html.Screen,0_4_1_0_1_18,2021-12-02T15:21:36.178Z,,,,,,,,,,,,,,,,2,,,,,,,,,,,,,,1056.5289999977686,,response,,,1,E,,,,,Space,keypress(Space),,,,lyrical,--- ---- ------ --- ------- ---------- ------- ----------<br>--- --------- --- ----------- ------- ----- ------- ---<br>--------- ---- he --- ---- -- --------- -- ---- -------<br>-- --------- ------ --- ----- ------ ---- --- --------- --<br>------ - ---- -- --- ----------- ------- ---- ----- -----<br>--- -------- - ------ ---- -- ----- ---- --- --- -----------<br>-- -------,458272.3999999985,458271.59999999776,457198.401,457201,457215.071,458282.093,,18,he
screen,html.Screen,0_4_1_0_1_19,2021-12-02T15:21:37.083Z,,,,,,,,,,,,,,,,2,,,,,,,,,,,,,,893.5069999977713,,response,,,1,E,,,,,Space,keypress(Space),,,,lyrical,--- ---- ------ --- ------- ---------- ------- ----------<br>--- --------- --- ----------- ------- ----- ------- ---<br>--------- ---- -- saw ---- -- --------- -- ---- -------<br>-- --------- ------ --- ----- ------ ---- --- --------- --<br>------ - ---- -- --- ----------- ------- ---- ----- -----<br>--- -------- - ------ ---- -- ----- ---- --- --- -----------<br>-- -------,459176.5,459175.59999999776,458265.423,458272.59999999776,458282.093,459182.578,,19,saw
screen,html.Screen,0_4_1_0_1_20,2021-12-02T15:21:37.954Z,,,,,,,,,,,,,,,,2,,,,,,,,,,,,,,865.1219999992754,,response,,,1,E,,,,,Space,keypress(Space),,,,lyrical,--- ---- ------ --- ------- ---------- ------- ----------<br>--- --------- --- ----------- ------- ----- ------- ---<br>--------- ---- -- --- what -- --------- -- ---- -------<br>-- --------- ------ --- ----- ------ ---- --- --------- --<br>------ - ---- -- --- ----------- ------- ---- ----- -----<br>--- -------- - ------ ---- -- ----- ---- --- --- -----------<br>-- -------,460048.3999999985,460047.69999999925,459165.906,459176.69999999925,459182.578,460066.006,,20,what
screen,html.Screen,0_4_1_0_1_21,2021-12-02T15:21:39.090Z,,,,,,,,,,,,,,,,2,,,,,,,,,,,,,,1117.494000000006,,response,,,1,E,,,,,Space,keypress(Space),,,,lyrical,--- ---- ------ --- ------- ---------- ------- ----------<br>--- --------- --- ----------- ------- ----- ------- ---<br>--------- ---- -- --- ---- he --------- -- ---- -------<br>-- --------- ------ --- ----- ------ ---- --- --------- --<br>------ - ---- -- --- ----------- ------- ---- ----- -----<br>--- -------- - ------ ---- -- ----- ---- --- --- -----------<br>-- -------,461184.299999997,461183.5,460049.336,460048.59999999776,460066.006,461199.626,,21,he
screen,html.Screen,0_4_1_0_1_22,2021-12-02T15:21:41.355Z,,,,,,,,,,,,,,,,2,,,,,,,,,,,,,,2248.2739999985206,,response,,,1,E,,,,,Space,keypress(Space),,,,lyrical,--- ---- ------ --- ------- ---------- ------- ----------<br>--- --------- --- ----------- ------- ----- ------- ---<br>--------- ---- -- --- ---- -- described -- ---- -------<br>-- --------- ------ --- ----- ------ ---- --- --------- --<br>------ - ---- -- --- ----------- ------- ---- ----- -----<br>--- -------- - ------ ---- -- ----- ---- --- --- -----------<br>-- -------,463448.59999999776,463447.8999999985,461182.956,461184.59999999776,461199.626,463450.153,,22,described
screen,html.Screen,0_4_1_0_1_23,2021-12-02T15:21:42.122Z,,,,,,,,,,,,,,,,2,,,,,,,,,,,,,,765.2469999985187,,response,,,1,E,,,,,Space,keypress(Space),,,,lyrical,--- ---- ------ --- ------- ---------- ------- ----------<br>--- --------- --- ----------- ------- ----- ------- ---<br>--------- ---- -- --- ---- -- --------- as ---- -------<br>-- --------- ------ --- ----- ------ ---- --- --------- --<br>------ - ---- -- --- ----------- ------- ---- ----- -----<br>--- -------- - ------ ---- -- ----- ---- --- --- -----------<br>-- -------,464216.19999999925,464215.3999999985,463433.483,463448.8999999985,463450.153,464233.68,,23,as
screen,html.Screen,0_4_1_0_1_24,2021-12-02T15:21:42.978Z,,,,,,,,,,,,,,,,2,,,,,,,,,,,,,,837.6199999970268,,response,,,1,E,,,,,Space,keypress(Space),,,,lyrical,"--- ---- ------ --- ------- ---------- ------- ----------<br>--- --------- --- ----------- ------- ----- ------- ---<br>--------- ---- -- --- ---- -- --------- -- ""two -------<br>-- --------- ------ --- ----- ------ ---- --- --------- --<br>------ - ---- -- --- ----------- ------- ---- ----- -----<br>--- -------- - ------ ---- -- ----- ---- --- --- -----------<br>-- -------",465072.19999999925,465071.299999997,464217.01,464216.5,464233.68,465083.931,,24,"""two"
screen,html.Screen,0_4_1_0_1_25,2021-12-02T15:21:46.090Z,,,,,,,,,,,,,,,,2,,,,,,,,,,,,,,3099.3689999970375,,response,,,1,E,,,,,Space,keypress(Space),,,,lyrical,--- ---- ------ --- ------- ---------- ------- ----------<br>--- --------- --- ----------- ------- ----- ------- ---<br>--------- ---- -- --- ---- -- --------- -- ---- patches<br>-- --------- ------ --- ----- ------ ---- --- --------- --<br>------ - ---- -- --- ----------- ------- ---- ----- -----<br>--- -------- - ------ ---- -- ----- ---- --- --- -----------<br>-- -------,468184,468183.299999997,465067.261,465072.3999999985,465083.931,468201.529,,25,patches
screen,html.Screen,0_4_1_0_1_26,2021-12-02T15:21:46.914Z,,,,,,,,,,,,,,,,2,,,,,,,,,,,,,,805.6709999992745,,response,,,1,E,,,,,Space,keypress(Space),,,,lyrical,--- ---- ------ --- ------- ---------- ------- ----------<br>--- --------- --- ----------- ------- ----- ------- ---<br>--------- ---- -- --- ---- -- --------- -- ---- -------<br>of --------- ------ --- ----- ------ ---- --- --------- --<br>------ - ---- -- --- ----------- ------- ---- ----- -----<br>--- -------- - ------ ---- -- ----- ---- --- --- -----------<br>-- -------,469008,469007.19999999925,468184.858,468184.299999997,468201.529,469018.339,,26,of
screen,html.Screen,0_4_1_0_1_27,2021-12-02T15:21:49.290Z,,,,,,,,,,,,,,,,2,,,,,,,,,,,,,,2364.7609999977867,,response,,,1,E,,,,,Space,keypress(Space),,,,lyrical,--- ---- ------ --- ------- ---------- ------- ----------<br>--- --------- --- ----------- ------- ----- ------- ---<br>--------- ---- -- --- ---- -- --------- -- ---- -------<br>-- intensely ------ --- ----- ------ ---- --- --------- --<br>------ - ---- -- --- ----------- ------- ---- ----- -----<br>--- -------- - ------ ---- -- ----- ---- --- --- -----------<br>-- -------,471384,471383.09999999776,469001.669,469008.19999999925,469018.339,471385.533,,27,intensely
screen,html.Screen,0_4_1_0_1_28,2021-12-02T15:21:50.722Z,,,,,,,,,,,,,,,,2,,,,,,,,,,,,,,1429.4670000000042,,response,,,1,E,,,,,Space,keypress(Space),,,,lyrical,--- ---- ------ --- ------- ---------- ------- ----------<br>--- --------- --- ----------- ------- ----- ------- ---<br>--------- ---- -- --- ---- -- --------- -- ---- -------<br>-- --------- bright --- ----- ------ ---- --- --------- --<br>------ - ---- -- --- ----------- ------- ---- ----- -----<br>--- -------- - ------ ---- -- ----- ---- --- --- -----------<br>-- -------,472815.8999999985,472815,471368.863,471384.19999999925,471385.533,472819.411,,28,bright
screen,html.Screen,0_4_1_0_1_29,2021-12-02T15:21:51.561Z,,,,,,,,,,,,,,,,2,,,,,,,,,,,,,,835.3889999969979,,response,,,1,E,,,,,Space,keypress(Space),,,,lyrical,--- ---- ------ --- ------- ---------- ------- ----------<br>--- --------- --- ----------- ------- ----- ------- ---<br>--------- ---- -- --- ---- -- --------- -- ---- -------<br>-- --------- ------ and ----- ------ ---- --- --------- --<br>------ - ---- -- --- ----------- ------- ---- ----- -----<br>--- -------- - ------ ---- -- ----- ---- --- --- -----------<br>-- -------,473655.09999999776,473654.799999997,472802.74,472816,472819.411,473669.57,,29,and
screen,html.Screen,0_4_1_0_1_30,2021-12-02T15:21:52.274Z,,,,,,,,,,,,,,,,2,,,,,,,,,,,,,,697.429999999993,,response,,,1,E,,,,,Space,keypress(Space),,,,lyrical,--- ---- ------ --- ------- ---------- ------- ----------<br>--- --------- --- ----------- ------- ----- ------- ---<br>--------- ---- -- --- ---- -- --------- -- ---- -------<br>-- --------- ------ --- white ------ ---- --- --------- --<br>------ - ---- -- --- ----------- ------- ---- ----- -----<br>--- -------- - ------ ---- -- ----- ---- --- --- -----------<br>-- -------,474367.69999999925,474367,473652.9,473655.09999999776,473669.57,474369.848,,30,white
screen,html.Screen,0_4_1_0_1_31,2021-12-02T15:21:53.322Z,,,,,,,,,,,,,,,,2,,,,,,,,,,,,,,1045.1520000000019,,response,,,1,E,,,,,Space,keypress(Space),,,,lyrical,"--- ---- ------ --- ------- ---------- ------- ----------<br>--- --------- --- ----------- ------- ----- ------- ---<br>--------- ---- -- --- ---- -- --------- -- ---- -------<br>-- --------- ------ --- ----- light"" ---- --- --------- --<br>------ - ---- -- --- ----------- ------- ---- ----- -----<br>--- -------- - ------ ---- -- ----- ---- --- --- -----------<br>-- -------",475415.799999997,475415,474353.177,474367.8999999985,474369.848,475419.897,,31,"light"""
screen,html.Screen,0_4_1_0_1_32,2021-12-02T15:21:54.234Z,,,,,,,,,,,,,,,,2,,,,,,,,,,,,,,907.0029999985127,,response,,,1,E,,,,,Space,keypress(Space),,,,lyrical,--- ---- ------ --- ------- ---------- ------- ----------<br>--- --------- --- ----------- ------- ----- ------- ---<br>--------- ---- -- --- ---- -- --------- -- ---- -------<br>-- --------- ------ --- ----- ------ over --- --------- --<br>------ - ---- -- --- ----------- ------- ---- ----- -----<br>--- -------- - ------ ---- -- ----- ---- --- --- -----------<br>-- -------,476327.69999999925,476326.8999999985,475403.228,475416,475419.897,476337.155,,32,over
screen,html.Screen,0_4_1_0_1_33,2021-12-02T15:21:55.026Z,,,,,,,,,,,,,,,,2,,,,,,,,,,,,,,781.744999998482,,response,,,1,E,,,,,Space,keypress(Space),,,,lyrical,--- ---- ------ --- ------- ---------- ------- ----------<br>--- --------- --- ----------- ------- ----- ------- ---<br>--------- ---- -- --- ---- -- --------- -- ---- -------<br>-- --------- ------ --- ----- ------ ---- the --------- --<br>------ - ---- -- --- ----------- ------- ---- ----- -----<br>--- -------- - ------ ---- -- ----- ---- --- --- -----------<br>-- -------,477119.69999999925,477118.8999999985,476320.483,476327.8999999985,476337.155,477137.162,,33,the
screen,html.Screen,0_4_1_0_1_34,2021-12-02T15:21:57.330Z,,,,,,,,,,,,,,,,2,,,,,,,,,,,,,,2285.5379999992438,,response,,,1,E,,,,,Space,keypress(Space),,,,lyrical,--- ---- ------ --- ------- ---------- ------- ----------<br>--- --------- --- ----------- ------- ----- ------- ---<br>--------- ---- -- --- ---- -- --------- -- ---- -------<br>-- --------- ------ --- ----- ------ ---- --- sunspots. --<br>------ - ---- -- --- ----------- ------- ---- ----- -----<br>--- -------- - ------ ---- -- ----- ---- --- --- -----------<br>-- -------,479423.5,479422.69999999925,477120.492,477119.8999999985,477137.162,479437.647,,34,sunspots.
screen,html.Screen,0_4_1_0_1_35,2021-12-02T15:21:58.290Z,,,,,,,,,,,,,,,,2,,,,,,,,,,,,,,944.9529999977676,,response,,,1,E,,,,,Space,keypress(Space),,,,lyrical,--- ---- ------ --- ------- ---------- ------- ----------<br>--- --------- --- ----------- ------- ----- ------- ---<br>--------- ---- -- --- ---- -- --------- -- ---- -------<br>-- --------- ------ --- ----- ------ ---- --- --------- He<br>------ - ---- -- --- ----------- ------- ---- ----- -----<br>--- -------- - ------ ---- -- ----- ---- --- --- -----------<br>-- -------,480383.3999999985,480382.59999999776,479420.977,479423.69999999925,479437.647,480388.204,,35,He
screen,html.Screen,0_4_1_0_1_36,2021-12-02T15:22:00.185Z,,,,,,,,,,,,,,,,2,,,,,,,,,,,,,,1890.295999999973,,response,,,1,E,,,,,Space,keypress(Space),,,,lyrical,--- ---- ------ --- ------- ---------- ------- ----------<br>--- --------- --- ----------- ------- ----- ------- ---<br>--------- ---- -- --- ---- -- --------- -- ---- -------<br>-- --------- ------ --- ----- ------ ---- --- --------- --<br>jotted - ---- -- --- ----------- ------- ---- ----- -----<br>--- -------- - ------ ---- -- ----- ---- --- --- -----------<br>-- -------,482279.299999997,482278.5,480371.533,480383.59999999776,480388.204,482288.486,,36,jotted
screen,html.Screen,0_4_1_0_1_37,2021-12-02T15:22:00.977Z,,,,,,,,,,,,,,,,2,,,,,,,,,,,,,,781.9139999985346,,response,,,1,E,,,,,Space,keypress(Space),,,,lyrical,--- ---- ------ --- ------- ---------- ------- ----------<br>--- --------- --- ----------- ------- ----- ------- ---<br>--------- ---- -- --- ---- -- --------- -- ---- -------<br>-- --------- ------ --- ----- ------ ---- --- --------- --<br>------ a ---- -- --- ----------- ------- ---- ----- -----<br>--- -------- - ------ ---- -- ----- ---- --- --- -----------<br>-- -------,483071.19999999925,483070.3999999985,482271.816,482279.59999999776,482288.486,483088.845,,37,a
screen,html.Screen,0_4_1_0_1_38,2021-12-02T15:22:01.842Z,,,,,,,,,,,,,,,,2,,,,,,,,,,,,,,846.0549999985378,,response,,,1,E,,,,,Space,keypress(Space),,,,lyrical,--- ---- ------ --- ------- ---------- ------- ----------<br>--- --------- --- ----------- ------- ----- ------- ---<br>--------- ---- -- --- ---- -- --------- -- ---- -------<br>-- --------- ------ --- ----- ------ ---- --- --------- --<br>------ - note -- --- ----------- ------- ---- ----- -----<br>--- -------- - ------ ---- -- ----- ---- --- --- -----------<br>-- -------,483935.69999999925,483934.8999999985,483072.174,483071.3999999985,483088.845,483939.022,,38,note
screen,html.Screen,0_4_1_0_1_39,2021-12-02T15:22:02.593Z,,,,,,,,,,,,,,,,2,,,,,,,,,,,,,,747.4780000000028,,response,,,1,E,,,,,Space,keypress(Space),,,,lyrical,--- ---- ------ --- ------- ---------- ------- ----------<br>--- --------- --- ----------- ------- ----- ------- ---<br>--------- ---- -- --- ---- -- --------- -- ---- -------<br>-- --------- ------ --- ----- ------ ---- --- --------- --<br>------ - ---- in --- ----------- ------- ---- ----- -----<br>--- -------- - ------ ---- -- ----- ---- --- --- -----------<br>-- -------,484687.3999999985,484686.5,483922.352,483935.8999999985,483939.022,484689.225,,39,in
screen,html.Screen,0_4_1_0_1_40,2021-12-02T15:22:03.481Z,,,,,,,,,,,,,,,,2,,,,,,,,,,,,,,885.1749999985332,,response,,,1,E,,,,,Space,keypress(Space),,,,lyrical,--- ---- ------ --- ------- ---------- ------- ----------<br>--- --------- --- ----------- ------- ----- ------- ---<br>--------- ---- -- --- ---- -- --------- -- ---- -------<br>-- --------- ------ --- ----- ------ ---- --- --------- --<br>------ - ---- -- his ----------- ------- ---- ----- -----<br>--- -------- - ------ ---- -- ----- ---- --- --- -----------<br>-- -------,485575.19999999925,485574.3999999985,484672.555,484687.59999999776,484689.225,485589.422,,40,his
screen,html.Screen,0_4_1_0_1_41,2021-12-02T15:22:07.772Z,,,,,,,,,,,,,,,,2,,,,,,,,,,,,,,4272.777999999234,,response,,,1,E,,,,,Space,keypress(Space),,,,lyrical,--- ---- ------ --- ------- ---------- ------- ----------<br>--- --------- --- ----------- ------- ----- ------- ---<br>--------- ---- -- --- ---- -- --------- -- ---- -------<br>-- --------- ------ --- ----- ------ ---- --- --------- --<br>------ - ---- -- --- painstaking ------- ---- ----- -----<br>--- -------- - ------ ---- -- ----- ---- --- --- -----------<br>-- -------,489863,489862.19999999925,485572.752,485575.3999999985,485589.422,489874,,41,painstaking
screen,html.Screen,0_4_1_0_1_42,2021-12-02T15:22:09.363Z,,,,,,,,,,,,,,,,2,,,,,,,,,,,,,,1580.199999999255,,response,,,1,E,,,,,Space,keypress(Space),,,,lyrical,--- ---- ------ --- ------- ---------- ------- ----------<br>--- --------- --- ----------- ------- ----- ------- ---<br>--------- ---- -- --- ---- -- --------- -- ---- -------<br>-- --------- ------ --- ----- ------ ---- --- --------- --<br>------ - ---- -- --- ----------- record. ---- ----- -----<br>--- -------- - ------ ---- -- ----- ---- --- --- -----------<br>-- -------,491455,491454.19999999925,489857.329,489863.299999997,489874,491457.611,,42,record.
screen,html.Screen,0_4_1_0_1_43,2021-12-02T15:22:10.547Z,,,,,,,,,,,,,,,,2,,,,,,,,,,,,,,1180.4889999977895,,response,,,1,E,,,,,Space,keypress(Space),,,,lyrical,--- ---- ------ --- ------- ---------- ------- ----------<br>--- --------- --- ----------- ------- ----- ------- ---<br>--------- ---- -- --- ---- -- --------- -- ---- -------<br>-- --------- ------ --- ----- ------ ---- --- --------- --<br>------ - ---- -- --- ----------- ------- That ----- -----<br>--- -------- - ------ ---- -- ----- ---- --- --- -----------<br>-- -------,492638.8999999985,492638.09999999776,491440.941,491455.09999999776,491457.611,492641.215,,43,That
screen,html.Screen,0_4_1_0_1_44,2021-12-02T15:22:11.731Z,,,,,,,,,,,,,,,,2,,,,,,,,,,,,,,1180.7849999999744,,response,,,1,E,,,,,Space,keypress(Space),,,,lyrical,--- ---- ------ --- ------- ---------- ------- ----------<br>--- --------- --- ----------- ------- ----- ------- ---<br>--------- ---- -- --- ---- -- --------- -- ---- -------<br>-- --------- ------ --- ----- ------ ---- --- --------- --<br>------ - ---- -- --- ----------- ------- ---- night -----<br>--- -------- - ------ ---- -- ----- ---- --- --- -----------<br>-- -------,493822.8999999985,493822,492624.545,492639.09999999776,492641.215,493825.051,,44,night
screen,html.Screen,0_4_1_0_1_45,2021-12-02T15:22:12.940Z,,,,,,,,,,,,,,,,2,,,,,,,,,,,,,,1205.2489999970421,,response,,,1,E,,,,,Space,keypress(Space),,,,lyrical,--- ---- ------ --- ------- ---------- ------- ----------<br>--- --------- --- ----------- ------- ----- ------- ---<br>--------- ---- -- --- ---- -- --------- -- ---- -------<br>-- --------- ------ --- ----- ------ ---- --- --------- --<br>------ - ---- -- --- ----------- ------- ---- ----- there<br>--- -------- - ------ ---- -- ----- ---- --- --- -----------<br>-- -------,495031.09999999776,495030.299999997,493808.38,493823,493825.051,495042.046,,45,there
screen,html.Screen,0_4_1_0_1_46,2021-12-02T15:22:14.011Z,,,,,,,,,,,,,,,,2,,,,,,,,,,,,,,1059.853999998537,,response,,,1,E,,,,,Space,keypress(Space),,,,lyrical,--- ---- ------ --- ------- ---------- ------- ----------<br>--- --------- --- ----------- ------- ----- ------- ---<br>--------- ---- -- --- ---- -- --------- -- ---- -------<br>-- --------- ------ --- ----- ------ ---- --- --------- --<br>------ - ---- -- --- ----------- ------- ---- ----- -----<br>was -------- - ------ ---- -- ----- ---- --- --- -----------<br>-- -------,496102.799999997,496101.8999999985,495025.375,495031.299999997,495042.046,496108.801,,46,was
screen,html.Screen,0_4_1_0_1_47,2021-12-02T15:22:17.939Z,,,,,,,,,,,,,,,,2,,,,,,,,,,,,,,3920.8989999992773,,response,,,1,E,,,,,Space,keypress(Space),,,,lyrical,--- ---- ------ --- ------- ---------- ------- ----------<br>--- --------- --- ----------- ------- ----- ------- ---<br>--------- ---- -- --- ---- -- --------- -- ---- -------<br>-- --------- ------ --- ----- ------ ---- --- --------- --<br>------ - ---- -- --- ----------- ------- ---- ----- -----<br>--- scarcely - ------ ---- -- ----- ---- --- --- -----------<br>-- -------,500030.5,500029.69999999925,496092.131,496102.8999999985,496108.801,500043.056,,47,scarcely
screen,html.Screen,0_4_1_0_1_48,2021-12-02T15:22:18.899Z,,,,,,,,,,,,,,,,2,,,,,,,,,,,,,,946.6439999992726,,response,,,1,E,,,,,Space,keypress(Space),,,,lyrical,--- ---- ------ --- ------- ---------- ------- ----------<br>--- --------- --- ----------- ------- ----- ------- ---<br>--------- ---- -- --- ---- -- --------- -- ---- -------<br>-- --------- ------ --- ----- ------ ---- --- --------- --<br>------ - ---- -- --- ----------- ------- ---- ----- -----<br>--- -------- a ------ ---- -- ----- ---- --- --- -----------<br>-- -------,500990.5,500989.69999999925,500026.386,500030.59999999776,500043.056,500993.56,,48,a
