sender,sender_type,sender_id,timestamp,meta,,Blues,Classical,Country,Dance,Electronic,Folk,Gospel,Hip-Hop,Jazz,Latin,Musical/Film,New-age,Pop,Provo_ID,R&B,Rap,Reggae,Religious,Rock,Soul,Swing,Traditional,age,artist_name,correct,correctResponse,distraction,duration,education,ended_on,familiarity,gender,item,list,music_frequency,offensiveness,pleasantness,preference,response,response_action,snippet_file,song_name,song_rating,sound,text,time_commit,time_end,time_render,time_run,time_show,time_switch,url,word,word_ID
Instructions,html.Page,0_0,2021-11-25T15:51:44.793Z,"{""labjs_version"":""20.2.3"",""labjs_build"":{""flavor"":""production"",""commit"":""7ea907d66ca8aeef8054924ca5d82ffbe11e34e5""},""location"":""https://run.pavlovia.org/mvasilev/lab_music_b/"",""userAgent"":""Mozilla/5.0 (Windows NT 6.1; Win64; x64) AppleWebKit/537.36 (KHTML, like Gecko) Chrome/96.0.4664.45 Safari/537.36"",""platform"":""Win32"",""language"":""en-US"",""locale"":""en-US"",""timeZone"":""Europe/London"",""timezoneOffset"":0,""screen_width"":1920,""screen_height"":1080,""scroll_width"":1920,""scroll_height"":959,""window_innerWidth"":1920,""window_innerHeight"":1007,""devicePixelRatio"":1}",,,,,,,,,,,,,,,,,,,,,,,,,,,,,42663.912,,form submission,,,,,,,,,,,,,,,,52640.90000009537,52640,9959.423,9971.400000095367,9976.088,52638.9,{},,
Headphones,html.Page,0_1,2021-11-25T15:51:50.302Z,,,,,,,,,,,,,,,,,,,,,,,,,,,,,,5510.500000095366,,form submission,,,,,,,,,,,,,,,,58149.799999952316,58149.40000009537,52622.25,52641.40000009537,52638.9,58151.186,,,
Holding screen,html.Screen,0_2_0_0,2021-11-25T15:52:00.298Z,,,,,,,,,,,,,,,,,,,,,,,,,,,,,,10004.865000000005,,timeout,,,,,,,,,,,,,,,,68142.90000009537,68139.386,58134.536,58150.09999990463,58151.186,68156.051,,,
screen,html.Screen,0_2_0_1_0,2021-11-25T15:52:01.778Z,,,,,,,,,,,,,,,,53,,,,,,,,,,,,,,1465.2489999523095,,response,,,99,,,,,,Space,keypress(Space),,,,,When -- ----- -- ------ - ------- --- ----------<br>------------- ------ ------ ---- ---- ------- ----- -- ----<br>-------- ------- -- ---------- --- - --- ----- ----- ----<br>---- --- --- ----- --- ---- ---- ------- ----- ---- -------<br>--- --- -- ----- -- --- ---- -- --- ---- -- ------ ------<br>--- ----- -- ----,69622.40000009537,69621.29999995232,68139.386,68143.09999990463,68156.051,69622.61,,0,When
screen,html.Screen,0_2_0_1_1,2021-11-25T15:52:02.505Z,,,,,,,,,,,,,,,,53,,,,,,,,,,,,,,726.2900000953668,,response,,,99,,,,,,Space,keypress(Space),,,,,---- it ----- -- ------ - ------- --- ----------<br>------------- ------ ------ ---- ---- ------- ----- -- ----<br>-------- ------- -- ---------- --- - --- ----- ----- ----<br>---- --- --- ----- --- ---- ---- ------- ----- ---- -------<br>--- --- -- ----- -- --- ---- -- --- ---- -- ------ ------<br>--- ----- -- ----,70349.59999990463,70348.90000009537,69605.945,69622.70000004768,69622.61,70355.912,,1,it
screen,html.Screen,0_2_0_1_2,2021-11-25T15:52:03.113Z,,,,,,,,,,,,,,,,53,,,,,,,,,,,,,,600.9880000953708,,response,,,99,,,,,,Space,keypress(Space),,,,,---- -- comes -- ------ - ------- --- ----------<br>------------- ------ ------ ---- ---- ------- ----- -- ----<br>-------- ------- -- ---------- --- - --- ----- ----- ----<br>---- --- --- ----- --- ---- ---- ------- ----- ---- -------<br>--- --- -- ----- -- --- ---- -- --- ---- -- ------ ------<br>--- ----- -- ----,70957.59999990463,70956.90000009537,70339.247,70349.79999995232,70355.912,70972.539,,2,comes
screen,html.Screen,0_2_0_1_3,2021-11-25T15:52:03.705Z,,,,,,,,,,,,,,,,53,,,,,,,,,,,,,,576.3610000953631,,response,,,99,,,,,,Space,keypress(Space),,,,,---- -- ----- to ------ - ------- --- ----------<br>------------- ------ ------ ---- ---- ------- ----- -- ----<br>-------- ------- -- ---------- --- - --- ----- ----- ----<br>---- --- --- ----- --- ---- ---- ------- ----- ---- -------<br>--- --- -- ----- -- --- ---- -- --- ---- -- ------ ------<br>--- ----- -- ----,71549.59999990463,71548.90000009537,70955.874,70957.79999995232,70972.539,71555.922,,3,to
screen,html.Screen,0_2_0_1_4,2021-11-25T15:52:04.281Z,,,,,,,,,,,,,,,,53,,,,,,,,,,,,,,568.8779999523103,,response,,,99,,,,,,Space,keypress(Space),,,,,---- -- ----- -- having - ------- --- ----------<br>------------- ------ ------ ---- ---- ------- ----- -- ----<br>-------- ------- -- ---------- --- - --- ----- ----- ----<br>---- --- --- ----- --- ---- ---- ------- ----- ---- -------<br>--- --- -- ----- -- --- ---- -- --- ---- -- ------ ------<br>--- ----- -- ----,72125.70000004768,72124.79999995232,71539.256,71550,71555.922,72139.082,,4,having
screen,html.Screen,0_2_0_1_5,2021-11-25T15:52:04.809Z,,,,,,,,,,,,,,,,53,,,,,,,,,,,,,,513.7179999523214,,response,,,99,,,,,,Space,keypress(Space),,,,,---- -- ----- -- ------ a ------- --- ----------<br>------------- ------ ------ ---- ---- ------- ----- -- ----<br>-------- ------- -- ---------- --- - --- ----- ----- ----<br>---- --- --- ----- --- ---- ---- ------- ----- ---- -------<br>--- --- -- ----- -- --- ---- -- --- ---- -- ------ ------<br>--- ----- -- ----,72653.5,72652.79999995232,72122.418,72125.90000009537,72139.082,72655.839,,5,a
screen,html.Screen,0_2_0_1_6,2021-11-25T15:52:05.281Z,,,,,,,,,,,,,,,,53,,,,,,,,,,,,,,468.96099995230907,,response,,,99,,,,,,Space,keypress(Space),,,,,---- -- ----- -- ------ - lasting --- ----------<br>------------- ------ ------ ---- ---- ------- ----- -- ----<br>-------- ------- -- ---------- --- - --- ----- ----- ----<br>---- --- --- ----- --- ---- ---- ------- ----- ---- -------<br>--- --- -- ----- -- --- ---- -- --- ---- -- ------ ------<br>--- ----- -- ----,73125.40000009537,73124.79999995232,72639.173,72653.79999995232,72655.839,73139.101,,6,lasting
screen,html.Screen,0_2_0_1_7,2021-11-25T15:52:05.921Z,,,,,,,,,,,,,,,,53,,,,,,,,,,,,,,625.6989999523212,,response,,,99,,,,,,Space,keypress(Space),,,,,---- -- ----- -- ------ - ------- and ----------<br>------------- ------ ------ ---- ---- ------- ----- -- ----<br>-------- ------- -- ---------- --- - --- ----- ----- ----<br>---- --- --- ----- --- ---- ---- ------- ----- ---- -------<br>--- --- -- ----- -- --- ---- -- --- ---- -- ------ ------<br>--- ----- -- ----,73765.40000009537,73764.79999995232,73122.436,73125.70000004768,73139.101,73772.408,,7,and
screen,html.Screen,0_2_0_1_8,2021-11-25T15:52:06.401Z,,,,,,,,,,,,,,,,53,,,,,,,,,,,,,,472.2920000476879,,response,,,99,,,,,,Space,keypress(Space),,,,,---- -- ----- -- ------ - ------- --- fulfilling<br>------------- ------ ------ ---- ---- ------- ----- -- ----<br>-------- ------- -- ---------- --- - --- ----- ----- ----<br>---- --- --- ----- --- ---- ---- ------- ----- ---- -------<br>--- --- -- ----- -- --- ---- -- --- ---- -- ------ ------<br>--- ----- -- ----,74245.40000009537,74244.70000004768,73755.743,73765.70000004768,73772.408,74255.616,,8,fulfilling
screen,html.Screen,0_2_0_1_9,2021-11-25T15:52:06.841Z,,,,,,,,,,,,,,,,53,,,,,,,,,,,,,,429.0840000476892,,response,,,99,,,,,,Space,keypress(Space),,,,,"---- -- ----- -- ------ - ------- --- ----------<br>relationship, ------ ------ ---- ---- ------- ----- -- ----<br>-------- ------- -- ---------- --- - --- ----- ----- ----<br>---- --- --- ----- --- ---- ---- ------- ----- ---- -------<br>--- --- -- ----- -- --- ---- -- --- ---- -- ------ ------<br>--- ----- -- ----",74685.29999995232,74684.70000004768,74238.952,74245.59999990463,74255.616,74689,,9,"relationship,"
screen,html.Screen,0_2_0_1_10,2021-11-25T15:52:07.377Z,,,,,,,,,,,,,,,,53,,,,,,,,,,,,,,531.7000000476837,,response,,,99,,,,,,Space,keypress(Space),,,,,---- -- ----- -- ------ - ------- --- ----------<br>------------- common ------ ---- ---- ------- ----- -- ----<br>-------- ------- -- ---------- --- - --- ----- ----- ----<br>---- --- --- ----- --- ---- ---- ------- ----- ---- -------<br>--- --- -- ----- -- --- ---- -- --- ---- -- ------ ------<br>--- ----- -- ----,75221.29999995232,75220.70000004768,74672.335,74685.5,74689,75222.328,,10,common
screen,html.Screen,0_2_0_1_11,2021-11-25T15:52:07.761Z,,,,,,,,,,,,,,,,53,,,,,,,,,,,,,,382.2719999046385,,response,,,99,,,,,,Space,keypress(Space),,,,,---- -- ----- -- ------ - ------- --- ----------<br>------------- ------ wisdom ---- ---- ------- ----- -- ----<br>-------- ------- -- ---------- --- - --- ----- ----- ----<br>---- --- --- ----- --- ---- ---- ------- ----- ---- -------<br>--- --- -- ----- -- --- ---- -- --- ---- -- ------ ------<br>--- ----- -- ----,75605.20000004768,75604.59999990463,75205.662,75221.5,75222.328,75622.225,,11,wisdom
screen,html.Screen,0_2_0_1_12,2021-11-25T15:52:08.176Z,,,,,,,,,,,,,,,,53,,,,,,,,,,,,,,398.37499990462675,,response,,,99,,,,,,Space,keypress(Space),,,,,---- -- ----- -- ------ - ------- --- ----------<br>------------- ------ ------ says ---- ------- ----- -- ----<br>-------- ------- -- ---------- --- - --- ----- ----- ----<br>---- --- --- ----- --- ---- ---- ------- ----- ---- -------<br>--- --- -- ----- -- --- ---- -- --- ---- -- ------ ------<br>--- ----- -- ----,76021.09999990463,76020.59999990463,75605.561,75605.40000009537,75622.225,76022.303,,12,says
screen,html.Screen,0_2_0_1_13,2021-11-25T15:52:08.568Z,,,,,,,,,,,,,,,,53,,,,,,,,,,,,,,390.1970000000001,,response,,,99,,,,,,Space,keypress(Space),,,,,---- -- ----- -- ------ - ------- --- ----------<br>------------- ------ ------ ---- that ------- ----- -- ----<br>-------- ------- -- ---------- --- - --- ----- ----- ----<br>---- --- --- ----- --- ---- ---- ------- ----- ---- -------<br>--- --- -- ----- -- --- ---- -- --- ---- -- ------ ------<br>--- ----- -- ----,76413.09999990463,76412.5,76005.637,76021.40000009537,76022.303,76422.236,,13,that
screen,html.Screen,0_2_0_1_14,2021-11-25T15:52:09.440Z,,,,,,,,,,,,,,,,53,,,,,,,,,,,,,,862.2639999999956,,response,,,99,,,,,,Space,keypress(Space),,,,,---- -- ----- -- ------ - ------- --- ----------<br>------------- ------ ------ ---- ---- feeling ----- -- ----<br>-------- ------- -- ---------- --- - --- ----- ----- ----<br>---- --- --- ----- --- ---- ---- ------- ----- ---- -------<br>--- --- -- ----- -- --- ---- -- --- ---- -- ------ ------<br>--- ----- -- ----,77285.09999990463,77284.5,76405.571,76413.29999995232,76422.236,77288.832,,14,feeling
screen,html.Screen,0_2_0_1_15,2021-11-25T15:52:09.929Z,,,,,,,,,,,,,,,,53,,,,,,,,,,,,,,483.7679999046377,,response,,,99,,,,,,Space,keypress(Space),,,,,---- -- ----- -- ------ - ------- --- ----------<br>------------- ------ ------ ---- ---- ------- close -- ----<br>-------- ------- -- ---------- --- - --- ----- ----- ----<br>---- --- --- ----- --- ---- ---- ------- ----- ---- -------<br>--- --- -- ----- -- --- ---- -- --- ---- -- ------ ------<br>--- ----- -- ----,77773.20000004768,77772.59999990463,77272.167,77285.40000009537,77288.832,77788.808,,15,close
screen,html.Screen,0_2_0_1_16,2021-11-25T15:52:10.360Z,,,,,,,,,,,,,,,,53,,,,,,,,,,,,,,415.5920000953629,,response,,,99,,,,,,Space,keypress(Space),,,,,---- -- ----- -- ------ - ------- --- ----------<br>------------- ------ ------ ---- ---- ------- ----- to ----<br>-------- ------- -- ---------- --- - --- ----- ----- ----<br>---- --- --- ----- --- ---- ---- ------- ----- ---- -------<br>--- --- -- ----- -- --- ---- -- --- ---- -- ------ ------<br>--- ----- -- ----,78205,78204.40000009537,77772.143,77773.29999995232,77788.808,78222.14,,16,to
screen,html.Screen,0_2_0_1_17,2021-11-25T15:52:10.768Z,,,,,,,,,,,,,,,,53,,,,,,,,,,,,,,390.15999995231687,,response,,,99,,,,,,Space,keypress(Space),,,,,---- -- ----- -- ------ - ------- --- ----------<br>------------- ------ ------ ---- ---- ------- ----- -- your<br>-------- ------- -- ---------- --- - --- ----- ----- ----<br>---- --- --- ----- --- ---- ---- ------- ----- ---- -------<br>--- --- -- ----- -- --- ---- -- --- ---- -- ------ ------<br>--- ----- -- ----,78612.90000009537,78612.29999995232,78205.475,78205.20000004768,78222.14,78622.12,,17,your
screen,html.Screen,0_2_0_1_18,2021-11-25T15:52:11.256Z,,,,,,,,,,,,,,,,53,,,,,,,,,,,,,,478.17999995232094,,response,,,99,,,,,,Space,keypress(Space),,,,,---- -- ----- -- ------ - ------- --- ----------<br>------------- ------ ------ ---- ---- ------- ----- -- ----<br>romantic ------- -- ---------- --- - --- ----- ----- ----<br>---- --- --- ----- --- ---- ---- ------- ----- ---- -------<br>--- --- -- ----- -- --- ---- -- --- ---- -- ------ ------<br>--- ----- -- ----,79101,79100.29999995232,78605.455,78613.09999990463,78622.12,79105.325,,18,romantic
screen,html.Screen,0_2_0_1_19,2021-11-25T15:52:11.712Z,,,,,,,,,,,,,,,,53,,,,,,,,,,,,,,450.9749999523192,,response,,,99,,,,,,Space,keypress(Space),,,,,---- -- ----- -- ------ - ------- --- ----------<br>------------- ------ ------ ---- ---- ------- ----- -- ----<br>-------- partner -- ---------- --- - --- ----- ----- ----<br>---- --- --- ----- --- ---- ---- ------- ----- ---- -------<br>--- --- -- ----- -- --- ---- -- --- ---- -- ------ ------<br>--- ----- -- ----,79556.90000009537,79556.29999995232,79088.661,79101.09999990463,79105.325,79572.096,,19,partner
screen,html.Screen,0_2_0_1_20,2021-11-25T15:52:12.217Z,,,,,,,,,,,,,,,,53,,,,,,,,,,,,,,488.50399990462756,,response,,,99,,,,,,Space,keypress(Space),,,,,---- -- ----- -- ------ - ------- --- ----------<br>------------- ------ ------ ---- ---- ------- ----- -- ----<br>-------- ------- is ---------- --- - --- ----- ----- ----<br>---- --- --- ----- --- ---- ---- ------- ----- ---- -------<br>--- --- -- ----- -- --- ---- -- --- ---- -- ------ ------<br>--- ----- -- ----,80061.20000004768,80060.59999990463,79555.43,79557,79572.096,80071.943,,20,is
screen,html.Screen,0_2_0_1_21,2021-11-25T15:52:12.688Z,,,,,,,,,,,,,,,,53,,,,,,,,,,,,,,460.2570000476844,,response,,,99,,,,,,Space,keypress(Space),,,,,---- -- ----- -- ------ - ------- --- ----------<br>------------- ------ ------ ---- ---- ------- ----- -- ----<br>-------- ------- -- paramount. --- - --- ----- ----- ----<br>---- --- --- ----- --- ---- ---- ------- ----- ---- -------<br>--- --- -- ----- -- --- ---- -- --- ---- -- ------ ------<br>--- ----- -- ----,80532.90000009537,80532.20000004768,80055.279,80061.40000009537,80071.943,80538.688,,21,paramount.
screen,html.Screen,0_2_0_1_22,2021-11-25T15:52:13.400Z,,,,,,,,,,,,,,,,53,,,,,,,,,,,,,,705.6119999523216,,response,,,99,,,,,,Space,keypress(Space),,,,,---- -- ----- -- ------ - ------- --- ----------<br>------------- ------ ------ ---- ---- ------- ----- -- ----<br>-------- ------- -- ---------- But - --- ----- ----- ----<br>---- --- --- ----- --- ---- ---- ------- ----- ---- -------<br>--- --- -- ----- -- --- ---- -- --- ---- -- ------ ------<br>--- ----- -- ----,81244.90000009537,81244.29999995232,80522.022,80533.20000004768,80538.688,81255.258,,22,But
screen,html.Screen,0_2_0_1_23,2021-11-25T15:52:13.912Z,,,,,,,,,,,,,,,,53,,,,,,,,,,,,,,500.9420000476821,,response,,,99,,,,,,Space,keypress(Space),,,,,---- -- ----- -- ------ - ------- --- ----------<br>------------- ------ ------ ---- ---- ------- ----- -- ----<br>-------- ------- -- ---------- --- a --- ----- ----- ----<br>---- --- --- ----- --- ---- ---- ------- ----- ---- -------<br>--- --- -- ----- -- --- ---- -- --- ---- -- ------ ------<br>--- ----- -- ----,81756.70000004768,81756.20000004768,81238.593,81245.09999990463,81255.258,81771.869,,23,a
screen,html.Screen,0_2_0_1_24,2021-11-25T15:52:14.288Z,,,,,,,,,,,,,,,,53,,,,,,,,,,,,,,360.2309999046265,,response,,,99,,,,,,Space,keypress(Space),,,,,---- -- ----- -- ------ - ------- --- ----------<br>------------- ------ ------ ---- ---- ------- ----- -- ----<br>-------- ------- -- ---------- --- - new ----- ----- ----<br>---- --- --- ----- --- ---- ---- ------- ----- ---- -------<br>--- --- -- ----- -- --- ---- -- --- ---- -- ------ ------<br>--- ----- -- ----,82132.79999995232,82132.09999990463,81755.204,81757,81771.869,82138.601,,24,new
screen,html.Screen,0_2_0_1_25,2021-11-25T15:52:14.712Z,,,,,,,,,,,,,,,,53,,,,,,,,,,,,,,417.49899990463746,,response,,,99,,,,,,Space,keypress(Space),,,,,---- -- ----- -- ------ - ------- --- ----------<br>------------- ------ ------ ---- ---- ------- ----- -- ----<br>-------- ------- -- ---------- --- - --- study ----- ----<br>---- --- --- ----- --- ---- ---- ------- ----- ---- -------<br>--- --- -- ----- -- --- ---- -- --- ---- -- ------ ------<br>--- ----- -- ----,82556.70000004768,82556.09999990463,82121.935,82132.90000009537,82138.601,82571.851,,25,study
screen,html.Screen,0_2_0_1_26,2021-11-25T15:52:15.248Z,,,,,,,,,,,,,,,,53,,,,,,,,,,,,,,520.2489999046375,,response,,,99,,,,,,Space,keypress(Space),,,,,---- -- ----- -- ------ - ------- --- ----------<br>------------- ------ ------ ---- ---- ------- ----- -- ----<br>-------- ------- -- ---------- --- - --- ----- finds ----<br>---- --- --- ----- --- ---- ---- ------- ----- ---- -------<br>--- --- -- ----- -- --- ---- -- --- ---- -- ------ ------<br>--- ----- -- ----,83092.79999995232,83092.09999990463,82555.186,82556.90000009537,82571.851,83105.164,,26,finds
screen,html.Screen,0_2_0_1_27,2021-11-25T15:52:15.688Z,,,,,,,,,,,,,,,,53,,,,,,,,,,,,,,426.8359999999957,,response,,,99,,,,,,Space,keypress(Space),,,,,---- -- ----- -- ------ - ------- --- ----------<br>------------- ------ ------ ---- ---- ------- ----- -- ----<br>-------- ------- -- ---------- --- - --- ----- ----- that<br>---- --- --- ----- --- ---- ---- ------- ----- ---- -------<br>--- --- -- ----- -- --- ---- -- --- ---- -- ------ ------<br>--- ----- -- ----,83532.5,83532,83088.499,83093,83105.164,83538.461,,27,that
screen,html.Screen,0_2_0_1_28,2021-11-25T15:52:16.152Z,,,,,,,,,,,,,,,,53,,,,,,,,,,,,,,457.6389999046369,,response,,,99,,,,,,Space,keypress(Space),,,,,---- -- ----- -- ------ - ------- --- ----------<br>------------- ------ ------ ---- ---- ------- ----- -- ----<br>-------- ------- -- ---------- --- - --- ----- ----- ----<br>it's --- --- ----- --- ---- ---- ------- ----- ---- -------<br>--- --- -- ----- -- --- ---- -- --- ---- -- ------ ------<br>--- ----- -- ----,83996.70000004768,83996.09999990463,83521.796,83532.70000004768,83538.461,84005.115,,28,it's
screen,html.Screen,0_2_0_1_29,2021-11-25T15:52:16.712Z,,,,,,,,,,,,,,,,53,,,,,,,,,,,,,,550.8849999999948,,response,,,99,,,,,,Space,keypress(Space),,,,,---- -- ----- -- ------ - ------- --- ----------<br>------------- ------ ------ ---- ---- ------- ----- -- ----<br>-------- ------- -- ---------- --- - --- ----- ----- ----<br>---- not --- ----- --- ---- ---- ------- ----- ---- -------<br>--- --- -- ----- -- --- ---- -- --- ---- -- ------ ------<br>--- ----- -- ----,84556.5,84556,83988.45,83996.90000009537,84005.115,84571.731,,29,not
screen,html.Screen,0_2_0_1_30,2021-11-25T15:52:17.048Z,,,,,,,,,,,,,,,,53,,,,,,,,,,,,,,320.26900000000023,,response,,,99,,,,,,Space,keypress(Space),,,,,---- -- ----- -- ------ - ------- --- ----------<br>------------- ------ ------ ---- ---- ------- ----- -- ----<br>-------- ------- -- ---------- --- - --- ----- ----- ----<br>---- --- how ----- --- ---- ---- ------- ----- ---- -------<br>--- --- -- ----- -- --- ---- -- --- ---- -- ------ ------<br>--- ----- -- ----,84892.59999990463,84892,84555.066,84556.70000004768,84571.731,84905.064,,30,how
screen,html.Screen,0_2_0_1_31,2021-11-25T15:52:17.632Z,,,,,,,,,,,,,,,,53,,,,,,,,,,,,,,570.9360000000015,,response,,,99,,,,,,Space,keypress(Space),,,,,---- -- ----- -- ------ - ------- --- ----------<br>------------- ------ ------ ---- ---- ------- ----- -- ----<br>-------- ------- -- ---------- --- - --- ----- ----- ----<br>---- --- --- close --- ---- ---- ------- ----- ---- -------<br>--- --- -- ----- -- --- ---- -- --- ---- -- ------ ------<br>--- ----- -- ----,85476.59999990463,85476,84888.399,84892.70000004768,84905.064,85488.339,,31,close
screen,html.Screen,0_2_0_1_32,2021-11-25T15:52:18.000Z,,,,,,,,,,,,,,,,53,,,,,,,,,,,,,,355.5610000953602,,response,,,99,,,,,,Space,keypress(Space),,,,,---- -- ----- -- ------ - ------- --- ----------<br>------------- ------ ------ ---- ---- ------- ----- -- ----<br>-------- ------- -- ---------- --- - --- ----- ----- ----<br>---- --- --- ----- you ---- ---- ------- ----- ---- -------<br>--- --- -- ----- -- --- ---- -- --- ---- -- ------ ------<br>--- ----- -- ----,85844.59999990463,85843.90000009537,85471.674,85476.70000004768,85488.339,85855.041,,32,you
screen,html.Screen,0_2_0_1_33,2021-11-25T15:52:18.592Z,,,,,,,,,,,,,,,,53,,,,,,,,,,,,,,580.7589999523188,,response,,,99,,,,,,Space,keypress(Space),,,,,---- -- ----- -- ------ - ------- --- ----------<br>------------- ------ ------ ---- ---- ------- ----- -- ----<br>-------- ------- -- ---------- --- - --- ----- ----- ----<br>---- --- --- ----- --- feel ---- ------- ----- ---- -------<br>--- --- -- ----- -- --- ---- -- --- ---- -- ------ ------<br>--- ----- -- ----,86436.40000009537,86435.79999995232,85838.375,85844.70000004768,85855.041,86438.284,,33,feel
screen,html.Screen,0_2_0_1_34,2021-11-25T15:52:18.928Z,,,,,,,,,,,,,,,,53,,,,,,,,,,,,,,333.6160000953678,,response,,,99,,,,,,Space,keypress(Space),,,,,---- -- ----- -- ------ - ------- --- ----------<br>------------- ------ ------ ---- ---- ------- ----- -- ----<br>-------- ------- -- ---------- --- - --- ----- ----- ----<br>---- --- --- ----- --- ---- that ------- ----- ---- -------<br>--- --- -- ----- -- --- ---- -- --- ---- -- ------ ------<br>--- ----- -- ----,86772.5,86771.90000009537,86421.619,86436.59999990463,86438.284,86788.285,,34,that
screen,html.Screen,0_2_0_1_35,2021-11-25T15:52:19.504Z,,,,,,,,,,,,,,,,53,,,,,,,,,,,,,,559.6150000953639,,response,,,99,,,,,,Space,keypress(Space),,,,,---- -- ----- -- ------ - ------- --- ----------<br>------------- ------ ------ ---- ---- ------- ----- -- ----<br>-------- ------- -- ---------- --- - --- ----- ----- ----<br>---- --- --- ----- --- ---- ---- matters ----- ---- -------<br>--- --- -- ----- -- --- ---- -- --- ---- -- ------ ------<br>--- ----- -- ----,87348.59999990463,87347.90000009537,86771.62,86772.70000004768,86788.285,87354.909,,35,matters
screen,html.Screen,0_2_0_1_36,2021-11-25T15:52:19.888Z,,,,,,,,,,,,,,,,53,,,,,,,,,,,,,,376.89099995231663,,response,,,99,,,,,,Space,keypress(Space),,,,,"---- -- ----- -- ------ - ------- --- ----------<br>------------- ------ ------ ---- ---- ------- ----- -- ----<br>-------- ------- -- ---------- --- - --- ----- ----- ----<br>---- --- --- ----- --- ---- ---- ------- most, ---- -------<br>--- --- -- ----- -- --- ---- -- --- ---- -- ------ ------<br>--- ----- -- ----",87732.70000004768,87731.79999995232,87338.244,87348.79999995232,87354.909,87738.23,,36,"most,"
screen,html.Screen,0_2_0_1_37,2021-11-25T15:52:20.480Z,,,,,,,,,,,,,,,,53,,,,,,,,,,,,,,585.5699999523204,,response,,,99,,,,,,Space,keypress(Space),,,,,---- -- ----- -- ------ - ------- --- ----------<br>------------- ------ ------ ---- ---- ------- ----- -- ----<br>-------- ------- -- ---------- --- - --- ----- ----- ----<br>---- --- --- ----- --- ---- ---- ------- ----- it's -------<br>--- --- -- ----- -- --- ---- -- --- ---- -- ------ ------<br>--- ----- -- ----,88324.40000009537,88323.79999995232,87721.565,87732.90000009537,87738.23,88338.172,,37,it's
screen,html.Screen,0_2_0_1_38,2021-11-25T15:52:20.784Z,,,,,,,,,,,,,,,,53,,,,,,,,,,,,,,289.62799995231035,,response,,,99,,,,,,Space,keypress(Space),,,,,---- -- ----- -- ------ - ------- --- ----------<br>------------- ------ ------ ---- ---- ------- ----- -- ----<br>-------- ------- -- ---------- --- - --- ----- ----- ----<br>---- --- --- ----- --- ---- ---- ------- ----- ---- whether<br>--- --- -- ----- -- --- ---- -- --- ---- -- ------ ------<br>--- ----- -- ----,88628.29999995232,88627.79999995232,88321.507,88324.59999990463,88338.172,88638.087,,38,whether
screen,html.Screen,0_2_0_1_39,2021-11-25T15:52:21.328Z,,,,,,,,,,,,,,,,53,,,,,,,,,,,,,,533.7129999523167,,response,,,99,,,,,,Space,keypress(Space),,,,,---- -- ----- -- ------ - ------- --- ----------<br>------------- ------ ------ ---- ---- ------- ----- -- ----<br>-------- ------- -- ---------- --- - --- ----- ----- ----<br>---- --- --- ----- --- ---- ---- ------- ----- ---- -------<br>you --- -- ----- -- --- ---- -- --- ---- -- ------ ------<br>--- ----- -- ----,89172.40000009537,89171.79999995232,88621.423,88628.5,88638.087,89188.158,,39,you
screen,html.Screen,0_2_0_1_40,2021-11-25T15:52:21.776Z,,,,,,,,,,,,,,,,53,,,,,,,,,,,,,,431.5420000476879,,response,,,99,,,,,,Space,keypress(Space),,,,,---- -- ----- -- ------ - ------- --- ----------<br>------------- ------ ------ ---- ---- ------- ----- -- ----<br>-------- ------- -- ---------- --- - --- ----- ----- ----<br>---- --- --- ----- --- ---- ---- ------- ----- ---- -------<br>--- are -- ----- -- --- ---- -- --- ---- -- ------ ------<br>--- ----- -- ----,89620.20000004768,89619.70000004768,89171.492,89172.5,89188.158,89621.477,,40,are
screen,html.Screen,0_2_0_1_41,2021-11-25T15:52:22.224Z,,,,,,,,,,,,,,,,53,,,,,,,,,,,,,,446.4230000953685,,response,,,99,,,,,,Space,keypress(Space),,,,,---- -- ----- -- ------ - ------- --- ----------<br>------------- ------ ------ ---- ---- ------- ----- -- ----<br>-------- ------- -- ---------- --- - --- ----- ----- ----<br>---- --- --- ----- --- ---- ---- ------- ----- ---- -------<br>--- --- as ----- -- --- ---- -- --- ---- -- ------ ------<br>--- ----- -- ----,90068.5,90067.90000009537,89604.811,89620.40000009537,89621.477,90071.407,,41,as
screen,html.Screen,0_2_0_1_42,2021-11-25T15:52:22.616Z,,,,,,,,,,,,,,,,53,,,,,,,,,,,,,,388.2930000476772,,response,,,99,,,,,,Space,keypress(Space),,,,,---- -- ----- -- ------ - ------- --- ----------<br>------------- ------ ------ ---- ---- ------- ----- -- ----<br>-------- ------- -- ---------- --- - --- ----- ----- ----<br>---- --- --- ----- --- ---- ---- ------- ----- ---- -------<br>--- --- -- close -- --- ---- -- --- ---- -- ------ ------<br>--- ----- -- ----,90460.20000004768,90459.70000004768,90054.742,90068.70000004768,90071.407,90471.313,,42,close
screen,html.Screen,0_2_0_1_43,2021-11-25T15:52:22.960Z,,,,,,,,,,,,,,,,53,,,,,,,,,,,,,,332.38700004768907,,response,,,99,,,,,,Space,keypress(Space),,,,,---- -- ----- -- ------ - ------- --- ----------<br>------------- ------ ------ ---- ---- ------- ----- -- ----<br>-------- ------- -- ---------- --- - --- ----- ----- ----<br>---- --- --- ----- --- ---- ---- ------- ----- ---- -------<br>--- --- -- ----- as --- ---- -- --- ---- -- ------ ------<br>--- ----- -- ----,90804.29999995232,90803.70000004768,90454.649,90460.40000009537,90471.313,90821.257,,43,as
screen,html.Screen,0_2_0_1_44,2021-11-25T15:52:23.319Z,,,,,,,,,,,,,,,,53,,,,,,,,,,,,,,342.3429999046348,,response,,,99,,,,,,Space,keypress(Space),,,,,---- -- ----- -- ------ - ------- --- ----------<br>------------- ------ ------ ---- ---- ------- ----- -- ----<br>-------- ------- -- ---------- --- - --- ----- ----- ----<br>---- --- --- ----- --- ---- ---- ------- ----- ---- -------<br>--- --- -- ----- -- you ---- -- --- ---- -- ------ ------<br>--- ----- -- ----,91164.09999990463,91163.59999990463,90804.593,90804.5,90821.257,91171.331,,44,you
screen,html.Screen,0_2_0_1_45,2021-11-25T15:52:23.680Z,,,,,,,,,,,,,,,,53,,,,,,,,,,,,,,352.268999904627,,response,,,99,,,,,,Space,keypress(Space),,,,,---- -- ----- -- ------ - ------- --- ----------<br>------------- ------ ------ ---- ---- ------- ----- -- ----<br>-------- ------- -- ---------- --- - --- ----- ----- ----<br>---- --- --- ----- --- ---- ---- ------- ----- ---- -------<br>--- --- -- ----- -- --- want -- --- ---- -- ------ ------<br>--- ----- -- ----,91524.20000004768,91523.59999990463,91154.665,91164.40000009537,91171.331,91538.067,,45,want
screen,html.Screen,0_2_0_1_46,2021-11-25T15:52:24.040Z,,,,,,,,,,,,,,,,53,,,,,,,,,,,,,,345.5329999046371,,response,,,99,,,,,,Space,keypress(Space),,,,,---- -- ----- -- ------ - ------- --- ----------<br>------------- ------ ------ ---- ---- ------- ----- -- ----<br>-------- ------- -- ---------- --- - --- ----- ----- ----<br>---- --- --- ----- --- ---- ---- ------- ----- ---- -------<br>--- --- -- ----- -- --- ---- to --- ---- -- ------ ------<br>--- ----- -- ----,91884.20000004768,91883.59999990463,91521.4,91524.29999995232,91538.067,91887.957,,46,to
screen,html.Screen,0_2_0_1_47,2021-11-25T15:52:24.367Z,,,,,,,,,,,,,,,,53,,,,,,,,,,,,,,323.6429999046377,,response,,,99,,,,,,Space,keypress(Space),,,,,"---- -- ----- -- ------ - ------- --- ----------<br>------------- ------ ------ ---- ---- ------- ----- -- ----<br>-------- ------- -- ---------- --- - --- ----- ----- ----<br>---- --- --- ----- --- ---- ---- ------- ----- ---- -------<br>--- --- -- ----- -- --- ---- -- be, ---- -- ------ ------<br>--- ----- -- ----",92212.09999990463,92211.59999990463,91871.292,91884.40000009537,91887.957,92221.137,,47,"be,"
screen,html.Screen,0_2_0_1_48,2021-11-25T15:52:24.736Z,,,,,,,,,,,,,,,,53,,,,,,,,,,,,,,358.4629999046301,,response,,,99,,,,,,Space,keypress(Space),,,,,---- -- ----- -- ------ - ------- --- ----------<br>------------- ------ ------ ---- ---- ------- ----- -- ----<br>-------- ------- -- ---------- --- - --- ----- ----- ----<br>---- --- --- ----- --- ---- ---- ------- ----- ---- -------<br>--- --- -- ----- -- --- ---- -- --- even -- ------ ------<br>--- ----- -- ----,92580.20000004768,92579.59999990463,92204.474,92212.29999995232,92221.137,92588.002,,48,even
screen,html.Screen,0_2_0_1_49,2021-11-25T15:52:25.095Z,,,,,,,,,,,,,,,,53,,,,,,,,,,,,,,351.49800000000687,,response,,,99,,,,,,Space,keypress(Space),,,,,---- -- ----- -- ------ - ------- --- ----------<br>------------- ------ ------ ---- ---- ------- ----- -- ----<br>-------- ------- -- ---------- --- - --- ----- ----- ----<br>---- --- --- ----- --- ---- ---- ------- ----- ---- -------<br>--- --- -- ----- -- --- ---- -- --- ---- if ------ ------<br>--- ----- -- ----,92940.20000004768,92939.5,92571.335,92580.29999995232,92588.002,92954.555,,49,if
screen,html.Screen,0_2_0_1_50,2021-11-25T15:52:25.495Z,,,,,,,,,,,,,,,,53,,,,,,,,,,,,,,384.8450000953744,,response,,,99,,,,,,Space,keypress(Space),,,,,---- -- ----- -- ------ - ------- --- ----------<br>------------- ------ ------ ---- ---- ------- ----- -- ----<br>-------- ------- -- ---------- --- - --- ----- ----- ----<br>---- --- --- ----- --- ---- ---- ------- ----- ---- -------<br>--- --- -- ----- -- --- ---- -- --- ---- -- that's ------<br>--- ----- -- ----,93340,93339.40000009537,92937.89,92940.29999995232,92954.555,93354.536,,50,that's
screen,html.Screen,0_2_0_1_51,2021-11-25T15:52:25.951Z,,,,,,,,,,,,,,,,53,,,,,,,,,,,,,,440.9640000000072,,response,,,99,,,,,,Space,keypress(Space),,,,,---- -- ----- -- ------ - ------- --- ----------<br>------------- ------ ------ ---- ---- ------- ----- -- ----<br>-------- ------- -- ---------- --- - --- ----- ----- ----<br>---- --- --- ----- --- ---- ---- ------- ----- ---- -------<br>--- --- -- ----- -- --- ---- -- --- ---- -- ------ really<br>--- ----- -- ----,93796.09999990463,93795.5,93337.871,93340.20000004768,93354.536,93804.5,,51,really
screen,html.Screen,0_2_0_1_52,2021-11-25T15:52:26.375Z,,,,,,,,,,,,,,,,53,,,,,,,,,,,,,,415,,response,,,99,,,,,,Space,keypress(Space),,,,,---- -- ----- -- ------ - ------- --- ----------<br>------------- ------ ------ ---- ---- ------- ----- -- ----<br>-------- ------- -- ---------- --- - --- ----- ----- ----<br>---- --- --- ----- --- ---- ---- ------- ----- ---- -------<br>--- --- -- ----- -- --- ---- -- --- ---- -- ------ ------<br>not ----- -- ----,94220,94219.5,93787.835,93796.29999995232,93804.5,94221.157,,52,not
screen,html.Screen,0_2_0_1_53,2021-11-25T15:52:26.743Z,,,,,,,,,,,,,,,,53,,,,,,,,,,,,,,366.14299995230976,,response,,,99,,,,,,Space,keypress(Space),,,,,---- -- ----- -- ------ - ------- --- ----------<br>------------- ------ ------ ---- ---- ------- ----- -- ----<br>-------- ------- -- ---------- --- - --- ----- ----- ----<br>---- --- --- ----- --- ---- ---- ------- ----- ---- -------<br>--- --- -- ----- -- --- ---- -- --- ---- -- ------ ------<br>--- close -- ----,94587.90000009537,94587.29999995232,94204.492,94220.20000004768,94221.157,94604.441,,53,close
screen,html.Screen,0_2_0_1_54,2021-11-25T15:52:27.127Z,,,,,,,,,,,,,,,,53,,,,,,,,,,,,,,367.05899999999383,,response,,,99,,,,,,Space,keypress(Space),,,,,---- -- ----- -- ------ - ------- --- ----------<br>------------- ------ ------ ---- ---- ------- ----- -- ----<br>-------- ------- -- ---------- --- - --- ----- ----- ----<br>---- --- --- ----- --- ---- ---- ------- ----- ---- -------<br>--- --- -- ----- -- --- ---- -- --- ---- -- ------ ------<br>--- ----- at ----,94972,94971.5,94587.776,94588.09999990463,94604.441,94987.77,,54,at
screen,html.Screen,0_2_0_1_55,2021-11-25T15:52:27.783Z,,,,,,,,,,,,,,,,53,,,,,,,,,,,,,,639.6300000953634,,response,,,99,,,,,,Space,keypress(Space),,,,,---- -- ----- -- ------ - ------- --- ----------<br>------------- ------ ------ ---- ---- ------- ----- -- ----<br>-------- ------- -- ---------- --- - --- ----- ----- ----<br>---- --- --- ----- --- ---- ---- ------- ----- ---- -------<br>--- --- -- ----- -- --- ---- -- --- ---- -- ------ ------<br>--- ----- -- all.,95627.90000009537,95627.40000009537,94971.105,94972.20000004768,94987.77,95637.634,,55,all.
Item 99,flow.Loop,0_2_0_1,2021-11-25T15:52:27.786Z,,,,,,,,,,,,,,,,,,,,,,,,,,,,,,27471.34900009536,,completion,,,,B,,,,,,,,,,silence,,95630.79999995232,95627.40000009537,68139.386,68143,68156.051,95637.634,,,
Question 1,html.Screen,0_2_0_2,2021-11-25T15:52:33.189Z,,,,,,,,,,,,,,,,,,,,,,,,,,,true,FALSE,,5395.465999904627,,response,,,99,B,,,,,FALSE,click #choice-2,,,,silence,,101034,101033.09999990463,95620.97,95631,95637.634,101037.407,,,
Question 2,html.Screen,0_2_0_3,2021-11-25T15:52:40.938Z,,,,,,,,,,,,,,,,,,,,,,,,,,,true,TRUE,,7743.89299995231,,response,,,99,B,,,,,TRUE,click #choice-1,,,,silence,,108782.20000004768,108781.29999995232,101020.741,101034.20000004768,101037.407,108786.858,,,
Item 99,flow.Sequence,0_2_0,2021-11-25T15:52:40.938Z,,,,,,,,,,,,,,,,,,,,,,,,,,,,,,50630.113999952315,,completion,,,,,,,,,,,,,,,,108782.5,108781.29999995232,58134.536,58150,58151.186,108786.858,,,
Holding screen,html.Screen,0_2_1_0,2021-11-25T15:52:50.926Z,,,,,,,,,,,,,,,,,,,,,,,,,,,,,,9999.540000000008,,timeout,,,,,,,,,,,,,,,,118770.40000009537,118769.732,108770.193,108782.70000004768,108786.858,118786.398,,,
screen,html.Screen,0_2_1_1_0,2021-11-25T15:52:51.926Z,,,,,,,,,,,,,,,,54,,,,,,,,,,,,,,983.8020000476827,,response,,,100,,,,,,Space,keypress(Space),,,,,At --- ---- --- ------ ----- ------- ---- -- --- ------- --<br>------- ---------- ------ -- ----- -- ----- -- ---- ------<br>--- ----- --- --- ------ -------- ----- --- ------ ----- --<br>----- ----- ---------- --- --- ------ ------ ---- -- ------<br>------- --- ------ ----- --- ---- ------- -- ---- --- --<br>------- ------,119771,119770.20000004768,118769.732,118770.59999990463,118786.398,119786.224,,0,At
screen,html.Screen,0_2_1_1_1,2021-11-25T15:52:52.352Z,,,,,,,,,,,,,,,,54,,,,,,,,,,,,,,407.5759999523143,,response,,,100,,,,,,Space,keypress(Space),,,,,-- the ---- --- ------ ----- ------- ---- -- --- ------- --<br>------- ---------- ------ -- ----- -- ----- -- ---- ------<br>--- ----- --- --- ------ -------- ----- --- ------ ----- --<br>----- ----- ---------- --- --- ------ ------ ---- -- ------<br>------- --- ------ ----- --- ---- ------- -- ---- --- --<br>------- ------,120194.40000009537,120193.79999995232,119769.559,119771.09999990463,119786.224,120202.887,,1,the
screen,html.Screen,0_2_1_1_2,2021-11-25T15:52:52.872Z,,,,,,,,,,,,,,,,54,,,,,,,,,,,,,,511.013000095365,,response,,,100,,,,,,Space,keypress(Space),,,,,-- --- time --- ------ ----- ------- ---- -- --- ------- --<br>------- ---------- ------ -- ----- -- ----- -- ---- ------<br>--- ----- --- --- ------ -------- ----- --- ------ ----- --<br>----- ----- ---------- --- --- ------ ------ ---- -- ------<br>------- --- ------ ----- --- ---- ------- -- ---- --- --<br>------- ------,120714.5,120713.90000009537,120186.222,120194.70000004768,120202.887,120719.495,,2,time
screen,html.Screen,0_2_1_1_3,2021-11-25T15:52:53.432Z,,,,,,,,,,,,,,,,54,,,,,,,,,,,,,,554.3049999523209,,response,,,100,,,,,,Space,keypress(Space),,,,,-- --- ---- the ------ ----- ------- ---- -- --- ------- --<br>------- ---------- ------ -- ----- -- ----- -- ---- ------<br>--- ----- --- --- ------ -------- ----- --- ------ ----- --<br>----- ----- ---------- --- --- ------ ------ ---- -- ------<br>------- --- ------ ----- --- ---- ------- -- ---- --- --<br>------- ------,121274.29999995232,121273.79999995232,120702.83,120714.59999990463,120719.495,121286.128,,3,the
screen,html.Screen,0_2_1_1_4,2021-11-25T15:52:53.896Z,,,,,,,,,,,,,,,,54,,,,,,,,,,,,,,451.6719999523193,,response,,,100,,,,,,Space,keypress(Space),,,,,-- --- ---- --- French ----- ------- ---- -- --- ------- --<br>------- ---------- ------ -- ----- -- ----- -- ---- ------<br>--- ----- --- --- ------ -------- ----- --- ------ ----- --<br>----- ----- ---------- --- --- ------ ------ ---- -- ------<br>------- --- ------ ----- --- ---- ------- -- ---- --- --<br>------- ------,121738.40000009537,121737.79999995232,121269.463,121274.5,121286.128,121752.678,,4,French
screen,html.Screen,0_2_1_1_5,2021-11-25T15:52:54.440Z,,,,,,,,,,,,,,,,54,,,,,,,,,,,,,,529.0220000476838,,response,,,100,,,,,,Space,keypress(Space),,,,,-- --- ---- --- ------ crown ------- ---- -- --- ------- --<br>------- ---------- ------ -- ----- -- ----- -- ---- ------<br>--- ----- --- --- ------ -------- ----- --- ------ ----- --<br>----- ----- ---------- --- --- ------ ------ ---- -- ------<br>------- --- ------ ----- --- ---- ------- -- ---- --- --<br>------- ------,122282.29999995232,122281.70000004768,121736.014,121738.59999990463,121752.678,122286.121,,5,crown
screen,html.Screen,0_2_1_1_6,2021-11-25T15:52:54.840Z,,,,,,,,,,,,,,,,54,,,,,,,,,,,,,,395.57900004768453,,response,,,100,,,,,,Space,keypress(Space),,,,,-- --- ---- --- ------ ----- secured ---- -- --- ------- --<br>------- ---------- ------ -- ----- -- ----- -- ---- ------<br>--- ----- --- --- ------ -------- ----- --- ------ ----- --<br>----- ----- ---------- --- --- ------ ------ ---- -- ------<br>------- --- ------ ----- --- ---- ------- -- ---- --- --<br>------- ------,122682.29999995232,122681.70000004768,122269.455,122282.40000009537,122286.121,122686.064,,6,secured
screen,html.Screen,0_2_1_1_7,2021-11-25T15:52:55.320Z,,,,,,,,,,,,,,,,54,,,,,,,,,,,,,,475.5359999046341,,response,,,100,,,,,,Space,keypress(Space),,,,,-- --- ---- --- ------ ----- ------- much -- --- ------- --<br>------- ---------- ------ -- ----- -- ----- -- ---- ------<br>--- ----- --- --- ------ -------- ----- --- ------ ----- --<br>----- ----- ---------- --- --- ------ ------ ---- -- ------<br>------- --- ------ ----- --- ---- ------- -- ---- --- --<br>------- ------,123162.20000004768,123161.59999990463,122669.399,122682.40000009537,122686.064,123169.282,,7,much
screen,html.Screen,0_2_1_1_8,2021-11-25T15:52:55.712Z,,,,,,,,,,,,,,,,54,,,,,,,,,,,,,,384.2179999999935,,response,,,100,,,,,,Space,keypress(Space),,,,,-- --- ---- --- ------ ----- ------- ---- of --- ------- --<br>------- ---------- ------ -- ----- -- ----- -- ---- ------<br>--- ----- --- --- ------ -------- ----- --- ------ ----- --<br>----- ----- ---------- --- --- ------ ------ ---- -- ------<br>------- --- ------ ----- --- ---- ------- -- ---- --- --<br>------- ------,123554.09999990463,123553.5,123152.618,123162.40000009537,123169.282,123569.398,,8,of
screen,html.Screen,0_2_1_1_9,2021-11-25T15:52:56.000Z,,,,,,,,,,,,,,,,54,,,,,,,,,,,,,,272.2019999046315,,response,,,100,,,,,,Space,keypress(Space),,,,,-- --- ---- --- ------ ----- ------- ---- -- its ------- --<br>------- ---------- ------ -- ----- -- ----- -- ---- ------<br>--- ----- --- --- ------ -------- ----- --- ------ ----- --<br>----- ----- ---------- --- --- ------ ------ ---- -- ------<br>------- --- ------ ----- --- ---- ------- -- ---- --- --<br>------- ------,123842.09999990463,123841.59999990463,123552.732,123554.09999990463,123569.398,123852.664,,9,its
screen,html.Screen,0_2_1_1_10,2021-11-25T15:52:56.664Z,,,,,,,,,,,,,,,,54,,,,,,,,,,,,,,653.0360000476794,,response,,,100,,,,,,Space,keypress(Space),,,,,-- --- ---- --- ------ ----- ------- ---- -- --- revenue --<br>------- ---------- ------ -- ----- -- ----- -- ---- ------<br>--- ----- --- --- ------ -------- ----- --- ------ ----- --<br>----- ----- ---------- --- --- ------ ------ ---- -- ------<br>------- --- ------ ----- --- ---- ------- -- ---- --- --<br>------- ------,124506.29999995232,124505.70000004768,123835.999,123842.09999990463,123852.664,124519.111,,10,revenue
screen,html.Screen,0_2_1_1_11,2021-11-25T15:52:57.104Z,,,,,,,,,,,,,,,,54,,,,,,,,,,,,,,426.5890000476793,,response,,,100,,,,,,Space,keypress(Space),,,,,-- --- ---- --- ------ ----- ------- ---- -- --- ------- by<br>------- ---------- ------ -- ----- -- ----- -- ---- ------<br>--- ----- --- --- ------ -------- ----- --- ------ ----- --<br>----- ----- ---------- --- --- ------ ------ ---- -- ------<br>------- --- ------ ----- --- ---- ------- -- ---- --- --<br>------- ------,124946.20000004768,124945.70000004768,124502.448,124506.5,124519.111,124952.551,,11,by
screen,html.Screen,0_2_1_1_12,2021-11-25T15:52:57.400Z,,,,,,,,,,,,,,,,54,,,,,,,,,,,,,,288.94899999999325,,response,,,100,,,,,,Space,keypress(Space),,,,,-- --- ---- --- ------ ----- ------- ---- -- --- ------- --<br>issuing ---------- ------ -- ----- -- ----- -- ---- ------<br>--- ----- --- --- ------ -------- ----- --- ------ ----- --<br>----- ----- ---------- --- --- ------ ------ ---- -- ------<br>------- --- ------ ----- --- ---- ------- -- ---- --- --<br>------- ------,125242.09999990463,125241.5,124935.886,124946.40000009537,124952.551,125252.622,,12,issuing
screen,html.Screen,0_2_1_1_13,2021-11-25T15:52:57.912Z,,,,,,,,,,,,,,,,54,,,,,,,,,,,,,,500.97799990462954,,response,,,100,,,,,,Space,keypress(Space),,,,,-- --- ---- --- ------ ----- ------- ---- -- --- ------- --<br>------- government ------ -- ----- -- ----- -- ---- ------<br>--- ----- --- --- ------ -------- ----- --- ------ ----- --<br>----- ----- ---------- --- --- ------ ------ ---- -- ------<br>------- --- ------ ----- --- ---- ------- -- ---- --- --<br>------- ------,125754.20000004768,125753.59999990463,125235.956,125242.20000004768,125252.622,125769.129,,13,government
screen,html.Screen,0_2_1_1_14,2021-11-25T15:52:58.320Z,,,,,,,,,,,,,,,,54,,,,,,,,,,,,,,392.3709999999992,,response,,,100,,,,,,Space,keypress(Space),,,,,-- --- ---- --- ------ ----- ------- ---- -- --- ------- --<br>------- ---------- bonds. -- ----- -- ----- -- ---- ------<br>--- ----- --- --- ------ -------- ----- --- ------ ----- --<br>----- ----- ---------- --- --- ------ ------ ---- -- ------<br>------- --- ------ ----- --- ---- ------- -- ---- --- --<br>------- ------,126162,126161.5,125752.465,125754.29999995232,125769.129,126169.2,,14,bonds.
screen,html.Screen,0_2_1_1_15,2021-11-25T15:52:58.744Z,,,,,,,,,,,,,,,,54,,,,,,,,,,,,,,416.20000009537034,,response,,,100,,,,,,Space,keypress(Space),,,,,-- --- ---- --- ------ ----- ------- ---- -- --- ------- --<br>------- ---------- ------ In ----- -- ----- -- ---- ------<br>--- ----- --- --- ------ -------- ----- --- ------ ----- --<br>----- ----- ---------- --- --- ------ ------ ---- -- ------<br>------- --- ------ ----- --- ---- ------- -- ---- --- --<br>------- ------,126586,126585.40000009537,126152.534,126162.20000004768,126169.2,126602.509,,15,In
screen,html.Screen,0_2_1_1_16,2021-11-25T15:52:59.552Z,,,,,,,,,,,,,,,,54,,,,,,,,,,,,,,790.891000095362,,response,,,100,,,,,,Space,keypress(Space),,,,,"-- --- ---- --- ------ ----- ------- ---- -- --- ------- --<br>------- ---------- ------ -- 1727, -- ----- -- ---- ------<br>--- ----- --- --- ------ -------- ----- --- ------ ----- --<br>----- ----- ---------- --- --- ------ ------ ---- -- ------<br>------- --- ------ ----- --- ---- ------- -- ---- --- --<br>------- ------",127394,127393.40000009537,126585.843,126586.09999990463,126602.509,127402.422,,16,"1727,"
screen,html.Screen,0_2_1_1_17,2021-11-25T15:53:00.576Z,,,,,,,,,,,,,,,,54,,,,,,,,,,,,,,1014.9780000953615,,response,,,100,,,,,,Space,keypress(Space),,,,,-- --- ---- --- ------ ----- ------- ---- -- --- ------- --<br>------- ---------- ------ -- ----- in ----- -- ---- ------<br>--- ----- --- --- ------ -------- ----- --- ------ ----- --<br>----- ----- ---------- --- --- ------ ------ ---- -- ------<br>------- --- ------ ----- --- ---- ------- -- ---- --- --<br>------- ------,128418,128417.40000009537,127385.757,127394.20000004768,127402.422,128418.882,,17,in
screen,html.Screen,0_2_1_1_18,2021-11-25T15:53:01.128Z,,,,,,,,,,,,,,,,54,,,,,,,,,,,,,,550.5180000953696,,response,,,100,,,,,,Space,keypress(Space),,,,,-- --- ---- --- ------ ----- ------- ---- -- --- ------- --<br>------- ---------- ------ -- ----- -- order -- ---- ------<br>--- ----- --- --- ------ -------- ----- --- ------ ----- --<br>----- ----- ---------- --- --- ------ ------ ---- -- ------<br>------- --- ------ ----- --- ---- ------- -- ---- --- --<br>------- ------,128970,128969.40000009537,128402.218,128418.09999990463,128418.882,128985.743,,18,order
screen,html.Screen,0_2_1_1_19,2021-11-25T15:53:01.584Z,,,,,,,,,,,,,,,,54,,,,,,,,,,,,,,439.5569999523141,,response,,,100,,,,,,Space,keypress(Space),,,,,-- --- ---- --- ------ ----- ------- ---- -- --- ------- --<br>------- ---------- ------ -- ----- -- ----- to ---- ------<br>--- ----- --- --- ------ -------- ----- --- ------ ----- --<br>----- ----- ---------- --- --- ------ ------ ---- -- ------<br>------- --- ------ ----- --- ---- ------- -- ---- --- --<br>------- ------,129425.79999995232,129425.29999995232,128969.077,128970.20000004768,128985.743,129435.655,,19,to
screen,html.Screen,0_2_1_1_20,2021-11-25T15:53:01.928Z,,,,,,,,,,,,,,,,54,,,,,,,,,,,,,,333.5450000476849,,response,,,100,,,,,,Space,keypress(Space),,,,,-- --- ---- --- ------ ----- ------- ---- -- --- ------- --<br>------- ---------- ------ -- ----- -- ----- -- save ------<br>--- ----- --- --- ------ -------- ----- --- ------ ----- --<br>----- ----- ---------- --- --- ------ ------ ---- -- ------<br>------- --- ------ ----- --- ---- ------- -- ---- --- --<br>------- ------,129769.79999995232,129769.20000004768,129418.99,129426,129435.655,129785.582,,20,save
screen,html.Screen,0_2_1_1_21,2021-11-25T15:53:02.400Z,,,,,,,,,,,,,,,,54,,,,,,,,,,,,,,455.9180000000051,,response,,,100,,,,,,Space,keypress(Space),,,,,"-- --- ---- --- ------ ----- ------- ---- -- --- ------- --<br>------- ---------- ------ -- ----- -- ----- -- ---- money,<br>--- ----- --- --- ------ -------- ----- --- ------ ----- --<br>----- ----- ---------- --- --- ------ ------ ---- -- ------<br>------- --- ------ ----- --- ---- ------- -- ---- --- --<br>------- ------",130242,130241.5,129768.918,129770,129785.582,130252.306,,21,"money,"
screen,html.Screen,0_2_1_1_22,2021-11-25T15:53:02.896Z,,,,,,,,,,,,,,,,54,,,,,,,,,,,,,,484.89400004768686,,response,,,100,,,,,,Space,keypress(Space),,,,,-- --- ---- --- ------ ----- ------- ---- -- --- ------- --<br>------- ---------- ------ -- ----- -- ----- -- ---- ------<br>the ----- --- --- ------ -------- ----- --- ------ ----- --<br>----- ----- ---------- --- --- ------ ------ ---- -- ------<br>------- --- ------ ----- --- ---- ------- -- ---- --- --<br>------- ------,130737.90000009537,130737.20000004768,130235.64,130242.20000004768,130252.306,130752.247,,22,the
screen,html.Screen,0_2_1_1_23,2021-11-25T15:53:03.312Z,,,,,,,,,,,,,,,,54,,,,,,,,,,,,,,400.85299990462954,,response,,,100,,,,,,Space,keypress(Space),,,,,-- --- ---- --- ------ ----- ------- ---- -- --- ------- --<br>------- ---------- ------ -- ----- -- ----- -- ---- ------<br>--- state --- --- ------ -------- ----- --- ------ ----- --<br>----- ----- ---------- --- --- ------ ------ ---- -- ------<br>------- --- ------ ----- --- ---- ------- -- ---- --- --<br>------- ------,131153.79999995232,131153.09999990463,130735.582,130738.09999990463,130752.247,131168.881,,23,state
screen,html.Screen,0_2_1_1_24,2021-11-25T15:53:03.776Z,,,,,,,,,,,,,,,,54,,,,,,,,,,,,,,448.31900004768977,,response,,,100,,,,,,Space,keypress(Space),,,,,-- --- ---- --- ------ ----- ------- ---- -- --- ------- --<br>------- ---------- ------ -- ----- -- ----- -- ---- ------<br>--- ----- cut --- ------ -------- ----- --- ------ ----- --<br>----- ----- ---------- --- --- ------ ------ ---- -- ------<br>------- --- ------ ----- --- ---- ------- -- ---- --- --<br>------- ------,131617.79999995232,131617.20000004768,131152.216,131154.09999990463,131168.881,131618.862,,24,cut
screen,html.Screen,0_2_1_1_25,2021-11-25T15:53:04.152Z,,,,,,,,,,,,,,,,54,,,,,,,,,,,,,,374.23799990463885,,response,,,100,,,,,,Space,keypress(Space),,,,,-- --- ---- --- ------ ----- ------- ---- -- --- ------- --<br>------- ---------- ------ -- ----- -- ----- -- ---- ------<br>--- ----- --- the ------ -------- ----- --- ------ ----- --<br>----- ----- ---------- --- --- ------ ------ ---- -- ------<br>------- --- ------ ----- --- ---- ------- -- ---- --- --<br>------- ------,131993.70000004768,131993.09999990463,131602.197,131617.90000009537,131618.862,132002.148,,25,the
screen,html.Screen,0_2_1_1_26,2021-11-25T15:53:04.784Z,,,,,,,,,,,,,,,,54,,,,,,,,,,,,,,622.9519999046461,,response,,,100,,,,,,Space,keypress(Space),,,,,-- --- ---- --- ------ ----- ------- ---- -- --- ------- --<br>------- ---------- ------ -- ----- -- ----- -- ---- ------<br>--- ----- --- --- bonds' -------- ----- --- ------ ----- --<br>----- ----- ---------- --- --- ------ ------ ---- -- ------<br>------- --- ------ ----- --- ---- ------- -- ---- --- --<br>------- ------,132625.70000004768,132625.09999990463,131985.483,131993.90000009537,132002.148,132635.443,,26,bonds'
screen,html.Screen,0_2_1_1_27,2021-11-25T15:53:05.192Z,,,,,,,,,,,,,,,,54,,,,,,,,,,,,,,397.5570000000007,,response,,,100,,,,,,Space,keypress(Space),,,,,-- --- ---- --- ------ ----- ------- ---- -- --- ------- --<br>------- ---------- ------ -- ----- -- ----- -- ---- ------<br>--- ----- --- --- ------ interest ----- --- ------ ----- --<br>----- ----- ---------- --- --- ------ ------ ---- -- ------<br>------- --- ------ ----- --- ---- ------- -- ---- --- --<br>------- ------,133033.70000004768,133033,132618.778,132625.79999995232,132635.443,133035.443,,27,interest
screen,html.Screen,0_2_1_1_28,2021-11-25T15:53:06.048Z,,,,,,,,,,,,,,,,54,,,,,,,,,,,,,,853.5570000000007,,response,,,100,,,,,,Space,keypress(Space),,,,,-- --- ---- --- ------ ----- ------- ---- -- --- ------- --<br>------- ---------- ------ -- ----- -- ----- -- ---- ------<br>--- ----- --- --- ------ -------- rate. --- ------ ----- --<br>----- ----- ---------- --- --- ------ ------ ---- -- ------<br>------- --- ------ ----- --- ---- ------- -- ---- --- --<br>------- ------,133889.79999995232,133889,133018.778,133033.90000009537,133035.443,133902.042,,28,rate.
screen,html.Screen,0_2_1_1_29,2021-11-25T15:53:06.367Z,,,,,,,,,,,,,,,,54,,,,,,,,,,,,,,306.8580000953807,,response,,,100,,,,,,Space,keypress(Space),,,,,-- --- ---- --- ------ ----- ------- ---- -- --- ------- --<br>------- ---------- ------ -- ----- -- ----- -- ---- ------<br>--- ----- --- --- ------ -------- ----- The ------ ----- --<br>----- ----- ---------- --- --- ------ ------ ---- -- ------<br>------- --- ------ ----- --- ---- ------- -- ---- --- --<br>------- ------,134209.5,134208.90000009537,133885.377,133889.90000009537,133902.042,134218.697,,29,The
screen,html.Screen,0_2_1_1_30,2021-11-25T15:53:06.904Z,,,,,,,,,,,,,,,,54,,,,,,,,,,,,,,526.3030000000144,,response,,,100,,,,,,Space,keypress(Space),,,,,-- --- ---- --- ------ ----- ------- ---- -- --- ------- --<br>------- ---------- ------ -- ----- -- ----- -- ---- ------<br>--- ----- --- --- ------ -------- ----- --- market ----- --<br>----- ----- ---------- --- --- ------ ------ ---- -- ------<br>------- --- ------ ----- --- ---- ------- -- ---- --- --<br>------- ------,134745.70000004768,134745,134202.032,134209.70000004768,134218.697,134751.992,,30,market
screen,html.Screen,0_2_1_1_31,2021-11-25T15:53:07.639Z,,,,,,,,,,,,,,,,54,,,,,,,,,,,,,,728.9080000953691,,response,,,100,,,,,,Space,keypress(Space),,,,,-- --- ---- --- ------ ----- ------- ---- -- --- ------- --<br>------- ---------- ------ -- ----- -- ----- -- ---- ------<br>--- ----- --- --- ------ -------- ----- --- ------ value --<br>----- ----- ---------- --- --- ------ ------ ---- -- ------<br>------- --- ------ ----- --- ---- ------- -- ---- --- --<br>------- ------,135481.59999990463,135480.90000009537,134735.327,134745.90000009537,134751.992,135485.196,,31,value
screen,html.Screen,0_2_1_1_32,2021-11-25T15:53:08.175Z,,,,,,,,,,,,,,,,54,,,,,,,,,,,,,,531.7040000953712,,response,,,100,,,,,,Space,keypress(Space),,,,,-- --- ---- --- ------ ----- ------- ---- -- --- ------- --<br>------- ---------- ------ -- ----- -- ----- -- ---- ------<br>--- ----- --- --- ------ -------- ----- --- ------ ----- of<br>----- ----- ---------- --- --- ------ ------ ---- -- ------<br>------- --- ------ ----- --- ---- ------- -- ---- --- --<br>------- ------,136017.59999990463,136016.90000009537,135468.532,135481.90000009537,135485.196,136018.633,,32,of
screen,html.Screen,0_2_1_1_33,2021-11-25T15:53:08.599Z,,,,,,,,,,,,,,,,54,,,,,,,,,,,,,,422.2670000953658,,response,,,100,,,,,,Space,keypress(Space),,,,,-- --- ---- --- ------ ----- ------- ---- -- --- ------- --<br>------- ---------- ------ -- ----- -- ----- -- ---- ------<br>--- ----- --- --- ------ -------- ----- --- ------ ----- --<br>these ----- ---------- --- --- ------ ------ ---- -- ------<br>------- --- ------ ----- --- ---- ------- -- ---- --- --<br>------- ------,136441.40000009537,136440.90000009537,136001.967,136017.70000004768,136018.633,136451.859,,33,these
screen,html.Screen,0_2_1_1_34,2021-11-25T15:53:09.039Z,,,,,,,,,,,,,,,,54,,,,,,,,,,,,,,429.0410000953707,,response,,,100,,,,,,Space,keypress(Space),,,,,-- --- ---- --- ------ ----- ------- ---- -- --- ------- --<br>------- ---------- ------ -- ----- -- ----- -- ---- ------<br>--- ----- --- --- ------ -------- ----- --- ------ ----- --<br>----- bonds ---------- --- --- ------ ------ ---- -- ------<br>------- --- ------ ----- --- ---- ------- -- ---- --- --<br>------- ------,136881.59999990463,136880.90000009537,136435.194,136441.70000004768,136451.859,136885.172,,34,bonds
screen,html.Screen,0_2_1_1_35,2021-11-25T15:53:09.639Z,,,,,,,,,,,,,,,,54,,,,,,,,,,,,,,595.6279999523249,,response,,,100,,,,,,Space,keypress(Space),,,,,"-- --- ---- --- ------ ----- ------- ---- -- --- ------- --<br>------- ---------- ------ -- ----- -- ----- -- ---- ------<br>--- ----- --- --- ------ -------- ----- --- ------ ----- --<br>----- ----- plummeted, --- --- ------ ------ ---- -- ------<br>------- --- ------ ----- --- ---- ------- -- ---- --- --<br>------- ------",137481.40000009537,137480.79999995232,136868.507,136881.70000004768,136885.172,137485.188,,35,"plummeted,"
screen,html.Screen,0_2_1_1_36,2021-11-25T15:53:10.071Z,,,,,,,,,,,,,,,,54,,,,,,,,,,,,,,427.61199995232164,,response,,,100,,,,,,Space,keypress(Space),,,,,-- --- ---- --- ------ ----- ------- ---- -- --- ------- --<br>------- ---------- ------ -- ----- -- ----- -- ---- ------<br>--- ----- --- --- ------ -------- ----- --- ------ ----- --<br>----- ----- ---------- and --- ------ ------ ---- -- ------<br>------- --- ------ ----- --- ---- ------- -- ---- --- --<br>------- ------,137913.40000009537,137912.79999995232,137468.522,137482.40000009537,137485.188,137918.393,,36,and
screen,html.Screen,0_2_1_1_37,2021-11-25T15:53:10.335Z,,,,,,,,,,,,,,,,54,,,,,,,,,,,,,,258.3070000476728,,response,,,100,,,,,,Space,keypress(Space),,,,,-- --- ---- --- ------ ----- ------- ---- -- --- ------- --<br>------- ---------- ------ -- ----- -- ----- -- ---- ------<br>--- ----- --- --- ------ -------- ----- --- ------ ----- --<br>----- ----- ---------- --- the ------ ------ ---- -- ------<br>------- --- ------ ----- --- ---- ------- -- ---- --- --<br>------- ------,138177.20000004768,138176.70000004768,137901.729,137913.59999990463,137918.393,138185.079,,37,the
screen,html.Screen,0_2_1_1_38,2021-11-25T15:53:10.623Z,,,,,,,,,,,,,,,,54,,,,,,,,,,,,,,279.7209999523184,,response,,,100,,,,,,Space,keypress(Space),,,,,-- --- ---- --- ------ ----- ------- ---- -- --- ------- --<br>------- ---------- ------ -- ----- -- ----- -- ---- ------<br>--- ----- --- --- ------ -------- ----- --- ------ ----- --<br>----- ----- ---------- --- --- market ------ ---- -- ------<br>------- --- ------ ----- --- ---- ------- -- ---- --- --<br>------- ------,138465.29999995232,138464.79999995232,138168.414,138177.5,138185.079,138468.453,,38,market
screen,html.Screen,0_2_1_1_39,2021-11-25T15:53:11.023Z,,,,,,,,,,,,,,,,54,,,,,,,,,,,,,,396.34699995230767,,response,,,100,,,,,,Space,keypress(Space),,,,,-- --- ---- --- ------ ----- ------- ---- -- --- ------- --<br>------- ---------- ------ -- ----- -- ----- -- ---- ------<br>--- ----- --- --- ------ -------- ----- --- ------ ----- --<br>----- ----- ---------- --- --- ------ became ---- -- ------<br>------- --- ------ ----- --- ---- ------- -- ---- --- --<br>------- ------,138865.40000009537,138864.79999995232,138451.787,138465.5,138468.453,138868.383,,39,became
screen,html.Screen,0_2_1_1_40,2021-11-25T15:53:11.295Z,,,,,,,,,,,,,,,,54,,,,,,,,,,,,,,268.3170000476821,,response,,,100,,,,,,Space,keypress(Space),,,,,-- --- ---- --- ------ ----- ------- ---- -- --- ------- --<br>------- ---------- ------ -- ----- -- ----- -- ---- ------<br>--- ----- --- --- ------ -------- ----- --- ------ ----- --<br>----- ----- ---------- --- --- ------ ------ wary -- ------<br>------- --- ------ ----- --- ---- ------- -- ---- --- --<br>------- ------,139137.29999995232,139136.70000004768,138851.718,138865.5,138868.383,139151.761,,40,wary
screen,html.Screen,0_2_1_1_41,2021-11-25T15:53:12.103Z,,,,,,,,,,,,,,,,54,,,,,,,,,,,,,,792.9390000476851,,response,,,100,,,,,,Space,keypress(Space),,,,,-- --- ---- --- ------ ----- ------- ---- -- --- ------- --<br>------- ---------- ------ -- ----- -- ----- -- ---- ------<br>--- ----- --- --- ------ -------- ----- --- ------ ----- --<br>----- ----- ---------- --- --- ------ ------ ---- of ------<br>------- --- ------ ----- --- ---- ------- -- ---- --- --<br>------- ------,139945.29999995232,139944.70000004768,139135.095,139137.40000009537,139151.761,139951.655,,41,of
screen,html.Screen,0_2_1_1_42,2021-11-25T15:53:12.471Z,,,,,,,,,,,,,,,,54,,,,,,,,,,,,,,361.14499995231745,,response,,,100,,,,,,Space,keypress(Space),,,,,-- --- ---- --- ------ ----- ------- ---- -- --- ------- --<br>------- ---------- ------ -- ----- -- ----- -- ---- ------<br>--- ----- --- --- ------ -------- ----- --- ------ ----- --<br>----- ----- ---------- --- --- ------ ------ ---- -- French<br>------- --- ------ ----- --- ---- ------- -- ---- --- --<br>------- ------,140313.29999995232,140312.79999995232,139934.99,139945.5,139951.655,140318.309,,42,French
screen,html.Screen,0_2_1_1_43,2021-11-25T15:53:12.775Z,,,,,,,,,,,,,,,,54,,,,,,,,,,,,,,298.2909999046242,,response,,,100,,,,,,Space,keypress(Space),,,,,-- --- ---- --- ------ ----- ------- ---- -- --- ------- --<br>------- ---------- ------ -- ----- -- ----- -- ---- ------<br>--- ----- --- --- ------ -------- ----- --- ------ ----- --<br>----- ----- ---------- --- --- ------ ------ ---- -- ------<br>credit. --- ------ ----- --- ---- ------- -- ---- --- --<br>------- ------,140617.09999990463,140616.59999990463,140301.644,140313.5,140318.309,140618.309,,43,credit.
screen,html.Screen,0_2_1_1_44,2021-11-25T15:53:13.303Z,,,,,,,,,,,,,,,,54,,,,,,,,,,,,,,526.2909999046242,,response,,,100,,,,,,Space,keypress(Space),,,,,-- --- ---- --- ------ ----- ------- ---- -- --- ------- --<br>------- ---------- ------ -- ----- -- ----- -- ---- ------<br>--- ----- --- --- ------ -------- ----- --- ------ ----- --<br>----- ----- ---------- --- --- ------ ------ ---- -- ------<br>------- The ------ ----- --- ---- ------- -- ---- --- --<br>------- ------,141145.20000004768,141144.59999990463,140601.644,140617.29999995232,140618.309,141151.594,,44,The
screen,html.Screen,0_2_1_1_45,2021-11-25T15:53:13.623Z,,,,,,,,,,,,,,,,54,,,,,,,,,,,,,,313.0059999046207,,response,,,100,,,,,,Space,keypress(Space),,,,,-- --- ---- --- ------ ----- ------- ---- -- --- ------- --<br>------- ---------- ------ -- ----- -- ----- -- ---- ------<br>--- ----- --- --- ------ -------- ----- --- ------ ----- --<br>----- ----- ---------- --- --- ------ ------ ---- -- ------<br>------- --- French ----- --- ---- ------- -- ---- --- --<br>------- ------,141465.09999990463,141464.59999990463,141134.929,141145.29999995232,141151.594,141468.245,,45,French
screen,html.Screen,0_2_1_1_46,2021-11-25T15:53:14.063Z,,,,,,,,,,,,,,,,54,,,,,,,,,,,,,,436.25500000000466,,response,,,100,,,,,,Space,keypress(Space),,,,,-- --- ---- --- ------ ----- ------- ---- -- --- ------- --<br>------- ---------- ------ -- ----- -- ----- -- ---- ------<br>--- ----- --- --- ------ -------- ----- --- ------ ----- --<br>----- ----- ---------- --- --- ------ ------ ---- -- ------<br>------- --- ------ state --- ---- ------- -- ---- --- --<br>------- ------,141905.09999990463,141904.5,141451.58,141465.29999995232,141468.245,141918.154,,46,state
screen,html.Screen,0_2_1_1_47,2021-11-25T15:53:14.575Z,,,,,,,,,,,,,,,,54,,,,,,,,,,,,,,498.34599999999045,,response,,,100,,,,,,Space,keypress(Space),,,,,-- --- ---- --- ------ ----- ------- ---- -- --- ------- --<br>------- ---------- ------ -- ----- -- ----- -- ---- ------<br>--- ----- --- --- ------ -------- ----- --- ------ ----- --<br>----- ----- ---------- --- --- ------ ------ ---- -- ------<br>------- --- ------ ----- was ---- ------- -- ---- --- --<br>------- ------,142417.20000004768,142416.5,141901.49,141905.40000009537,141918.154,142418.214,,47,was
screen,html.Screen,0_2_1_1_48,2021-11-25T15:53:14.919Z,,,,,,,,,,,,,,,,54,,,,,,,,,,,,,,342.2859999999928,,response,,,100,,,,,,Space,keypress(Space),,,,,-- --- ---- --- ------ ----- ------- ---- -- --- ------- --<br>------- ---------- ------ -- ----- -- ----- -- ---- ------<br>--- ----- --- --- ------ -------- ----- --- ------ ----- --<br>----- ----- ---------- --- --- ------ ------ ---- -- ------<br>------- --- ------ ----- --- left ------- -- ---- --- --<br>------- ------,142761.09999990463,142760.5,142401.548,142417.40000009537,142418.214,142768.163,,48,left
screen,html.Screen,0_2_1_1_49,2021-11-25T15:53:15.231Z,,,,,,,,,,,,,,,,54,,,,,,,,,,,,,,304.23700009536697,,response,,,100,,,,,,Space,keypress(Space),,,,,-- --- ---- --- ------ ----- ------- ---- -- --- ------- --<br>------- ---------- ------ -- ----- -- ----- -- ---- ------<br>--- ----- --- --- ------ -------- ----- --- ------ ----- --<br>----- ----- ---------- --- --- ------ ------ ---- -- ------<br>------- --- ------ ----- --- ---- without -- ---- --- --<br>------- ------,143073,143072.40000009537,142751.498,142761.29999995232,142768.163,143084.814,,49,without
screen,html.Screen,0_2_1_1_50,2021-11-25T15:53:15.607Z,,,,,,,,,,,,,,,,54,,,,,,,,,,,,,,363.5860000953544,,response,,,100,,,,,,Space,keypress(Space),,,,,-- --- ---- --- ------ ----- ------- ---- -- --- ------- --<br>------- ---------- ------ -- ----- -- ----- -- ---- ------<br>--- ----- --- --- ------ -------- ----- --- ------ ----- --<br>----- ----- ---------- --- --- ------ ------ ---- -- ------<br>------- --- ------ ----- --- ---- ------- an ---- --- --<br>------- ------,143448.90000009537,143448.40000009537,143068.149,143073.09999990463,143084.814,143451.465,,50,an
screen,html.Screen,0_2_1_1_51,2021-11-25T15:53:15.951Z,,,,,,,,,,,,,,,,54,,,,,,,,,,,,,,340.9350000953709,,response,,,100,,,,,,Space,keypress(Space),,,,,-- --- ---- --- ------ ----- ------- ---- -- --- ------- --<br>------- ---------- ------ -- ----- -- ----- -- ---- ------<br>--- ----- --- --- ------ -------- ----- --- ------ ----- --<br>----- ----- ---------- --- --- ------ ------ ---- -- ------<br>------- --- ------ ----- --- ---- ------- -- easy --- --<br>------- ------,143793,143792.40000009537,143434.8,143449.09999990463,143451.465,143801.436,,51,easy
screen,html.Screen,0_2_1_1_52,2021-11-25T15:53:16.287Z,,,,,,,,,,,,,,,,54,,,,,,,,,,,,,,326.96400009538047,,response,,,100,,,,,,Space,keypress(Space),,,,,-- --- ---- --- ------ ----- ------- ---- -- --- ------- --<br>------- ---------- ------ -- ----- -- ----- -- ---- ------<br>--- ----- --- --- ------ -------- ----- --- ------ ----- --<br>----- ----- ---------- --- --- ------ ------ ---- -- ------<br>------- --- ------ ----- --- ---- ------- -- ---- way --<br>------- ------,144128.90000009537,144128.40000009537,143784.771,143793.20000004768,143801.436,144134.791,,52,way
screen,html.Screen,0_2_1_1_53,2021-11-25T15:53:16.671Z,,,,,,,,,,,,,,,,54,,,,,,,,,,,,,,377.50899995231885,,response,,,100,,,,,,Space,keypress(Space),,,,,-- --- ---- --- ------ ----- ------- ---- -- --- ------- --<br>------- ---------- ------ -- ----- -- ----- -- ---- ------<br>--- ----- --- --- ------ -------- ----- --- ------ ----- --<br>----- ----- ---------- --- --- ------ ------ ---- -- ------<br>------- --- ------ ----- --- ---- ------- -- ---- --- of<br>------- ------,144512.79999995232,144512.29999995232,144118.125,144129.09999990463,144134.791,144518.064,,53,of
screen,html.Screen,0_2_1_1_54,2021-11-25T15:53:16.967Z,,,,,,,,,,,,,,,,54,,,,,,,,,,,,,,290.23599995230325,,response,,,100,,,,,,Space,keypress(Space),,,,,-- --- ---- --- ------ ----- ------- ---- -- --- ------- --<br>------- ---------- ------ -- ----- -- ----- -- ---- ------<br>--- ----- --- --- ------ -------- ----- --- ------ ----- --<br>----- ----- ---------- --- --- ------ ------ ---- -- ------<br>------- --- ------ ----- --- ---- ------- -- ---- --- --<br>raising ------,144808.90000009537,144808.29999995232,144501.399,144513,144518.064,144818.035,,54,raising
screen,html.Screen,0_2_1_1_55,2021-11-25T15:53:17.479Z,,,,,,,,,,,,,,,,54,,,,,,,,,,,,,,502.2649999523128,,response,,,100,,,,,,Space,keypress(Space),,,,,-- --- ---- --- ------ ----- ------- ---- -- --- ------- --<br>------- ---------- ------ -- ----- -- ----- -- ---- ------<br>--- ----- --- --- ------ -------- ----- --- ------ ----- --<br>----- ----- ---------- --- --- ------ ------ ---- -- ------<br>------- --- ------ ----- --- ---- ------- -- ---- --- --<br>------- money.,145320.90000009537,145320.29999995232,144801.37,144809.09999990463,144818.035,145334.669,,55,money.
Item 100,flow.Loop,0_2_1_1,2021-11-25T15:53:17.479Z,,,,,,,,,,,,,,,,,,,,,,,,,,,,,,26533.901999952315,,completion,,,,B,,,,,,,,,,silence,,145321.29999995232,145320.29999995232,118769.732,118770.5,118786.398,145334.669,,,
Question 1,html.Screen,0_2_1_2,2021-11-25T15:53:20.184Z,,,,,,,,,,,,,,,,,,,,,,,,,,,true,TRUE,,2690.8310000000056,,response,,,100,B,,,,,TRUE,click #choice-1,,,,silence,,148026.29999995232,148025.5,145318.004,145321.40000009537,145334.669,148034.446,,,
Question 2,html.Screen,0_2_1_3,2021-11-25T15:53:23.284Z,,,,,,,,,,,,,,,,,,,,,,,,,,,true,FALSE,,3090.35399995232,,response,,,100,B,,,,,FALSE,click #choice-2,,,,silence,,151125.70000004768,151124.79999995232,148017.781,148026.5,148034.446,151134.353,,,
Item 100,flow.Sequence,0_2_1,2021-11-25T15:53:23.284Z,,,,,,,,,,,,,,,,,,,,,,,,,,,,,,42337.94199995232,,completion,,,,,,,,,,,,,,,,151125.90000009537,151124.79999995232,108770.193,108782.70000004768,108786.858,151134.353,,,
End of Practice,html.Page,0_2_2,2021-11-25T15:53:30.446Z,,,,,,,,,,,,,,,,,,,,,,,,,,,,,,7153.646999999997,,form submission,,,,,,,,,,,,,,,,158288.40000009537,158288,151117.687,151126,151134.353,158300.682,,,
Practice,flow.Sequence,0_2,2021-11-25T15:53:30.447Z,,,,,,,,,,,,,,,,,,,,,,,,,,,,,,100136.814,,completion,,,,,,,,,,,,,,,,158288.70000004768,158288,58134.536,58150,58151.186,158300.682,,,
Trap_instruction,html.Page,0_3_0,2021-11-25T15:53:36.763Z,,,,,,,,,,,,,,,,,,,,,,,,,,,,,,6303.917999904632,,form submission,,,,,,,,,,,,,,,,164604.90000009537,164604.59999990463,158284.011,158288.90000009537,158300.682,164616.634,,,
trap_trial,html.Screen,0_3_1,2021-11-25T15:53:40.342Z,,,,,,,,,,,,,,,,,,,,,,,,,,,true,1,,3566.4659999046416,,response,,,,,,,,,1,click #choice-1,,,,,,168183.79999995232,168183.09999990463,164599.969,164604.90000009537,164616.634,168199.988,,,
end of trap trial,html.Page,0_3_2,2021-11-25T15:53:42.313Z,,,,,,,,,,,,,,,,,,,,,,,,,,,,,,1954.9120000953553,,form submission,,,,,,,,,,,,,,,,170155.29999995232,170154.90000009537,168183.322,168184.09999990463,168199.988,170166.756,,,
Trap 1,flow.Sequence,0_3,2021-11-25T15:53:42.313Z,,,,,,,,,,,,,,,,,,,,,,,,,,,,,,11854.218000095367,,completion,,,,,,,,,,,,,,,,170155.5,170154.90000009537,158284.011,158288.90000009537,158300.682,170166.756,,,
Standby,html.Page,0_4_0,2021-11-25T15:53:50.307Z,,,,,,,,,,,,,,,,,,,,,,,,,,,,,,7997.910999999993,,timeout,,,,,,,,,,,,,,,,178149.5,178148.004,170150.079,170155.70000004768,170166.756,178164.667,,,
Holding screen,html.Screen,0_4_1_0_0,2021-11-25T15:53:57.311Z,,,,,,,,,,,,,,,,,,,,,,,,,,,,,,7000.885000000009,,timeout,,,,,,,,,,,,,,,,185149.59999990463,185148.887,178148.004,178149.90000009537,178164.667,185165.552,,,
screen,html.Screen,0_4_1_0_1_0,2021-11-25T15:53:58.008Z,,,,,,,,,,,,,,,,48,,,,,,,,,,,,,,680.5479999046365,,response,,,10,B,,,,,Space,keypress(Space),,,,lyrical,As -- --- ------ ------- --------- ----------- --------<br>--------- -------- --- ------- -- ------- ---- -- ------<br>-- --- -------- -------- ---------- ---- ---- ---- ------<br>-- --------- -- ---- -- --- -- --- ------- -- - -----<br>---------- -- -- -- ---- ----- -- ------ -- --- ------<br>-------,185846.90000009537,185846.09999990463,185148.887,185149.90000009537,185165.552,185848.835,,0,As
screen,html.Screen,0_4_1_0_1_1,2021-11-25T15:53:58.408Z,,,,,,,,,,,,,,,,48,,,,,,,,,,,,,,396.96499995232443,,response,,,10,B,,,,,Space,keypress(Space),,,,lyrical,-- in --- ------ ------- --------- ----------- --------<br>--------- -------- --- ------- -- ------- ---- -- ------<br>-- --- -------- -------- ---------- ---- ---- ---- ------<br>-- --------- -- ---- -- --- -- --- ------- -- - -----<br>---------- -- -- -- ---- ----- -- ------ -- --- ------<br>-------,186246.40000009537,186245.79999995232,185832.17,185847,185848.835,186248.822,,1,in
screen,html.Screen,0_4_1_0_1_2,2021-11-25T15:53:58.752Z,,,,,,,,,,,,,,,,48,,,,,,,,,,,,,,340.87800004769815,,response,,,10,B,,,,,Space,keypress(Space),,,,lyrical,-- -- the ------ ------- --------- ----------- --------<br>--------- -------- --- ------- -- ------- ---- -- ------<br>-- --- -------- -------- ---------- ---- ---- ---- ------<br>-- --------- -- ---- -- --- -- --- ------- -- - -----<br>---------- -- -- -- ---- ----- -- ------ -- --- ------<br>-------,186590.29999995232,186589.70000004768,186232.157,186246.59999990463,186248.822,186598.807,,2,the
screen,html.Screen,0_4_1_0_1_3,2021-11-25T15:53:59.176Z,,,,,,,,,,,,,,,,48,,,,,,,,,,,,,,414.9929999523156,,response,,,10,B,,,,,Space,keypress(Space),,,,lyrical,-- -- --- United ------- --------- ----------- --------<br>--------- -------- --- ------- -- ------- ---- -- ------<br>-- --- -------- -------- ---------- ---- ---- ---- ------<br>-- --------- -- ---- -- --- -- --- ------- -- - -----<br>---------- -- -- -- ---- ----- -- ------ -- --- ------<br>-------,187014.40000009537,187013.79999995232,186582.142,186590.40000009537,186598.807,187015.456,,3,United
screen,html.Screen,0_4_1_0_1_4,2021-11-25T15:53:59.552Z,,,,,,,,,,,,,,,,48,,,,,,,,,,,,,,374.3439999523107,,response,,,10,B,,,,,Space,keypress(Space),,,,lyrical,"-- -- --- ------ States, --------- ----------- --------<br>--------- -------- --- ------- -- ------- ---- -- ------<br>-- --- -------- -------- ---------- ---- ---- ---- ------<br>-- --------- -- ---- -- --- -- --- ------- -- - -----<br>---------- -- -- -- ---- ----- -- ------ -- --- ------<br>-------",187390.40000009537,187389.79999995232,186998.791,187014.5,187015.456,187398.76,,4,"States,"
screen,html.Screen,0_4_1_0_1_5,2021-11-25T15:53:59.976Z,,,,,,,,,,,,,,,,48,,,,,,,,,,,,,,414.9400000476744,,response,,,10,B,,,,,Space,keypress(Space),,,,lyrical,-- -- --- ------ ------- Colombian ----------- --------<br>--------- -------- --- ------- -- ------- ---- -- ------<br>-- --- -------- -------- ---------- ---- ---- ---- ------<br>-- --------- -- ---- -- --- -- --- ------- -- - -----<br>---------- -- -- -- ---- ----- -- ------ -- --- ------<br>-------,187814.29999995232,187813.70000004768,187382.095,187390.59999990463,187398.76,187815.4,,5,Colombian
screen,html.Screen,0_4_1_0_1_6,2021-11-25T15:54:00.384Z,,,,,,,,,,,,,,,,48,,,,,,,,,,,,,,406.30000004768954,,response,,,10,B,,,,,Space,keypress(Space),,,,lyrical,-- -- --- ------ ------- --------- legislation --------<br>--------- -------- --- ------- -- ------- ---- -- ------<br>-- --- -------- -------- ---------- ---- ---- ---- ------<br>-- --------- -- ---- -- --- -- --- ------- -- - -----<br>---------- -- -- -- ---- ----- -- ------ -- --- ------<br>-------,188222.29999995232,188221.70000004768,187798.735,187814.5,187815.4,188232.023,,6,legislation
screen,html.Screen,0_4_1_0_1_7,2021-11-25T15:54:00.744Z,,,,,,,,,,,,,,,,48,,,,,,,,,,,,,,349.5769999046461,,response,,,10,B,,,,,Space,keypress(Space),,,,lyrical,-- -- --- ------ ------- --------- ----------- requires<br>--------- -------- --- ------- -- ------- ---- -- ------<br>-- --- -------- -------- ---------- ---- ---- ---- ------<br>-- --------- -- ---- -- --- -- --- ------- -- - -----<br>---------- -- -- -- ---- ----- -- ------ -- --- ------<br>-------,188582.20000004768,188581.59999990463,188215.358,188222.5,188232.023,188598.661,,7,requires
screen,html.Screen,0_4_1_0_1_8,2021-11-25T15:54:01.136Z,,,,,,,,,,,,,,,,48,,,,,,,,,,,,,,374.9389999046398,,response,,,10,B,,,,,Space,keypress(Space),,,,lyrical,-- -- --- ------ ------- --------- ----------- --------<br>travelers -------- --- ------- -- ------- ---- -- ------<br>-- --- -------- -------- ---------- ---- ---- ---- ------<br>-- --------- -- ---- -- --- -- --- ------- -- - -----<br>---------- -- -- -- ---- ----- -- ------ -- --- ------<br>-------,188974.20000004768,188973.59999990463,188581.996,188582.40000009537,188598.661,188982.052,,8,travelers
screen,html.Screen,0_4_1_0_1_9,2021-11-25T15:54:01.511Z,,,,,,,,,,,,,,,,48,,,,,,,,,,,,,,367.5479999046365,,response,,,10,B,,,,,Space,keypress(Space),,,,lyrical,-- -- --- ------ ------- --------- ----------- --------<br>--------- entering --- ------- -- ------- ---- -- ------<br>-- --- -------- -------- ---------- ---- ---- ---- ------<br>-- --------- -- ---- -- --- -- --- ------- -- - -----<br>---------- -- -- -- ---- ----- -- ------ -- --- ------<br>-------,189350.20000004768,189349.59999990463,188965.386,188974.29999995232,188982.052,189365.138,,9,entering
screen,html.Screen,0_4_1_0_1_10,2021-11-25T15:54:01.815Z,,,,,,,,,,,,,,,,48,,,,,,,,,,,,,,288.4619999046263,,response,,,10,B,,,,,Space,keypress(Space),,,,lyrical,-- -- --- ------ ------- --------- ----------- --------<br>--------- -------- the ------- -- ------- ---- -- ------<br>-- --- -------- -------- ---------- ---- ---- ---- ------<br>-- --------- -- ---- -- --- -- --- ------- -- - -----<br>---------- -- -- -- ---- ----- -- ------ -- --- ------<br>-------,189654.09999990463,189653.59999990463,189348.476,189350.29999995232,189365.138,189665.35,,10,the
screen,html.Screen,0_4_1_0_1_11,2021-11-25T15:54:02.144Z,,,,,,,,,,,,,,,,48,,,,,,,,,,,,,,316.24999990462675,,response,,,10,B,,,,,Space,keypress(Space),,,,lyrical,-- -- --- ------ ------- --------- ----------- --------<br>--------- -------- --- country -- ------- ---- -- ------<br>-- --- -------- -------- ---------- ---- ---- ---- ------<br>-- --------- -- ---- -- --- -- --- ------- -- - -----<br>---------- -- -- -- ---- ----- -- ------ -- --- ------<br>-------,189982.20000004768,189981.59999990463,189648.683,189654.29999995232,189665.35,189998.6,,11,country
screen,html.Screen,0_4_1_0_1_12,2021-11-25T15:54:02.632Z,,,,,,,,,,,,,,,,48,,,,,,,,,,,,,,470.99999990462675,,response,,,10,B,,,,,Space,keypress(Space),,,,lyrical,-- -- --- ------ ------- --------- ----------- --------<br>--------- -------- --- ------- to ------- ---- -- ------<br>-- --- -------- -------- ---------- ---- ---- ---- ------<br>-- --------- -- ---- -- --- -- --- ------- -- - -----<br>---------- -- -- -- ---- ----- -- ------ -- --- ------<br>-------,190470.20000004768,190469.59999990463,189981.935,189982.5,189998.6,190481.904,,12,to
screen,html.Screen,0_4_1_0_1_13,2021-11-25T15:54:02.975Z,,,,,,,,,,,,,,,,48,,,,,,,,,,,,,,331.59599999999045,,response,,,10,B,,,,,Space,keypress(Space),,,,lyrical,-- -- --- ------ ------- --------- ----------- --------<br>--------- -------- --- ------- -- declare ---- -- ------<br>-- --- -------- -------- ---------- ---- ---- ---- ------<br>-- --------- -- ---- -- --- -- --- ------- -- - -----<br>---------- -- -- -- ---- ----- -- ------ -- --- ------<br>-------,190814.09999990463,190813.5,190465.239,190470.29999995232,190481.904,190815.196,,13,declare
screen,html.Screen,0_4_1_0_1_14,2021-11-25T15:54:03.464Z,,,,,,,,,,,,,,,,48,,,,,,,,,,,,,,486.3040000000037,,response,,,10,B,,,,,Space,keypress(Space),,,,lyrical,-- -- --- ------ ------- --------- ----------- --------<br>--------- -------- --- ------- -- ------- cash -- ------<br>-- --- -------- -------- ---------- ---- ---- ---- ------<br>-- --------- -- ---- -- --- -- --- ------- -- - -----<br>---------- -- -- -- ---- ----- -- ------ -- --- ------<br>-------,191302.20000004768,191301.5,190798.531,190814.29999995232,190815.196,191315.239,,14,cash
screen,html.Screen,0_4_1_0_1_15,2021-11-25T15:54:03.967Z,,,,,,,,,,,,,,,,48,,,,,,,,,,,,,,490.2609999999986,,response,,,10,B,,,,,Space,keypress(Space),,,,lyrical,-- -- --- ------ ------- --------- ----------- --------<br>--------- -------- --- ------- -- ------- ---- in ------<br>-- --- -------- -------- ---------- ---- ---- ---- ------<br>-- --------- -- ---- -- --- -- --- ------- -- - -----<br>---------- -- -- -- ---- ----- -- ------ -- --- ------<br>-------,191806.09999990463,191805.5,191298.573,191302.5,191315.239,191815.067,,15,in
screen,html.Screen,0_4_1_0_1_16,2021-11-25T15:54:04.567Z,,,,,,,,,,,,,,,,48,,,,,,,,,,,,,,590.2329999523063,,response,,,10,B,,,,,Space,keypress(Space),,,,lyrical,-- -- --- ------ ------- --------- ----------- --------<br>--------- -------- --- ------- -- ------- ---- -- excess<br>-- --- -------- -------- ---------- ---- ---- ---- ------<br>-- --------- -- ---- -- --- -- --- ------- -- - -----<br>---------- -- -- -- ---- ----- -- ------ -- --- ------<br>-------,192406.09999990463,192405.29999995232,191798.403,191806.20000004768,191815.067,192415.158,,16,excess
screen,html.Screen,0_4_1_0_1_17,2021-11-25T15:54:04.975Z,,,,,,,,,,,,,,,,48,,,,,,,,,,,,,,398.2420000953716,,response,,,10,B,,,,,Space,keypress(Space),,,,lyrical,-- -- --- ------ ------- --------- ----------- --------<br>--------- -------- --- ------- -- ------- ---- -- ------<br>of --- -------- -------- ---------- ---- ---- ---- ------<br>-- --------- -- ---- -- --- -- --- ------- -- - -----<br>---------- -- -- -- ---- ----- -- ------ -- --- ------<br>-------,192814.09999990463,192813.40000009537,192398.492,192406.20000004768,192415.158,192815.101,,17,of
screen,html.Screen,0_4_1_0_1_18,2021-11-25T15:54:05.327Z,,,,,,,,,,,,,,,,48,,,,,,,,,,,,,,350.1989999523212,,response,,,10,B,,,,,Space,keypress(Space),,,,lyrical,-- -- --- ------ ------- --------- ----------- --------<br>--------- -------- --- ------- -- ------- ---- -- ------<br>-- ten -------- -------- ---------- ---- ---- ---- ------<br>-- --------- -- ---- -- --- -- --- ------- -- - -----<br>---------- -- -- -- ---- ----- -- ------ -- --- ------<br>-------,193165.90000009537,193165.29999995232,192798.436,192814.20000004768,192815.101,193181.735,,18,ten
screen,html.Screen,0_4_1_0_1_19,2021-11-25T15:54:05.607Z,,,,,,,,,,,,,,,,48,,,,,,,,,,,,,,263.76500000001397,,response,,,10,B,,,,,Space,keypress(Space),,,,lyrical,-- -- --- ------ ------- --------- ----------- --------<br>--------- -------- --- ------- -- ------- ---- -- ------<br>-- --- thousand -------- ---------- ---- ---- ---- ------<br>-- --------- -- ---- -- --- -- --- ------- -- - -----<br>---------- -- -- -- ---- ----- -- ------ -- --- ------<br>-------,193446,193445.5,193165.07,193166.09999990463,193181.735,193448.397,,19,thousand
screen,html.Screen,0_4_1_0_1_20,2021-11-25T15:54:05.959Z,,,,,,,,,,,,,,,,48,,,,,,,,,,,,,,348.9029999523191,,response,,,10,B,,,,,Space,keypress(Space),,,,lyrical,-- -- --- ------ ------- --------- ----------- --------<br>--------- -------- --- ------- -- ------- ---- -- ------<br>-- --- -------- dollars. ---------- ---- ---- ---- ------<br>-- --------- -- ---- -- --- -- --- ------- -- - -----<br>---------- -- -- -- ---- ----- -- ------ -- --- ------<br>-------,193797.90000009537,193797.29999995232,193431.732,193446.20000004768,193448.397,193814.986,,20,dollars.
screen,html.Screen,0_4_1_0_1_21,2021-11-25T15:54:06.383Z,,,,,,,,,,,,,,,,48,,,,,,,,,,,,,,406.31399995231186,,response,,,10,B,,,,,Space,keypress(Space),,,,lyrical,-- -- --- ------ ------- --------- ----------- --------<br>--------- -------- --- ------- -- ------- ---- -- ------<br>-- --- -------- -------- Concealing ---- ---- ---- ------<br>-- --------- -- ---- -- --- -- --- ------- -- - -----<br>---------- -- -- -- ---- ----- -- ------ -- --- ------<br>-------,194221.79999995232,194221.29999995232,193798.322,193798.09999990463,193814.986,194231.731,,21,Concealing
screen,html.Screen,0_4_1_0_1_22,2021-11-25T15:54:06.807Z,,,,,,,,,,,,,,,,48,,,,,,,,,,,,,,413.46900004768395,,response,,,10,B,,,,,Space,keypress(Space),,,,lyrical,-- -- --- ------ ------- --------- ----------- --------<br>--------- -------- --- ------- -- ------- ---- -- ------<br>-- --- -------- -------- ---------- more ---- ---- ------<br>-- --------- -- ---- -- --- -- --- ------- -- - -----<br>---------- -- -- -- ---- ----- -- ------ -- --- ------<br>-------,194645.90000009537,194645.20000004768,194215.065,194222,194231.731,194648.326,,22,more
screen,html.Screen,0_4_1_0_1_23,2021-11-25T15:54:07.063Z,,,,,,,,,,,,,,,,48,,,,,,,,,,,,,,252.97399995231535,,response,,,10,B,,,,,Space,keypress(Space),,,,lyrical,-- -- --- ------ ------- --------- ----------- --------<br>--------- -------- --- ------- -- ------- ---- -- ------<br>-- --- -------- -------- ---------- ---- than ---- ------<br>-- --------- -- ---- -- --- -- --- ------- -- - -----<br>---------- -- -- -- ---- ----- -- ------ -- --- ------<br>-------,194901.79999995232,194901.29999995232,194631.661,194646.09999990463,194648.326,194914.845,,23,than
screen,html.Screen,0_4_1_0_1_24,2021-11-25T15:54:07.327Z,,,,,,,,,,,,,,,,48,,,,,,,,,,,,,,250.35500004768255,,response,,,10,B,,,,,Space,keypress(Space),,,,lyrical,-- -- --- ------ ------- --------- ----------- --------<br>--------- -------- --- ------- -- ------- ---- -- ------<br>-- --- -------- -------- ---------- ---- ---- that ------<br>-- --------- -- ---- -- --- -- --- ------- -- - -----<br>---------- -- -- -- ---- ----- -- ------ -- --- ------<br>-------,195165.90000009537,195165.20000004768,194898.182,194902,194914.845,195181.678,,24,that
screen,html.Screen,0_4_1_0_1_25,2021-11-25T15:54:07.655Z,,,,,,,,,,,,,,,,48,,,,,,,,,,,,,,311.5220000476693,,response,,,10,B,,,,,Space,keypress(Space),,,,lyrical,-- -- --- ------ ------- --------- ----------- --------<br>--------- -------- --- ------- -- ------- ---- -- ------<br>-- --- -------- -------- ---------- ---- ---- ---- amount<br>-- --------- -- ---- -- --- -- --- ------- -- - -----<br>---------- -- -- -- ---- ----- -- ------ -- --- ------<br>-------,195493.79999995232,195493.20000004768,195165.011,195166,195181.678,195498.271,,25,amount
screen,html.Screen,0_4_1_0_1_26,2021-11-25T15:54:07.983Z,,,,,,,,,,,,,,,,48,,,,,,,,,,,,,,322.82899990462465,,response,,,10,B,,,,,Space,keypress(Space),,,,lyrical,-- -- --- ------ ------- --------- ----------- --------<br>--------- -------- --- ------- -- ------- ---- -- ------<br>-- --- -------- -------- ---------- ---- ---- ---- ------<br>to --------- -- ---- -- --- -- --- ------- -- - -----<br>---------- -- -- -- ---- ----- -- ------ -- --- ------<br>-------,195821.70000004768,195821.09999990463,195481.606,195493.90000009537,195498.271,195831.621,,26,to
screen,html.Screen,0_4_1_0_1_27,2021-11-25T15:54:08.287Z,,,,,,,,,,,,,,,,48,,,,,,,,,,,,,,293.67899995230255,,response,,,10,B,,,,,Space,keypress(Space),,,,lyrical,-- -- --- ------ ------- --------- ----------- --------<br>--------- -------- --- ------- -- ------- ---- -- ------<br>-- --- -------- -------- ---------- ---- ---- ---- ------<br>-- transport -- ---- -- --- -- --- ------- -- - -----<br>---------- -- -- -- ---- ----- -- ------ -- --- ------<br>-------,196125.90000009537,196125.29999995232,195814.955,195821.90000009537,195831.621,196131.56,,27,transport
screen,html.Screen,0_4_1_0_1_28,2021-11-25T15:54:08.575Z,,,,,,,,,,,,,,,,48,,,,,,,,,,,,,,281.64000004768604,,response,,,10,B,,,,,Space,keypress(Space),,,,lyrical,-- -- --- ------ ------- --------- ----------- --------<br>--------- -------- --- ------- -- ------- ---- -- ------<br>-- --- -------- -------- ---------- ---- ---- ---- ------<br>-- --------- it ---- -- --- -- --- ------- -- - -----<br>---------- -- -- -- ---- ----- -- ------ -- --- ------<br>-------,196413.79999995232,196413.20000004768,196114.895,196126.09999990463,196131.56,196414.739,,28,it
screen,html.Screen,0_4_1_0_1_29,2021-11-25T15:54:09.023Z,,,,,,,,,,,,,,,,48,,,,,,,,,,,,,,446.4610000476823,,response,,,10,B,,,,,Space,keypress(Space),,,,lyrical,-- -- --- ------ ------- --------- ----------- --------<br>--------- -------- --- ------- -- ------- ---- -- ------<br>-- --- -------- -------- ---------- ---- ---- ---- ------<br>-- --------- -- into -- --- -- --- ------- -- - -----<br>---------- -- -- -- ---- ----- -- ------ -- --- ------<br>-------,196861.79999995232,196861.20000004768,196398.077,196413.90000009537,196414.739,196864.796,,29,into
screen,html.Screen,0_4_1_0_1_30,2021-11-25T15:54:09.239Z,,,,,,,,,,,,,,,,48,,,,,,,,,,,,,,212.30399990463047,,response,,,10,B,,,,,Space,keypress(Space),,,,lyrical,-- -- --- ------ ------- --------- ----------- --------<br>--------- -------- --- ------- -- ------- ---- -- ------<br>-- --- -------- -------- ---------- ---- ---- ---- ------<br>-- --------- -- ---- or --- -- --- ------- -- - -----<br>---------- -- -- -- ---- ----- -- ------ -- --- ------<br>-------,197077.70000004768,197077.09999990463,196848.131,196861.90000009537,196864.796,197081.535,,30,or
screen,html.Screen,0_4_1_0_1_31,2021-11-25T15:54:09.495Z,,,,,,,,,,,,,,,,48,,,,,,,,,,,,,,251.56499990462908,,response,,,10,B,,,,,Space,keypress(Space),,,,lyrical,-- -- --- ------ ------- --------- ----------- --------<br>--------- -------- --- ------- -- ------- ---- -- ------<br>-- --- -------- -------- ---------- ---- ---- ---- ------<br>-- --------- -- ---- -- out -- --- ------- -- - -----<br>---------- -- -- -- ---- ----- -- ------ -- --- ------<br>-------,197333.59999990463,197333.09999990463,197064.869,197077.90000009537,197081.535,197348.142,,31,out
screen,html.Screen,0_4_1_0_1_32,2021-11-25T15:54:09.727Z,,,,,,,,,,,,,,,,48,,,,,,,,,,,,,,216.95799990464002,,response,,,10,B,,,,,Space,keypress(Space),,,,lyrical,-- -- --- ------ ------- --------- ----------- --------<br>--------- -------- --- ------- -- ------- ---- -- ------<br>-- --- -------- -------- ---------- ---- ---- ---- ------<br>-- --------- -- ---- -- --- of --- ------- -- - -----<br>---------- -- -- -- ---- ----- -- ------ -- --- ------<br>-------,197565.70000004768,197565.09999990463,197331.477,197333.79999995232,197348.142,197581.551,,32,of
screen,html.Screen,0_4_1_0_1_33,2021-11-25T15:54:09.951Z,,,,,,,,,,,,,,,,48,,,,,,,,,,,,,,207.44899999999325,,response,,,10,B,,,,,Space,keypress(Space),,,,lyrical,-- -- --- ------ ------- --------- ----------- --------<br>--------- -------- --- ------- -- ------- ---- -- ------<br>-- --- -------- -------- ---------- ---- ---- ---- ------<br>-- --------- -- ---- -- --- -- the ------- -- - -----<br>---------- -- -- -- ---- ----- -- ------ -- --- ------<br>-------,197789.59999990463,197789,197564.883,197565.90000009537,197581.551,197798.107,,33,the
screen,html.Screen,0_4_1_0_1_34,2021-11-25T15:54:10.159Z,,,,,,,,,,,,,,,,48,,,,,,,,,,,,,,198.89300000001094,,response,,,10,B,,,,,Space,keypress(Space),,,,lyrical,-- -- --- ------ ------- --------- ----------- --------<br>--------- -------- --- ------- -- ------- ---- -- ------<br>-- --- -------- -------- ---------- ---- ---- ---- ------<br>-- --------- -- ---- -- --- -- --- country -- - -----<br>---------- -- -- -- ---- ----- -- ------ -- --- ------<br>-------,197997.59999990463,197997,197781.443,197789.79999995232,197798.107,198014.646,,34,country
screen,html.Screen,0_4_1_0_1_35,2021-11-25T15:54:10.383Z,,,,,,,,,,,,,,,,48,,,,,,,,,,,,,,206.45399990462465,,response,,,10,B,,,,,Space,keypress(Space),,,,lyrical,-- -- --- ------ ------- --------- ----------- --------<br>--------- -------- --- ------- -- ------- ---- -- ------<br>-- --- -------- -------- ---------- ---- ---- ---- ------<br>-- --------- -- ---- -- --- -- --- ------- is - -----<br>---------- -- -- -- ---- ----- -- ------ -- --- ------<br>-------,198221.59999990463,198221.09999990463,197997.985,197997.79999995232,198014.646,198231.491,,35,is
screen,html.Screen,0_4_1_0_1_36,2021-11-25T15:54:10.655Z,,,,,,,,,,,,,,,,48,,,,,,,,,,,,,,261.5089999999909,,response,,,10,B,,,,,Space,keypress(Space),,,,lyrical,-- -- --- ------ ------- --------- ----------- --------<br>--------- -------- --- ------- -- ------- ---- -- ------<br>-- --- -------- -------- ---------- ---- ---- ---- ------<br>-- --------- -- ---- -- --- -- --- ------- -- a -----<br>---------- -- -- -- ---- ----- -- ------ -- --- ------<br>-------,198493.70000004768,198493,198214.822,198221.70000004768,198231.491,198498.096,,36,a
screen,html.Screen,0_4_1_0_1_37,2021-11-25T15:54:10.895Z,,,,,,,,,,,,,,,,48,,,,,,,,,,,,,,235.00399990464211,,response,,,10,B,,,,,Space,keypress(Space),,,,lyrical,-- -- --- ------ ------- --------- ----------- --------<br>--------- -------- --- ------- -- ------- ---- -- ------<br>-- --- -------- -------- ---------- ---- ---- ---- ------<br>-- --------- -- ---- -- --- -- --- ------- -- - crime<br>---------- -- -- -- ---- ----- -- ------ -- --- ------<br>-------,198733.70000004768,198733.09999990463,198481.431,198493.90000009537,198498.096,198747.909,,37,crime
screen,html.Screen,0_4_1_0_1_38,2021-11-25T15:54:11.191Z,,,,,,,,,,,,,,,,48,,,,,,,,,,,,,,281.0909999999858,,response,,,10,B,,,,,Space,keypress(Space),,,,lyrical,-- -- --- ------ ------- --------- ----------- --------<br>--------- -------- --- ------- -- ------- ---- -- ------<br>-- --- -------- -------- ---------- ---- ---- ---- ------<br>-- --------- -- ---- -- --- -- --- ------- -- - -----<br>punishable -- -- -- ---- ----- -- ------ -- --- ------<br>-------,199029.70000004768,199029,198731.248,198733.79999995232,198747.909,199031.45,,38,punishable
screen,html.Screen,0_4_1_0_1_39,2021-11-25T15:54:11.487Z,,,,,,,,,,,,,,,,48,,,,,,,,,,,,,,293.54999999998836,,response,,,10,B,,,,,Space,keypress(Space),,,,lyrical,-- -- --- ------ ------- --------- ----------- --------<br>--------- -------- --- ------- -- ------- ---- -- ------<br>-- --- -------- -------- ---------- ---- ---- ---- ------<br>-- --------- -- ---- -- --- -- --- ------- -- - -----<br>---------- by -- -- ---- ----- -- ------ -- --- ------<br>-------,199325.59999990463,199325,199014.782,199029.70000004768,199031.45,199331.367,,39,by
screen,html.Screen,0_4_1_0_1_40,2021-11-25T15:54:11.695Z,,,,,,,,,,,,,,,,48,,,,,,,,,,,,,,201.53300009536906,,response,,,10,B,,,,,Space,keypress(Space),,,,lyrical,-- -- --- ------ ------- --------- ----------- --------<br>--------- -------- --- ------- -- ------- ---- -- ------<br>-- --- -------- -------- ---------- ---- ---- ---- ------<br>-- --------- -- ---- -- --- -- --- ------- -- - -----<br>---------- -- up -- ---- ----- -- ------ -- --- ------<br>-------,199533.5,199532.90000009537,199314.702,199325.70000004768,199331.367,199548.056,,40,up
screen,html.Screen,0_4_1_0_1_41,2021-11-25T15:54:11.911Z,,,,,,,,,,,,,,,,48,,,,,,,,,,,,,,200.84400009535602,,response,,,10,B,,,,,Space,keypress(Space),,,,lyrical,-- -- --- ------ ------- --------- ----------- --------<br>--------- -------- --- ------- -- ------- ---- -- ------<br>-- --- -------- -------- ---------- ---- ---- ---- ------<br>-- --------- -- ---- -- --- -- --- ------- -- - -----<br>---------- -- -- to ---- ----- -- ------ -- --- ------<br>-------,199749.5,199748.90000009537,199531.39,199533.59999990463,199548.056,199764.656,,41,to
screen,html.Screen,0_4_1_0_1_42,2021-11-25T15:54:12.263Z,,,,,,,,,,,,,,,,48,,,,,,,,,,,,,,336.2440000953793,,response,,,10,B,,,,,Space,keypress(Space),,,,lyrical,-- -- --- ------ ------- --------- ----------- --------<br>--------- -------- --- ------- -- ------- ---- -- ------<br>-- --- -------- -------- ---------- ---- ---- ---- ------<br>-- --------- -- ---- -- --- -- --- ------- -- - -----<br>---------- -- -- -- five ----- -- ------ -- --- ------<br>-------,200101.5,200100.90000009537,199747.992,199749.70000004768,199764.656,200114.647,,42,five
screen,html.Screen,0_4_1_0_1_43,2021-11-25T15:54:12.543Z,,,,,,,,,,,,,,,,48,,,,,,,,,,,,,,266.2530000953702,,response,,,10,B,,,,,Space,keypress(Space),,,,lyrical,-- -- --- ------ ------- --------- ----------- --------<br>--------- -------- --- ------- -- ------- ---- -- ------<br>-- --- -------- -------- ---------- ---- ---- ---- ------<br>-- --------- -- ---- -- --- -- --- ------- -- - -----<br>---------- -- -- -- ---- years -- ------ -- --- ------<br>-------,200381.59999990463,200380.90000009537,200097.982,200101.70000004768,200114.647,200397.972,,43,years
screen,html.Screen,0_4_1_0_1_44,2021-11-25T15:54:12.847Z,,,,,,,,,,,,,,,,48,,,,,,,,,,,,,,286.9280000953586,,response,,,10,B,,,,,Space,keypress(Space),,,,lyrical,-- -- --- ------ ------- --------- ----------- --------<br>--------- -------- --- ------- -- ------- ---- -- ------<br>-- --- -------- -------- ---------- ---- ---- ---- ------<br>-- --------- -- ---- -- --- -- --- ------- -- - -----<br>---------- -- -- -- ---- ----- in ------ -- --- ------<br>-------,200685.5,200684.90000009537,200381.307,200381.79999995232,200397.972,200697.904,,44,in
screen,html.Screen,0_4_1_0_1_45,2021-11-25T15:54:13.111Z,,,,,,,,,,,,,,,,48,,,,,,,,,,,,,,250.99600009535789,,response,,,10,B,,,,,Space,keypress(Space),,,,lyrical,-- -- --- ------ ------- --------- ----------- --------<br>--------- -------- --- ------- -- ------- ---- -- ------<br>-- --- -------- -------- ---------- ---- ---- ---- ------<br>-- --------- -- ---- -- --- -- --- ------- -- - -----<br>---------- -- -- -- ---- ----- -- prison -- --- ------<br>-------,200949.5,200948.90000009537,200681.24,200685.59999990463,200697.904,200964.637,,45,prison
screen,html.Screen,0_4_1_0_1_46,2021-11-25T15:54:13.479Z,,,,,,,,,,,,,,,,48,,,,,,,,,,,,,,352.3630000000121,,response,,,10,B,,,,,Space,keypress(Space),,,,lyrical,-- -- --- ------ ------- --------- ----------- --------<br>--------- -------- --- ------- -- ------- ---- -- ------<br>-- --- -------- -------- ---------- ---- ---- ---- ------<br>-- --------- -- ---- -- --- -- --- ------- -- - -----<br>---------- -- -- -- ---- ----- -- ------ in --- ------<br>-------,201317.5,201317,200947.971,200949.79999995232,200964.637,201331.241,,46,in
screen,html.Screen,0_4_1_0_1_47,2021-11-25T15:54:13.815Z,,,,,,,,,,,,,,,,48,,,,,,,,,,,,,,321.5589999523072,,response,,,10,B,,,,,Space,keypress(Space),,,,lyrical,-- -- --- ------ ------- --------- ----------- --------<br>--------- -------- --- ------- -- ------- ---- -- ------<br>-- --- -------- -------- ---------- ---- ---- ---- ------<br>-- --------- -- ---- -- --- -- --- ------- -- - -----<br>---------- -- -- -- ---- ----- -- ------ -- the ------<br>-------,201653.40000009537,201652.79999995232,201314.576,201317.70000004768,201331.241,201664.543,,47,the
screen,html.Screen,0_4_1_0_1_48,2021-11-25T15:54:14.263Z,,,,,,,,,,,,,,,,48,,,,,,,,,,,,,,436.25699995231116,,response,,,10,B,,,,,Space,keypress(Space),,,,lyrical,-- -- --- ------ ------- --------- ----------- --------<br>--------- -------- --- ------- -- ------- ---- -- ------<br>-- --- -------- -------- ---------- ---- ---- ---- ------<br>-- --------- -- ---- -- --- -- --- ------- -- - -----<br>---------- -- -- -- ---- ----- -- ------ -- --- United<br>-------,202101.40000009537,202100.79999995232,201647.878,201653.5,201664.543,202114.57,,48,United
screen,html.Screen,0_4_1_0_1_49,2021-11-25T15:54:16.127Z,,,,,,,,,,,,,,,,48,,,,,,,,,,,,,,1850.2299999523093,,response,,,10,B,,,,,Space,keypress(Space),,,,lyrical,-- -- --- ------ ------- --------- ----------- --------<br>--------- -------- --- ------- -- ------- ---- -- ------<br>-- --- -------- -------- ---------- ---- ---- ---- ------<br>-- --------- -- ---- -- --- -- --- ------- -- - -----<br>---------- -- -- -- ---- ----- -- ------ -- --- ------<br>States.,203965.5,203964.79999995232,202097.904,202101.59999990463,202114.57,203980.858,,49,States.
Item 10,flow.Loop,0_4_1_0_1,2021-11-25T15:54:16.127Z,,,,,,,,,,,,,,,,,,,,,,,,,,,,,,18799.24799995232,,completion,,,,,,,,,,,,,,,,203965.79999995232,203964.79999995232,185148.887,185149.79999995232,185165.552,203980.858,,,
Question 1,html.Screen,0_4_1_0_2,2021-11-25T15:54:21.657Z,,,,,,,,,,,,,,,,,,,,,,,,,,,false,TRUE,,5514.441999952309,,response,,,10,B,,,,,FALSE,click #choice-2,,,,lyrical,,209496,209495.29999995232,203964.194,203965.90000009537,203980.858,209497.315,,,
Question 2,html.Screen,0_4_1_0_3,2021-11-25T15:54:26.115Z,,,,,,,,,,,,,,,,,,,,,,,,,,,true,TRUE,,4455.684999999998,,response,,,10,B,,,,,TRUE,click #choice-1,,,,lyrical,,213953.90000009537,213953,209480.651,209496.20000004768,209497.315,213963.606,,,
Item 10,flow.Sequence,0_4_1_0,2021-11-25T15:54:26.116Z,,,,,,,,,,,,,,,,,,,,,,,,,,,,,,35788.33300000001,,completion,,,,,,,,,,,,,,,,213954.20000004768,213953,178148.004,178149.79999995232,178164.667,213963.606,,,
Holding screen,html.Screen,0_4_1_1_0,2021-11-25T15:54:33.109Z,,,,,,,,,,,,,,,,,,,,,,,,,,,,,,6999.719000000012,,timeout,,,,,,,,,,,,,,,,220947.59999990463,220946.66,213946.943,213954.29999995232,213963.606,220963.325,,,
screen,html.Screen,0_4_1_1_1_0,2021-11-25T15:54:35.054Z,,,,,,,,,,,,,,,,11,,,,,,,,,,,,,,1928.4749999523046,,response,,,4,B,,,,,Space,keypress(Space),,,,lyrical,Known -- ---- --- -- --- -------- ------------ ---------- --<br>- ------- ------ --------- -- ------------ -- --- ---- -----<br>------ ---- ---- ------ ------ ------- --- ----- ---------<br>---- --- -------- -------- --- --- -- ------- --- --- -----<br>-- --- ------ ------- --- --- -------- ---- --------- --<br>---------- -- -------- ----------------,222892.59999990463,222891.79999995232,220946.66,220947.90000009537,220963.325,222896.483,,0,Known
screen,html.Screen,0_4_1_1_1_1,2021-11-25T15:54:35.381Z,,,,,,,,,,,,,,,,11,,,,,,,,,,,,,,323.01699999999255,,response,,,4,B,,,,,Space,keypress(Space),,,,lyrical,----- as ---- --- -- --- -------- ------------ ---------- --<br>- ------- ------ --------- -- ------------ -- --- ---- -----<br>------ ---- ---- ------ ------ ------- --- ----- ---------<br>---- --- -------- -------- --- --- -- ------- --- --- -----<br>-- --- ------ ------- --- --- -------- ---- --------- --<br>---------- -- -------- ----------------,223220,223219.5,222879.818,222892.70000004768,222896.483,223229.963,,1,as
screen,html.Screen,0_4_1_1_1_2,2021-11-25T15:54:35.645Z,,,,,,,,,,,,,,,,11,,,,,,,,,,,,,,253.4370000953786,,response,,,4,B,,,,,Space,keypress(Space),,,,lyrical,----- -- Rapa --- -- --- -------- ------------ ---------- --<br>- ------- ------ --------- -- ------------ -- --- ---- -----<br>------ ---- ---- ------ ------ ------- --- ----- ---------<br>---- --- -------- -------- --- --- -- ------- --- --- -----<br>-- --- ------ ------- --- --- -------- ---- --------- --<br>---------- -- -------- ----------------,223484,223483.40000009537,223213.297,223220.29999995232,223229.963,223496.555,,2,Rapa
screen,html.Screen,0_4_1_1_1_3,2021-11-25T15:54:36.093Z,,,,,,,,,,,,,,,,11,,,,,,,,,,,,,,434.945000000007,,response,,,4,B,,,,,Space,keypress(Space),,,,lyrical,----- -- ---- Nui -- --- -------- ------------ ---------- --<br>- ------- ------ --------- -- ------------ -- --- ---- -----<br>------ ---- ---- ------ ------ ------- --- ----- ---------<br>---- --- -------- -------- --- --- -- ------- --- --- -----<br>-- --- ------ ------- --- --- -------- ---- --------- --<br>---------- -- -------- ----------------,223932.09999990463,223931.5,223479.89,223484.20000004768,223496.555,223946.351,,3,Nui
