sender,sender_type,sender_id,timestamp,meta,,Blues,Classical,Country,Dance,Electronic,Folk,Gospel,Hip-Hop,Jazz,Latin,Musical/Film,New-age,Pop,Provo_ID,R&B,Rap,Reggae,Religious,Rock,Soul,Swing,Traditional,age,artist_name,correct,correctResponse,distraction,duration,education,ended_on,familiarity,gender,item,list,music_frequency,offensiveness,pleasantness,preference,response,response_action,snippet_file,song_name,song_rating,sound,text,time_commit,time_end,time_render,time_run,time_show,time_switch,url,word,word_ID
Instructions,html.Page,0_0,2021-12-10T10:02:13.166Z,"{""labjs_version"":""20.2.3"",""labjs_build"":{""flavor"":""production"",""commit"":""7ea907d66ca8aeef8054924ca5d82ffbe11e34e5""},""location"":""https://run.pavlovia.org/mvasilev/lab_music_b/"",""userAgent"":""Mozilla/5.0 (Windows NT 6.1; Win64; x64) AppleWebKit/537.36 (KHTML, like Gecko) Chrome/96.0.4664.93 Safari/537.36"",""platform"":""Win32"",""language"":""en-US"",""locale"":""en-US"",""timeZone"":""Europe/London"",""timezoneOffset"":0,""screen_width"":1920,""screen_height"":1080,""scroll_width"":1920,""scroll_height"":959,""window_innerWidth"":1920,""window_innerHeight"":1007,""devicePixelRatio"":1}",,,,,,,,,,,,,,,,,,,,,,,,,,,,,25340.581000011924,,form submission,,,,,,,,,,,,,,,,35217.700000047684,35216.80000001192,9826.209,9848,9876.219,35216.048,{},,
Headphones,html.Page,0_1,2021-12-10T10:02:15.760Z,,,,,,,,,,,,,,,,,,,,,,,,,,,,,,2595.3520000357603,,form submission,,,,,,,,,,,,,,,,37812,37811.40000003576,35199.414,35218.200000047684,35216.048,37817.358,,,
Holding screen,html.Screen,0_2_0_0,2021-12-10T10:02:25.758Z,,,,,,,,,,,,,,,,,,,,,,,,,,,,,,10085.699,,timeout,,,,,,,,,,,,,,,,47809.60000002384,47803.043,37800.687,37812.5,37817.358,47903.057,,,
screen,html.Screen,0_2_0_1_0,2021-12-10T10:02:26.848Z,,,,,,,,,,,,,,,,53,,,,,,,,,,,,,,995.143000047683,,response,,,99,,,,,,Space,keypress(Space),,,,,When -- ----- -- ------ - ------- --- ----------<br>------------- ------ ------ ---- ---- ------- ----- -- ----<br>-------- ------- -- ---------- --- - --- ----- ----- ----<br>---- --- --- ----- --- ---- ---- ------- ----- ---- -------<br>--- --- -- ----- -- --- ---- -- --- ---- -- ------ ------<br>--- ----- -- ----,48899.700000047684,48898.200000047684,47803.043,47810,47903.057,48903.719,,0,When
screen,html.Screen,0_2_0_1_1,2021-12-10T10:02:27.375Z,,,,,,,,,,,,,,,,53,,,,,,,,,,,,,,521.9810000476864,,response,,,99,,,,,,Space,keypress(Space),,,,,---- it ----- -- ------ - ------- --- ----------<br>------------- ------ ------ ---- ---- ------- ----- -- ----<br>-------- ------- -- ---------- --- - --- ----- ----- ----<br>---- --- --- ----- --- ---- ---- ------- ----- ---- -------<br>--- --- -- ----- -- --- ---- -- --- ---- -- ------ ------<br>--- ----- -- ----,49426.60000002384,49425.700000047684,48887.047,48900,48903.719,49437.05,,1,it
screen,html.Screen,0_2_0_1_2,2021-12-10T10:02:27.903Z,,,,,,,,,,,,,,,,53,,,,,,,,,,,,,,516.6500000476808,,response,,,99,,,,,,Space,keypress(Space),,,,,---- -- comes -- ------ - ------- --- ----------<br>------------- ------ ------ ---- ---- ------- ----- -- ----<br>-------- ------- -- ---------- --- - --- ----- ----- ----<br>---- --- --- ----- --- ---- ---- ------- ----- ---- -------<br>--- --- -- ----- -- --- ---- -- --- ---- -- ------ ------<br>--- ----- -- ----,49954.700000047684,49953.700000047684,49420.38,49426.90000003576,49437.05,49970.517,,2,comes
screen,html.Screen,0_2_0_1_3,2021-12-10T10:02:28.375Z,,,,,,,,,,,,,,,,53,,,,,,,,,,,,,,455.1830000476839,,response,,,99,,,,,,Space,keypress(Space),,,,,---- -- ----- to ------ - ------- --- ----------<br>------------- ------ ------ ---- ---- ------- ----- -- ----<br>-------- ------- -- ---------- --- - --- ----- ----- ----<br>---- --- --- ----- --- ---- ---- ------- ----- ---- -------<br>--- --- -- ----- -- --- ---- -- --- ---- -- ------ ------<br>--- ----- -- ----,50426.60000002384,50425.700000047684,49953.847,49955,49970.517,50437.344,,3,to
screen,html.Screen,0_2_0_1_4,2021-12-10T10:02:28.807Z,,,,,,,,,,,,,,,,53,,,,,,,,,,,,,,420.25600002384454,,response,,,99,,,,,,Space,keypress(Space),,,,,---- -- ----- -- having - ------- --- ----------<br>------------- ------ ------ ---- ---- ------- ----- -- ----<br>-------- ------- -- ---------- --- - --- ----- ----- ----<br>---- --- --- ----- --- ---- ---- ------- ----- ---- -------<br>--- --- -- ----- -- --- ---- -- --- ---- -- ------ ------<br>--- ----- -- ----,50858.80000001192,50857.60000002384,50420.674,50427.200000047684,50437.344,50870.77,,4,having
screen,html.Screen,0_2_0_1_5,2021-12-10T10:02:29.271Z,,,,,,,,,,,,,,,,53,,,,,,,,,,,,,,450.83000002384506,,response,,,99,,,,,,Space,keypress(Space),,,,,---- -- ----- -- ------ a ------- --- ----------<br>------------- ------ ------ ---- ---- ------- ----- -- ----<br>-------- ------- -- ---------- --- - --- ----- ----- ----<br>---- --- --- ----- --- ---- ---- ------- ----- ---- -------<br>--- --- -- ----- -- --- ---- -- --- ---- -- ------ ------<br>--- ----- -- ----,51322.5,51321.60000002384,50854.1,50859.10000002384,50870.77,51337.568,,5,a
screen,html.Screen,0_2_0_1_6,2021-12-10T10:02:29.799Z,,,,,,,,,,,,,,,,53,,,,,,,,,,,,,,511.9320000000007,,response,,,99,,,,,,Space,keypress(Space),,,,,---- -- ----- -- ------ - lasting --- ----------<br>------------- ------ ------ ---- ---- ------- ----- -- ----<br>-------- ------- -- ---------- --- - --- ----- ----- ----<br>---- --- --- ----- --- ---- ---- ------- ----- ---- -------<br>--- --- -- ----- -- --- ---- -- --- ---- -- ------ ------<br>--- ----- -- ----,51850.5,51849.5,51320.898,51322.90000003576,51337.568,51854.421,,6,lasting
screen,html.Screen,0_2_0_1_7,2021-12-10T10:02:30.711Z,,,,,,,,,,,,,,,,53,,,,,,,,,,,,,,907.1790000238398,,response,,,99,,,,,,Space,keypress(Space),,,,,---- -- ----- -- ------ - ------- and ----------<br>------------- ------ ------ ---- ---- ------- ----- -- ----<br>-------- ------- -- ---------- --- - --- ----- ----- ----<br>---- --- --- ----- --- ---- ---- ------- ----- ---- -------<br>--- --- -- ----- -- --- ---- -- --- ---- -- ------ ------<br>--- ----- -- ----,52762.5,52761.60000002384,51837.75,51850.80000001192,51854.421,52771.353,,7,and
screen,html.Screen,0_2_0_1_8,2021-12-10T10:02:31.527Z,,,,,,,,,,,,,,,,53,,,,,,,,,,,,,,806.1469999999972,,response,,,99,,,,,,Space,keypress(Space),,,,,---- -- ----- -- ------ - ------- --- fulfilling<br>------------- ------ ------ ---- ---- ------- ----- -- ----<br>-------- ------- -- ---------- --- - --- ----- ----- ----<br>---- --- --- ----- --- ---- ---- ------- ----- ---- -------<br>--- --- -- ----- -- --- ---- -- --- ---- -- ------ ------<br>--- ----- -- ----,53578.60000002384,53577.5,52754.682,52762.80000001192,52771.353,53588.017,,8,fulfilling
screen,html.Screen,0_2_0_1_9,2021-12-10T10:02:32.271Z,,,,,,,,,,,,,,,,53,,,,,,,,,,,,,,733.383000035763,,response,,,99,,,,,,Space,keypress(Space),,,,,"---- -- ----- -- ------ - ------- --- ----------<br>relationship, ------ ------ ---- ---- ------- ----- -- ----<br>-------- ------- -- ---------- --- - --- ----- ----- ----<br>---- --- --- ----- --- ---- ---- ------- ----- ---- -------<br>--- --- -- ----- -- --- ---- -- --- ---- -- ------ ------<br>--- ----- -- ----",54322.40000003576,54321.40000003576,53571.348,53579,53588.017,54338.418,,9,"relationship,"
screen,html.Screen,0_2_0_1_10,2021-12-10T10:02:32.943Z,,,,,,,,,,,,,,,,53,,,,,,,,,,,,,,654.9820000357649,,response,,,99,,,,,,Space,keypress(Space),,,,,---- -- ----- -- ------ - ------- --- ----------<br>------------- common ------ ---- ---- ------- ----- -- ----<br>-------- ------- -- ---------- --- - --- ----- ----- ----<br>---- --- --- ----- --- ---- ---- ------- ----- ---- -------<br>--- --- -- ----- -- --- ---- -- --- ---- -- ------ ------<br>--- ----- -- ----,54994.30000001192,54993.40000003576,54321.747,54322.700000047684,54338.418,55005.222,,10,common
screen,html.Screen,0_2_0_1_11,2021-12-10T10:02:33.543Z,,,,,,,,,,,,,,,,53,,,,,,,,,,,,,,588.3780000238403,,response,,,99,,,,,,Space,keypress(Space),,,,,---- -- ----- -- ------ - ------- --- ----------<br>------------- ------ wisdom ---- ---- ------- ----- -- ----<br>-------- ------- -- ---------- --- - --- ----- ----- ----<br>---- --- --- ----- --- ---- ---- ------- ----- ---- -------<br>--- --- -- ----- -- --- ---- -- --- ---- -- ------ ------<br>--- ----- -- ----,55594.700000047684,55593.60000002384,54988.552,54994.60000002384,55005.222,55622.038,,11,wisdom
screen,html.Screen,0_2_0_1_12,2021-12-10T10:02:34.270Z,,,,,,,,,,,,,,,,53,,,,,,,,,,,,,,699.2620000119205,,response,,,99,,,,,,Space,keypress(Space),,,,,---- -- ----- -- ------ - ------- --- ----------<br>------------- ------ ------ says ---- ------- ----- -- ----<br>-------- ------- -- ---------- --- - --- ----- ----- ----<br>---- --- --- ----- --- ---- ---- ------- ----- ---- -------<br>--- --- -- ----- -- --- ---- -- --- ---- -- ------ ------<br>--- ----- -- ----,56322.10000002384,56321.30000001192,55605.368,55595,55622.038,56338.882,,12,says
screen,html.Screen,0_2_0_1_13,2021-12-10T10:02:34.806Z,,,,,,,,,,,,,,,,53,,,,,,,,,,,,,,518.3180000476859,,response,,,99,,,,,,Space,keypress(Space),,,,,---- -- ----- -- ------ - ------- --- ----------<br>------------- ------ ------ ---- that ------- ----- -- ----<br>-------- ------- -- ---------- --- - --- ----- ----- ----<br>---- --- --- ----- --- ---- ---- ------- ----- ---- -------<br>--- --- -- ----- -- --- ---- -- --- ---- -- ------ ------<br>--- ----- -- ----,56858.10000002384,56857.200000047684,56322.212,56322.40000003576,56338.882,56872.384,,13,that
screen,html.Screen,0_2_0_1_14,2021-12-10T10:02:35.334Z,,,,,,,,,,,,,,,,53,,,,,,,,,,,,,,512.9160000119227,,response,,,99,,,,,,Space,keypress(Space),,,,,---- -- ----- -- ------ - ------- --- ----------<br>------------- ------ ------ ---- ---- feeling ----- -- ----<br>-------- ------- -- ---------- --- - --- ----- ----- ----<br>---- --- --- ----- --- ---- ---- ------- ----- ---- -------<br>--- --- -- ----- -- --- ---- -- --- ---- -- ------ ------<br>--- ----- -- ----,57386.10000002384,57385.30000001192,56855.714,56858.40000003576,56872.384,57389.193,,14,feeling
screen,html.Screen,0_2_0_1_15,2021-12-10T10:02:36.134Z,,,,,,,,,,,,,,,,53,,,,,,,,,,,,,,796.1070000119216,,response,,,99,,,,,,Space,keypress(Space),,,,,---- -- ----- -- ------ - ------- --- ----------<br>------------- ------ ------ ---- ---- ------- close -- ----<br>-------- ------- -- ---------- --- - --- ----- ----- ----<br>---- --- --- ----- --- ---- ---- ------- ----- ---- -------<br>--- --- -- ----- -- --- ---- -- --- ---- -- ------ ------<br>--- ----- -- ----,58186.10000002384,58185.30000001192,57372.523,57386.5,57389.193,58189.369,,15,close
screen,html.Screen,0_2_0_1_16,2021-12-10T10:02:36.678Z,,,,,,,,,,,,,,,,53,,,,,,,,,,,,,,539.8310000476849,,response,,,99,,,,,,Space,keypress(Space),,,,,---- -- ----- -- ------ - ------- --- ----------<br>------------- ------ ------ ---- ---- ------- ----- to ----<br>-------- ------- -- ---------- --- - --- ----- ----- ----<br>---- --- --- ----- --- ---- ---- ------- ----- ---- -------<br>--- --- -- ----- -- --- ---- -- --- ---- -- ------ ------<br>--- ----- -- ----,58730.10000002384,58729.200000047684,58172.699,58186.40000003576,58189.369,58739.615,,16,to
screen,html.Screen,0_2_0_1_17,2021-12-10T10:02:37.391Z,,,,,,,,,,,,,,,,53,,,,,,,,,,,,,,701.9850000238439,,response,,,99,,,,,,Space,keypress(Space),,,,,---- -- ----- -- ------ - ------- --- ----------<br>------------- ------ ------ ---- ---- ------- ----- -- your<br>-------- ------- -- ---------- --- - --- ----- ----- ----<br>---- --- --- ----- --- ---- ---- ------- ----- ---- -------<br>--- --- -- ----- -- --- ---- -- --- ---- -- ------ ------<br>--- ----- -- ----,59442.5,59441.60000002384,58722.944,58730.30000001192,58739.615,59456.365,,17,your
screen,html.Screen,0_2_0_1_18,2021-12-10T10:02:38.208Z,,,,,,,,,,,,,,,,53,,,,,,,,,,,,,,800.8350000476858,,response,,,99,,,,,,Space,keypress(Space),,,,,---- -- ----- -- ------ - ------- --- ----------<br>------------- ------ ------ ---- ---- ------- ----- -- ----<br>romantic ------- -- ---------- --- - --- ----- ----- ----<br>---- --- --- ----- --- ---- ---- ------- ----- ---- -------<br>--- --- -- ----- -- --- ---- -- --- ---- -- ------ ------<br>--- ----- -- ----,60258,60257.200000047684,59439.695,59442.80000001192,59456.365,60273.25,,18,romantic
screen,html.Screen,0_2_0_1_19,2021-12-10T10:02:39.848Z,,,,,,,,,,,,,,,,53,,,,,,,,,,,,,,1623.8500000238419,,response,,,99,,,,,,Space,keypress(Space),,,,,---- -- ----- -- ------ - ------- --- ----------<br>------------- ------ ------ ---- ---- ------- ----- -- ----<br>-------- partner -- ---------- --- - --- ----- ----- ----<br>---- --- --- ----- --- ---- ---- ------- ----- ---- -------<br>--- --- -- ----- -- --- ---- -- --- ---- -- ------ ------<br>--- ----- -- ----,61897.90000003576,61897.10000002384,60256.58,60258.30000001192,60273.25,61907.097,,19,partner
screen,html.Screen,0_2_0_1_20,2021-12-10T10:02:40.344Z,,,,,,,,,,,,,,,,53,,,,,,,,,,,,,,486.0030000238403,,response,,,99,,,,,,Space,keypress(Space),,,,,---- -- ----- -- ------ - ------- --- ----------<br>------------- ------ ------ ---- ---- ------- ----- -- ----<br>-------- ------- is ---------- --- - --- ----- ----- ----<br>---- --- --- ----- --- ---- ---- ------- ----- ---- -------<br>--- --- -- ----- -- --- ---- -- --- ---- -- ------ ------<br>--- ----- -- ----,62393.90000003576,62393.10000002384,61890.426,61898.200000047684,61907.097,62407.083,,20,is
screen,html.Screen,0_2_0_1_21,2021-12-10T10:02:40.832Z,,,,,,,,,,,,,,,,53,,,,,,,,,,,,,,474.01700002384314,,response,,,99,,,,,,Space,keypress(Space),,,,,---- -- ----- -- ------ - ------- --- ----------<br>------------- ------ ------ ---- ---- ------- ----- -- ----<br>-------- ------- -- paramount. --- - --- ----- ----- ----<br>---- --- --- ----- --- ---- ---- ------- ----- ---- -------<br>--- --- -- ----- -- --- ---- -- --- ---- -- ------ ------<br>--- ----- -- ----,62881.90000003576,62881.10000002384,62390.413,62394.200000047684,62407.083,62890.652,,21,paramount.
screen,html.Screen,0_2_0_1_22,2021-12-10T10:02:41.400Z,,,,,,,,,,,,,,,,53,,,,,,,,,,,,,,558.3479999999981,,response,,,99,,,,,,Space,keypress(Space),,,,,---- -- ----- -- ------ - ------- --- ----------<br>------------- ------ ------ ---- ---- ------- ----- -- ----<br>-------- ------- -- ---------- But - --- ----- ----- ----<br>---- --- --- ----- --- ---- ---- ------- ----- ---- -------<br>--- --- -- ----- -- --- ---- -- --- ---- -- ------ ------<br>--- ----- -- ----,63449.90000003576,63449,62873.982,62882.40000003576,62890.652,63457.348,,22,But
screen,html.Screen,0_2_0_1_23,2021-12-10T10:02:41.888Z,,,,,,,,,,,,,,,,53,,,,,,,,,,,,,,479.7520000238437,,response,,,99,,,,,,Space,keypress(Space),,,,,---- -- ----- -- ------ - ------- --- ----------<br>------------- ------ ------ ---- ---- ------- ----- -- ----<br>-------- ------- -- ---------- --- a --- ----- ----- ----<br>---- --- --- ----- --- ---- ---- ------- ----- ---- -------<br>--- --- -- ----- -- --- ---- -- --- ---- -- ------ ------<br>--- ----- -- ----,63937.90000003576,63937.10000002384,63440.679,63450.10000002384,63457.348,63941.021,,23,a
screen,html.Screen,0_2_0_1_24,2021-12-10T10:02:42.416Z,,,,,,,,,,,,,,,,53,,,,,,,,,,,,,,523.9789999999994,,response,,,99,,,,,,Space,keypress(Space),,,,,---- -- ----- -- ------ - ------- --- ----------<br>------------- ------ ------ ---- ---- ------- ----- -- ----<br>-------- ------- -- ---------- --- - new ----- ----- ----<br>---- --- --- ----- --- ---- ---- ------- ----- ---- -------<br>--- --- -- ----- -- --- ---- -- --- ---- -- ------ ------<br>--- ----- -- ----,64465.80000001192,64465,63924.349,63938.10000002384,63941.021,64474.403,,24,new
screen,html.Screen,0_2_0_1_25,2021-12-10T10:02:42.968Z,,,,,,,,,,,,,,,,53,,,,,,,,,,,,,,542.5970000000016,,response,,,99,,,,,,Space,keypress(Space),,,,,---- -- ----- -- ------ - ------- --- ----------<br>------------- ------ ------ ---- ---- ------- ----- -- ----<br>-------- ------- -- ---------- --- - --- study ----- ----<br>---- --- --- ----- --- ---- ---- ------- ----- ---- -------<br>--- --- -- ----- -- --- ---- -- --- ---- -- ------ ------<br>--- ----- -- ----,65017.80000001192,65017,64457.733,64466.10000002384,64474.403,65024.586,,25,study
screen,html.Screen,0_2_0_1_26,2021-12-10T10:02:43.440Z,,,,,,,,,,,,,,,,53,,,,,,,,,,,,,,464.3140000357598,,response,,,99,,,,,,Space,keypress(Space),,,,,---- -- ----- -- ------ - ------- --- ----------<br>------------- ------ ------ ---- ---- ------- ----- -- ----<br>-------- ------- -- ---------- --- - --- ----- finds ----<br>---- --- --- ----- --- ---- ---- ------- ----- ---- -------<br>--- --- -- ----- -- --- ---- -- --- ---- -- ------ ------<br>--- ----- -- ----,65489.700000047684,65488.90000003576,65007.915,65018.10000002384,65024.586,65491.396,,26,finds
screen,html.Screen,0_2_0_1_27,2021-12-10T10:02:43.904Z,,,,,,,,,,,,,,,,53,,,,,,,,,,,,,,461.60399999999936,,response,,,99,,,,,,Space,keypress(Space),,,,,---- -- ----- -- ------ - ------- --- ----------<br>------------- ------ ------ ---- ---- ------- ----- -- ----<br>-------- ------- -- ---------- --- - --- ----- ----- that<br>---- --- --- ----- --- ---- ---- ------- ----- ---- -------<br>--- --- -- ----- -- --- ---- -- --- ---- -- ------ ------<br>--- ----- -- ----,65953.80000001192,65953,65474.725,65490,65491.396,65958.021,,27,that
screen,html.Screen,0_2_0_1_28,2021-12-10T10:02:44.384Z,,,,,,,,,,,,,,,,53,,,,,,,,,,,,,,474.8790000357694,,response,,,99,,,,,,Space,keypress(Space),,,,,---- -- ----- -- ------ - ------- --- ----------<br>------------- ------ ------ ---- ---- ------- ----- -- ----<br>-------- ------- -- ---------- --- - --- ----- ----- ----<br>it's --- --- ----- --- ---- ---- ------- ----- ---- -------<br>--- --- -- ----- -- --- ---- -- --- ---- -- ------ ------<br>--- ----- -- ----,66433.70000004768,66432.90000003576,65941.352,65954,65958.021,66441.693,,28,it's
screen,html.Screen,0_2_0_1_29,2021-12-10T10:02:44.856Z,,,,,,,,,,,,,,,,53,,,,,,,,,,,,,,463.2070000357635,,response,,,99,,,,,,Space,keypress(Space),,,,,---- -- ----- -- ------ - ------- --- ----------<br>------------- ------ ------ ---- ---- ------- ----- -- ----<br>-------- ------- -- ---------- --- - --- ----- ----- ----<br>---- not --- ----- --- ---- ---- ------- ----- ---- -------<br>--- --- -- ----- -- --- ---- -- --- ---- -- ------ ------<br>--- ----- -- ----,66905.70000004768,66904.90000003576,66425.021,66434,66441.693,66908.372,,29,not
screen,html.Screen,0_2_0_1_30,2021-12-10T10:02:45.360Z,,,,,,,,,,,,,,,,53,,,,,,,,,,,,,,500.52800003575976,,response,,,99,,,,,,Space,keypress(Space),,,,,---- -- ----- -- ------ - ------- --- ----------<br>------------- ------ ------ ---- ---- ------- ----- -- ----<br>-------- ------- -- ---------- --- - --- ----- ----- ----<br>---- --- how ----- --- ---- ---- ------- ----- ---- -------<br>--- --- -- ----- -- --- ---- -- --- ---- -- ------ ------<br>--- ----- -- ----,67409.80000001192,67408.90000003576,66891.702,66905.90000003576,66908.372,67425.072,,30,how
screen,html.Screen,0_2_0_1_31,2021-12-10T10:02:45.944Z,,,,,,,,,,,,,,,,53,,,,,,,,,,,,,,567.7280000119208,,response,,,99,,,,,,Space,keypress(Space),,,,,---- -- ----- -- ------ - ------- --- ----------<br>------------- ------ ------ ---- ---- ------- ----- -- ----<br>-------- ------- -- ---------- --- - --- ----- ----- ----<br>---- --- --- close --- ---- ---- ------- ----- ---- -------<br>--- --- -- ----- -- --- ---- -- --- ---- -- ------ ------<br>--- ----- -- ----,67993.80000001192,67992.80000001192,67408.403,67410,67425.072,68008.794,,31,close
screen,html.Screen,0_2_0_1_32,2021-12-10T10:02:46.416Z,,,,,,,,,,,,,,,,53,,,,,,,,,,,,,,456.0060000119265,,response,,,99,,,,,,Space,keypress(Space),,,,,---- -- ----- -- ------ - ------- --- ----------<br>------------- ------ ------ ---- ---- ------- ----- -- ----<br>-------- ------- -- ---------- --- - --- ----- ----- ----<br>---- --- --- ----- you ---- ---- ------- ----- ---- -------<br>--- --- -- ----- -- --- ---- -- --- ---- -- ------ ------<br>--- ----- -- ----,68465.60000002384,68464.80000001192,67992.121,67994,68008.794,68475.366,,32,you
screen,html.Screen,0_2_0_1_33,2021-12-10T10:02:47.032Z,,,,,,,,,,,,,,,,53,,,,,,,,,,,,,,605.7340000238473,,response,,,99,,,,,,Space,keypress(Space),,,,,---- -- ----- -- ------ - ------- --- ----------<br>------------- ------ ------ ---- ---- ------- ----- -- ----<br>-------- ------- -- ---------- --- - --- ----- ----- ----<br>---- --- --- ----- --- feel ---- ------- ----- ---- -------<br>--- --- -- ----- -- --- ---- -- --- ---- -- ------ ------<br>--- ----- -- ----,69082,69081.10000002384,68458.697,68465.90000003576,68475.366,69109.008,,33,feel
screen,html.Screen,0_2_0_1_34,2021-12-10T10:02:47.592Z,,,,,,,,,,,,,,,,53,,,,,,,,,,,,,,532.0920000238402,,response,,,99,,,,,,Space,keypress(Space),,,,,---- -- ----- -- ------ - ------- --- ----------<br>------------- ------ ------ ---- ---- ------- ----- -- ----<br>-------- ------- -- ---------- --- - --- ----- ----- ----<br>---- --- --- ----- --- ---- that ------- ----- ---- -------<br>--- --- -- ----- -- --- ---- -- --- ---- -- ------ ------<br>--- ----- -- ----,69641.90000003576,69641.10000002384,69092.337,69082.20000004768,69109.008,69659.175,,34,that
screen,html.Screen,0_2_0_1_35,2021-12-10T10:02:48.048Z,,,,,,,,,,,,,,,,53,,,,,,,,,,,,,,437.625000011918,,response,,,99,,,,,,Space,keypress(Space),,,,,---- -- ----- -- ------ - ------- --- ----------<br>------------- ------ ------ ---- ---- ------- ----- -- ----<br>-------- ------- -- ---------- --- - --- ----- ----- ----<br>---- --- --- ----- --- ---- ---- matters ----- ---- -------<br>--- --- -- ----- -- --- ---- -- --- ---- -- ------ ------<br>--- ----- -- ----,70097.5,70096.80000001192,69642.504,69642.10000002384,69659.175,70109.237,,35,matters
screen,html.Screen,0_2_0_1_36,2021-12-10T10:02:48.504Z,,,,,,,,,,,,,,,,53,,,,,,,,,,,,,,443.46300004769,,response,,,99,,,,,,Space,keypress(Space),,,,,"---- -- ----- -- ------ - ------- --- ----------<br>------------- ------ ------ ---- ---- ------- ----- -- ----<br>-------- ------- -- ---------- --- - --- ----- ----- ----<br>---- --- --- ----- --- ---- ---- ------- most, ---- -------<br>--- --- -- ----- -- --- ---- -- --- ---- -- ------ ------<br>--- ----- -- ----",70553.70000004768,70552.70000004768,70092.567,70097.80000001192,70109.237,70559.253,,36,"most,"
screen,html.Screen,0_2_0_1_37,2021-12-10T10:02:48.992Z,,,,,,,,,,,,,,,,53,,,,,,,,,,,,,,481.44700004768674,,response,,,99,,,,,,Space,keypress(Space),,,,,---- -- ----- -- ------ - ------- --- ----------<br>------------- ------ ------ ---- ---- ------- ----- -- ----<br>-------- ------- -- ---------- --- - --- ----- ----- ----<br>---- --- --- ----- --- ---- ---- ------- ----- it's -------<br>--- --- -- ----- -- --- ---- -- --- ---- -- ------ ------<br>--- ----- -- ----,71041.5,71040.70000004768,70542.584,70554,70559.253,71059.431,,37,it's
screen,html.Screen,0_2_0_1_38,2021-12-10T10:02:49.424Z,,,,,,,,,,,,,,,,53,,,,,,,,,,,,,,413.26900004768686,,response,,,99,,,,,,Space,keypress(Space),,,,,---- -- ----- -- ------ - ------- --- ----------<br>------------- ------ ------ ---- ---- ------- ----- -- ----<br>-------- ------- -- ---------- --- - --- ----- ----- ----<br>---- --- --- ----- --- ---- ---- ------- ----- ---- whether<br>--- --- -- ----- -- --- ---- -- --- ---- -- ------ ------<br>--- ----- -- ----,71473.40000003576,71472.70000004768,71042.761,71041.80000001192,71059.431,71476.371,,38,whether
screen,html.Screen,0_2_0_1_39,2021-12-10T10:02:49.832Z,,,,,,,,,,,,,,,,53,,,,,,,,,,,,,,404.2290000238427,,response,,,99,,,,,,Space,keypress(Space),,,,,---- -- ----- -- ------ - ------- --- ----------<br>------------- ------ ------ ---- ---- ------- ----- -- ----<br>-------- ------- -- ---------- --- - --- ----- ----- ----<br>---- --- --- ----- --- ---- ---- ------- ----- ---- -------<br>you --- -- ----- -- --- ---- -- --- ---- -- ------ ------<br>--- ----- -- ----,71881.5,71880.60000002384,71459.699,71473.70000004768,71476.371,71893.054,,39,you
screen,html.Screen,0_2_0_1_40,2021-12-10T10:02:50.200Z,,,,,,,,,,,,,,,,53,,,,,,,,,,,,,,355.54600002383813,,response,,,99,,,,,,Space,keypress(Space),,,,,---- -- ----- -- ------ - ------- --- ----------<br>------------- ------ ------ ---- ---- ------- ----- -- ----<br>-------- ------- -- ---------- --- - --- ----- ----- ----<br>---- --- --- ----- --- ---- ---- ------- ----- ---- -------<br>--- are -- ----- -- --- ---- -- --- ---- -- ------ ------<br>--- ----- -- ----,72249.5,72248.60000002384,71876.384,71881.70000004768,71893.054,72259.857,,40,are
screen,html.Screen,0_2_0_1_41,2021-12-10T10:02:50.592Z,,,,,,,,,,,,,,,,53,,,,,,,,,,,,,,380.74300002383825,,response,,,99,,,,,,Space,keypress(Space),,,,,---- -- ----- -- ------ - ------- --- ----------<br>------------- ------ ------ ---- ---- ------- ----- -- ----<br>-------- ------- -- ---------- --- - --- ----- ----- ----<br>---- --- --- ----- --- ---- ---- ------- ----- ---- -------<br>--- --- as ----- -- --- ---- -- --- ---- -- ------ ------<br>--- ----- -- ----,72641.40000003576,72640.60000002384,72243.186,72249.70000004768,72259.857,72643.261,,41,as
screen,html.Screen,0_2_0_1_42,2021-12-10T10:02:50.992Z,,,,,,,,,,,,,,,,53,,,,,,,,,,,,,,397.33900002384325,,response,,,99,,,,,,Space,keypress(Space),,,,,---- -- ----- -- ------ - ------- --- ----------<br>------------- ------ ------ ---- ---- ------- ----- -- ----<br>-------- ------- -- ---------- --- - --- ----- ----- ----<br>---- --- --- ----- --- ---- ---- ------- ----- ---- -------<br>--- --- -- close -- --- ---- -- --- ---- -- ------ ------<br>--- ----- -- ----,73041.40000003576,73040.60000002384,72626.591,72641.60000002384,72643.261,73043.352,,42,close
screen,html.Screen,0_2_0_1_43,2021-12-10T10:02:51.392Z,,,,,,,,,,,,,,,,53,,,,,,,,,,,,,,397.2480000238429,,response,,,99,,,,,,Space,keypress(Space),,,,,---- -- ----- -- ------ - ------- --- ----------<br>------------- ------ ------ ---- ---- ------- ----- -- ----<br>-------- ------- -- ---------- --- - --- ----- ----- ----<br>---- --- --- ----- --- ---- ---- ------- ----- ---- -------<br>--- --- -- ----- as --- ---- -- --- ---- -- ------ ------<br>--- ----- -- ----,73441.40000003576,73440.60000002384,73026.682,73041.70000004768,73043.352,73443.464,,43,as
screen,html.Screen,0_2_0_1_44,2021-12-10T10:02:51.760Z,,,,,,,,,,,,,,,,53,,,,,,,,,,,,,,365.13600002383464,,response,,,99,,,,,,Space,keypress(Space),,,,,---- -- ----- -- ------ - ------- --- ----------<br>------------- ------ ------ ---- ---- ------- ----- -- ----<br>-------- ------- -- ---------- --- - --- ----- ----- ----<br>---- --- --- ----- --- ---- ---- ------- ----- ---- -------<br>--- --- -- ----- -- you ---- -- --- ---- -- ------ ------<br>--- ----- -- ----,73809.30000001192,73808.60000002384,73426.794,73441.60000002384,73443.464,73826.935,,44,you
screen,html.Screen,0_2_0_1_45,2021-12-10T10:02:52.160Z,,,,,,,,,,,,,,,,53,,,,,,,,,,,,,,381.5650000000023,,response,,,99,,,,,,Space,keypress(Space),,,,,---- -- ----- -- ------ - ------- --- ----------<br>------------- ------ ------ ---- ---- ------- ----- -- ----<br>-------- ------- -- ---------- --- - --- ----- ----- ----<br>---- --- --- ----- --- ---- ---- ------- ----- ---- -------<br>--- --- -- ----- -- --- want -- --- ---- -- ------ ------<br>--- ----- -- ----,74209.30000001192,74208.5,73810.264,73809.60000002384,73826.935,74226.974,,45,want
screen,html.Screen,0_2_0_1_46,2021-12-10T10:02:52.560Z,,,,,,,,,,,,,,,,53,,,,,,,,,,,,,,381.4260000357608,,response,,,99,,,,,,Space,keypress(Space),,,,,---- -- ----- -- ------ - ------- --- ----------<br>------------- ------ ------ ---- ---- ------- ----- -- ----<br>-------- ------- -- ---------- --- - --- ----- ----- ----<br>---- --- --- ----- --- ---- ---- ------- ----- ---- -------<br>--- --- -- ----- -- --- ---- to --- ---- -- ------ ------<br>--- ----- -- ----,74609.30000001192,74608.40000003576,74210.304,74209.5,74226.974,74627.161,,46,to
screen,html.Screen,0_2_0_1_47,2021-12-10T10:02:52.936Z,,,,,,,,,,,,,,,,53,,,,,,,,,,,,,,357.3390000000072,,response,,,99,,,,,,Space,keypress(Space),,,,,"---- -- ----- -- ------ - ------- --- ----------<br>------------- ------ ------ ---- ---- ------- ----- -- ----<br>-------- ------- -- ---------- --- - --- ----- ----- ----<br>---- --- --- ----- --- ---- ---- ------- ----- ---- -------<br>--- --- -- ----- -- --- ---- -- be, ---- -- ------ ------<br>--- ----- -- ----",74985.30000001192,74984.5,74610.49,74609.5,74627.161,74993.871,,47,"be,"
screen,html.Screen,0_2_0_1_48,2021-12-10T10:02:53.376Z,,,,,,,,,,,,,,,,53,,,,,,,,,,,,,,430.5290000357636,,response,,,99,,,,,,Space,keypress(Space),,,,,---- -- ----- -- ------ - ------- --- ----------<br>------------- ------ ------ ---- ---- ------- ----- -- ----<br>-------- ------- -- ---------- --- - --- ----- ----- ----<br>---- --- --- ----- --- ---- ---- ------- ----- ---- -------<br>--- --- -- ----- -- --- ---- -- --- even -- ------ ------<br>--- ----- -- ----,75425.20000004768,75424.40000003576,74977.201,74985.5,74993.871,75427.355,,48,even
screen,html.Screen,0_2_0_1_49,2021-12-10T10:02:53.776Z,,,,,,,,,,,,,,,,53,,,,,,,,,,,,,,397.04500003576686,,response,,,99,,,,,,Space,keypress(Space),,,,,---- -- ----- -- ------ - ------- --- ----------<br>------------- ------ ------ ---- ---- ------- ----- -- ----<br>-------- ------- -- ---------- --- - --- ----- ----- ----<br>---- --- --- ----- --- ---- ---- ------- ----- ---- -------<br>--- --- -- ----- -- --- ---- -- --- ---- if ------ ------<br>--- ----- -- ----,75825.30000001192,75824.40000003576,75410.684,75425.5,75427.355,75827.425,,49,if
screen,html.Screen,0_2_0_1_50,2021-12-10T10:02:54.216Z,,,,,,,,,,,,,,,,53,,,,,,,,,,,,,,437.0749999999971,,response,,,99,,,,,,Space,keypress(Space),,,,,---- -- ----- -- ------ - ------- --- ----------<br>------------- ------ ------ ---- ---- ------- ----- -- ----<br>-------- ------- -- ---------- --- - --- ----- ----- ----<br>---- --- --- ----- --- ---- ---- ------- ----- ---- -------<br>--- --- -- ----- -- --- ---- -- --- ---- -- that's ------<br>--- ----- -- ----,76265.20000004768,76264.5,75810.755,75825.5,75827.425,76277.589,,50,that's
screen,html.Screen,0_2_0_1_51,2021-12-10T10:02:54.616Z,,,,,,,,,,,,,,,,53,,,,,,,,,,,,,,386.81100003575557,,response,,,99,,,,,,Space,keypress(Space),,,,,---- -- ----- -- ------ - ------- --- ----------<br>------------- ------ ------ ---- ---- ------- ----- -- ----<br>-------- ------- -- ---------- --- - --- ----- ----- ----<br>---- --- --- ----- --- ---- ---- ------- ----- ---- -------<br>--- --- -- ----- -- --- ---- -- --- ---- -- ------ really<br>--- ----- -- ----,76665.20000004768,76664.40000003576,76260.918,76265.40000003576,76277.589,76677.666,,51,really
screen,html.Screen,0_2_0_1_52,2021-12-10T10:02:55.056Z,,,,,,,,,,,,,,,,53,,,,,,,,,,,,,,426.9340000238444,,response,,,99,,,,,,Space,keypress(Space),,,,,---- -- ----- -- ------ - ------- --- ----------<br>------------- ------ ------ ---- ---- ------- ----- -- ----<br>-------- ------- -- ---------- --- - --- ----- ----- ----<br>---- --- --- ----- --- ---- ---- ------- ----- ---- -------<br>--- --- -- ----- -- --- ---- -- --- ---- -- ------ ------<br>not ----- -- ----,77105.40000003576,77104.60000002384,76660.996,76665.5,76677.666,77127.684,,52,not
screen,html.Screen,0_2_0_1_53,2021-12-10T10:02:55.440Z,,,,,,,,,,,,,,,,53,,,,,,,,,,,,,,360.71600003576896,,response,,,99,,,,,,Space,keypress(Space),,,,,---- -- ----- -- ------ - ------- --- ----------<br>------------- ------ ------ ---- ---- ------- ----- -- ----<br>-------- ------- -- ---------- --- - --- ----- ----- ----<br>---- --- --- ----- --- ---- ---- ------- ----- ---- -------<br>--- --- -- ----- -- --- ---- -- --- ---- -- ------ ------<br>--- close -- ----,77489.20000004768,77488.40000003576,77111.015,77105.70000004768,77127.684,77494.614,,53,close
screen,html.Screen,0_2_0_1_54,2021-12-10T10:02:55.816Z,,,,,,,,,,,,,,,,53,,,,,,,,,,,,,,369.68600001191953,,response,,,99,,,,,,Space,keypress(Space),,,,,---- -- ----- -- ------ - ------- --- ----------<br>------------- ------ ------ ---- ---- ------- ----- -- ----<br>-------- ------- -- ---------- --- - --- ----- ----- ----<br>---- --- --- ----- --- ---- ---- ------- ----- ---- -------<br>--- --- -- ----- -- --- ---- -- --- ---- -- ------ ------<br>--- ----- at ----,77865.20000004768,77864.30000001192,77477.942,77489.40000003576,77494.614,77877.979,,54,at
screen,html.Screen,0_2_0_1_55,2021-12-10T10:02:56.632Z,,,,,,,,,,,,,,,,53,,,,,,,,,,,,,,802.4210000357562,,response,,,99,,,,,,Space,keypress(Space),,,,,---- -- ----- -- ------ - ------- --- ----------<br>------------- ------ ------ ---- ---- ------- ----- -- ----<br>-------- ------- -- ---------- --- - --- ----- ----- ----<br>---- --- --- ----- --- ---- ---- ------- ----- ---- -------<br>--- --- -- ----- -- --- ---- -- --- ---- -- ------ ------<br>--- ----- -- all.,78681.20000004768,78680.40000003576,77861.309,77865.5,77877.979,78694.894,,55,all.
Item 99,flow.Loop,0_2_0_1,2021-12-10T10:02:56.636Z,,,,,,,,,,,,,,,,,,,,,,,,,,,,,,30777.343000035762,,completion,,,,B,,,,,,,,,,silence,,78685.5,78680.40000003576,47803.043,47809.90000003576,47903.057,78694.894,,,
Question 1,html.Screen,0_2_0_2,2021-12-10T10:03:03.552Z,,,,,,,,,,,,,,,,,,,,,,,,,,,false,FALSE,,6904.8060000476835,,response,,,99,B,,,,,TRUE,click #choice-1,,,,silence,,85601.20000004768,85599.70000004768,78678.223,78685.80000001192,78694.894,85613.437,,,
Question 2,html.Screen,0_2_0_3,2021-12-10T10:03:09.736Z,,,,,,,,,,,,,,,,,,,,,,,,,,,true,TRUE,,6170.963000035757,,response,,,99,B,,,,,TRUE,click #choice-1,,,,silence,,91785.5,91784.40000003576,85596.764,85601.60000002384,85613.437,91798.771,,,
Item 99,flow.Sequence,0_2_0,2021-12-10T10:03:09.737Z,,,,,,,,,,,,,,,,,,,,,,,,,,,,,,53967.04200003576,,completion,,,,,,,,,,,,,,,,91786,91784.40000003576,37800.687,37812.5,37817.358,91798.771,,,
Holding screen,html.Screen,0_2_1_0,2021-12-10T10:03:19.736Z,,,,,,,,,,,,,,,,,,,,,,,,,,,,,,10002.066000000006,,timeout,,,,,,,,,,,,,,,,101785.70000004768,101784.167,91782.083,91786.40000003576,91798.771,101800.837,,,
screen,html.Screen,0_2_1_1_0,2021-12-10T10:03:20.823Z,,,,,,,,,,,,,,,,54,,,,,,,,,,,,,,1070.8630000476842,,response,,,100,,,,,,Space,keypress(Space),,,,,At --- ---- --- ------ ----- ------- ---- -- --- ------- --<br>------- ---------- ------ -- ----- -- ----- -- ---- ------<br>--- ----- --- --- ------ -------- ----- --- ------ ----- --<br>----- ----- ---------- --- --- ------ ------ ---- -- ------<br>------- --- ------ ----- --- ---- ------- -- ---- --- --<br>------- ------,102872.70000004768,102871.70000004768,101784.167,101786.10000002384,101800.837,102884.729,,0,At
screen,html.Screen,0_2_1_1_1,2021-12-10T10:03:21.439Z,,,,,,,,,,,,,,,,54,,,,,,,,,,,,,,602.4710000476771,,response,,,100,,,,,,Space,keypress(Space),,,,,-- the ---- --- ------ ----- ------- ---- -- --- ------- --<br>------- ---------- ------ -- ----- -- ----- -- ---- ------<br>--- ----- --- --- ------ -------- ----- --- ------ ----- --<br>----- ----- ---------- --- --- ------ ------ ---- -- ------<br>------- --- ------ ----- --- ---- ------- -- ---- --- --<br>------- ------,103488.10000002384,103487.20000004768,102868.057,102873,102884.729,103501.333,,1,the
screen,html.Screen,0_2_1_1_2,2021-12-10T10:03:22.062Z,,,,,,,,,,,,,,,,54,,,,,,,,,,,,,,609.867000047685,,response,,,100,,,,,,Space,keypress(Space),,,,,-- --- time --- ------ ----- ------- ---- -- --- ------- --<br>------- ---------- ------ -- ----- -- ----- -- ---- ------<br>--- ----- --- --- ------ -------- ----- --- ------ ----- --<br>----- ----- ---------- --- --- ------ ------ ---- -- ------<br>------- --- ------ ----- --- ---- ------- -- ---- --- --<br>------- ------,104111.90000003576,104111.20000004768,103484.663,103488.30000001192,103501.333,104135.015,,2,time
screen,html.Screen,0_2_1_1_3,2021-12-10T10:03:22.638Z,,,,,,,,,,,,,,,,54,,,,,,,,,,,,,,552.0850000238424,,response,,,100,,,,,,Space,keypress(Space),,,,,-- --- ---- the ------ ----- ------- ---- -- --- ------- --<br>------- ---------- ------ -- ----- -- ----- -- ---- ------<br>--- ----- --- --- ------ -------- ----- --- ------ ----- --<br>----- ----- ---------- --- --- ------ ------ ---- -- ------<br>------- --- ------ ----- --- ---- ------- -- ---- --- --<br>------- ------,104687.90000003576,104687.10000002384,104118.344,104112.20000004768,104135.015,104701.643,,3,the
screen,html.Screen,0_2_1_1_4,2021-12-10T10:03:23.222Z,,,,,,,,,,,,,,,,54,,,,,,,,,,,,,,569.4570000238455,,response,,,100,,,,,,Space,keypress(Space),,,,,-- --- ---- --- French ----- ------- ---- -- --- ------- --<br>------- ---------- ------ -- ----- -- ----- -- ---- ------<br>--- ----- --- --- ------ -------- ----- --- ------ ----- --<br>----- ----- ---------- --- --- ------ ------ ---- -- ------<br>------- --- ------ ----- --- ---- ------- -- ---- --- --<br>------- ------,105272,105271.10000002384,104684.974,104688.20000004768,104701.643,105285.312,,4,French
screen,html.Screen,0_2_1_1_5,2021-12-10T10:03:23.814Z,,,,,,,,,,,,,,,,54,,,,,,,,,,,,,,577.7880000238365,,response,,,100,,,,,,Space,keypress(Space),,,,,-- --- ---- --- ------ crown ------- ---- -- --- ------- --<br>------- ---------- ------ -- ----- -- ----- -- ---- ------<br>--- ----- --- --- ------ -------- ----- --- ------ ----- --<br>----- ----- ---------- --- --- ------ ------ ---- -- ------<br>------- --- ------ ----- --- ---- ------- -- ---- --- --<br>------- ------,105863.90000003576,105863.10000002384,105268.641,105272.20000004768,105285.312,105868.737,,5,crown
screen,html.Screen,0_2_1_1_6,2021-12-10T10:03:24.382Z,,,,,,,,,,,,,,,,54,,,,,,,,,,,,,,562.2630000000063,,response,,,100,,,,,,Space,keypress(Space),,,,,-- --- ---- --- ------ ----- secured ---- -- --- ------- --<br>------- ---------- ------ -- ----- -- ----- -- ---- ------<br>--- ----- --- --- ------ -------- ----- --- ------ ----- --<br>----- ----- ---------- --- --- ------ ------ ---- -- ------<br>------- --- ------ ----- --- ---- ------- -- ---- --- --<br>------- ------,106431.80000001192,106431,105852.067,105864.10000002384,105868.737,106435.56,,6,secured
screen,html.Screen,0_2_1_1_7,2021-12-10T10:03:24.934Z,,,,,,,,,,,,,,,,54,,,,,,,,,,,,,,547.4400000000023,,response,,,100,,,,,,Space,keypress(Space),,,,,-- --- ---- --- ------ ----- ------- much -- --- ------- --<br>------- ---------- ------ -- ----- -- ----- -- ---- ------<br>--- ----- --- --- ------ -------- ----- --- ------ ----- --<br>----- ----- ---------- --- --- ------ ------ ---- -- ------<br>------- --- ------ ----- --- ---- ------- -- ---- --- --<br>------- ------,106983.80000001192,106983,106418.89,106432.10000002384,106435.56,106985.591,,7,much
screen,html.Screen,0_2_1_1_8,2021-12-10T10:03:25.422Z,,,,,,,,,,,,,,,,54,,,,,,,,,,,,,,485.40899999999965,,response,,,100,,,,,,Space,keypress(Space),,,,,-- --- ---- --- ------ ----- ------- ---- of --- ------- --<br>------- ---------- ------ -- ----- -- ----- -- ---- ------<br>--- ----- --- --- ------ -------- ----- --- ------ ----- --<br>----- ----- ---------- --- --- ------ ------ ---- -- ------<br>------- --- ------ ----- --- ---- ------- -- ---- --- --<br>------- ------,107471.80000001192,107471,106968.922,106984.10000002384,106985.591,107485.953,,8,of
screen,html.Screen,0_2_1_1_9,2021-12-10T10:03:26.102Z,,,,,,,,,,,,,,,,54,,,,,,,,,,,,,,664.9470000357687,,response,,,100,,,,,,Space,keypress(Space),,,,,-- --- ---- --- ------ ----- ------- ---- -- its ------- --<br>------- ---------- ------ -- ----- -- ----- -- ---- ------<br>--- ----- --- --- ------ -------- ----- --- ------ ----- --<br>----- ----- ---------- --- --- ------ ------ ---- -- ------<br>------- --- ------ ----- --- ---- ------- -- ---- --- --<br>------- ------,108151.80000001192,108150.90000003576,107469.281,107472.10000002384,107485.953,108169.295,,9,its
screen,html.Screen,0_2_1_1_10,2021-12-10T10:03:26.974Z,,,,,,,,,,,,,,,,54,,,,,,,,,,,,,,853.7050000000017,,response,,,100,,,,,,Space,keypress(Space),,,,,-- --- ---- --- ------ ----- ------- ---- -- --- revenue --<br>------- ---------- ------ -- ----- -- ----- -- ---- ------<br>--- ----- --- --- ------ -------- ----- --- ------ ----- --<br>----- ----- ---------- --- --- ------ ------ ---- -- ------<br>------- --- ------ ----- --- ---- ------- -- ---- --- --<br>------- ------,109023.70000004768,109023,108152.625,108152,108169.295,109036.3,,10,revenue
screen,html.Screen,0_2_1_1_11,2021-12-10T10:03:27.950Z,,,,,,,,,,,,,,,,54,,,,,,,,,,,,,,962.6000000357599,,response,,,100,,,,,,Space,keypress(Space),,,,,-- --- ---- --- ------ ----- ------- ---- -- --- ------- by<br>------- ---------- ------ -- ----- -- ----- -- ---- ------<br>--- ----- --- --- ------ -------- ----- --- ------ ----- --<br>----- ----- ---------- --- --- ------ ------ ---- -- ------<br>------- --- ------ ----- --- ---- ------- -- ---- --- --<br>------- ------,109999.70000004768,109998.90000003576,109019.629,109024,109036.3,110003.147,,11,by
screen,html.Screen,0_2_1_1_12,2021-12-10T10:03:28.646Z,,,,,,,,,,,,,,,,54,,,,,,,,,,,,,,691.6530000119237,,response,,,100,,,,,,Space,keypress(Space),,,,,-- --- ---- --- ------ ----- ------- ---- -- --- ------- --<br>issuing ---------- ------ -- ----- -- ----- -- ---- ------<br>--- ----- --- --- ------ -------- ----- --- ------ ----- --<br>----- ----- ---------- --- --- ------ ------ ---- -- ------<br>------- --- ------ ----- --- ---- ------- -- ---- --- --<br>------- ------,110695.70000004768,110694.80000001192,109986.477,110000,110003.147,110703.327,,12,issuing
screen,html.Screen,0_2_1_1_13,2021-12-10T10:03:29.318Z,,,,,,,,,,,,,,,,54,,,,,,,,,,,,,,663.7730000238371,,response,,,100,,,,,,Space,keypress(Space),,,,,-- --- ---- --- ------ ----- ------- ---- -- --- ------- --<br>------- government ------ -- ----- -- ----- -- ---- ------<br>--- ----- --- --- ------ -------- ----- --- ------ ----- --<br>----- ----- ---------- --- --- ------ ------ ---- -- ------<br>------- --- ------ ----- --- ---- ------- -- ---- --- --<br>------- ------,111367.90000003576,111367.10000002384,110686.657,110695.90000003576,110703.327,111370.16,,13,government
screen,html.Screen,0_2_1_1_14,2021-12-10T10:03:29.902Z,,,,,,,,,,,,,,,,54,,,,,,,,,,,,,,580.5400000476802,,response,,,100,,,,,,Space,keypress(Space),,,,,-- --- ---- --- ------ ----- ------- ---- -- --- ------- --<br>------- ---------- bonds. -- ----- -- ----- -- ---- ------<br>--- ----- --- --- ------ -------- ----- --- ------ ----- --<br>----- ----- ---------- --- --- ------ ------ ---- -- ------<br>------- --- ------ ----- --- ---- ------- -- ---- --- --<br>------- ------,111951.5,111950.70000004768,111353.49,111368.10000002384,111370.16,111970.366,,14,bonds.
screen,html.Screen,0_2_1_1_15,2021-12-10T10:03:30.502Z,,,,,,,,,,,,,,,,54,,,,,,,,,,,,,,580.3340000476892,,response,,,100,,,,,,Space,keypress(Space),,,,,-- --- ---- --- ------ ----- ------- ---- -- --- ------- --<br>------- ---------- ------ In ----- -- ----- -- ---- ------<br>--- ----- --- --- ------ -------- ----- --- ------ ----- --<br>----- ----- ---------- --- --- ------ ------ ---- -- ------<br>------- --- ------ ----- --- ---- ------- -- ---- --- --<br>------- ------,112551.5,112550.70000004768,111953.696,111951.80000001192,111970.366,112553.838,,15,In
screen,html.Screen,0_2_1_1_16,2021-12-10T10:03:31.742Z,,,,,,,,,,,,,,,,54,,,,,,,,,,,,,,1237.2620000238385,,response,,,100,,,,,,Space,keypress(Space),,,,,"-- --- ---- --- ------ ----- ------- ---- -- --- ------- --<br>------- ---------- ------ -- 1727, -- ----- -- ---- ------<br>--- ----- --- --- ------ -------- ----- --- ------ ----- --<br>----- ----- ---------- --- --- ------ ------ ---- -- ------<br>------- --- ------ ----- --- ---- ------- -- ---- --- --<br>------- ------",113791.80000001192,113791.10000002384,112537.168,112551.70000004768,112553.838,113804.234,,16,"1727,"
screen,html.Screen,0_2_1_1_17,2021-12-10T10:03:32.462Z,,,,,,,,,,,,,,,,54,,,,,,,,,,,,,,706.3660000238451,,response,,,100,,,,,,Space,keypress(Space),,,,,-- --- ---- --- ------ ----- ------- ---- -- --- ------- --<br>------- ---------- ------ -- ----- in ----- -- ---- ------<br>--- ----- --- --- ------ -------- ----- --- ------ ----- --<br>----- ----- ---------- --- --- ------ ------ ---- -- ------<br>------- --- ------ ----- --- ---- ------- -- ---- --- --<br>------- ------,114511.5,114510.60000002384,113787.563,113792.20000004768,113804.234,114520.947,,17,in
screen,html.Screen,0_2_1_1_18,2021-12-10T10:03:33.278Z,,,,,,,,,,,,,,,,54,,,,,,,,,,,,,,805.6530000238417,,response,,,100,,,,,,Space,keypress(Space),,,,,-- --- ---- --- ------ ----- ------- ---- -- --- ------- --<br>------- ---------- ------ -- ----- -- order -- ---- ------<br>--- ----- --- --- ------ -------- ----- --- ------ ----- --<br>----- ----- ---------- --- --- ------ ------ ---- -- ------<br>------- --- ------ ----- --- ---- ------- -- ---- --- --<br>------- ------,115327.5,115326.60000002384,114504.277,114511.70000004768,114520.947,115337.976,,18,order
screen,html.Screen,0_2_1_1_19,2021-12-10T10:03:33.806Z,,,,,,,,,,,,,,,,54,,,,,,,,,,,,,,516.6240000238467,,response,,,100,,,,,,Space,keypress(Space),,,,,-- --- ---- --- ------ ----- ------- ---- -- --- ------- --<br>------- ---------- ------ -- ----- -- ----- to ---- ------<br>--- ----- --- --- ------ -------- ----- --- ------ ----- --<br>----- ----- ---------- --- --- ------ ------ ---- -- ------<br>------- --- ------ ----- --- ---- ------- -- ---- --- --<br>------- ------,115855.40000003576,115854.60000002384,115321.305,115327.70000004768,115337.976,115871.382,,19,to
screen,html.Screen,0_2_1_1_20,2021-12-10T10:03:34.334Z,,,,,,,,,,,,,,,,54,,,,,,,,,,,,,,511.21800002384407,,response,,,100,,,,,,Space,keypress(Space),,,,,-- --- ---- --- ------ ----- ------- ---- -- --- ------- --<br>------- ---------- ------ -- ----- -- ----- -- save ------<br>--- ----- --- --- ------ -------- ----- --- ------ ----- --<br>----- ----- ---------- --- --- ------ ------ ---- -- ------<br>------- --- ------ ----- --- ---- ------- -- ---- --- --<br>------- ------,116383.30000001192,116382.60000002384,115854.712,115855.60000002384,115871.382,116388.208,,20,save
screen,html.Screen,0_2_1_1_21,2021-12-10T10:03:34.934Z,,,,,,,,,,,,,,,,54,,,,,,,,,,,,,,594.3920000238431,,response,,,100,,,,,,Space,keypress(Space),,,,,"-- --- ---- --- ------ ----- ------- ---- -- --- ------- --<br>------- ---------- ------ -- ----- -- ----- -- ---- money,<br>--- ----- --- --- ------ -------- ----- --- ------ ----- --<br>----- ----- ---------- --- --- ------ ------ ---- -- ------<br>------- --- ------ ----- --- ---- ------- -- ---- --- --<br>------- ------",116983.40000003576,116982.60000002384,116371.538,116383.60000002384,116388.208,116988.418,,21,"money,"
screen,html.Screen,0_2_1_1_22,2021-12-10T10:03:35.582Z,,,,,,,,,,,,,,,,54,,,,,,,,,,,,,,642.0819999999949,,response,,,100,,,,,,Space,keypress(Space),,,,,-- --- ---- --- ------ ----- ------- ---- -- --- ------- --<br>------- ---------- ------ -- ----- -- ----- -- ---- ------<br>the ----- --- --- ------ -------- ----- --- ------ ----- --<br>----- ----- ---------- --- --- ------ ------ ---- -- ------<br>------- --- ------ ----- --- ---- ------- -- ---- --- --<br>------- ------,117631.30000001192,117630.5,116971.747,116983.70000004768,116988.418,117638.527,,22,the
screen,html.Screen,0_2_1_1_23,2021-12-10T10:03:36.294Z,,,,,,,,,,,,,,,,54,,,,,,,,,,,,,,703.8730000357609,,response,,,100,,,,,,Space,keypress(Space),,,,,-- --- ---- --- ------ ----- ------- ---- -- --- ------- --<br>------- ---------- ------ -- ----- -- ----- -- ---- ------<br>--- state --- --- ------ -------- ----- --- ------ ----- --<br>----- ----- ---------- --- --- ------ ------ ---- -- ------<br>------- --- ------ ----- --- ---- ------- -- ---- --- --<br>------- ------,118343.30000001192,118342.40000003576,117621.857,117631.5,117638.527,118355.349,,23,state
screen,html.Screen,0_2_1_1_24,2021-12-10T10:03:37.006Z,,,,,,,,,,,,,,,,54,,,,,,,,,,,,,,699.150999999998,,response,,,100,,,,,,Space,keypress(Space),,,,,-- --- ---- --- ------ ----- ------- ---- -- --- ------- --<br>------- ---------- ------ -- ----- -- ----- -- ---- ------<br>--- ----- cut --- ------ -------- ----- --- ------ ----- --<br>----- ----- ---------- --- --- ------ ------ ---- -- ------<br>------- --- ------ ----- --- ---- ------- -- ---- --- --<br>------- ------,119055.30000001192,119054.5,118338.679,118343.5,118355.349,119072.243,,24,cut
screen,html.Screen,0_2_1_1_25,2021-12-10T10:03:37.518Z,,,,,,,,,,,,,,,,54,,,,,,,,,,,,,,494.1570000357606,,response,,,100,,,,,,Space,keypress(Space),,,,,-- --- ---- --- ------ ----- ------- ---- -- --- ------- --<br>------- ---------- ------ -- ----- -- ----- -- ---- ------<br>--- ----- --- the ------ -------- ----- --- ------ ----- --<br>----- ----- ---------- --- --- ------ ------ ---- -- ------<br>------- --- ------ ----- --- ---- ------- -- ---- --- --<br>------- ------,119567.30000001192,119566.40000003576,119055.573,119055.5,119072.243,119572.355,,25,the
screen,html.Screen,0_2_1_1_26,2021-12-10T10:03:37.998Z,,,,,,,,,,,,,,,,54,,,,,,,,,,,,,,474.04500003576686,,response,,,100,,,,,,Space,keypress(Space),,,,,-- --- ---- --- ------ ----- ------- ---- -- --- ------- --<br>------- ---------- ------ -- ----- -- ----- -- ---- ------<br>--- ----- --- --- bonds' -------- ----- --- ------ ----- --<br>----- ----- ---------- --- --- ------ ------ ---- -- ------<br>------- --- ------ ----- --- ---- ------- -- ---- --- --<br>------- ------,120047.20000004768,120046.40000003576,119555.685,119567.5,119572.355,120072.499,,26,bonds'
screen,html.Screen,0_2_1_1_27,2021-12-10T10:03:38.449Z,,,,,,,,,,,,,,,,54,,,,,,,,,,,,,,421.90100003576663,,response,,,100,,,,,,Space,keypress(Space),,,,,-- --- ---- --- ------ ----- ------- ---- -- --- ------- --<br>------- ---------- ------ -- ----- -- ----- -- ---- ------<br>--- ----- --- --- ------ interest ----- --- ------ ----- --<br>----- ----- ---------- --- --- ------ ------ ---- -- ------<br>------- --- ------ ----- --- ---- ------- -- ---- --- --<br>------- ------,120495.20000004768,120494.40000003576,120055.829,120047.5,120072.499,120505.963,,27,interest
screen,html.Screen,0_2_1_1_28,2021-12-10T10:03:38.945Z,,,,,,,,,,,,,,,,54,,,,,,,,,,,,,,484.4370000357594,,response,,,100,,,,,,Space,keypress(Space),,,,,-- --- ---- --- ------ ----- ------- ---- -- --- ------- --<br>------- ---------- ------ -- ----- -- ----- -- ---- ------<br>--- ----- --- --- ------ -------- rate. --- ------ ----- --<br>----- ----- ---------- --- --- ------ ------ ---- -- ------<br>------- --- ------ ----- --- ---- ------- -- ---- --- --<br>------- ------,120991.20000004768,120990.40000003576,120489.293,120495.40000003576,120505.963,121006.011,,28,rate.
screen,html.Screen,0_2_1_1_29,2021-12-10T10:03:40.113Z,,,,,,,,,,,,,,,,54,,,,,,,,,,,,,,1152.2890000119223,,response,,,100,,,,,,Space,keypress(Space),,,,,-- --- ---- --- ------ ----- ------- ---- -- --- ------- --<br>------- ---------- ------ -- ----- -- ----- -- ---- ------<br>--- ----- --- --- ------ -------- ----- The ------ ----- --<br>----- ----- ---------- --- --- ------ ------ ---- -- ------<br>------- --- ------ ----- --- ---- ------- -- ---- --- --<br>------- ------,122159.10000002384,122158.30000001192,120989.342,120991.40000003576,121006.011,122173.205,,29,The
screen,html.Screen,0_2_1_1_30,2021-12-10T10:03:40.673Z,,,,,,,,,,,,,,,,54,,,,,,,,,,,,,,545.0950000119192,,response,,,100,,,,,,Space,keypress(Space),,,,,-- --- ---- --- ------ ----- ------- ---- -- --- ------- --<br>------- ---------- ------ -- ----- -- ----- -- ---- ------<br>--- ----- --- --- ------ -------- ----- --- market ----- --<br>----- ----- ---------- --- --- ------ ------ ---- -- ------<br>------- --- ------ ----- --- ---- ------- -- ---- --- --<br>------- ------,122719.10000002384,122718.30000001192,122156.533,122159.40000003576,122173.205,122723.224,,30,market
screen,html.Screen,0_2_1_1_31,2021-12-10T10:03:41.304Z,,,,,,,,,,,,,,,,54,,,,,,,,,,,,,,626.8760000238399,,response,,,100,,,,,,Space,keypress(Space),,,,,-- --- ---- --- ------ ----- ------- ---- -- --- ------- --<br>------- ---------- ------ -- ----- -- ----- -- ---- ------<br>--- ----- --- --- ------ -------- ----- --- ------ value --<br>----- ----- ---------- --- --- ------ ------ ---- -- ------<br>------- --- ------ ----- --- ---- ------- -- ---- --- --<br>------- ------,123351,123350.10000002384,122706.553,122719.5,122723.224,123356.579,,31,value
screen,html.Screen,0_2_1_1_32,2021-12-10T10:03:41.817Z,,,,,,,,,,,,,,,,54,,,,,,,,,,,,,,506.1210000476858,,response,,,100,,,,,,Space,keypress(Space),,,,,-- --- ---- --- ------ ----- ------- ---- -- --- ------- --<br>------- ---------- ------ -- ----- -- ----- -- ---- ------<br>--- ----- --- --- ------ -------- ----- --- ------ ----- of<br>----- ----- ---------- --- --- ------ ------ ---- -- ------<br>------- --- ------ ----- --- ---- ------- -- ---- --- --<br>------- ------,123863.5,123862.70000004768,123339.91,123351.30000001192,123356.579,123873.643,,32,of
screen,html.Screen,0_2_1_1_33,2021-12-10T10:03:42.320Z,,,,,,,,,,,,,,,,54,,,,,,,,,,,,,,492.45700002384547,,response,,,100,,,,,,Space,keypress(Space),,,,,-- --- ---- --- ------ ----- ------- ---- -- --- ------- --<br>------- ---------- ------ -- ----- -- ----- -- ---- ------<br>--- ----- --- --- ------ -------- ----- --- ------ ----- --<br>these ----- ---------- --- --- ------ ------ ---- -- ------<br>------- --- ------ ----- --- ---- ------- -- ---- --- --<br>------- ------,124366.90000003576,124366.10000002384,123856.97,123863.80000001192,123873.643,124373.645,,33,these
screen,html.Screen,0_2_1_1_34,2021-12-10T10:03:42.786Z,,,,,,,,,,,,,,,,54,,,,,,,,,,,,,,456.55500004767964,,response,,,100,,,,,,Space,keypress(Space),,,,,-- --- ---- --- ------ ----- ------- ---- -- --- ------- --<br>------- ---------- ------ -- ----- -- ----- -- ---- ------<br>--- ----- --- --- ------ -------- ----- --- ------ ----- --<br>----- bonds ---------- --- --- ------ ------ ---- -- ------<br>------- --- ------ ----- --- ---- ------- -- ---- --- --<br>------- ------,124832.20000004768,124830.20000004768,124356.975,124367.30000001192,124373.645,124840.448,,34,bonds
screen,html.Screen,0_2_1_1_35,2021-12-10T10:03:43.632Z,,,,,,,,,,,,,,,,54,,,,,,,,,,,,,,837.551999999996,,response,,,100,,,,,,Space,keypress(Space),,,,,"-- --- ---- --- ------ ----- ------- ---- -- --- ------- --<br>------- ---------- ------ -- ----- -- ----- -- ---- ------<br>--- ----- --- --- ------ -------- ----- --- ------ ----- --<br>----- ----- plummeted, --- --- ------ ------ ---- -- ------<br>------- --- ------ ----- --- ---- ------- -- ---- --- --<br>------- ------",125678.80000001192,125678,124823.778,124832.60000002384,124840.448,125690.706,,35,"plummeted,"
screen,html.Screen,0_2_1_1_36,2021-12-10T10:03:44.192Z,,,,,,,,,,,,,,,,54,,,,,,,,,,,,,,547.3940000238363,,response,,,100,,,,,,Space,keypress(Space),,,,,-- --- ---- --- ------ ----- ------- ---- -- --- ------- --<br>------- ---------- ------ -- ----- -- ----- -- ---- ------<br>--- ----- --- --- ------ -------- ----- --- ------ ----- --<br>----- ----- ---------- and --- ------ ------ ---- -- ------<br>------- --- ------ ----- --- ---- ------- -- ---- --- --<br>------- ------,126238.90000003576,126238.10000002384,125674.035,125679.20000004768,125690.706,126240.822,,36,and
screen,html.Screen,0_2_1_1_37,2021-12-10T10:03:44.704Z,,,,,,,,,,,,,,,,54,,,,,,,,,,,,,,509.1779999999999,,response,,,100,,,,,,Space,keypress(Space),,,,,-- --- ---- --- ------ ----- ------- ---- -- --- ------- --<br>------- ---------- ------ -- ----- -- ----- -- ---- ------<br>--- ----- --- --- ------ -------- ----- --- ------ ----- --<br>----- ----- ---------- --- the ------ ------ ---- -- ------<br>------- --- ------ ----- --- ---- ------- -- ---- --- --<br>------- ------,126750.90000003576,126750,126224.152,126239.30000001192,126240.822,126757.605,,37,the
screen,html.Screen,0_2_1_1_38,2021-12-10T10:03:45.304Z,,,,,,,,,,,,,,,,54,,,,,,,,,,,,,,592.3950000000041,,response,,,100,,,,,,Space,keypress(Space),,,,,-- --- ---- --- ------ ----- ------- ---- -- --- ------- --<br>------- ---------- ------ -- ----- -- ----- -- ---- ------<br>--- ----- --- --- ------ -------- ----- --- ------ ----- --<br>----- ----- ---------- --- --- market ------ ---- -- ------<br>------- --- ------ ----- --- ---- ------- -- ---- --- --<br>------- ------,127350.80000001192,127350,126740.935,126751.30000001192,126757.605,127357.843,,38,market
screen,html.Screen,0_2_1_1_39,2021-12-10T10:03:45.816Z,,,,,,,,,,,,,,,,54,,,,,,,,,,,,,,504.2570000238484,,response,,,100,,,,,,Space,keypress(Space),,,,,-- --- ---- --- ------ ----- ------- ---- -- --- ------- --<br>------- ---------- ------ -- ----- -- ----- -- ---- ------<br>--- ----- --- --- ------ -------- ----- --- ------ ----- --<br>----- ----- ---------- --- --- ------ became ---- -- ------<br>------- --- ------ ----- --- ---- ------- -- ---- --- --<br>------- ------,127862.90000003576,127862.10000002384,127341.172,127351.20000004768,127357.843,127874.457,,39,became
screen,html.Screen,0_2_1_1_40,2021-12-10T10:03:46.624Z,,,,,,,,,,,,,,,,54,,,,,,,,,,,,,,795.4430000357679,,response,,,100,,,,,,Space,keypress(Space),,,,,-- --- ---- --- ------ ----- ------- ---- -- --- ------- --<br>------- ---------- ------ -- ----- -- ----- -- ---- ------<br>--- ----- --- --- ------ -------- ----- --- ------ ----- --<br>----- ----- ---------- --- --- ------ ------ wary -- ------<br>------- --- ------ ----- --- ---- ------- -- ---- --- --<br>------- ------,128670.80000001192,128669.90000003576,127857.788,127863.20000004768,127874.457,128674.914,,40,wary
screen,html.Screen,0_2_1_1_41,2021-12-10T10:03:47.200Z,,,,,,,,,,,,,,,,54,,,,,,,,,,,,,,571.0859999999957,,response,,,100,,,,,,Space,keypress(Space),,,,,-- --- ---- --- ------ ----- ------- ---- -- --- ------- --<br>------- ---------- ------ -- ----- -- ----- -- ---- ------<br>--- ----- --- --- ------ -------- ----- --- ------ ----- --<br>----- ----- ---------- --- --- ------ ------ ---- of ------<br>------- --- ------ ----- --- ---- ------- -- ---- --- --<br>------- ------,129246.80000001192,129246,128658.242,128671.10000002384,128674.914,129258.215,,41,of
screen,html.Screen,0_2_1_1_42,2021-12-10T10:03:47.848Z,,,,,,,,,,,,,,,,54,,,,,,,,,,,,,,635.6850000357663,,response,,,100,,,,,,Space,keypress(Space),,,,,-- --- ---- --- ------ ----- ------- ---- -- --- ------- --<br>------- ---------- ------ -- ----- -- ----- -- ---- ------<br>--- ----- --- --- ------ -------- ----- --- ------ ----- --<br>----- ----- ---------- --- --- ------ ------ ---- -- French<br>------- --- ------ ----- --- ---- ------- -- ---- --- --<br>------- ------,129894.90000003576,129893.90000003576,129241.545,129247,129258.215,129908.537,,42,French
screen,html.Screen,0_2_1_1_43,2021-12-10T10:03:49.184Z,,,,,,,,,,,,,,,,54,,,,,,,,,,,,,,1321.2630000119243,,response,,,100,,,,,,Space,keypress(Space),,,,,-- --- ---- --- ------ ----- ------- ---- -- --- ------- --<br>------- ---------- ------ -- ----- -- ----- -- ---- ------<br>--- ----- --- --- ------ -------- ----- --- ------ ----- --<br>----- ----- ---------- --- --- ------ ------ ---- -- ------<br>credit. --- ------ ----- --- ---- ------- -- ---- --- --<br>------- ------,131230.60000002384,131229.80000001192,129891.866,129895.10000002384,129908.537,131242.093,,43,credit.
screen,html.Screen,0_2_1_1_44,2021-12-10T10:03:49.688Z,,,,,,,,,,,,,,,,54,,,,,,,,,,,,,,491.70700001192745,,response,,,100,,,,,,Space,keypress(Space),,,,,-- --- ---- --- ------ ----- ------- ---- -- --- ------- --<br>------- ---------- ------ -- ----- -- ----- -- ---- ------<br>--- ----- --- --- ------ -------- ----- --- ------ ----- --<br>----- ----- ---------- --- --- ------ ------ ---- -- ------<br>------- The ------ ----- --- ---- ------- -- ---- --- --<br>------- ------,131734.70000004768,131733.80000001192,131225.423,131230.90000003576,131242.093,131742.287,,44,The
screen,html.Screen,0_2_1_1_45,2021-12-10T10:03:50.160Z,,,,,,,,,,,,,,,,54,,,,,,,,,,,,,,463.3130000238307,,response,,,100,,,,,,Space,keypress(Space),,,,,-- --- ---- --- ------ ----- ------- ---- -- --- ------- --<br>------- ---------- ------ -- ----- -- ----- -- ---- ------<br>--- ----- --- --- ------ -------- ----- --- ------ ----- --<br>----- ----- ---------- --- --- ------ ------ ---- -- ------<br>------- --- French ----- --- ---- ------- -- ---- --- --<br>------- ------,132206.10000002384,132205.60000002384,131725.617,131734.90000003576,131742.287,132209.089,,45,French
screen,html.Screen,0_2_1_1_46,2021-12-10T10:03:50.720Z,,,,,,,,,,,,,,,,54,,,,,,,,,,,,,,556.7110000119137,,response,,,100,,,,,,Space,keypress(Space),,,,,-- --- ---- --- ------ ----- ------- ---- -- --- ------- --<br>------- ---------- ------ -- ----- -- ----- -- ---- ------<br>--- ----- --- --- ------ -------- ----- --- ------ ----- --<br>----- ----- ---------- --- --- ------ ------ ---- -- ------<br>------- --- ------ state --- ---- ------- -- ---- --- --<br>------- ------,132766.70000004768,132765.80000001192,132192.419,132206.30000001192,132209.089,132775.898,,46,state
screen,html.Screen,0_2_1_1_47,2021-12-10T10:03:51.232Z,,,,,,,,,,,,,,,,54,,,,,,,,,,,,,,501.90200001193443,,response,,,100,,,,,,Space,keypress(Space),,,,,-- --- ---- --- ------ ----- ------- ---- -- --- ------- --<br>------- ---------- ------ -- ----- -- ----- -- ---- ------<br>--- ----- --- --- ------ -------- ----- --- ------ ----- --<br>----- ----- ---------- --- --- ------ ------ ---- -- ------<br>------- --- ------ ----- was ---- ------- -- ---- --- --<br>------- ------,133278.5,133277.80000001192,132759.228,132767,132775.898,133292.664,,47,was
screen,html.Screen,0_2_1_1_48,2021-12-10T10:03:51.640Z,,,,,,,,,,,,,,,,54,,,,,,,,,,,,,,393.03600004769396,,response,,,100,,,,,,Space,keypress(Space),,,,,-- --- ---- --- ------ ----- ------- ---- -- --- ------- --<br>------- ---------- ------ -- ----- -- ----- -- ---- ------<br>--- ----- --- --- ------ -------- ----- --- ------ ----- --<br>----- ----- ---------- --- --- ------ ------ ---- -- ------<br>------- --- ------ ----- --- left ------- -- ---- --- --<br>------- ------,133686.70000004768,133685.70000004768,133275.994,133278.80000001192,133292.664,133692.852,,48,left
screen,html.Screen,0_2_1_1_49,2021-12-10T10:03:52.136Z,,,,,,,,,,,,,,,,54,,,,,,,,,,,,,,489.3480000476702,,response,,,100,,,,,,Space,keypress(Space),,,,,-- --- ---- --- ------ ----- ------- ---- -- --- ------- --<br>------- ---------- ------ -- ----- -- ----- -- ---- ------<br>--- ----- --- --- ------ -------- ----- --- ------ ----- --<br>----- ----- ---------- --- --- ------ ------ ---- -- ------<br>------- --- ------ ----- --- ---- without -- ---- --- --<br>------- ------,134183,134182.20000004768,133676.181,133687,133692.852,134192.852,,49,without
screen,html.Screen,0_2_1_1_50,2021-12-10T10:03:52.568Z,,,,,,,,,,,,,,,,54,,,,,,,,,,,,,,420.8480000476702,,response,,,100,,,,,,Space,keypress(Space),,,,,-- --- ---- --- ------ ----- ------- ---- -- --- ------- --<br>------- ---------- ------ -- ----- -- ----- -- ---- ------<br>--- ----- --- --- ------ -------- ----- --- ------ ----- --<br>----- ----- ---------- --- --- ------ ------ ---- -- ------<br>------- --- ------ ----- --- ---- ------- an ---- --- --<br>------- ------,134614.60000002384,134613.70000004768,134176.183,134183.20000004768,134192.852,134626.476,,50,an
screen,html.Screen,0_2_1_1_51,2021-12-10T10:03:52.944Z,,,,,,,,,,,,,,,,54,,,,,,,,,,,,,,363.2240000476886,,response,,,100,,,,,,Space,keypress(Space),,,,,-- --- ---- --- ------ ----- ------- ---- -- --- ------- --<br>------- ---------- ------ -- ----- -- ----- -- ---- ------<br>--- ----- --- --- ------ -------- ----- --- ------ ----- --<br>----- ----- ---------- --- --- ------ ------ ---- -- ------<br>------- --- ------ ----- --- ---- ------- -- easy --- --<br>------- ------,134990.60000002384,134989.70000004768,134609.804,134614.80000001192,134626.476,134993.15,,51,easy
screen,html.Screen,0_2_1_1_52,2021-12-10T10:03:53.328Z,,,,,,,,,,,,,,,,54,,,,,,,,,,,,,,380.55000004768954,,response,,,100,,,,,,Space,keypress(Space),,,,,-- --- ---- --- ------ ----- ------- ---- -- --- ------- --<br>------- ---------- ------ -- ----- -- ----- -- ---- ------<br>--- ----- --- --- ------ -------- ----- --- ------ ----- --<br>----- ----- ---------- --- --- ------ ------ ---- -- ------<br>------- --- ------ ----- --- ---- ------- -- ---- way --<br>------- ------,135374.40000003576,135373.70000004768,134976.48,134990.90000003576,134993.15,135376.633,,52,way
screen,html.Screen,0_2_1_1_53,2021-12-10T10:03:53.776Z,,,,,,,,,,,,,,,,54,,,,,,,,,,,,,,445.0670000476821,,response,,,100,,,,,,Space,keypress(Space),,,,,-- --- ---- --- ------ ----- ------- ---- -- --- ------- --<br>------- ---------- ------ -- ----- -- ----- -- ---- ------<br>--- ----- --- --- ------ -------- ----- --- ------ ----- --<br>----- ----- ---------- --- --- ------ ------ ---- -- ------<br>------- --- ------ ----- --- ---- ------- -- ---- --- of<br>------- ------,135822.60000002384,135821.70000004768,135359.962,135374.70000004768,135376.633,135826.695,,53,of
screen,html.Screen,0_2_1_1_54,2021-12-10T10:03:54.168Z,,,,,,,,,,,,,,,,54,,,,,,,,,,,,,,386.9050000238349,,response,,,100,,,,,,Space,keypress(Space),,,,,-- --- ---- --- ------ ----- ------- ---- -- --- ------- --<br>------- ---------- ------ -- ----- -- ----- -- ---- ------<br>--- ----- --- --- ------ -------- ----- --- ------ ----- --<br>----- ----- ---------- --- --- ------ ------ ---- -- ------<br>------- --- ------ ----- --- ---- ------- -- ---- --- --<br>raising ------,136214.5,136213.60000002384,135810.025,135822.90000003576,135826.695,136226.855,,54,raising
screen,html.Screen,0_2_1_1_55,2021-12-10T10:03:54.664Z,,,,,,,,,,,,,,,,54,,,,,,,,,,,,,,482.7450000238314,,response,,,100,,,,,,Space,keypress(Space),,,,,-- --- ---- --- ------ ----- ------- ---- -- --- ------- --<br>------- ---------- ------ -- ----- -- ----- -- ---- ------<br>--- ----- --- --- ------ -------- ----- --- ------ ----- --<br>----- ----- ---------- --- --- ------ ------ ---- -- ------<br>------- --- ------ ----- --- ---- ------- -- ---- --- --<br>------- money.,136710.5,136709.60000002384,136210.184,136214.70000004768,136226.855,136726.939,,55,money.
Item 100,flow.Loop,0_2_1_1,2021-12-10T10:03:54.664Z,,,,,,,,,,,,,,,,,,,,,,,,,,,,,,34908.76300002384,,completion,,,,B,,,,,,,,,,silence,,136711,136709.60000002384,101784.167,101786,101800.837,136726.939,,,
Question 1,html.Screen,0_2_1_2,2021-12-10T10:03:59.952Z,,,,,,,,,,,,,,,,,,,,,,,,,,,true,TRUE,,5270.261000047671,,response,,,100,B,,,,,TRUE,click #choice-1,,,,silence,,141998.60000002384,141997.20000004768,136710.269,136711.20000004768,136726.939,142011.64,,,
Question 2,html.Screen,0_2_1_3,2021-12-10T10:04:03.328Z,,,,,,,,,,,,,,,,,,,,,,,,,,,true,FALSE,,3362.160000011907,,response,,,100,B,,,,,FALSE,click #choice-2,,,,silence,,145374.90000003576,145373.80000001192,141994.97,141998.80000001192,142011.64,145378.212,,,
Item 100,flow.Sequence,0_2_1,2021-12-10T10:04:03.329Z,,,,,,,,,,,,,,,,,,,,,,,,,,,,,,53575.02900001193,,completion,,,,,,,,,,,,,,,,145375.30000001192,145373.80000001192,91782.083,91786.30000001192,91798.771,145378.212,,,
End of Practice,html.Page,0_2_2,2021-12-10T10:04:08.176Z,,,,,,,,,,,,,,,,,,,,,,,,,,,,,,4843.688000035763,,form submission,,,,,,,,,,,,,,,,150222.30000001192,150221.90000003576,145361.582,145375.40000003576,145378.212,150231.046,,,
Practice,flow.Sequence,0_2,2021-12-10T10:04:08.176Z,,,,,,,,,,,,,,,,,,,,,,,,,,,,,,112404.54200003576,,completion,,,,,,,,,,,,,,,,150222.60000002384,150221.90000003576,37800.687,37812.30000001192,37817.358,150231.046,,,
Trap_instruction,html.Page,0_3_0,2021-12-10T10:04:13.728Z,,,,,,,,,,,,,,,,,,,,,,,,,,,,,,5542.953999999998,,form submission,,,,,,,,,,,,,,,,155774.5,155774,150214.361,150223,150231.046,155814.374,,,
trap_trial,html.Screen,0_3_1,2021-12-10T10:04:16.479Z,,,,,,,,,,,,,,,,,,,,,,,,,,,true,1,,2710.026000035752,,response,,,,,,,,,1,click #choice-1,,,,,,158525.60000002384,158524.40000003576,155781.038,155774.80000001192,155814.374,158532.703,,,
end of trap trial,html.Page,0_3_2,2021-12-10T10:04:19.608Z,,,,,,,,,,,,,,,,,,,,,,,,,,,,,,3120.997000047675,,form submission,,,,,,,,,,,,,,,,161654.10000002384,161653.70000004768,158516.032,158526,158532.703,161666.677,,,
Trap 1,flow.Sequence,0_3,2021-12-10T10:04:19.608Z,,,,,,,,,,,,,,,,,,,,,,,,,,,,,,11422.654000047682,,completion,,,,,,,,,,,,,,,,161654.5,161653.70000004768,150214.361,150222.90000003576,150231.046,161666.677,,,
Standby,html.Page,0_4_0,2021-12-10T10:04:27.607Z,,,,,,,,,,,,,,,,,,,,,,,,,,,,,,8001.796000000002,,timeout,,,,,,,,,,,,,,,,169653.30000001192,169651.803,161650.007,161654.80000001192,161666.677,169668.473,,,
Holding screen,html.Screen,0_4_1_0_0,2021-12-10T10:04:34.609Z,,,,,,,,,,,,,,,,,,,,,,,,,,,,,,7002.448000000004,,timeout,,,,,,,,,,,,,,,,176656,176654.25,169651.803,169653.70000004768,169668.473,176670.921,,,
screen,html.Screen,0_4_1_0_1_0,2021-12-10T10:04:35.919Z,,,,,,,,,,,,,,,,15,,,,,,,,,,,,,,1293.2790000476816,,response,,,7,B,,,,,Space,keypress(Space),,,,lyrical,Greg --------- ---------- - --- ------- -- --- ------------<br>----- -- -------- ------- ---- ------ - -------- ---- -----<br>--- ------- ---- -- --- -------- --- - ----- ------ ---- --<br>-------- --- -------- -------- --- -------- ---- -- ----- -<br>-------- ---- --- ---------- --------- -- ------- ------ -<br>--------- ----- -----,177965.20000004768,177964.20000004768,176654.25,176656.30000001192,176670.921,177971.163,,0,Greg
screen,html.Screen,0_4_1_0_1_1,2021-12-10T10:04:36.550Z,,,,,,,,,,,,,,,,15,,,,,,,,,,,,,,624.5370000476833,,response,,,7,B,,,,,Space,keypress(Space),,,,lyrical,"---- Anderson, ---------- - --- ------- -- --- ------------<br>----- -- -------- ------- ---- ------ - -------- ---- -----<br>--- ------- ---- -- --- -------- --- - ----- ------ ---- --<br>-------- --- -------- -------- --- -------- ---- -- ----- -<br>-------- ---- --- ---------- --------- -- ------- ------ -<br>--------- ----- -----",178596.60000002384,178595.70000004768,177954.493,177965.5,177971.163,178604.729,,1,"Anderson,"
screen,html.Screen,0_4_1_0_1_2,2021-12-10T10:04:37.174Z,,,,,,,,,,,,,,,,15,,,,,,,,,,,,,,614.8710000238498,,response,,,7,B,,,,,Space,keypress(Space),,,,lyrical,---- --------- considered - --- ------- -- --- ------------<br>----- -- -------- ------- ---- ------ - -------- ---- -----<br>--- ------- ---- -- --- -------- --- - ----- ------ ---- --<br>-------- --- -------- -------- --- -------- ---- -- ----- -<br>-------- ---- --- ---------- --------- -- ------- ------ -<br>--------- ----- -----,179220.40000003576,179219.60000002384,178588.059,178596.90000003576,178604.729,179221.531,,2,considered
screen,html.Screen,0_4_1_0_1_3,2021-12-10T10:04:37.726Z,,,,,,,,,,,,,,,,15,,,,,,,,,,,,,,550.0690000238537,,response,,,7,B,,,,,Space,keypress(Space),,,,lyrical,---- --------- ---------- a --- ------- -- --- ------------<br>----- -- -------- ------- ---- ------ - -------- ---- -----<br>--- ------- ---- -- --- -------- --- - ----- ------ ---- --<br>-------- --- -------- -------- --- -------- ---- -- ----- -<br>-------- ---- --- ---------- --------- -- ------- ------ -<br>--------- ----- -----,179772.5,179771.60000002384,179204.861,179220.70000004768,179221.531,179788.44,,3,a
screen,html.Screen,0_4_1_0_1_4,2021-12-10T10:04:38.364Z,,,,,,,,,,,,,,,,15,,,,,,,,,,,,,,623.0599999999977,,response,,,7,B,,,,,Space,keypress(Space),,,,lyrical,---- --------- ---------- - key ------- -- --- ------------<br>----- -- -------- ------- ---- ------ - -------- ---- -----<br>--- ------- ---- -- --- -------- --- - ----- ------ ---- --<br>-------- --- -------- -------- --- -------- ---- -- ----- -<br>-------- ---- --- ---------- --------- -- ------- ------ -<br>--------- ----- -----,180412.5,180411.5,179771.769,179772.80000001192,179788.44,180421.757,,4,key
screen,html.Screen,0_4_1_0_1_5,2021-12-10T10:04:38.956Z,,,,,,,,,,,,,,,,15,,,,,,,,,,,,,,581.7429999999877,,response,,,7,B,,,,,Space,keypress(Space),,,,lyrical,---- --------- ---------- - --- witness -- --- ------------<br>----- -- -------- ------- ---- ------ - -------- ---- -----<br>--- ------- ---- -- --- -------- --- - ----- ------ ---- --<br>-------- --- -------- -------- --- -------- ---- -- ----- -<br>-------- ---- --- ---------- --------- -- ------- ------ -<br>--------- ----- -----,181004.40000003576,181003.5,180405.088,180412.80000001192,180421.757,181022.17,,5,witness
screen,html.Screen,0_4_1_0_1_6,2021-12-10T10:04:39.500Z,,,,,,,,,,,,,,,,15,,,,,,,,,,,,,,525.23000003575,,response,,,7,B,,,,,Space,keypress(Space),,,,lyrical,---- --------- ---------- - --- ------- by --- ------------<br>----- -- -------- ------- ---- ------ - -------- ---- -----<br>--- ------- ---- -- --- -------- --- - ----- ------ ---- --<br>-------- --- -------- -------- --- -------- ---- -- ----- -<br>-------- ---- --- ---------- --------- -- ------- ------ -<br>--------- ----- -----,181548.30000001192,181547.40000003576,181005.498,181004.70000004768,181022.17,181555.419,,6,by
screen,html.Screen,0_4_1_0_1_7,2021-12-10T10:04:39.924Z,,,,,,,,,,,,,,,,15,,,,,,,,,,,,,,416.0810000000056,,response,,,7,B,,,,,Space,keypress(Space),,,,lyrical,---- --------- ---------- - --- ------- -- the ------------<br>----- -- -------- ------- ---- ------ - -------- ---- -----<br>--- ------- ---- -- --- -------- --- - ----- ------ ---- --<br>-------- --- -------- -------- --- -------- ---- -- ----- -<br>-------- ---- --- ---------- --------- -- ------- ------ -<br>--------- ----- -----,181972.40000003576,181971.5,181538.75,181548.5,181555.419,181989.009,,7,the
screen,html.Screen,0_4_1_0_1_8,2021-12-10T10:04:40.532Z,,,,,,,,,,,,,,,,15,,,,,,,,,,,,,,590.3910000357719,,response,,,7,B,,,,,Space,keypress(Space),,,,lyrical,"---- --------- ---------- - --- ------- -- --- prosecution,<br>----- -- -------- ------- ---- ------ - -------- ---- -----<br>--- ------- ---- -- --- -------- --- - ----- ------ ---- --<br>-------- --- -------- -------- --- -------- ---- -- ----- -<br>-------- ---- --- ---------- --------- -- ------- ------ -<br>--------- ----- -----",182580.30000001192,182579.40000003576,181972.338,181972.5,181989.009,182589.182,,8,"prosecution,"
screen,html.Screen,0_4_1_0_1_9,2021-12-10T10:04:41.348Z,,,,,,,,,,,,,,,,15,,,,,,,,,,,,,,806.2180000357621,,response,,,7,B,,,,,Space,keypress(Space),,,,lyrical,---- --------- ---------- - --- ------- -- --- ------------<br>vowed -- -------- ------- ---- ------ - -------- ---- -----<br>--- ------- ---- -- --- -------- --- - ----- ------ ---- --<br>-------- --- -------- -------- --- -------- ---- -- ----- -<br>-------- ---- --- ---------- --------- -- ------- ------ -<br>--------- ----- -----,183396.20000004768,183395.40000003576,182572.511,182580.5,182589.182,183405.753,,9,vowed
screen,html.Screen,0_4_1_0_1_10,2021-12-10T10:04:42.044Z,,,,,,,,,,,,,,,,15,,,,,,,,,,,,,,685.6470000357658,,response,,,7,B,,,,,Space,keypress(Space),,,,lyrical,---- --------- ---------- - --- ------- -- --- ------------<br>----- he -------- ------- ---- ------ - -------- ---- -----<br>--- ------- ---- -- --- -------- --- - ----- ------ ---- --<br>-------- --- -------- -------- --- -------- ---- -- ----- -<br>-------- ---- --- ---------- --------- -- ------- ------ -<br>--------- ----- -----,184092.20000004768,184091.40000003576,183389.085,183396.5,183405.753,184106.285,,10,he
screen,html.Screen,0_4_1_0_1_11,2021-12-10T10:04:42.572Z,,,,,,,,,,,,,,,,15,,,,,,,,,,,,,,513.1150000357593,,response,,,7,B,,,,,Space,keypress(Space),,,,lyrical,---- --------- ---------- - --- ------- -- --- ------------<br>----- -- wouldn't ------- ---- ------ - -------- ---- -----<br>--- ------- ---- -- --- -------- --- - ----- ------ ---- --<br>-------- --- -------- -------- --- -------- ---- -- ----- -<br>-------- ---- --- ---------- --------- -- ------- ------ -<br>--------- ----- -----,184620.20000004768,184619.40000003576,184089.613,184092.40000003576,184106.285,184622.883,,11,wouldn't
screen,html.Screen,0_4_1_0_1_12,2021-12-10T10:04:43.092Z,,,,,,,,,,,,,,,,15,,,,,,,,,,,,,,516.4170000119193,,response,,,7,B,,,,,Space,keypress(Space),,,,lyrical,---- --------- ---------- - --- ------- -- --- ------------<br>----- -- -------- testify ---- ------ - -------- ---- -----<br>--- ------- ---- -- --- -------- --- - ----- ------ ---- --<br>-------- --- -------- -------- --- -------- ---- -- ----- -<br>-------- ---- --- ---------- --------- -- ------- ------ -<br>--------- ----- -----,185140.20000004768,185139.30000001192,184606.214,184620.5,184622.883,185156.586,,12,testify
screen,html.Screen,0_4_1_0_1_13,2021-12-10T10:04:43.556Z,,,,,,,,,,,,,,,,15,,,,,,,,,,,,,,446.81400003575254,,response,,,7,B,,,,,Space,keypress(Space),,,,lyrical,---- --------- ---------- - --- ------- -- --- ------------<br>----- -- -------- ------- when ------ - -------- ---- -----<br>--- ------- ---- -- --- -------- --- - ----- ------ ---- --<br>-------- --- -------- -------- --- -------- ---- -- ----- -<br>-------- ---- --- ---------- --------- -- ------- ------ -<br>--------- ----- -----,185604.10000002384,185603.40000003576,185139.914,185140.40000003576,185156.586,185606.495,,13,when
screen,html.Screen,0_4_1_0_1_14,2021-12-10T10:04:44.004Z,,,,,,,,,,,,,,,,15,,,,,,,,,,,,,,444.7050000476884,,response,,,7,B,,,,,Space,keypress(Space),,,,lyrical,---- --------- ---------- - --- ------- -- --- ------------<br>----- -- -------- ------- ---- served - -------- ---- -----<br>--- ------- ---- -- --- -------- --- - ----- ------ ---- --<br>-------- --- -------- -------- --- -------- ---- -- ----- -<br>-------- ---- --- ---------- --------- -- ------- ------ -<br>--------- ----- -----,186052.30000001192,186051.20000004768,185589.826,185604.30000001192,185606.495,186073.496,,14,served
screen,html.Screen,0_4_1_0_1_15,2021-12-10T10:04:44.444Z,,,,,,,,,,,,,,,,15,,,,,,,,,,,,,,417.8040000119072,,response,,,7,B,,,,,Space,keypress(Space),,,,lyrical,---- --------- ---------- - --- ------- -- --- ------------<br>----- -- -------- ------- ---- ------ a -------- ---- -----<br>--- ------- ---- -- --- -------- --- - ----- ------ ---- --<br>-------- --- -------- -------- --- -------- ---- -- ----- -<br>-------- ---- --- ---------- --------- -- ------- ------ -<br>--------- ----- -----,186492.10000002384,186491.30000001192,186056.824,186052.60000002384,186073.496,186506.73,,15,a
screen,html.Screen,0_4_1_0_1_16,2021-12-10T10:04:45.988Z,,,,,,,,,,,,,,,,15,,,,,,,,,,,,,,1528.7699999999895,,response,,,7,B,,,,,Space,keypress(Space),,,,lyrical,---- --------- ---------- - --- ------- -- --- ------------<br>----- -- -------- ------- ---- ------ - subpoena ---- -----<br>--- ------- ---- -- --- -------- --- - ----- ------ ---- --<br>-------- --- -------- -------- --- -------- ---- -- ----- -<br>-------- ---- --- ---------- --------- -- ------- ------ -<br>--------- ----- -----,188036.40000003576,188035.5,186490.061,186492.40000003576,186506.73,188040.45,,16,subpoena
screen,html.Screen,0_4_1_0_1_17,2021-12-10T10:04:47.219Z,,,,,,,,,,,,,,,,15,,,,,,,,,,,,,,1226.5499999999884,,response,,,7,B,,,,,Space,keypress(Space),,,,lyrical,---- --------- ---------- - --- ------- -- --- ------------<br>----- -- -------- ------- ---- ------ - -------- last -----<br>--- ------- ---- -- --- -------- --- - ----- ------ ---- --<br>-------- --- -------- -------- --- -------- ---- -- ----- -<br>-------- ---- --- ---------- --------- -- ------- ------ -<br>--------- ----- -----,189267.90000003576,189267,188023.78,188036.70000004768,188040.45,189274.418,,17,last
screen,html.Screen,0_4_1_0_1_18,2021-12-10T10:04:47.772Z,,,,,,,,,,,,,,,,15,,,,,,,,,,,,,,544.7820000476786,,response,,,7,B,,,,,Space,keypress(Space),,,,lyrical,---- --------- ---------- - --- ------- -- --- ------------<br>----- -- -------- ------- ---- ------ - -------- ---- week.<br>--- ------- ---- -- --- -------- --- - ----- ------ ---- --<br>-------- --- -------- -------- --- -------- ---- -- ----- -<br>-------- ---- --- ---------- --------- -- ------- ------ -<br>--------- ----- -----,189820.20000004768,189819.20000004768,189257.745,189268.30000001192,189274.418,189824.294,,18,week.
screen,html.Screen,0_4_1_0_1_19,2021-12-10T10:04:48.372Z,,,,,,,,,,,,,,,,15,,,,,,,,,,,,,,594.7060000000056,,response,,,7,B,,,,,Space,keypress(Space),,,,lyrical,---- --------- ---------- - --- ------- -- --- ------------<br>----- -- -------- ------- ---- ------ - -------- ---- -----<br>His ------- ---- -- --- -------- --- - ----- ------ ---- --<br>-------- --- -------- -------- --- -------- ---- -- ----- -<br>-------- ---- --- ---------- --------- -- ------- ------ -<br>--------- ----- -----,190420.10000002384,190419,189807.624,189820.5,189824.294,190441.288,,19,His
screen,html.Screen,0_4_1_0_1_20,2021-12-10T10:04:49.028Z,,,,,,,,,,,,,,,,15,,,,,,,,,,,,,,634.1120000357623,,response,,,7,B,,,,,Space,keypress(Space),,,,lyrical,---- --------- ---------- - --- ------- -- --- ------------<br>----- -- -------- ------- ---- ------ - -------- ---- -----<br>--- lawyers ---- -- --- -------- --- - ----- ------ ---- --<br>-------- --- -------- -------- --- -------- ---- -- ----- -<br>-------- ---- --- ---------- --------- -- ------- ------ -<br>--------- ----- -----,191076.20000004768,191075.40000003576,190424.617,190420.5,190441.288,191091.371,,20,lawyers
screen,html.Screen,0_4_1_0_1_21,2021-12-10T10:04:49.723Z,,,,,,,,,,,,,,,,15,,,,,,,,,,,,,,679.6289999999863,,response,,,7,B,,,,,Space,keypress(Space),,,,lyrical,---- --------- ---------- - --- ------- -- --- ------------<br>----- -- -------- ------- ---- ------ - -------- ---- -----<br>--- ------- said -- --- -------- --- - ----- ------ ---- --<br>-------- --- -------- -------- --- -------- ---- -- ----- -<br>-------- ---- --- ---------- --------- -- ------- ------ -<br>--------- ----- -----,191772.10000002384,191771,191074.701,191076.60000002384,191091.371,191791.563,,21,said
screen,html.Screen,0_4_1_0_1_22,2021-12-10T10:04:50.435Z,,,,,,,,,,,,,,,,15,,,,,,,,,,,,,,691.4370000000054,,response,,,7,B,,,,,Space,keypress(Space),,,,lyrical,---- --------- ---------- - --- ------- -- --- ------------<br>----- -- -------- ------- ---- ------ - -------- ---- -----<br>--- ------- ---- he --- -------- --- - ----- ------ ---- --<br>-------- --- -------- -------- --- -------- ---- -- ----- -<br>-------- ---- --- ---------- --------- -- ------- ------ -<br>--------- ----- -----,192483.90000003576,192483,191774.893,191772.5,191791.563,192491.752,,22,he
screen,html.Screen,0_4_1_0_1_23,2021-12-10T10:04:50.963Z,,,,,,,,,,,,,,,,15,,,,,,,,,,,,,,519.2479999999923,,response,,,7,B,,,,,Space,keypress(Space),,,,lyrical,---- --------- ---------- - --- ------- -- --- ------------<br>----- -- -------- ------- ---- ------ - -------- ---- -----<br>--- ------- ---- -- was -------- --- - ----- ------ ---- --<br>-------- --- -------- -------- --- -------- ---- -- ----- -<br>-------- ---- --- ---------- --------- -- ------- ------ -<br>--------- ----- -----,193011.90000003576,193011,192475.082,192484.20000004768,192491.752,193025.201,,23,was
screen,html.Screen,0_4_1_0_1_24,2021-12-10T10:04:51.539Z,,,,,,,,,,,,,,,,15,,,,,,,,,,,,,,561.6990000357619,,response,,,7,B,,,,,Space,keypress(Space),,,,lyrical,---- --------- ---------- - --- ------- -- --- ------------<br>----- -- -------- ------- ---- ------ - -------- ---- -----<br>--- ------- ---- -- --- prepared --- - ----- ------ ---- --<br>-------- --- -------- -------- --- -------- ---- -- ----- -<br>-------- ---- --- ---------- --------- -- ------- ------ -<br>--------- ----- -----,193587.70000004768,193586.90000003576,193008.531,193012.20000004768,193025.201,193608.614,,24,prepared
screen,html.Screen,0_4_1_0_1_25,2021-12-10T10:04:51.955Z,,,,,,,,,,,,,,,,15,,,,,,,,,,,,,,394.3859999999986,,response,,,7,B,,,,,Space,keypress(Space),,,,lyrical,---- --------- ---------- - --- ------- -- --- ------------<br>----- -- -------- ------- ---- ------ - -------- ---- -----<br>--- ------- ---- -- --- -------- for - ----- ------ ---- --<br>-------- --- -------- -------- --- -------- ---- -- ----- -<br>-------- ---- --- ---------- --------- -- ------- ------ -<br>--------- ----- -----,194003.80000001192,194003,193591.945,193588,193608.614,194008.949,,25,for
screen,html.Screen,0_4_1_0_1_26,2021-12-10T10:04:52.291Z,,,,,,,,,,,,,,,,15,,,,,,,,,,,,,,329.95100003576954,,response,,,7,B,,,,,Space,keypress(Space),,,,lyrical,---- --------- ---------- - --- ------- -- --- ------------<br>----- -- -------- ------- ---- ------ - -------- ---- -----<br>--- ------- ---- -- --- -------- --- a ----- ------ ---- --<br>-------- --- -------- -------- --- -------- ---- -- ----- -<br>-------- ---- --- ---------- --------- -- ------- ------ -<br>--------- ----- -----,194339.80000001192,194338.90000003576,193992.277,194004,194008.949,194342.177,,26,a
screen,html.Screen,0_4_1_0_1_27,2021-12-10T10:04:52.699Z,,,,,,,,,,,,,,,,15,,,,,,,,,,,,,,404.72300003576674,,response,,,7,B,,,,,Space,keypress(Space),,,,lyrical,---- --------- ---------- - --- ------- -- --- ------------<br>----- -- -------- ------- ---- ------ - -------- ---- -----<br>--- ------- ---- -- --- -------- --- - third ------ ---- --<br>-------- --- -------- -------- --- -------- ---- -- ----- -<br>-------- ---- --- ---------- --------- -- ------- ------ -<br>--------- ----- -----,194747.80000001192,194746.90000003576,194325.508,194340.10000002384,194342.177,194759.129,,27,third
screen,html.Screen,0_4_1_0_1_28,2021-12-10T10:04:53.147Z,,,,,,,,,,,,,,,,15,,,,,,,,,,,,,,435.67100001193467,,response,,,7,B,,,,,Space,keypress(Space),,,,lyrical,---- --------- ---------- - --- ------- -- --- ------------<br>----- -- -------- ------- ---- ------ - -------- ---- -----<br>--- ------- ---- -- --- -------- --- - ----- prison ---- --<br>-------- --- -------- -------- --- -------- ---- -- ----- -<br>-------- ---- --- ---------- --------- -- ------- ------ -<br>--------- ----- -----,195195.70000004768,195194.80000001192,194742.457,194748,194759.129,195209.127,,28,prison
screen,html.Screen,0_4_1_0_1_29,2021-12-10T10:04:53.523Z,,,,,,,,,,,,,,,,15,,,,,,,,,,,,,,361.7730000357551,,response,,,7,B,,,,,Space,keypress(Space),,,,lyrical,---- --------- ---------- - --- ------- -- --- ------------<br>----- -- -------- ------- ---- ------ - -------- ---- -----<br>--- ------- ---- -- --- -------- --- - ----- ------ stay --<br>-------- --- -------- -------- --- -------- ---- -- ----- -<br>-------- ---- --- ---------- --------- -- ------- ------ -<br>--------- ----- -----,195571.80000001192,195570.90000003576,195192.457,195196,195209.127,195575.836,,29,stay
screen,html.Screen,0_4_1_0_1_30,2021-12-10T10:04:54.355Z,,,,,,,,,,,,,,,,15,,,,,,,,,,,,,,826.9640000119107,,response,,,7,B,,,,,Space,keypress(Space),,,,lyrical,---- --------- ---------- - --- ------- -- --- ------------<br>----- -- -------- ------- ---- ------ - -------- ---- -----<br>--- ------- ---- -- --- -------- --- - ----- ------ ---- to<br>-------- --- -------- -------- --- -------- ---- -- ----- -<br>-------- ---- --- ---------- --------- -- ------- ------ -<br>--------- ----- -----,196403.70000004768,196402.80000001192,195559.167,195572.10000002384,195575.836,196409.586,,30,to
screen,html.Screen,0_4_1_0_1_31,2021-12-10T10:04:55.131Z,,,,,,,,,,,,,,,,15,,,,,,,,,,,,,,769.3140000357525,,response,,,7,B,,,,,Space,keypress(Space),,,,lyrical,---- --------- ---------- - --- ------- -- --- ------------<br>----- -- -------- ------- ---- ------ - -------- ---- -----<br>--- ------- ---- -- --- -------- --- - ----- ------ ---- --<br>maintain --- -------- -------- --- -------- ---- -- ----- -<br>-------- ---- --- ---------- --------- -- ------- ------ -<br>--------- ----- -----,197179.60000002384,197178.90000003576,196392.914,196403.90000003576,196409.586,197192.996,,31,maintain
screen,html.Screen,0_4_1_0_1_32,2021-12-10T10:04:55.851Z,,,,,,,,,,,,,,,,15,,,,,,,,,,,,,,705.8040000119072,,response,,,7,B,,,,,Space,keypress(Space),,,,lyrical,---- --------- ---------- - --- ------- -- --- ------------<br>----- -- -------- ------- ---- ------ - -------- ---- -----<br>--- ------- ---- -- --- -------- --- - ----- ------ ---- --<br>-------- his -------- -------- --- -------- ---- -- ----- -<br>-------- ---- --- ---------- --------- -- ------- ------ -<br>--------- ----- -----,197899.60000002384,197898.80000001192,197176.326,197179.80000001192,197192.996,197909.858,,32,his
screen,html.Screen,0_4_1_0_1_33,2021-12-10T10:04:57.099Z,,,,,,,,,,,,,,,,15,,,,,,,,,,,,,,1237.3420000476763,,response,,,7,B,,,,,Space,keypress(Space),,,,lyrical,---- --------- ---------- - --- ------- -- --- ------------<br>----- -- -------- ------- ---- ------ - -------- ---- -----<br>--- ------- ---- -- --- -------- --- - ----- ------ ---- --<br>-------- --- silence. -------- --- -------- ---- -- ----- -<br>-------- ---- --- ---------- --------- -- ------- ------ -<br>--------- ----- -----,199148,199147.20000004768,197893.188,197899.80000001192,197909.858,199160.152,,33,silence.
screen,html.Screen,0_4_1_0_1_34,2021-12-10T10:04:57.771Z,,,,,,,,,,,,,,,,15,,,,,,,,,,,,,,658.5480000476819,,response,,,7,B,,,,,Space,keypress(Space),,,,lyrical,---- --------- ---------- - --- ------- -- --- ------------<br>----- -- -------- ------- ---- ------ - -------- ---- -----<br>--- ------- ---- -- --- -------- --- - ----- ------ ---- --<br>-------- --- -------- Anderson --- -------- ---- -- ----- -<br>-------- ---- --- ---------- --------- -- ------- ------ -<br>--------- ----- -----,199819.5,199818.70000004768,199143.482,199148.30000001192,199160.152,199843.672,,34,Anderson
screen,html.Screen,0_4_1_0_1_35,2021-12-10T10:04:58.235Z,,,,,,,,,,,,,,,,15,,,,,,,,,,,,,,438.9280000238505,,response,,,7,B,,,,,Space,keypress(Space),,,,lyrical,---- --------- ---------- - --- ------- -- --- ------------<br>----- -- -------- ------- ---- ------ - -------- ---- -----<br>--- ------- ---- -- --- -------- --- - ----- ------ ---- --<br>-------- --- -------- -------- was -------- ---- -- ----- -<br>-------- ---- --- ---------- --------- -- ------- ------ -<br>--------- ----- -----,200283.30000001192,200282.60000002384,199827.002,199819.70000004768,199843.672,200293.772,,35,was
screen,html.Screen,0_4_1_0_1_36,2021-12-10T10:04:58.875Z,,,,,,,,,,,,,,,,15,,,,,,,,,,,,,,628.9280000476865,,response,,,7,B,,,,,Space,keypress(Space),,,,lyrical,---- --------- ---------- - --- ------- -- --- ------------<br>----- -- -------- ------- ---- ------ - -------- ---- -----<br>--- ------- ---- -- --- -------- --- - ----- ------ ---- --<br>-------- --- -------- -------- --- released ---- -- ----- -<br>-------- ---- --- ---------- --------- -- ------- ------ -<br>--------- ----- -----,200923.5,200922.70000004768,200277.102,200283.5,200293.772,200944.127,,36,released
screen,html.Screen,0_4_1_0_1_37,2021-12-10T10:04:59.331Z,,,,,,,,,,,,,,,,15,,,,,,,,,,,,,,434.7730000357551,,response,,,7,B,,,,,Space,keypress(Space),,,,lyrical,---- --------- ---------- - --- ------- -- --- ------------<br>----- -- -------- ------- ---- ------ - -------- ---- -----<br>--- ------- ---- -- --- -------- --- - ----- ------ ---- --<br>-------- --- -------- -------- --- -------- July -- ----- -<br>-------- ---- --- ---------- --------- -- ------- ------ -<br>--------- ----- -----,201379.70000004768,201378.90000003576,200927.455,200923.70000004768,200944.127,201394.038,,37,July
screen,html.Screen,0_4_1_0_1_38,2021-12-10T10:04:59.771Z,,,,,,,,,,,,,,,,15,,,,,,,,,,,,,,424.5620000238414,,response,,,7,B,,,,,Space,keypress(Space),,,,lyrical,---- --------- ---------- - --- ------- -- --- ------------<br>----- -- -------- ------- ---- ------ - -------- ---- -----<br>--- ------- ---- -- --- -------- --- - ----- ------ ---- --<br>-------- --- -------- -------- --- -------- ---- 20 ----- -<br>-------- ---- --- ---------- --------- -- ------- ------ -<br>--------- ----- -----,201819.5,201818.60000002384,201377.369,201379.90000003576,201394.038,201827.642,,38,20
screen,html.Screen,0_4_1_0_1_39,2021-12-10T10:05:00.275Z,,,,,,,,,,,,,,,,15,,,,,,,,,,,,,,494.9580000238493,,response,,,7,B,,,,,Space,keypress(Space),,,,lyrical,---- --------- ---------- - --- ------- -- --- ------------<br>----- -- -------- ------- ---- ------ - -------- ---- -----<br>--- ------- ---- -- --- -------- --- - ----- ------ ---- --<br>-------- --- -------- -------- --- -------- ---- -- after -<br>-------- ---- --- ---------- --------- -- ------- ------ -<br>--------- ----- -----,202323.40000003576,202322.60000002384,201810.971,201819.70000004768,201827.642,202327.689,,39,after
screen,html.Screen,0_4_1_0_1_40,2021-12-10T10:05:00.787Z,,,,,,,,,,,,,,,,15,,,,,,,,,,,,,,506.9110000238288,,response,,,7,B,,,,,Space,keypress(Space),,,,lyrical,---- --------- ---------- - --- ------- -- --- ------------<br>----- -- -------- ------- ---- ------ - -------- ---- -----<br>--- ------- ---- -- --- -------- --- - ----- ------ ---- --<br>-------- --- -------- -------- --- -------- ---- -- ----- a<br>-------- ---- --- ---------- --------- -- ------- ------ -<br>--------- ----- -----,202835.40000003576,202834.60000002384,202311.019,202323.70000004768,202327.689,202844.578,,40,a
screen,html.Screen,0_4_1_0_1_41,2021-12-10T10:05:01.323Z,,,,,,,,,,,,,,,,15,,,,,,,,,,,,,,525.9219999999914,,response,,,7,B,,,,,Space,keypress(Space),,,,lyrical,---- --------- ---------- - --- ------- -- --- ------------<br>----- -- -------- ------- ---- ------ - -------- ---- -----<br>--- ------- ---- -- --- -------- --- - ----- ------ ---- --<br>-------- --- -------- -------- --- -------- ---- -- ----- -<br>two-week ---- --- ---------- --------- -- ------- ------ -<br>--------- ----- -----,203371.30000001192,203370.5,202827.907,202835.60000002384,202844.578,203377.964,,41,two-week
screen,html.Screen,0_4_1_0_1_42,2021-12-10T10:05:01.691Z,,,,,,,,,,,,,,,,15,,,,,,,,,,,,,,360.5359999999928,,response,,,7,B,,,,,Space,keypress(Space),,,,lyrical,---- --------- ---------- - --- ------- -- --- ------------<br>----- -- -------- ------- ---- ------ - -------- ---- -----<br>--- ------- ---- -- --- -------- --- - ----- ------ ---- --<br>-------- --- -------- -------- --- -------- ---- -- ----- -<br>-------- stay --- ---------- --------- -- ------- ------ -<br>--------- ----- -----,203739.30000001192,203738.5,203361.294,203371.60000002384,203377.964,203761.468,,42,stay
screen,html.Screen,0_4_1_0_1_43,2021-12-10T10:05:02.163Z,,,,,,,,,,,,,,,,15,,,,,,,,,,,,,,448.9320000357693,,response,,,7,B,,,,,Space,keypress(Space),,,,lyrical,---- --------- ---------- - --- ------- -- --- ------------<br>----- -- -------- ------- ---- ------ - -------- ---- -----<br>--- ------- ---- -- --- -------- --- - ----- ------ ---- --<br>-------- --- -------- -------- --- -------- ---- -- ----- -<br>-------- ---- for ---------- --------- -- ------- ------ -<br>--------- ----- -----,204211.30000001192,204210.40000003576,203744.797,203739.60000002384,203761.468,204228.122,,43,for
screen,html.Screen,0_4_1_0_1_44,2021-12-10T10:05:02.987Z,,,,,,,,,,,,,,,,15,,,,,,,,,,,,,,806.4780000238388,,response,,,7,B,,,,,Space,keypress(Space),,,,lyrical,---- --------- ---------- - --- ------- -- --- ------------<br>----- -- -------- ------- ---- ------ - -------- ---- -----<br>--- ------- ---- -- --- -------- --- - ----- ------ ---- --<br>-------- --- -------- -------- --- -------- ---- -- ----- -<br>-------- ---- --- previously --------- -- ------- ------ -<br>--------- ----- -----,205035.40000003576,205034.60000002384,204211.453,204211.5,204228.122,205061.974,,44,previously
screen,html.Screen,0_4_1_0_1_45,2021-12-10T10:05:03.747Z,,,,,,,,,,,,,,,,15,,,,,,,,,,,,,,732.3260000119335,,response,,,7,B,,,,,Space,keypress(Space),,,,lyrical,---- --------- ---------- - --- ------- -- --- ------------<br>----- -- -------- ------- ---- ------ - -------- ---- -----<br>--- ------- ---- -- --- -------- --- - ----- ------ ---- --<br>-------- --- -------- -------- --- -------- ---- -- ----- -<br>-------- ---- --- ---------- declining -- ------- ------ -<br>--------- ----- -----,205795.20000004768,205794.30000001192,205045.301,205035.80000001192,205061.974,205811.784,,45,declining
screen,html.Screen,0_4_1_0_1_46,2021-12-10T10:05:04.163Z,,,,,,,,,,,,,,,,15,,,,,,,,,,,,,,398.6160000357486,,response,,,7,B,,,,,Space,keypress(Space),,,,lyrical,---- --------- ---------- - --- ------- -- --- ------------<br>----- -- -------- ------- ---- ------ - -------- ---- -----<br>--- ------- ---- -- --- -------- --- - ----- ------ ---- --<br>-------- --- -------- -------- --- -------- ---- -- ----- -<br>-------- ---- --- ---------- --------- to ------- ------ -<br>--------- ----- -----,206211.20000004768,206210.40000003576,205795.115,205795.5,205811.784,206228.819,,46,to
screen,html.Screen,0_4_1_0_1_47,2021-12-10T10:05:04.603Z,,,,,,,,,,,,,,,,15,,,,,,,,,,,,,,421.48100001193234,,response,,,7,B,,,,,Space,keypress(Space),,,,lyrical,---- --------- ---------- - --- ------- -- --- ------------<br>----- -- -------- ------- ---- ------ - -------- ---- -----<br>--- ------- ---- -- --- -------- --- - ----- ------ ---- --<br>-------- --- -------- -------- --- -------- ---- -- ----- -<br>-------- ---- --- ---------- --------- -- testify ------ -<br>--------- ----- -----,206651.10000002384,206650.30000001192,206212.148,206211.5,206228.819,206662.247,,47,testify
screen,html.Screen,0_4_1_0_1_48,2021-12-10T10:05:05.107Z,,,,,,,,,,,,,,,,15,,,,,,,,,,,,,,492.0530000119179,,response,,,7,B,,,,,Space,keypress(Space),,,,lyrical,---- --------- ---------- - --- ------- -- --- ------------<br>----- -- -------- ------- ---- ------ - -------- ---- -----<br>--- ------- ---- -- --- -------- --- - ----- ------ ---- --<br>-------- --- -------- -------- --- -------- ---- -- ----- -<br>-------- ---- --- ---------- --------- -- ------- before -<br>--------- ----- -----,207155.10000002384,207154.30000001192,206645.576,206651.40000003576,206662.247,207162.182,,48,before
screen,html.Screen,0_4_1_0_1_49,2021-12-10T10:05:06.307Z,,,,,,,,,,,,,,,,15,,,,,,,,,,,,,,1192.1180000119202,,response,,,7,B,,,,,Space,keypress(Space),,,,lyrical,---- --------- ---------- - --- ------- -- --- ------------<br>----- -- -------- ------- ---- ------ - -------- ---- -----<br>--- ------- ---- -- --- -------- --- - ----- ------ ---- --<br>-------- --- -------- -------- --- -------- ---- -- ----- -<br>-------- ---- --- ---------- --------- -- ------- ------ a<br>--------- ----- -----,208355.20000004768,208354.30000001192,207145.514,207155.40000003576,207162.182,208362.778,,49,a
screen,html.Screen,0_4_1_0_1_50,2021-12-10T10:05:07.163Z,,,,,,,,,,,,,,,,15,,,,,,,,,,,,,,847.9220000476926,,response,,,7,B,,,,,Space,keypress(Space),,,,lyrical,---- --------- ---------- - --- ------- -- --- ------------<br>----- -- -------- ------- ---- ------ - -------- ---- -----<br>--- ------- ---- -- --- -------- --- - ----- ------ ---- --<br>-------- --- -------- -------- --- -------- ---- -- ----- -<br>-------- ---- --- ---------- --------- -- ------- ------ -<br>different ----- -----,209211.5,209210.70000004768,208346.106,208355.40000003576,208362.778,209229.287,,50,different
screen,html.Screen,0_4_1_0_1_51,2021-12-10T10:05:07.650Z,,,,,,,,,,,,,,,,15,,,,,,,,,,,,,,468.8130000238307,,response,,,7,B,,,,,Space,keypress(Space),,,,lyrical,---- --------- ---------- - --- ------- -- --- ------------<br>----- -- -------- ------- ---- ------ - -------- ---- -----<br>--- ------- ---- -- --- -------- --- - ----- ------ ---- --<br>-------- --- -------- -------- --- -------- ---- -- ----- -<br>-------- ---- --- ---------- --------- -- ------- ------ -<br>--------- grand -----,209698.90000003576,209698.10000002384,209212.618,209211.70000004768,209229.287,209713.066,,51,grand
screen,html.Screen,0_4_1_0_1_52,2021-12-10T10:05:08.482Z,,,,,,,,,,,,,,,,15,,,,,,,,,,,,,,817.0340000238502,,response,,,7,B,,,,,Space,keypress(Space),,,,lyrical,---- --------- ---------- - --- ------- -- --- ------------<br>----- -- -------- ------- ---- ------ - -------- ---- -----<br>--- ------- ---- -- --- -------- --- - ----- ------ ---- --<br>-------- --- -------- -------- --- -------- ---- -- ----- -<br>-------- ---- --- ---------- --------- -- ------- ------ -<br>--------- ----- jury.,210531.10000002384,210530.10000002384,209696.395,209699.30000001192,209713.066,210546.52,,52,jury.
Item 7,flow.Loop,0_4_1_0_1,2021-12-10T10:05:08.483Z,,,,,,,,,,,,,,,,,,,,,,,,,,,,,,33859.17900002384,,completion,,,,,,,,,,,,,,,,210531.60000002384,210530.10000002384,176654.25,176656.30000001192,176670.921,210546.52,,,
