sender,sender_type,sender_id,timestamp,meta,,Blues,Classical,Country,Dance,Electronic,Folk,Gospel,Hip-Hop,Jazz,Latin,Musical/Film,New-age,Pop,Provo_ID,R&B,Rap,Reggae,Religious,Rock,Soul,Swing,Traditional,age,artist_name,correct,correctResponse,distraction,duration,education,ended_on,familiarity,gender,item,list,music_frequency,offensiveness,pleasantness,preference,response,response_action,snippet_file,song_name,song_rating,sound,text,time_commit,time_end,time_render,time_run,time_show,time_switch,url,word,word_ID
Instructions,html.Page,0_0,2021-11-12T11:52:54.540Z,"{""labjs_version"":""20.2.3"",""labjs_build"":{""flavor"":""production"",""commit"":""7ea907d66ca8aeef8054924ca5d82ffbe11e34e5""},""location"":""https://run.pavlovia.org/mvasilev/lab_music_a/"",""userAgent"":""Mozilla/5.0 (Windows NT 6.1; Win64; x64) AppleWebKit/537.36 (KHTML, like Gecko) Chrome/95.0.4638.69 Safari/537.36"",""platform"":""Win32"",""language"":""en-US"",""locale"":""en-US"",""timeZone"":""Europe/London"",""timezoneOffset"":0,""screen_width"":1920,""screen_height"":1080,""scroll_width"":1920,""scroll_height"":959,""window_innerWidth"":1920,""window_innerHeight"":1007,""devicePixelRatio"":1}",,,,,,,,,,,,,,,,,,,,,,,,,,,,,22953.065000000002,,form submission,,,,,,,,,,,,,,,,33168.79999999888,33167.5,10181.095,10190.400000000373,10214.435,33165.061,{},,
Headphones,html.Page,0_1,2021-11-12T11:52:56.349Z,,,,,,,,,,,,,,,,,,,,,,,,,,,,,,1812.839000000371,,form submission,,,,,,,,,,,,,,,,34978.5,34977.90000000037,33148.365,33169.5,33165.061,34987.367,,,
Holding screen,html.Screen,0_2_0_0,2021-11-12T11:53:06.350Z,,,,,,,,,,,,,,,,,,,,,,,,,,,,,,10002.234000000004,,timeout,,,,,,,,,,,,,,,,44979.699999999255,44972.932,34970.697,34979,34987.367,44989.601,,,
screen,html.Screen,0_2_0_1_0,2021-11-12T11:53:07.453Z,,,,,,,,,,,,,,,,53,,,,,,,,,,,,,,1090.998999999625,,response,,,99,,,,,,Space,keypress(Space),,,,,When -- ----- -- ------ - ------- --- ----------<br>------------- ------ ------ ---- ---- ------- ----- -- ----<br>-------- ------- -- ---------- --- - --- ----- ----- ----<br>---- --- --- ----- --- ---- ---- ------- ----- ---- -------<br>--- --- -- ----- -- --- ---- -- --- ---- -- ------ ------<br>--- ----- -- ----,46082.199999999255,46080.59999999963,44972.932,44980.199999999255,44989.601,46090.065,,0,When
screen,html.Screen,0_2_0_1_1,2021-11-12T11:53:08.844Z,,,,,,,,,,,,,,,,53,,,,,,,,,,,,,,1381.9349999999977,,response,,,99,,,,,,Space,keypress(Space),,,,,---- it ----- -- ------ - ------- --- ----------<br>------------- ------ ------ ---- ---- ------- ----- -- ----<br>-------- ------- -- ---------- --- - --- ----- ----- ----<br>---- --- --- ----- --- ---- ---- ------- ----- ---- -------<br>--- --- -- ----- -- --- ---- -- --- ---- -- ------ ------<br>--- ----- -- ----,47473,47472,46073.395,46082.59999999963,46090.065,47490.381,,1,it
screen,html.Screen,0_2_0_1_2,2021-11-12T11:53:09.372Z,,,,,,,,,,,,,,,,53,,,,,,,,,,,,,,509.6189999999988,,response,,,99,,,,,,Space,keypress(Space),,,,,---- -- comes -- ------ - ------- --- ----------<br>------------- ------ ------ ---- ---- ------- ----- -- ----<br>-------- ------- -- ---------- --- - --- ----- ----- ----<br>---- --- --- ----- --- ---- ---- ------- ----- ---- -------<br>--- --- -- ----- -- --- ---- -- --- ---- -- ------ ------<br>--- ----- -- ----,48000.90000000037,48000,47473.711,47473.40000000037,47490.381,48007.063,,2,comes
screen,html.Screen,0_2_0_1_3,2021-11-12T11:53:09.900Z,,,,,,,,,,,,,,,,53,,,,,,,,,,,,,,520.8370000003706,,response,,,99,,,,,,Space,keypress(Space),,,,,---- -- ----- to ------ - ------- --- ----------<br>------------- ------ ------ ---- ---- ------- ----- -- ----<br>-------- ------- -- ---------- --- - --- ----- ----- ----<br>---- --- --- ----- --- ---- ---- ------- ----- ---- -------<br>--- --- -- ----- -- --- ---- -- --- ---- -- ------ ------<br>--- ----- -- ----,48528.90000000037,48527.90000000037,47990.394,48001.09999999963,48007.063,48540.756,,3,to
screen,html.Screen,0_2_0_1_4,2021-11-12T11:53:10.668Z,,,,,,,,,,,,,,,,53,,,,,,,,,,,,,,755.1440000003713,,response,,,99,,,,,,Space,keypress(Space),,,,,---- -- ----- -- having - ------- --- ----------<br>------------- ------ ------ ---- ---- ------- ----- -- ----<br>-------- ------- -- ---------- --- - --- ----- ----- ----<br>---- --- --- ----- --- ---- ---- ------- ----- ---- -------<br>--- --- -- ----- -- --- ---- -- --- ---- -- ------ ------<br>--- ----- -- ----,49297.199999999255,49295.90000000037,48524.085,48529.40000000037,48540.756,49307.56,,4,having
screen,html.Screen,0_2_0_1_5,2021-11-12T11:53:11.092Z,,,,,,,,,,,,,,,,53,,,,,,,,,,,,,,412.34000000037486,,response,,,99,,,,,,Space,keypress(Space),,,,,---- -- ----- -- ------ a ------- --- ----------<br>------------- ------ ------ ---- ---- ------- ----- -- ----<br>-------- ------- -- ---------- --- - --- ----- ----- ----<br>---- --- --- ----- --- ---- ---- ------- ----- ---- -------<br>--- --- -- ----- -- --- ---- -- --- ---- -- ------ ------<br>--- ----- -- ----,49720.79999999888,49719.90000000037,49290.89,49297.5,49307.56,49724.333,,5,a
screen,html.Screen,0_2_0_1_6,2021-11-12T11:53:11.444Z,,,,,,,,,,,,,,,,53,,,,,,,,,,,,,,347.4669999988837,,response,,,99,,,,,,Space,keypress(Space),,,,,---- -- ----- -- ------ - lasting --- ----------<br>------------- ------ ------ ---- ---- ------- ----- -- ----<br>-------- ------- -- ---------- --- - --- ----- ----- ----<br>---- --- --- ----- --- ---- ---- ------- ----- ---- -------<br>--- --- -- ----- -- --- ---- -- --- ---- -- ------ ------<br>--- ----- -- ----,50072.79999999888,50071.79999999888,49707.663,49721.5,49724.333,50074.42,,6,lasting
screen,html.Screen,0_2_0_1_7,2021-11-12T11:53:11.852Z,,,,,,,,,,,,,,,,53,,,,,,,,,,,,,,405.37999999888416,,response,,,99,,,,,,Space,keypress(Space),,,,,---- -- ----- -- ------ - ------- and ----------<br>------------- ------ ------ ---- ---- ------- ----- -- ----<br>-------- ------- -- ---------- --- - --- ----- ----- ----<br>---- --- --- ----- --- ---- ---- ------- ----- ---- -------<br>--- --- -- ----- -- --- ---- -- --- ---- -- ------ ------<br>--- ----- -- ----,50480.699999999255,50479.79999999888,50057.75,50073.29999999888,50074.42,50491.19,,7,and
screen,html.Screen,0_2_0_1_8,2021-11-12T11:53:12.372Z,,,,,,,,,,,,,,,,53,,,,,,,,,,,,,,508.6099999988801,,response,,,99,,,,,,Space,keypress(Space),,,,,---- -- ----- -- ------ - ------- --- fulfilling<br>------------- ------ ------ ---- ---- ------- ----- -- ----<br>-------- ------- -- ---------- --- - --- ----- ----- ----<br>---- --- --- ----- --- ---- ---- ------- ----- ---- -------<br>--- --- -- ----- -- --- ---- -- --- ---- -- ------ ------<br>--- ----- -- ----,51000.90000000037,50999.79999999888,50474.52,50481.09999999963,50491.19,51007.989,,8,fulfilling
screen,html.Screen,0_2_0_1_9,2021-11-12T11:53:12.867Z,,,,,,,,,,,,,,,,53,,,,,,,,,,,,,,487.6109999996261,,response,,,99,,,,,,Space,keypress(Space),,,,,"---- -- ----- -- ------ - ------- --- ----------<br>relationship, ------ ------ ---- ---- ------- ----- -- ----<br>-------- ------- -- ---------- --- - --- ----- ----- ----<br>---- --- --- ----- --- ---- ---- ------- ----- ---- -------<br>--- --- -- ----- -- --- ---- -- --- ---- -- ------ ------<br>--- ----- -- ----",51496.59999999963,51495.59999999963,50991.319,51001.199999999255,51007.989,51507.951,,9,"relationship,"
screen,html.Screen,0_2_0_1_10,2021-11-12T11:53:13.411Z,,,,,,,,,,,,,,,,53,,,,,,,,,,,,,,531.748999999254,,response,,,99,,,,,,Space,keypress(Space),,,,,---- -- ----- -- ------ - ------- --- ----------<br>------------- common ------ ---- ---- ------- ----- -- ----<br>-------- ------- -- ---------- --- - --- ----- ----- ----<br>---- --- --- ----- --- ---- ---- ------- ----- ---- -------<br>--- --- -- ----- -- --- ---- -- --- ---- -- ------ ------<br>--- ----- -- ----,52040.699999999255,52039.699999999255,51491.283,51496.90000000037,51507.951,52041.613,,10,common
screen,html.Screen,0_2_0_1_11,2021-11-12T11:53:14.211Z,,,,,,,,,,,,,,,,53,,,,,,,,,,,,,,797.9869999996299,,response,,,99,,,,,,Space,keypress(Space),,,,,---- -- ----- -- ------ - ------- --- ----------<br>------------- ------ wisdom ---- ---- ------- ----- -- ----<br>-------- ------- -- ---------- --- - --- ----- ----- ----<br>---- --- --- ----- --- ---- ---- ------- ----- ---- -------<br>--- --- -- ----- -- --- ---- -- --- ---- -- ------ ------<br>--- ----- -- ----,52840.59999999963,52839.59999999963,52024.942,52040.90000000037,52041.613,52841.743,,11,wisdom
screen,html.Screen,0_2_0_1_12,2021-11-12T11:53:14.691Z,,,,,,,,,,,,,,,,53,,,,,,,,,,,,,,477.85699999962526,,response,,,99,,,,,,Space,keypress(Space),,,,,---- -- ----- -- ------ - ------- --- ----------<br>------------- ------ ------ says ---- ------- ----- -- ----<br>-------- ------- -- ---------- --- - --- ----- ----- ----<br>---- --- --- ----- --- ---- ---- ------- ----- ---- -------<br>--- --- -- ----- -- --- ---- -- --- ---- -- ------ ------<br>--- ----- -- ----,53320.5,53319.59999999963,52825.073,52840.79999999888,52841.743,53325.088,,12,says
screen,html.Screen,0_2_0_1_13,2021-11-12T11:53:15.067Z,,,,,,,,,,,,,,,,53,,,,,,,,,,,,,,370.4119999999966,,response,,,99,,,,,,Space,keypress(Space),,,,,---- -- ----- -- ------ - ------- --- ----------<br>------------- ------ ------ ---- that ------- ----- -- ----<br>-------- ------- -- ---------- --- - --- ----- ----- ----<br>---- --- --- ----- --- ---- ---- ------- ----- ---- -------<br>--- --- -- ----- -- --- ---- -- --- ---- -- ------ ------<br>--- ----- -- ----,53696.40000000037,53695.5,53308.419,53320.79999999888,53325.088,53708.632,,13,that
screen,html.Screen,0_2_0_1_14,2021-11-12T11:53:15.451Z,,,,,,,,,,,,,,,,53,,,,,,,,,,,,,,370.8680000000022,,response,,,99,,,,,,Space,keypress(Space),,,,,---- -- ----- -- ------ - ------- --- ----------<br>------------- ------ ------ ---- ---- feeling ----- -- ----<br>-------- ------- -- ---------- --- - --- ----- ----- ----<br>---- --- --- ----- --- ---- ---- ------- ----- ---- -------<br>--- --- -- ----- -- --- ---- -- --- ---- -- ------ ------<br>--- ----- -- ----,54080.5,54079.5,53691.962,53696.59999999963,53708.632,54092.064,,14,feeling
screen,html.Screen,0_2_0_1_15,2021-11-12T11:53:16.051Z,,,,,,,,,,,,,,,,53,,,,,,,,,,,,,,587.4360000000015,,response,,,99,,,,,,Space,keypress(Space),,,,,---- -- ----- -- ------ - ------- --- ----------<br>------------- ------ ------ ---- ---- ------- close -- ----<br>-------- ------- -- ---------- --- - --- ----- ----- ----<br>---- --- --- ----- --- ---- ---- ------- ----- ---- -------<br>--- --- -- ----- -- --- ---- -- --- ---- -- ------ ------<br>--- ----- -- ----,54680.29999999888,54679.5,54075.394,54080.699999999255,54092.064,54692.206,,15,close
screen,html.Screen,0_2_0_1_16,2021-11-12T11:53:16.923Z,,,,,,,,,,,,,,,,53,,,,,,,,,,,,,,859.1940000003742,,response,,,99,,,,,,Space,keypress(Space),,,,,---- -- ----- -- ------ - ------- --- ----------<br>------------- ------ ------ ---- ---- ------- ----- to ----<br>-------- ------- -- ---------- --- - --- ----- ----- ----<br>---- --- --- ----- --- ---- ---- ------- ----- ---- -------<br>--- --- -- ----- -- --- ---- -- --- ---- -- ------ ------<br>--- ----- -- ----,55552.199999999255,55551.40000000037,54675.536,54680.59999999963,54692.206,55559.063,,16,to
screen,html.Screen,0_2_0_1_17,2021-11-12T11:53:17.467Z,,,,,,,,,,,,,,,,53,,,,,,,,,,,,,,536.7369999988805,,response,,,99,,,,,,Space,keypress(Space),,,,,---- -- ----- -- ------ - ------- --- ----------<br>------------- ------ ------ ---- ---- ------- ----- -- your<br>-------- ------- -- ---------- --- - --- ----- ----- ----<br>---- --- --- ----- --- ---- ---- ------- ----- ---- -------<br>--- --- -- ----- -- --- ---- -- --- ---- -- ------ ------<br>--- ----- -- ----,56096.59999999963,56095.79999999888,55542.393,55552.5,55559.063,56109.163,,17,your
screen,html.Screen,0_2_0_1_18,2021-11-12T11:53:17.939Z,,,,,,,,,,,,,,,,53,,,,,,,,,,,,,,458.23700000037206,,response,,,99,,,,,,Space,keypress(Space),,,,,---- -- ----- -- ------ - ------- --- ----------<br>------------- ------ ------ ---- ---- ------- ----- -- ----<br>romantic ------- -- ---------- --- - --- ----- ----- ----<br>---- --- --- ----- --- ---- ---- ------- ----- ---- -------<br>--- --- -- ----- -- --- ---- -- --- ---- -- ------ ------<br>--- ----- -- ----,56568.199999999255,56567.40000000037,56092.493,56096.90000000037,56109.163,56576.006,,18,romantic
screen,html.Screen,0_2_0_1_19,2021-11-12T11:53:18.427Z,,,,,,,,,,,,,,,,53,,,,,,,,,,,,,,479.3940000003713,,response,,,99,,,,,,Space,keypress(Space),,,,,---- -- ----- -- ------ - ------- --- ----------<br>------------- ------ ------ ---- ---- ------- ----- -- ----<br>-------- partner -- ---------- --- - --- ----- ----- ----<br>---- --- --- ----- --- ---- ---- ------- ----- ---- -------<br>--- --- -- ----- -- --- ---- -- --- ---- -- ------ ------<br>--- ----- -- ----,57056.09999999963,57055.40000000037,56559.336,56568.5,56576.006,57059.41,,19,partner
screen,html.Screen,0_2_0_1_20,2021-11-12T11:53:19.171Z,,,,,,,,,,,,,,,,53,,,,,,,,,,,,,,739.990000000369,,response,,,99,,,,,,Space,keypress(Space),,,,,---- -- ----- -- ------ - ------- --- ----------<br>------------- ------ ------ ---- ---- ------- ----- -- ----<br>-------- ------- is ---------- --- - --- ----- ----- ----<br>---- --- --- ----- --- ---- ---- ------- ----- ---- -------<br>--- --- -- ----- -- --- ---- -- --- ---- -- ------ ------<br>--- ----- -- ----,57800.29999999888,57799.40000000037,57042.74,57056.40000000037,57059.41,57809.618,,20,is
screen,html.Screen,0_2_0_1_21,2021-11-12T11:53:19.643Z,,,,,,,,,,,,,,,,53,,,,,,,,,,,,,,461.6819999988802,,response,,,99,,,,,,Space,keypress(Space),,,,,---- -- ----- -- ------ - ------- --- ----------<br>------------- ------ ------ ---- ---- ------- ----- -- ----<br>-------- ------- -- paramount. --- - --- ----- ----- ----<br>---- --- --- ----- --- ---- ---- ------- ----- ---- -------<br>--- --- -- ----- -- --- ---- -- --- ---- -- ------ ------<br>--- ----- -- ----,58272.09999999963,58271.29999999888,57792.948,57800.59999999963,57809.618,58276.258,,21,paramount.
screen,html.Screen,0_2_0_1_22,2021-11-12T11:53:20.163Z,,,,,,,,,,,,,,,,53,,,,,,,,,,,,,,515.0419999988808,,response,,,99,,,,,,Space,keypress(Space),,,,,---- -- ----- -- ------ - ------- --- ----------<br>------------- ------ ------ ---- ---- ------- ----- -- ----<br>-------- ------- -- ---------- But - --- ----- ----- ----<br>---- --- --- ----- --- ---- ---- ------- ----- ---- -------<br>--- --- -- ----- -- --- ---- -- --- ---- -- ------ ------<br>--- ----- -- ----,58792.199999999255,58791.29999999888,58259.589,58272.59999999963,58276.258,58793.246,,22,But
screen,html.Screen,0_2_0_1_23,2021-11-12T11:53:20.587Z,,,,,,,,,,,,,,,,53,,,,,,,,,,,,,,421.95399999925576,,response,,,99,,,,,,Space,keypress(Space),,,,,---- -- ----- -- ------ - ------- --- ----------<br>------------- ------ ------ ---- ---- ------- ----- -- ----<br>-------- ------- -- ---------- --- a --- ----- ----- ----<br>---- --- --- ----- --- ---- ---- ------- ----- ---- -------<br>--- --- -- ----- -- --- ---- -- --- ---- -- ------ ------<br>--- ----- -- ----,59216,59215.199999999255,58776.575,58792.5,58793.246,59226.528,,23,a
screen,html.Screen,0_2_0_1_24,2021-11-12T11:53:20.931Z,,,,,,,,,,,,,,,,53,,,,,,,,,,,,,,332.6719999992565,,response,,,99,,,,,,Space,keypress(Space),,,,,---- -- ----- -- ------ - ------- --- ----------<br>------------- ------ ------ ---- ---- ------- ----- -- ----<br>-------- ------- -- ---------- --- - new ----- ----- ----<br>---- --- --- ----- --- ---- ---- ------- ----- ---- -------<br>--- --- -- ----- -- --- ---- -- --- ---- -- ------ ------<br>--- ----- -- ----,59560.09999999963,59559.199999999255,59209.859,59216.29999999888,59226.528,59576.772,,24,new
screen,html.Screen,0_2_0_1_25,2021-11-12T11:53:21.355Z,,,,,,,,,,,,,,,,53,,,,,,,,,,,,,,406.32799999963026,,response,,,99,,,,,,Space,keypress(Space),,,,,---- -- ----- -- ------ - ------- --- ----------<br>------------- ------ ------ ---- ---- ------- ----- -- ----<br>-------- ------- -- ---------- --- - --- study ----- ----<br>---- --- --- ----- --- ---- ---- ------- ----- ---- -------<br>--- --- -- ----- -- --- ---- -- --- ---- -- ------ ------<br>--- ----- -- ----,59984,59983.09999999963,59560.101,59560.40000000037,59576.772,59993.487,,25,study
screen,html.Screen,0_2_0_1_26,2021-11-12T11:53:21.959Z,,,,,,,,,,,,,,,,53,,,,,,,,,,,,,,589.6129999996265,,response,,,99,,,,,,Space,keypress(Space),,,,,---- -- ----- -- ------ - ------- --- ----------<br>------------- ------ ------ ---- ---- ------- ----- -- ----<br>-------- ------- -- ---------- --- - --- ----- finds ----<br>---- --- --- ----- --- ---- ---- ------- ----- ---- -------<br>--- --- -- ----- -- --- ---- -- --- ---- -- ------ ------<br>--- ----- -- ----,60583.90000000037,60583.09999999963,59976.817,59984.40000000037,59993.487,60593.518,,26,finds
screen,html.Screen,0_2_0_1_27,2021-11-12T11:53:22.367Z,,,,,,,,,,,,,,,,53,,,,,,,,,,,,,,397.5819999996311,,response,,,99,,,,,,Space,keypress(Space),,,,,---- -- ----- -- ------ - ------- --- ----------<br>------------- ------ ------ ---- ---- ------- ----- -- ----<br>-------- ------- -- ---------- --- - --- ----- ----- that<br>---- --- --- ----- --- ---- ---- ------- ----- ---- -------<br>--- --- -- ----- -- --- ---- -- --- ---- -- ------ ------<br>--- ----- -- ----,60991.90000000037,60991.09999999963,60576.849,60584.29999999888,60593.518,60993.789,,27,that
screen,html.Screen,0_2_0_1_28,2021-11-12T11:53:22.767Z,,,,,,,,,,,,,,,,53,,,,,,,,,,,,,,397.21100000000297,,response,,,99,,,,,,Space,keypress(Space),,,,,---- -- ----- -- ------ - ------- --- ----------<br>------------- ------ ------ ---- ---- ------- ----- -- ----<br>-------- ------- -- ---------- --- - --- ----- ----- ----<br>it's --- --- ----- --- ---- ---- ------- ----- ---- -------<br>--- --- -- ----- -- --- ---- -- --- ---- -- ------ ------<br>--- ----- -- ----,61391.90000000037,61391,60977.118,60992.09999999963,60993.789,61393.827,,28,it's
screen,html.Screen,0_2_0_1_29,2021-11-12T11:53:23.231Z,,,,,,,,,,,,,,,,53,,,,,,,,,,,,,,461.1730000000025,,response,,,99,,,,,,Space,keypress(Space),,,,,---- -- ----- -- ------ - ------- --- ----------<br>------------- ------ ------ ---- ---- ------- ----- -- ----<br>-------- ------- -- ---------- --- - --- ----- ----- ----<br>---- not --- ----- --- ---- ---- ------- ----- ---- -------<br>--- --- -- ----- -- --- ---- -- --- ---- -- ------ ------<br>--- ----- -- ----,61855.90000000037,61855,61377.157,61392.199999999255,61393.827,61860.467,,29,not
screen,html.Screen,0_2_0_1_30,2021-11-12T11:53:23.719Z,,,,,,,,,,,,,,,,53,,,,,,,,,,,,,,482.5330000000031,,response,,,99,,,,,,Space,keypress(Space),,,,,---- -- ----- -- ------ - ------- --- ----------<br>------------- ------ ------ ---- ---- ------- ----- -- ----<br>-------- ------- -- ---------- --- - --- ----- ----- ----<br>---- --- how ----- --- ---- ---- ------- ----- ---- -------<br>--- --- -- ----- -- --- ---- -- --- ---- -- ------ ------<br>--- ----- -- ----,62343.699999999255,62343,61843.799,61856.29999999888,61860.467,62360.845,,30,how
screen,html.Screen,0_2_0_1_31,2021-11-12T11:53:24.175Z,,,,,,,,,,,,,,,,53,,,,,,,,,,,,,,438.2549999996263,,response,,,99,,,,,,Space,keypress(Space),,,,,---- -- ----- -- ------ - ------- --- ----------<br>------------- ------ ------ ---- ---- ------- ----- -- ----<br>-------- ------- -- ---------- --- - --- ----- ----- ----<br>---- --- --- close --- ---- ---- ------- ----- ---- -------<br>--- --- -- ----- -- --- ---- -- --- ---- -- ------ ------<br>--- ----- -- ----,62799.90000000037,62799.09999999963,62344.173,62344.09999999963,62360.845,62810.847,,31,close
screen,html.Screen,0_2_0_1_32,2021-11-12T11:53:24.679Z,,,,,,,,,,,,,,,,53,,,,,,,,,,,,,,492.05300000037096,,response,,,99,,,,,,Space,keypress(Space),,,,,---- -- ----- -- ------ - ------- --- ----------<br>------------- ------ ------ ---- ---- ------- ----- -- ----<br>-------- ------- -- ---------- --- - --- ----- ----- ----<br>---- --- --- ----- you ---- ---- ------- ----- ---- -------<br>--- --- -- ----- -- --- ---- -- --- ---- -- ------ ------<br>--- ----- -- ----,63303.699999999255,63302.90000000037,62794.177,62800.09999999963,62810.847,63310.939,,32,you
screen,html.Screen,0_2_0_1_33,2021-11-12T11:53:25.391Z,,,,,,,,,,,,,,,,53,,,,,,,,,,,,,,703.961000000374,,response,,,99,,,,,,Space,keypress(Space),,,,,---- -- ----- -- ------ - ------- --- ----------<br>------------- ------ ------ ---- ---- ------- ----- -- ----<br>-------- ------- -- ---------- --- - --- ----- ----- ----<br>---- --- --- ----- --- feel ---- ------- ----- ---- -------<br>--- --- -- ----- -- --- ---- -- --- ---- -- ------ ------<br>--- ----- -- ----,64015.90000000037,64014.90000000037,63294.269,63306.40000000037,63310.939,64027.769,,33,feel
screen,html.Screen,0_2_0_1_34,2021-11-12T11:53:25.759Z,,,,,,,,,,,,,,,,53,,,,,,,,,,,,,,355.0309999988822,,response,,,99,,,,,,Space,keypress(Space),,,,,---- -- ----- -- ------ - ------- --- ----------<br>------------- ------ ------ ---- ---- ------- ----- -- ----<br>-------- ------- -- ---------- --- - --- ----- ----- ----<br>---- --- --- ----- --- ---- that ------- ----- ---- -------<br>--- --- -- ----- -- --- ---- -- --- ---- -- ------ ------<br>--- ----- -- ----,64383.699999999255,64382.79999999888,64011.099,64016.09999999963,64027.769,64394.562,,34,that
screen,html.Screen,0_2_0_1_35,2021-11-12T11:53:26.159Z,,,,,,,,,,,,,,,,53,,,,,,,,,,,,,,388.23799999888433,,response,,,99,,,,,,Space,keypress(Space),,,,,---- -- ----- -- ------ - ------- --- ----------<br>------------- ------ ------ ---- ---- ------- ----- -- ----<br>-------- ------- -- ---------- --- - --- ----- ----- ----<br>---- --- --- ----- --- ---- ---- matters ----- ---- -------<br>--- --- -- ----- -- --- ---- -- --- ---- -- ------ ------<br>--- ----- -- ----,64783.5,64782.79999999888,64377.892,64383.90000000037,64394.562,64794.66,,35,matters
screen,html.Screen,0_2_0_1_36,2021-11-12T11:53:26.615Z,,,,,,,,,,,,,,,,53,,,,,,,,,,,,,,444.1399999988789,,response,,,99,,,,,,Space,keypress(Space),,,,,"---- -- ----- -- ------ - ------- --- ----------<br>------------- ------ ------ ---- ---- ------- ----- -- ----<br>-------- ------- -- ---------- --- - --- ----- ----- ----<br>---- --- --- ----- --- ---- ---- ------- most, ---- -------<br>--- --- -- ----- -- --- ---- -- --- ---- -- ------ ------<br>--- ----- -- ----",65239.90000000037,65238.79999999888,64777.99,64783.90000000037,64794.66,65244.748,,36,"most,"
screen,html.Screen,0_2_0_1_37,2021-11-12T11:53:27.151Z,,,,,,,,,,,,,,,,53,,,,,,,,,,,,,,529.9519999992553,,response,,,99,,,,,,Space,keypress(Space),,,,,---- -- ----- -- ------ - ------- --- ----------<br>------------- ------ ------ ---- ---- ------- ----- -- ----<br>-------- ------- -- ---------- --- - --- ----- ----- ----<br>---- --- --- ----- --- ---- ---- ------- ----- it's -------<br>--- --- -- ----- -- --- ---- -- --- ---- -- ------ ------<br>--- ----- -- ----,65775.59999999963,65774.69999999925,65228.078,65240.09999999963,65244.748,65778.21,,37,it's
screen,html.Screen,0_2_0_1_38,2021-11-12T11:53:27.591Z,,,,,,,,,,,,,,,,53,,,,,,,,,,,,,,436.88999999962107,,response,,,99,,,,,,Space,keypress(Space),,,,,---- -- ----- -- ------ - ------- --- ----------<br>------------- ------ ------ ---- ---- ------- ----- -- ----<br>-------- ------- -- ---------- --- - --- ----- ----- ----<br>---- --- --- ----- --- ---- ---- ------- ----- ---- whether<br>--- --- -- ----- -- --- ---- -- --- ---- -- ------ ------<br>--- ----- -- ----,66215.90000000037,66215.09999999963,65761.54,65775.79999999888,65778.21,66228.331,,38,whether
screen,html.Screen,0_2_0_1_39,2021-11-12T11:53:27.967Z,,,,,,,,,,,,,,,,53,,,,,,,,,,,,,,362.36899999924935,,response,,,99,,,,,,Space,keypress(Space),,,,,---- -- ----- -- ------ - ------- --- ----------<br>------------- ------ ------ ---- ---- ------- ----- -- ----<br>-------- ------- -- ---------- --- - --- ----- ----- ----<br>---- --- --- ----- --- ---- ---- ------- ----- ---- -------<br>you --- -- ----- -- --- ---- -- --- ---- -- ------ ------<br>--- ----- -- ----,66591.40000000037,66590.69999999925,66211.661,66216.09999999963,66228.331,66595.11,,39,you
screen,html.Screen,0_2_0_1_40,2021-11-12T11:53:28.391Z,,,,,,,,,,,,,,,,53,,,,,,,,,,,,,,419.58999999925436,,response,,,99,,,,,,Space,keypress(Space),,,,,---- -- ----- -- ------ - ------- --- ----------<br>------------- ------ ------ ---- ---- ------- ----- -- ----<br>-------- ------- -- ---------- --- - --- ----- ----- ----<br>---- --- --- ----- --- ---- ---- ------- ----- ---- -------<br>--- are -- ----- -- --- ---- -- --- ---- -- ------ ------<br>--- ----- -- ----,67015.40000000037,67014.69999999925,66578.44,66591.79999999888,66595.11,67028.527,,40,are
screen,html.Screen,0_2_0_1_41,2021-11-12T11:53:28.807Z,,,,,,,,,,,,,,,,53,,,,,,,,,,,,,,402.0729999996256,,response,,,99,,,,,,Space,keypress(Space),,,,,---- -- ----- -- ------ - ------- --- ----------<br>------------- ------ ------ ---- ---- ------- ----- -- ----<br>-------- ------- -- ---------- --- - --- ----- ----- ----<br>---- --- --- ----- --- ---- ---- ------- ----- ---- -------<br>--- --- as ----- -- --- ---- -- --- ---- -- ------ ------<br>--- ----- -- ----,67431.5,67430.59999999963,67011.857,67015.69999999925,67028.527,67445.154,,41,as
screen,html.Screen,0_2_0_1_42,2021-11-12T11:53:29.295Z,,,,,,,,,,,,,,,,53,,,,,,,,,,,,,,473.4459999996325,,response,,,99,,,,,,Space,keypress(Space),,,,,---- -- ----- -- ------ - ------- --- ----------<br>------------- ------ ------ ---- ---- ------- ----- -- ----<br>-------- ------- -- ---------- --- - --- ----- ----- ----<br>---- --- --- ----- --- ---- ---- ------- ----- ---- -------<br>--- --- -- close -- --- ---- -- --- ---- -- ------ ------<br>--- ----- -- ----,67919.40000000037,67918.59999999963,67428.486,67431.69999999925,67445.154,67928.836,,42,close
screen,html.Screen,0_2_0_1_43,2021-11-12T11:53:29.727Z,,,,,,,,,,,,,,,,53,,,,,,,,,,,,,,421.7639999996318,,response,,,99,,,,,,Space,keypress(Space),,,,,---- -- ----- -- ------ - ------- --- ----------<br>------------- ------ ------ ---- ---- ------- ----- -- ----<br>-------- ------- -- ---------- --- - --- ----- ----- ----<br>---- --- --- ----- --- ---- ---- ------- ----- ---- -------<br>--- --- -- ----- as --- ---- -- --- ---- -- ------ ------<br>--- ----- -- ----,68351.29999999888,68350.59999999963,67912.164,67919.69999999925,67928.836,68362.182,,43,as
screen,html.Screen,0_2_0_1_44,2021-11-12T11:53:30.151Z,,,,,,,,,,,,,,,,53,,,,,,,,,,,,,,412.4179999996268,,response,,,99,,,,,,Space,keypress(Space),,,,,---- -- ----- -- ------ - ------- --- ----------<br>------------- ------ ------ ---- ---- ------- ----- -- ----<br>-------- ------- -- ---------- --- - --- ----- ----- ----<br>---- --- --- ----- --- ---- ---- ------- ----- ---- -------<br>--- --- -- ----- -- you ---- -- --- ---- -- ------ ------<br>--- ----- -- ----,68775.40000000037,68774.59999999963,68345.512,68351.59999999963,68362.182,68778.968,,44,you
screen,html.Screen,0_2_0_1_45,2021-11-12T11:53:30.591Z,,,,,,,,,,,,,,,,53,,,,,,,,,,,,,,435.5320000000065,,response,,,99,,,,,,Space,keypress(Space),,,,,---- -- ----- -- ------ - ------- --- ----------<br>------------- ------ ------ ---- ---- ------- ----- -- ----<br>-------- ------- -- ---------- --- - --- ----- ----- ----<br>---- --- --- ----- --- ---- ---- ------- ----- ---- -------<br>--- --- -- ----- -- --- want -- --- ---- -- ------ ------<br>--- ----- -- ----,69215.29999999888,69214.5,68762.298,68775.59999999963,68778.968,69229.052,,45,want
screen,html.Screen,0_2_0_1_46,2021-11-12T11:53:31.047Z,,,,,,,,,,,,,,,,53,,,,,,,,,,,,,,441.44800000000396,,response,,,99,,,,,,Space,keypress(Space),,,,,---- -- ----- -- ------ - ------- --- ----------<br>------------- ------ ------ ---- ---- ------- ----- -- ----<br>-------- ------- -- ---------- --- - --- ----- ----- ----<br>---- --- --- ----- --- ---- ---- ------- ----- ---- -------<br>--- --- -- ----- -- --- ---- to --- ---- -- ------ ------<br>--- ----- -- ----,69671.29999999888,69670.5,69212.382,69215.59999999963,69229.052,69679.182,,46,to
screen,html.Screen,0_2_0_1_47,2021-11-12T11:53:31.495Z,,,,,,,,,,,,,,,,53,,,,,,,,,,,,,,439.21800000037183,,response,,,99,,,,,,Space,keypress(Space),,,,,"---- -- ----- -- ------ - ------- --- ----------<br>------------- ------ ------ ---- ---- ------- ----- -- ----<br>-------- ------- -- ---------- --- - --- ----- ----- ----<br>---- --- --- ----- --- ---- ---- ------- ----- ---- -------<br>--- --- -- ----- -- --- ---- -- be, ---- -- ------ ------<br>--- ----- -- ----",70119.29999999888,70118.40000000037,69662.512,69671.5,69679.182,70129.257,,47,"be,"
screen,html.Screen,0_2_0_1_48,2021-11-12T11:53:31.943Z,,,,,,,,,,,,,,,,53,,,,,,,,,,,,,,437.14300000037474,,response,,,99,,,,,,Space,keypress(Space),,,,,---- -- ----- -- ------ - ------- --- ----------<br>------------- ------ ------ ---- ---- ------- ----- -- ----<br>-------- ------- -- ---------- --- - --- ----- ----- ----<br>---- --- --- ----- --- ---- ---- ------- ----- ---- -------<br>--- --- -- ----- -- --- ---- -- --- even -- ------ ------<br>--- ----- -- ----,70567.29999999888,70566.40000000037,70112.587,70119.5,70129.257,70579.445,,48,even
screen,html.Screen,0_2_0_1_49,2021-11-12T11:53:32.390Z,,,,,,,,,,,,,,,,53,,,,,,,,,,,,,,434.95500000036554,,response,,,99,,,,,,Space,keypress(Space),,,,,---- -- ----- -- ------ - ------- --- ----------<br>------------- ------ ------ ---- ---- ------- ----- -- ----<br>-------- ------- -- ---------- --- - --- ----- ----- ----<br>---- --- --- ----- --- ---- ---- ------- ----- ---- -------<br>--- --- -- ----- -- --- ---- -- --- ---- if ------ ------<br>--- ----- -- ----,71015.19999999925,71014.40000000037,70562.774,70567.5,70579.445,71029.481,,49,if
screen,html.Screen,0_2_0_1_50,2021-11-12T11:53:32.910Z,,,,,,,,,,,,,,,,53,,,,,,,,,,,,,,504.81899999888265,,response,,,99,,,,,,Space,keypress(Space),,,,,---- -- ----- -- ------ - ------- --- ----------<br>------------- ------ ------ ---- ---- ------- ----- -- ----<br>-------- ------- -- ---------- --- - --- ----- ----- ----<br>---- --- --- ----- --- ---- ---- ------- ----- ---- -------<br>--- --- -- ----- -- --- ---- -- --- ---- -- that's ------<br>--- ----- -- ----,71535.09999999963,71534.29999999888,71012.811,71015.40000000037,71029.481,71546.29,,50,that's
screen,html.Screen,0_2_0_1_51,2021-11-12T11:53:33.350Z,,,,,,,,,,,,,,,,53,,,,,,,,,,,,,,428.0099999988888,,response,,,99,,,,,,Space,keypress(Space),,,,,---- -- ----- -- ------ - ------- --- ----------<br>------------- ------ ------ ---- ---- ------- ----- -- ----<br>-------- ------- -- ---------- --- - --- ----- ----- ----<br>---- --- --- ----- --- ---- ---- ------- ----- ---- -------<br>--- --- -- ----- -- --- ---- -- --- ---- -- ------ really<br>--- ----- -- ----,71975,71974.29999999888,71529.62,71535.40000000037,71546.29,71979.735,,51,really
screen,html.Screen,0_2_0_1_52,2021-11-12T11:53:33.838Z,,,,,,,,,,,,,,,,53,,,,,,,,,,,,,,482.56499999888183,,response,,,99,,,,,,Space,keypress(Space),,,,,---- -- ----- -- ------ - ------- --- ----------<br>------------- ------ ------ ---- ---- ------- ----- -- ----<br>-------- ------- -- ---------- --- - --- ----- ----- ----<br>---- --- --- ----- --- ---- ---- ------- ----- ---- -------<br>--- --- -- ----- -- --- ---- -- --- ---- -- ------ ------<br>not ----- -- ----,72463.09999999963,72462.29999999888,71963.065,71975.40000000037,71979.735,72479.843,,52,not
screen,html.Screen,0_2_0_1_53,2021-11-12T11:53:34.302Z,,,,,,,,,,,,,,,,53,,,,,,,,,,,,,,446.35699999926146,,response,,,99,,,,,,Space,keypress(Space),,,,,---- -- ----- -- ------ - ------- --- ----------<br>------------- ------ ------ ---- ---- ------- ----- -- ----<br>-------- ------- -- ---------- --- - --- ----- ----- ----<br>---- --- --- ----- --- ---- ---- ------- ----- ---- -------<br>--- --- -- ----- -- --- ---- -- --- ---- -- ------ ------<br>--- close -- ----,72927,72926.19999999925,72463.173,72463.29999999888,72479.843,72929.95,,53,close
screen,html.Screen,0_2_0_1_54,2021-11-12T11:53:34.726Z,,,,,,,,,,,,,,,,53,,,,,,,,,,,,,,420.24999999925785,,response,,,99,,,,,,Space,keypress(Space),,,,,---- -- ----- -- ------ - ------- --- ----------<br>------------- ------ ------ ---- ---- ------- ----- -- ----<br>-------- ------- -- ---------- --- - --- ----- ----- ----<br>---- --- --- ----- --- ---- ---- ------- ----- ---- -------<br>--- --- -- ----- -- --- ---- -- --- ---- -- ------ ------<br>--- ----- at ----,73351,73350.19999999925,72913.28,72927.19999999925,72929.95,73363.379,,54,at
screen,html.Screen,0_2_0_1_55,2021-11-12T11:53:35.182Z,,,,,,,,,,,,,,,,53,,,,,,,,,,,,,,442.72099999962666,,response,,,99,,,,,,Space,keypress(Space),,,,,---- -- ----- -- ------ - ------- --- ----------<br>------------- ------ ------ ---- ---- ------- ----- -- ----<br>-------- ------- -- ---------- --- - --- ----- ----- ----<br>---- --- --- ----- --- ---- ---- ------- ----- ---- -------<br>--- --- -- ----- -- --- ---- -- --- ---- -- ------ ------<br>--- ----- -- all.,73806.90000000037,73806.09999999963,73346.709,73351.29999999888,73363.379,73813.492,,55,all.
Item 99,flow.Loop,0_2_0_1,2021-11-12T11:53:35.187Z,,,,,,,,,,,,,,,,,,,,,,,,,,,,,,28816.498999999625,,completion,,,,A,,,,,,,,,,silence,,73811.29999999888,73806.09999999963,44972.932,44980,44989.601,73813.492,,,
Question 1,html.Screen,0_2_0_2,2021-11-12T11:53:40.886Z,,,,,,,,,,,,,,,,,,,,,,,,,,,false,FALSE,,5696.107999999629,,response,,,99,A,,,,,TRUE,click #choice-1,,,,silence,,79511,79509.59999999963,73796.822,73811.59999999963,73813.492,79514.722,,,
Question 2,html.Screen,0_2_0_3,2021-11-12T11:53:46.774Z,,,,,,,,,,,,,,,,,,,,,,,,,,,true,TRUE,,5882.377999999633,,response,,,99,A,,,,,TRUE,click #choice-1,,,,silence,,85398.40000000037,85397.09999999963,79498.053,79511.29999999888,79514.722,85399.606,,,
Item 99,flow.Sequence,0_2_0,2021-11-12T11:53:46.774Z,,,,,,,,,,,,,,,,,,,,,,,,,,,,,,50409.73299999963,,completion,,,,,,,,,,,,,,,,85398.79999999888,85397.09999999963,34970.697,34978.90000000037,34987.367,85399.606,,,
Holding screen,html.Screen,0_2_1_0,2021-11-12T11:53:56.762Z,,,,,,,,,,,,,,,,,,,,,,,,,,,,,,10002.357000000004,,timeout,,,,,,,,,,,,,,,,95387.09999999963,95385.293,85382.936,85399.19999999925,85399.606,95401.963,,,
screen,html.Screen,0_2_1_1_0,2021-11-12T11:53:57.621Z,,,,,,,,,,,,,,,,54,,,,,,,,,,,,,,843.0369999999966,,response,,,100,,,,,,Space,keypress(Space),,,,,At --- ---- --- ------ ----- ------- ---- -- --- ------- --<br>------- ---------- ------ -- ----- -- ----- -- ---- ------<br>--- ----- --- --- ------ -------- ----- --- ------ ----- --<br>----- ----- ---------- --- --- ------ ------ ---- -- ------<br>------- --- ------ ----- --- ---- ------- -- ---- --- --<br>------- ------,96245.90000000037,96245,95385.293,95387.5,95401.963,96252.349,,0,At
screen,html.Screen,0_2_1_1_1,2021-11-12T11:53:58.077Z,,,,,,,,,,,,,,,,54,,,,,,,,,,,,,,448.2509999996255,,response,,,100,,,,,,Space,keypress(Space),,,,,-- the ---- --- ------ ----- ------- ---- -- --- ------- --<br>------- ---------- ------ -- ----- -- ----- -- ---- ------<br>--- ----- --- --- ------ -------- ----- --- ------ ----- --<br>----- ----- ---------- --- --- ------ ------ ---- -- ------<br>------- --- ------ ----- --- ---- ------- -- ---- --- --<br>------- ------,96701.40000000037,96700.59999999963,96235.678,96246.19999999925,96252.349,96702.285,,1,the
screen,html.Screen,0_2_1_1_2,2021-11-12T11:53:58.541Z,,,,,,,,,,,,,,,,54,,,,,,,,,,,,,,462.314999999624,,response,,,100,,,,,,Space,keypress(Space),,,,,-- --- time --- ------ ----- ------- ---- -- --- ------- --<br>------- ---------- ------ -- ----- -- ----- -- ---- ------<br>--- ----- --- --- ------ -------- ----- --- ------ ----- --<br>----- ----- ---------- --- --- ------ ------ ---- -- ------<br>------- --- ------ ----- --- ---- ------- -- ---- --- --<br>------- ------,97165.40000000037,97164.59999999963,96685.616,96701.69999999925,96702.285,97169.233,,2,time
screen,html.Screen,0_2_1_1_3,2021-11-12T11:53:58.981Z,,,,,,,,,,,,,,,,54,,,,,,,,,,,,,,435.3669999996346,,response,,,100,,,,,,Space,keypress(Space),,,,,-- --- ---- the ------ ----- ------- ---- -- --- ------- --<br>------- ---------- ------ -- ----- -- ----- -- ---- ------<br>--- ----- --- --- ------ -------- ----- --- ------ ----- --<br>----- ----- ---------- --- --- ------ ------ ---- -- ------<br>------- --- ------ ----- --- ---- ------- -- ---- --- --<br>------- ------,97605.40000000037,97604.59999999963,97152.562,97165.59999999963,97169.233,97619.282,,3,the
screen,html.Screen,0_2_1_1_4,2021-11-12T11:53:59.701Z,,,,,,,,,,,,,,,,54,,,,,,,,,,,,,,705.2179999999935,,response,,,100,,,,,,Space,keypress(Space),,,,,-- --- ---- --- French ----- ------- ---- -- --- ------- --<br>------- ---------- ------ -- ----- -- ----- -- ---- ------<br>--- ----- --- --- ------ -------- ----- --- ------ ----- --<br>----- ----- ---------- --- --- ------ ------ ---- -- ------<br>------- --- ------ ----- --- ---- ------- -- ---- --- --<br>------- ------,98325.19999999925,98324.5,97602.612,97605.59999999963,97619.282,98336.134,,4,French
screen,html.Screen,0_2_1_1_5,2021-11-12T11:54:00.261Z,,,,,,,,,,,,,,,,54,,,,,,,,,,,,,,548.2660000003671,,response,,,100,,,,,,Space,keypress(Space),,,,,-- --- ---- --- ------ crown ------- ---- -- --- ------- --<br>------- ---------- ------ -- ----- -- ----- -- ---- ------<br>--- ----- --- --- ------ -------- ----- --- ------ ----- --<br>----- ----- ---------- --- --- ------ ------ ---- -- ------<br>------- --- ------ ----- --- ---- ------- -- ---- --- --<br>------- ------,98885.19999999925,98884.40000000037,98319.464,98325.5,98336.134,98902.801,,5,crown
screen,html.Screen,0_2_1_1_6,2021-11-12T11:54:00.845Z,,,,,,,,,,,,,,,,54,,,,,,,,,,,,,,565.5990000003658,,response,,,100,,,,,,Space,keypress(Space),,,,,-- --- ---- --- ------ ----- secured ---- -- --- ------- --<br>------- ---------- ------ -- ----- -- ----- -- ---- ------<br>--- ----- --- --- ------ -------- ----- --- ------ ----- --<br>----- ----- ---------- --- --- ------ ------ ---- -- ------<br>------- --- ------ ----- --- ---- ------- -- ---- --- --<br>------- ------,99469.19999999925,99468.40000000037,98886.132,98885.5,98902.801,99486.494,,6,secured
screen,html.Screen,0_2_1_1_7,2021-11-12T11:54:01.532Z,,,,,,,,,,,,,,,,54,,,,,,,,,,,,,,669.9060000003665,,response,,,100,,,,,,Space,keypress(Space),,,,,-- --- ---- --- ------ ----- ------- much -- --- ------- --<br>------- ---------- ------ -- ----- -- ----- -- ---- ------<br>--- ----- --- --- ------ -------- ----- --- ------ ----- --<br>----- ----- ---------- --- --- ------ ------ ---- -- ------<br>------- --- ------ ----- --- ---- ------- -- ---- --- --<br>------- ------,100157.09999999963,100156.40000000037,99469.823,99469.40000000037,99486.494,100169.878,,7,much
screen,html.Screen,0_2_1_1_8,2021-11-12T11:54:01.964Z,,,,,,,,,,,,,,,,54,,,,,,,,,,,,,,418.42199999888544,,response,,,100,,,,,,Space,keypress(Space),,,,,-- --- ---- --- ------ ----- ------- ---- of --- ------- --<br>------- ---------- ------ -- ----- -- ----- -- ---- ------<br>--- ----- --- --- ------ -------- ----- --- ------ ----- --<br>----- ----- ---------- --- --- ------ ------ ---- -- ------<br>------- --- ------ ----- --- ---- ------- -- ---- --- --<br>------- ------,100589.09999999963,100588.29999999888,100153.208,100157.40000000037,100169.878,100603.366,,8,of
screen,html.Screen,0_2_1_1_9,2021-11-12T11:54:02.428Z,,,,,,,,,,,,,,,,54,,,,,,,,,,,,,,448.9339999988879,,response,,,100,,,,,,Space,keypress(Space),,,,,-- --- ---- --- ------ ----- ------- ---- -- its ------- --<br>------- ---------- ------ -- ----- -- ----- -- ---- ------<br>--- ----- --- --- ------ -------- ----- --- ------ ----- --<br>----- ----- ---------- --- --- ------ ------ ---- -- ------<br>------- --- ------ ----- --- ---- ------- -- ---- --- --<br>------- ------,101053.09999999963,101052.29999999888,100586.696,100589.40000000037,100603.366,101070.138,,9,its
screen,html.Screen,0_2_1_1_10,2021-11-12T11:54:03.108Z,,,,,,,,,,,,,,,,54,,,,,,,,,,,,,,662.1619999988761,,response,,,100,,,,,,Space,keypress(Space),,,,,-- --- ---- --- ------ ----- ------- ---- -- --- revenue --<br>------- ---------- ------ -- ----- -- ----- -- ---- ------<br>--- ----- --- --- ------ -------- ----- --- ------ ----- --<br>----- ----- ---------- --- --- ------ ------ ---- -- ------<br>------- --- ------ ----- --- ---- ------- -- ---- --- --<br>------- ------,101733,101732.29999999888,101053.468,101053.40000000037,101070.138,101736.957,,10,revenue
screen,html.Screen,0_2_1_1_11,2021-11-12T11:54:03.620Z,,,,,,,,,,,,,,,,54,,,,,,,,,,,,,,507.34299999888754,,response,,,100,,,,,,Space,keypress(Space),,,,,-- --- ---- --- ------ ----- ------- ---- -- --- ------- by<br>------- ---------- ------ -- ----- -- ----- -- ---- ------<br>--- ----- --- --- ------ -------- ----- --- ------ ----- --<br>----- ----- ---------- --- --- ------ ------ ---- -- ------<br>------- --- ------ ----- --- ---- ------- -- ---- --- --<br>------- ------,102245,102244.29999999888,101720.287,101733.29999999888,101736.957,102253.735,,11,by
screen,html.Screen,0_2_1_1_12,2021-11-12T11:54:04.572Z,,,,,,,,,,,,,,,,54,,,,,,,,,,,,,,942.3649999996269,,response,,,100,,,,,,Space,keypress(Space),,,,,-- --- ---- --- ------ ----- ------- ---- -- --- ------- --<br>issuing ---------- ------ -- ----- -- ----- -- ---- ------<br>--- ----- --- --- ------ -------- ----- --- ------ ----- --<br>----- ----- ---------- --- --- ------ ------ ---- -- ------<br>------- --- ------ ----- --- ---- ------- -- ---- --- --<br>------- ------,103196.90000000037,103196.09999999963,102237.065,102245.29999999888,102253.735,103203.938,,12,issuing
screen,html.Screen,0_2_1_1_13,2021-11-12T11:54:05.036Z,,,,,,,,,,,,,,,,54,,,,,,,,,,,,,,456.2619999992603,,response,,,100,,,,,,Space,keypress(Space),,,,,-- --- ---- --- ------ ----- ------- ---- -- --- ------- --<br>------- government ------ -- ----- -- ----- -- ---- ------<br>--- ----- --- --- ------ -------- ----- --- ------ ----- --<br>----- ----- ---------- --- --- ------ ------ ---- -- ------<br>------- --- ------ ----- --- ---- ------- -- ---- --- --<br>------- ------,103661,103660.19999999925,103187.268,103197.09999999963,103203.938,103670.835,,13,government
screen,html.Screen,0_2_1_1_14,2021-11-12T11:54:05.876Z,,,,,,,,,,,,,,,,54,,,,,,,,,,,,,,829.1649999999936,,response,,,100,,,,,,Space,keypress(Space),,,,,-- --- ---- --- ------ ----- ------- ---- -- --- ------- --<br>------- ---------- bonds. -- ----- -- ----- -- ---- ------<br>--- ----- --- --- ------ -------- ----- --- ------ ----- --<br>----- ----- ---------- --- --- ------ ------ ---- -- ------<br>------- --- ------ ----- --- ---- ------- -- ---- --- --<br>------- ------,104500.79999999888,104500,103654.164,103661.19999999925,103670.835,104504.277,,14,bonds.
screen,html.Screen,0_2_1_1_15,2021-11-12T11:54:06.580Z,,,,,,,,,,,,,,,,54,,,,,,,,,,,,,,699.7229999999981,,response,,,100,,,,,,Space,keypress(Space),,,,,-- --- ---- --- ------ ----- ------- ---- -- --- ------- --<br>------- ---------- ------ In ----- -- ----- -- ---- ------<br>--- ----- --- --- ------ -------- ----- --- ------ ----- --<br>----- ----- ---------- --- --- ------ ------ ---- -- ------<br>------- --- ------ ----- --- ---- ------- -- ---- --- --<br>------- ------,105204.79999999888,105204,104487.607,104501.09999999963,104504.277,105221.109,,15,In
screen,html.Screen,0_2_1_1_16,2021-11-12T11:54:07.236Z,,,,,,,,,,,,,,,,54,,,,,,,,,,,,,,638.8910000000033,,response,,,100,,,,,,Space,keypress(Space),,,,,"-- --- ---- --- ------ ----- ------- ---- -- --- ------- --<br>------- ---------- ------ -- 1727, -- ----- -- ---- ------<br>--- ----- --- --- ------ -------- ----- --- ------ ----- --<br>----- ----- ---------- --- --- ------ ------ ---- -- ------<br>------- --- ------ ----- --- ---- ------- -- ---- --- --<br>------- ------",105860.79999999888,105860,105204.439,105205,105221.109,105871.284,,16,"1727,"
screen,html.Screen,0_2_1_1_17,2021-11-12T11:54:07.780Z,,,,,,,,,,,,,,,,54,,,,,,,,,,,,,,533.0159999988828,,response,,,100,,,,,,Space,keypress(Space),,,,,-- --- ---- --- ------ ----- ------- ---- -- --- ------- --<br>------- ---------- ------ -- ----- in ----- -- ---- ------<br>--- ----- --- --- ------ -------- ----- --- ------ ----- --<br>----- ----- ---------- --- --- ------ ------ ---- -- ------<br>------- --- ------ ----- --- ---- ------- -- ---- --- --<br>------- ------,106405.09999999963,106404.29999999888,105854.614,105861,105871.284,106421.427,,17,in
screen,html.Screen,0_2_1_1_18,2021-11-12T11:54:08.316Z,,,,,,,,,,,,,,,,54,,,,,,,,,,,,,,518.4730000003765,,response,,,100,,,,,,Space,keypress(Space),,,,,-- --- ---- --- ------ ----- ------- ---- -- --- ------- --<br>------- ---------- ------ -- ----- -- order -- ---- ------<br>--- ----- --- --- ------ -------- ----- --- ------ ----- --<br>----- ----- ---------- --- --- ------ ------ ---- -- ------<br>------- --- ------ ----- --- ---- ------- -- ---- --- --<br>------- ------,106940.69999999925,106939.90000000037,106404.757,106405.29999999888,106421.427,106954.777,,18,order
screen,html.Screen,0_2_1_1_19,2021-11-12T11:54:08.788Z,,,,,,,,,,,,,,,,54,,,,,,,,,,,,,,457.02299999888055,,response,,,100,,,,,,Space,keypress(Space),,,,,-- --- ---- --- ------ ----- ------- ---- -- --- ------- --<br>------- ---------- ------ -- ----- -- ----- to ---- ------<br>--- ----- --- --- ------ -------- ----- --- ------ ----- --<br>----- ----- ---------- --- --- ------ ------ ---- -- ------<br>------- --- ------ ----- --- ---- ------- -- ---- --- --<br>------- ------,107412.59999999963,107411.79999999888,106938.108,106941,106954.777,107421.651,,19,to
screen,html.Screen,0_2_1_1_20,2021-11-12T11:54:09.260Z,,,,,,,,,,,,,,,,54,,,,,,,,,,,,,,462.0489999992569,,response,,,100,,,,,,Space,keypress(Space),,,,,-- --- ---- --- ------ ----- ------- ---- -- --- ------- --<br>------- ---------- ------ -- ----- -- ----- -- save ------<br>--- ----- --- --- ------ -------- ----- --- ------ ----- --<br>----- ----- ---------- --- --- ------ ------ ---- -- ------<br>------- --- ------ ----- --- ---- ------- -- ---- --- --<br>------- ------,107884.5,107883.69999999925,107404.981,107412.79999999888,107421.651,107888.488,,20,save
screen,html.Screen,0_2_1_1_21,2021-11-12T11:54:09.708Z,,,,,,,,,,,,,,,,54,,,,,,,,,,,,,,443.2119999992574,,response,,,100,,,,,,Space,keypress(Space),,,,,"-- --- ---- --- ------ ----- ------- ---- -- --- ------- --<br>------- ---------- ------ -- ----- -- ----- -- ---- money,<br>--- ----- --- --- ------ -------- ----- --- ------ ----- --<br>----- ----- ---------- --- --- ------ ------ ---- -- ------<br>------- --- ------ ----- --- ---- ------- -- ---- --- --<br>------- ------",108332.5,108331.69999999925,107871.817,107884.69999999925,107888.488,108338.618,,21,"money,"
screen,html.Screen,0_2_1_1_22,2021-11-12T11:54:10.204Z,,,,,,,,,,,,,,,,54,,,,,,,,,,,,,,489.08199999925273,,response,,,100,,,,,,Space,keypress(Space),,,,,-- --- ---- --- ------ ----- ------- ---- -- --- ------- --<br>------- ---------- ------ -- ----- -- ----- -- ---- ------<br>the ----- --- --- ------ -------- ----- --- ------ ----- --<br>----- ----- ---------- --- --- ------ ------ ---- -- ------<br>------- --- ------ ----- --- ---- ------- -- ---- --- --<br>------- ------,108828.5,108827.69999999925,108321.947,108332.79999999888,108338.618,108838.684,,22,the
screen,html.Screen,0_2_1_1_23,2021-11-12T11:54:10.676Z,,,,,,,,,,,,,,,,54,,,,,,,,,,,,,,460.91599999963364,,response,,,100,,,,,,Space,keypress(Space),,,,,-- --- ---- --- ------ ----- ------- ---- -- --- ------- --<br>------- ---------- ------ -- ----- -- ----- -- ---- ------<br>--- state --- --- ------ -------- ----- --- ------ ----- --<br>----- ----- ---------- --- --- ------ ------ ---- -- ------<br>------- --- ------ ----- --- ---- ------- -- ---- --- --<br>------- ------,109300.5,109299.59999999963,108822.014,108828.79999999888,108838.684,109305.474,,23,state
screen,html.Screen,0_2_1_1_24,2021-11-12T11:54:11.148Z,,,,,,,,,,,,,,,,54,,,,,,,,,,,,,,466.22599999925296,,response,,,100,,,,,,Space,keypress(Space),,,,,-- --- ---- --- ------ ----- ------- ---- -- --- ------- --<br>------- ---------- ------ -- ----- -- ----- -- ---- ------<br>--- ----- cut --- ------ -------- ----- --- ------ ----- --<br>----- ----- ---------- --- --- ------ ------ ---- -- ------<br>------- --- ------ ----- --- ---- ------- -- ---- --- --<br>------- ------,109772.40000000037,109771.69999999925,109288.804,109300.69999999925,109305.474,109788.891,,24,cut
screen,html.Screen,0_2_1_1_25,2021-11-12T11:54:11.604Z,,,,,,,,,,,,,,,,54,,,,,,,,,,,,,,438.8089999992517,,response,,,100,,,,,,Space,keypress(Space),,,,,-- --- ---- --- ------ ----- ------- ---- -- --- ------- --<br>------- ---------- ------ -- ----- -- ----- -- ---- ------<br>--- ----- --- the ------ -------- ----- --- ------ ----- --<br>----- ----- ---------- --- --- ------ ------ ---- -- ------<br>------- --- ------ ----- --- ---- ------- -- ---- --- --<br>------- ------,110228.40000000037,110227.69999999925,109772.221,109772.69999999925,109788.891,110239.075,,25,the
screen,html.Screen,0_2_1_1_26,2021-11-12T11:54:12.076Z,,,,,,,,,,,,,,,,54,,,,,,,,,,,,,,460.5249999996304,,response,,,100,,,,,,Space,keypress(Space),,,,,-- --- ---- --- ------ ----- ------- ---- -- --- ------- --<br>------- ---------- ------ -- ----- -- ----- -- ---- ------<br>--- ----- --- --- bonds' -------- ----- --- ------ ----- --<br>----- ----- ---------- --- --- ------ ------ ---- -- ------<br>------- --- ------ ----- --- ---- ------- -- ---- --- --<br>------- ------,110700.40000000037,110699.59999999963,110222.404,110228.69999999925,110239.075,110705.795,,26,bonds'
screen,html.Screen,0_2_1_1_27,2021-11-12T11:54:12.572Z,,,,,,,,,,,,,,,,54,,,,,,,,,,,,,,489.8049999996292,,response,,,100,,,,,,Space,keypress(Space),,,,,-- --- ---- --- ------ ----- ------- ---- -- --- ------- --<br>------- ---------- ------ -- ----- -- ----- -- ---- ------<br>--- ----- --- --- ------ interest ----- --- ------ ----- --<br>----- ----- ---------- --- --- ------ ------ ---- -- ------<br>------- --- ------ ----- --- ---- ------- -- ---- --- --<br>------- ------,111196.40000000037,111195.59999999963,110689.125,110700.59999999963,110705.795,111205.939,,27,interest
screen,html.Screen,0_2_1_1_28,2021-11-12T11:54:13.060Z,,,,,,,,,,,,,,,,54,,,,,,,,,,,,,,477.660999999629,,response,,,100,,,,,,Space,keypress(Space),,,,,-- --- ---- --- ------ ----- ------- ---- -- --- ------- --<br>------- ---------- ------ -- ----- -- ----- -- ---- ------<br>--- ----- --- --- ------ -------- rate. --- ------ ----- --<br>----- ----- ---------- --- --- ------ ------ ---- -- ------<br>------- --- ------ ----- --- ---- ------- -- ---- --- --<br>------- ------,111684.29999999888,111683.59999999963,111189.269,111196.59999999963,111205.939,111689.347,,28,rate.
screen,html.Screen,0_2_1_1_29,2021-11-12T11:54:13.548Z,,,,,,,,,,,,,,,,54,,,,,,,,,,,,,,482.1530000000057,,response,,,100,,,,,,Space,keypress(Space),,,,,-- --- ---- --- ------ ----- ------- ---- -- --- ------- --<br>------- ---------- ------ -- ----- -- ----- -- ---- ------<br>--- ----- --- --- ------ -------- ----- The ------ ----- --<br>----- ----- ---------- --- --- ------ ------ ---- -- ------<br>------- --- ------ ----- --- ---- ------- -- ---- --- --<br>------- ------,112172.40000000037,112171.5,111672.677,111684.59999999963,111689.347,112189.55,,29,The
screen,html.Screen,0_2_1_1_30,2021-11-12T11:54:14.108Z,,,,,,,,,,,,,,,,54,,,,,,,,,,,,,,541.8500000003696,,response,,,100,,,,,,Space,keypress(Space),,,,,-- --- ---- --- ------ ----- ------- ---- -- --- ------- --<br>------- ---------- ------ -- ----- -- ----- -- ---- ------<br>--- ----- --- --- ------ -------- ----- --- market ----- --<br>----- ----- ---------- --- --- ------ ------ ---- -- ------<br>------- --- ------ ----- --- ---- ------- -- ---- --- --<br>------- ------,112732.19999999925,112731.40000000037,112172.879,112172.59999999963,112189.55,112739.622,,30,market
screen,html.Screen,0_2_1_1_31,2021-11-12T11:54:14.636Z,,,,,,,,,,,,,,,,54,,,,,,,,,,,,,,519.7780000003695,,response,,,100,,,,,,Space,keypress(Space),,,,,-- --- ---- --- ------ ----- ------- ---- -- --- ------- --<br>------- ---------- ------ -- ----- -- ----- -- ---- ------<br>--- ----- --- --- ------ -------- ----- --- ------ value --<br>----- ----- ---------- --- --- ------ ------ ---- -- ------<br>------- --- ------ ----- --- ---- ------- -- ---- --- --<br>------- ------,113260.29999999888,113259.40000000037,112722.952,112732.5,112739.622,113273.067,,31,value
screen,html.Screen,0_2_1_1_32,2021-11-12T11:54:15.124Z,,,,,,,,,,,,,,,,54,,,,,,,,,,,,,,474.33300000037707,,response,,,100,,,,,,Space,keypress(Space),,,,,-- --- ---- --- ------ ----- ------- ---- -- --- ------- --<br>------- ---------- ------ -- ----- -- ----- -- ---- ------<br>--- ----- --- --- ------ -------- ----- --- ------ ----- of<br>----- ----- ---------- --- --- ------ ------ ---- -- ------<br>------- --- ------ ----- --- ---- ------- -- ---- --- --<br>------- ------,113748.19999999925,113747.40000000037,113256.397,113260.5,113273.067,113756.605,,32,of
screen,html.Screen,0_2_1_1_33,2021-11-12T11:54:15.651Z,,,,,,,,,,,,,,,,54,,,,,,,,,,,,,,518.7950000003766,,response,,,100,,,,,,Space,keypress(Space),,,,,-- --- ---- --- ------ ----- ------- ---- -- --- ------- --<br>------- ---------- ------ -- ----- -- ----- -- ---- ------<br>--- ----- --- --- ------ -------- ----- --- ------ ----- --<br>these ----- ---------- --- --- ------ ------ ---- -- ------<br>------- --- ------ ----- --- ---- ------- -- ---- --- --<br>------- ------,114276.09999999963,114275.40000000037,113739.934,113748.40000000037,113756.605,114289.987,,33,these
screen,html.Screen,0_2_1_1_34,2021-11-12T11:54:16.219Z,,,,,,,,,,,,,,,,54,,,,,,,,,,,,,,553.3129999988887,,response,,,100,,,,,,Space,keypress(Space),,,,,-- --- ---- --- ------ ----- ------- ---- -- --- ------- --<br>------- ---------- ------ -- ----- -- ----- -- ---- ------<br>--- ----- --- --- ------ -------- ----- --- ------ ----- --<br>----- bonds ---------- --- --- ------ ------ ---- -- ------<br>------- --- ------ ----- --- ---- ------- -- ---- --- --<br>------- ------,114844.19999999925,114843.29999999888,114273.317,114276.40000000037,114289.987,114856.874,,34,bonds
screen,html.Screen,0_2_1_1_35,2021-11-12T11:54:16.779Z,,,,,,,,,,,,,,,,54,,,,,,,,,,,,,,546.4259999988863,,response,,,100,,,,,,Space,keypress(Space),,,,,"-- --- ---- --- ------ ----- ------- ---- -- --- ------- --<br>------- ---------- ------ -- ----- -- ----- -- ---- ------<br>--- ----- --- --- ------ -------- ----- --- ------ ----- --<br>----- ----- plummeted, --- --- ------ ------ ---- -- ------<br>------- --- ------ ----- --- ---- ------- -- ---- --- --<br>------- ------",115404,115403.29999999888,114840.203,114844.40000000037,114856.874,115406.925,,35,"plummeted,"
screen,html.Screen,0_2_1_1_36,2021-11-12T11:54:17.291Z,,,,,,,,,,,,,,,,54,,,,,,,,,,,,,,508.3749999988795,,response,,,100,,,,,,Space,keypress(Space),,,,,-- --- ---- --- ------ ----- ------- ---- -- --- ------- --<br>------- ---------- ------ -- ----- -- ----- -- ---- ------<br>--- ----- --- --- ------ -------- ----- --- ------ ----- --<br>----- ----- ---------- and --- ------ ------ ---- -- ------<br>------- --- ------ ----- --- ---- ------- -- ---- --- --<br>------- ------,115916.09999999963,115915.29999999888,115390.255,115404.40000000037,115406.925,115923.743,,36,and
screen,html.Screen,0_2_1_1_37,2021-11-12T11:54:17.804Z,,,,,,,,,,,,,,,,54,,,,,,,,,,,,,,503.85699999962526,,response,,,100,,,,,,Space,keypress(Space),,,,,-- --- ---- --- ------ ----- ------- ---- -- --- ------- --<br>------- ---------- ------ -- ----- -- ----- -- ---- ------<br>--- ----- --- --- ------ -------- ----- --- ------ ----- --<br>----- ----- ---------- --- the ------ ------ ---- -- ------<br>------- --- ------ ----- --- ---- ------- -- ---- --- --<br>------- ------,116428.59999999963,116427.59999999963,115907.073,115916.40000000037,115923.743,116440.508,,37,the
screen,html.Screen,0_2_1_1_38,2021-11-12T11:54:18.307Z,,,,,,,,,,,,,,,,54,,,,,,,,,,,,,,490.6919999992533,,response,,,100,,,,,,Space,keypress(Space),,,,,-- --- ---- --- ------ ----- ------- ---- -- --- ------- --<br>------- ---------- ------ -- ----- -- ----- -- ---- ------<br>--- ----- --- --- ------ -------- ----- --- ------ ----- --<br>----- ----- ---------- --- --- market ------ ---- -- ------<br>------- --- ------ ----- --- ---- ------- -- ---- --- --<br>------- ------,116932,116931.19999999925,116423.838,116428.79999999888,116440.508,116940.635,,38,market
screen,html.Screen,0_2_1_1_39,2021-11-12T11:54:19.123Z,,,,,,,,,,,,,,,,54,,,,,,,,,,,,,,806.4649999996327,,response,,,100,,,,,,Space,keypress(Space),,,,,-- --- ---- --- ------ ----- ------- ---- -- --- ------- --<br>------- ---------- ------ -- ----- -- ----- -- ---- ------<br>--- ----- --- --- ------ -------- ----- --- ------ ----- --<br>----- ----- ---------- --- --- ------ became ---- -- ------<br>------- --- ------ ----- --- ---- ------- -- ---- --- --<br>------- ------,117747.90000000037,117747.09999999963,116923.965,116932.29999999888,116940.635,117757.49,,39,became
screen,html.Screen,0_2_1_1_40,2021-11-12T11:54:19.619Z,,,,,,,,,,,,,,,,54,,,,,,,,,,,,,,485.60999999962223,,response,,,100,,,,,,Space,keypress(Space),,,,,-- --- ---- --- ------ ----- ------- ---- -- --- ------- --<br>------- ---------- ------ -- ----- -- ----- -- ---- ------<br>--- ----- --- --- ------ -------- ----- --- ------ ----- --<br>----- ----- ---------- --- --- ------ ------ wary -- ------<br>------- --- ------ ----- --- ---- ------- -- ---- --- --<br>------- ------,118243.90000000037,118243.09999999963,117740.82,117748.19999999925,117757.49,118257.449,,40,wary
screen,html.Screen,0_2_1_1_41,2021-11-12T11:54:20.107Z,,,,,,,,,,,,,,,,54,,,,,,,,,,,,,,473.6509999996342,,response,,,100,,,,,,Space,keypress(Space),,,,,-- --- ---- --- ------ ----- ------- ---- -- --- ------- --<br>------- ---------- ------ -- ----- -- ----- -- ---- ------<br>--- ----- --- --- ------ -------- ----- --- ------ ----- --<br>----- ----- ---------- --- --- ------ ------ ---- of ------<br>------- --- ------ ----- --- ---- ------- -- ---- --- --<br>------- ------,118731.90000000037,118731.09999999963,118240.781,118244.19999999925,118257.449,118741.141,,41,of
screen,html.Screen,0_2_1_1_42,2021-11-12T11:54:20.875Z,,,,,,,,,,,,,,,,54,,,,,,,,,,,,,,757.8589999999967,,response,,,100,,,,,,Space,keypress(Space),,,,,-- --- ---- --- ------ ----- ------- ---- -- --- ------- --<br>------- ---------- ------ -- ----- -- ----- -- ---- ------<br>--- ----- --- --- ------ -------- ----- --- ------ ----- --<br>----- ----- ---------- --- --- ------ ------ ---- -- French<br>------- --- ------ ----- --- ---- ------- -- ---- --- --<br>------- ------,119499.79999999888,119499,118724.47,118732.09999999963,118741.141,119507.918,,42,French
screen,html.Screen,0_2_1_1_43,2021-11-12T11:54:21.299Z,,,,,,,,,,,,,,,,54,,,,,,,,,,,,,,415.0819999999949,,response,,,100,,,,,,Space,keypress(Space),,,,,-- --- ---- --- ------ ----- ------- ---- -- --- ------- --<br>------- ---------- ------ -- ----- -- ----- -- ---- ------<br>--- ----- --- --- ------ -------- ----- --- ------ ----- --<br>----- ----- ---------- --- --- ------ ------ ---- -- ------<br>credit. --- ------ ----- --- ---- ------- -- ---- --- --<br>------- ------,119923.69999999925,119923,119491.248,119500.09999999963,119507.918,119924.688,,43,credit.
screen,html.Screen,0_2_1_1_44,2021-11-12T11:54:22.255Z,,,,,,,,,,,,,,,,54,,,,,,,,,,,,,,950.1119999988878,,response,,,100,,,,,,Space,keypress(Space),,,,,-- --- ---- --- ------ ----- ------- ---- -- --- ------- --<br>------- ---------- ------ -- ----- -- ----- -- ---- ------<br>--- ----- --- --- ------ -------- ----- --- ------ ----- --<br>----- ----- ---------- --- --- ------ ------ ---- -- ------<br>------- The ------ ----- --- ---- ------- -- ---- --- --<br>------- ------,120875.59999999963,120874.79999999888,119908.018,119924,119924.688,120891.594,,44,The
screen,html.Screen,0_2_1_1_45,2021-11-12T11:54:22.846Z,,,,,,,,,,,,,,,,54,,,,,,,,,,,,,,575.2059999988851,,response,,,100,,,,,,Space,keypress(Space),,,,,-- --- ---- --- ------ ----- ------- ---- -- --- ------- --<br>------- ---------- ------ -- ----- -- ----- -- ---- ------<br>--- ----- --- --- ------ -------- ----- --- ------ ----- --<br>----- ----- ---------- --- --- ------ ------ ---- -- ------<br>------- --- French ----- --- ---- ------- -- ---- --- --<br>------- ------,121467.40000000037,121466.79999999888,120874.924,120875.90000000037,120891.594,121475.057,,45,French
screen,html.Screen,0_2_1_1_46,2021-11-12T11:54:23.527Z,,,,,,,,,,,,,,,,54,,,,,,,,,,,,,,671.7429999988817,,response,,,100,,,,,,Space,keypress(Space),,,,,-- --- ---- --- ------ ----- ------- ---- -- --- ------- --<br>------- ---------- ------ -- ----- -- ----- -- ---- ------<br>--- ----- --- --- ------ -------- ----- --- ------ ----- --<br>----- ----- ---------- --- --- ------ ------ ---- -- ------<br>------- --- ------ state --- ---- ------- -- ---- --- --<br>------- ------,122147.59999999963,122146.79999999888,121458.387,121467.59999999963,121475.057,122158.552,,46,state
screen,html.Screen,0_2_1_1_47,2021-11-12T11:54:23.991Z,,,,,,,,,,,,,,,,54,,,,,,,,,,,,,,452.3480000003765,,response,,,100,,,,,,Space,keypress(Space),,,,,-- --- ---- --- ------ ----- ------- ---- -- --- ------- --<br>------- ---------- ------ -- ----- -- ----- -- ---- ------<br>--- ----- --- --- ------ -------- ----- --- ------ ----- --<br>----- ----- ---------- --- --- ------ ------ ---- -- ------<br>------- --- ------ ----- was ---- ------- -- ---- --- --<br>------- ------,122611.5,122610.90000000037,122141.882,122147.79999999888,122158.552,122625.386,,47,was
screen,html.Screen,0_2_1_1_48,2021-11-12T11:54:24.311Z,,,,,,,,,,,,,,,,54,,,,,,,,,,,,,,305.4139999988838,,response,,,100,,,,,,Space,keypress(Space),,,,,-- --- ---- --- ------ ----- ------- ---- -- --- ------- --<br>------- ---------- ------ -- ----- -- ----- -- ---- ------<br>--- ----- --- --- ------ -------- ----- --- ------ ----- --<br>----- ----- ---------- --- --- ------ ------ ---- -- ------<br>------- --- ------ ----- --- left ------- -- ---- --- --<br>------- ------,122931.59999999963,122930.79999999888,122608.716,122611.79999999888,122625.386,122942.107,,48,left
screen,html.Screen,0_2_1_1_49,2021-11-12T11:54:24.727Z,,,,,,,,,,,,,,,,54,,,,,,,,,,,,,,404.6929999988788,,response,,,100,,,,,,Space,keypress(Space),,,,,-- --- ---- --- ------ ----- ------- ---- -- --- ------- --<br>------- ---------- ------ -- ----- -- ----- -- ---- ------<br>--- ----- --- --- ------ -------- ----- --- ------ ----- --<br>----- ----- ---------- --- --- ------ ------ ---- -- ------<br>------- --- ------ ----- --- ---- without -- ---- --- --<br>------- ------,123347.5,123346.79999999888,122925.437,122931.79999999888,122942.107,123358.87,,49,without
screen,html.Screen,0_2_1_1_50,2021-11-12T11:54:25.151Z,,,,,,,,,,,,,,,,54,,,,,,,,,,,,,,411.8299999992596,,response,,,100,,,,,,Space,keypress(Space),,,,,-- --- ---- --- ------ ----- ------- ---- -- --- ------- --<br>------- ---------- ------ -- ----- -- ----- -- ---- ------<br>--- ----- --- --- ------ -------- ----- --- ------ ----- --<br>----- ----- ---------- --- --- ------ ------ ---- -- ------<br>------- --- ------ ----- --- ---- ------- an ---- --- --<br>------- ------,123771.5,123770.69999999925,123342.2,123347.79999999888,123358.87,123775.706,,50,an
screen,html.Screen,0_2_1_1_51,2021-11-12T11:54:25.582Z,,,,,,,,,,,,,,,,54,,,,,,,,,,,,,,426.99399999924935,,response,,,100,,,,,,Space,keypress(Space),,,,,-- --- ---- --- ------ ----- ------- ---- -- --- ------- --<br>------- ---------- ------ -- ----- -- ----- -- ---- ------<br>--- ----- --- --- ------ -------- ----- --- ------ ----- --<br>----- ----- ---------- --- --- ------ ------ ---- -- ------<br>------- --- ------ ----- --- ---- ------- -- easy --- --<br>------- ------,124203.40000000037,124202.69999999925,123759.035,123771.69999999925,123775.706,124209.07,,51,easy
screen,html.Screen,0_2_1_1_52,2021-11-12T11:54:25.990Z,,,,,,,,,,,,,,,,54,,,,,,,,,,,,,,401.62999999924796,,response,,,100,,,,,,Space,keypress(Space),,,,,-- --- ---- --- ------ ----- ------- ---- -- --- ------- --<br>------- ---------- ------ -- ----- -- ----- -- ---- ------<br>--- ----- --- --- ------ -------- ----- --- ------ ----- --<br>----- ----- ---------- --- --- ------ ------ ---- -- ------<br>------- --- ------ ----- --- ---- ------- -- ---- way --<br>------- ------,124611.40000000037,124610.69999999925,124192.4,124203.69999999925,124209.07,124625.839,,52,way
screen,html.Screen,0_2_1_1_53,2021-11-12T11:54:27.062Z,,,,,,,,,,,,,,,,54,,,,,,,,,,,,,,1056.7609999996203,,response,,,100,,,,,,Space,keypress(Space),,,,,-- --- ---- --- ------ ----- ------- ---- -- --- ------- --<br>------- ---------- ------ -- ----- -- ----- -- ---- ------<br>--- ----- --- --- ------ -------- ----- --- ------ ----- --<br>----- ----- ---------- --- --- ------ ------ ---- -- ------<br>------- --- ------ ----- --- ---- ------- -- ---- --- of<br>------- ------,125683.29999999888,125682.59999999963,124609.169,124611.69999999925,124625.839,125692.838,,53,of
screen,html.Screen,0_2_1_1_54,2021-11-12T11:54:27.478Z,,,,,,,,,,,,,,,,54,,,,,,,,,,,,,,405.6619999999966,,response,,,100,,,,,,Space,keypress(Space),,,,,-- --- ---- --- ------ ----- ------- ---- -- --- ------- --<br>------- ---------- ------ -- ----- -- ----- -- ---- ------<br>--- ----- --- --- ------ -------- ----- --- ------ ----- --<br>----- ----- ---------- --- --- ------ ------ ---- -- ------<br>------- --- ------ ----- --- ---- ------- -- ---- --- --<br>raising ------,126099.29999999888,126098.5,125676.167,125683.59999999963,125692.838,126109.526,,54,raising
screen,html.Screen,0_2_1_1_55,2021-11-12T11:54:27.863Z,,,,,,,,,,,,,,,,54,,,,,,,,,,,,,,373.3740000003745,,response,,,100,,,,,,Space,keypress(Space),,,,,-- --- ---- --- ------ ----- ------- ---- -- --- ------- --<br>------- ---------- ------ -- ----- -- ----- -- ---- ------<br>--- ----- --- --- ------ -------- ----- --- ------ ----- --<br>----- ----- ---------- --- --- ------ ------ ---- -- ------<br>------- --- ------ ----- --- ---- ------- -- ---- --- --<br>------- money.,126483.59999999963,126482.90000000037,126092.856,126099.59999999963,126109.526,126492.977,,55,money.
Item 100,flow.Loop,0_2_1_1,2021-11-12T11:54:27.863Z,,,,,,,,,,,,,,,,,,,,,,,,,,,,,,31080.93700000037,,completion,,,,A,,,,,,,,,,silence,,126484.09999999963,126482.90000000037,95385.293,95387.29999999888,95401.963,126492.977,,,
Question 1,html.Screen,0_2_1_2,2021-11-12T11:54:30.118Z,,,,,,,,,,,,,,,,,,,,,,,,,,,true,TRUE,,2245.222999999256,,response,,,100,A,,,,,TRUE,click #choice-1,,,,silence,,128739.40000000037,128738.19999999925,126476.307,126484.40000000037,126492.977,128743.527,,,
Question 2,html.Screen,0_2_1_3,2021-11-12T11:54:31.998Z,,,,,,,,,,,,,,,,,,,,,,,,,,,false,FALSE,,1874.5729999996256,,response,,,100,A,,,,,TRUE,click #choice-1,,,,silence,,130619.19999999925,130618.09999999963,128726.857,128739.59999999963,128743.527,130627.242,,,
Item 100,flow.Sequence,0_2_1,2021-11-12T11:54:31.999Z,,,,,,,,,,,,,,,,,,,,,,,,,,,,,,45218.49399999963,,completion,,,,,,,,,,,,,,,,130619.59999999963,130618.09999999963,85382.936,85399.09999999963,85399.606,130627.242,,,
End of Practice,html.Page,0_2_2,2021-11-12T11:54:45.751Z,,,,,,,,,,,,,,,,,,,,,,,,,,,,,,13743.758000000002,,form submission,,,,,,,,,,,,,,,,144371.59999999963,144371,130610.572,130619.79999999888,130627.242,144380.58,,,
Practice,flow.Sequence,0_2,2021-11-12T11:54:45.751Z,,,,,,,,,,,,,,,,,,,,,,,,,,,,,,109383.633,,completion,,,,,,,,,,,,,,,,144372.19999999925,144371,34970.697,34978.79999999888,34987.367,144380.58,,,
Trap_instruction,html.Page,0_3_0,2021-11-12T11:54:49.878Z,,,,,,,,,,,,,,,,,,,,,,,,,,,,,,4117.719999998895,,form submission,,,,,,,,,,,,,,,,148499,148498.29999999888,144363.91,144372.59999999963,144380.58,148531.435,,,
trap_trial,html.Screen,0_3_1,2021-11-12T11:54:52.845Z,,,,,,,,,,,,,,,,,,,,,,,,,,,true,1,,2933.0650000000023,,response,,,,,,,,,1,click #choice-1,,,,,,151465.79999999888,151464.5,148481.425,148499.09999999963,148531.435,151465.549,,,
end of trap trial,html.Page,0_3_2,2021-11-12T11:54:55.246Z,,,,,,,,,,,,,,,,,,,,,,,,,,,,,,2400.5509999996284,,form submission,,,,,,,,,,,,,,,,153866.59999999963,153866.09999999963,151448.879,151466.09999999963,151465.549,153866.207,,,
Trap 1,flow.Sequence,0_3,2021-11-12T11:54:55.246Z,,,,,,,,,,,,,,,,,,,,,,,,,,,,,,9485.51999999964,,completion,,,,,,,,,,,,,,,,153867.09999999963,153866.09999999963,144363.91,144372.40000000037,144380.58,153866.207,,,
Standby,html.Page,0_4_0,2021-11-12T11:55:03.231Z,,,,,,,,,,,,,,,,,,,,,,,,,,,,,,8001.618000000017,,timeout,,,,,,,,,,,,,,,,161852.40000000037,161851.155,153849.537,153867.40000000037,153866.207,161867.825,,,
Holding screen,html.Screen,0_4_1_0_0,2021-11-12T11:55:10.233Z,,,,,,,,,,,,,,,,,,,,,,,,,,,,,,7002.046000000002,,timeout,,,,,,,,,,,,,,,,168854.19999999925,168853.201,161851.155,161852.79999999888,161867.825,168869.871,,,
screen,html.Screen,0_4_1_0_1_0,2021-11-12T11:55:11.764Z,,,,,,,,,,,,,,,,11,,,,,,,,,,,,,,1514.0290000003588,,response,,,4,A,,,,,Space,keypress(Space),,,,silence,Known -- ---- --- -- --- -------- ------------ ---------- --<br>- ------- ------ --------- -- ------------ -- --- ---- -----<br>------ ---- ---- ------ ------ ------- --- ----- ---------<br>---- --- -------- -------- --- --- -- ------- --- --- -----<br>-- --- ------ ------- --- --- -------- ---- --------- --<br>---------- -- -------- ----------------,170384.90000000037,170383.90000000037,168853.201,168854.5,168869.871,170386.851,,0,Known
screen,html.Screen,0_4_1_0_1_1,2021-11-12T11:55:12.251Z,,,,,,,,,,,,,,,,11,,,,,,,,,,,,,,484.5490000003774,,response,,,4,A,,,,,Space,keypress(Space),,,,silence,----- as ---- --- -- --- -------- ------------ ---------- --<br>- ------- ------ --------- -- ------------ -- --- ---- -----<br>------ ---- ---- ------ ------ ------- --- ----- ---------<br>---- --- -------- -------- --- --- -- ------- --- --- -----<br>-- --- ------ ------- --- --- -------- ---- --------- --<br>---------- -- -------- ----------------,170872.40000000037,170871.40000000037,170370.181,170385.29999999888,170386.851,170887.103,,1,as
screen,html.Screen,0_4_1_0_1_2,2021-11-12T11:55:12.659Z,,,,,,,,,,,,,,,,11,,,,,,,,,,,,,,392.3969999999972,,response,,,4,A,,,,,Space,keypress(Space),,,,silence,----- -- Rapa --- -- --- -------- ------------ ---------- --<br>- ------- ------ --------- -- ------------ -- --- ---- -----<br>------ ---- ---- ------ ------ ------- --- ----- ---------<br>---- --- -------- -------- --- --- -- ------- --- --- -----<br>-- --- ------ ------- --- --- -------- ---- --------- --<br>---------- -- -------- ----------------,171280.29999999888,171279.5,170870.433,170872.59999999963,170887.103,171287.141,,2,Rapa
screen,html.Screen,0_4_1_0_1_3,2021-11-12T11:55:13.347Z,,,,,,,,,,,,,,,,11,,,,,,,,,,,,,,680.2590000003693,,response,,,4,A,,,,,Space,keypress(Space),,,,silence,----- -- ---- Nui -- --- -------- ------------ ---------- --<br>- ------- ------ --------- -- ------------ -- --- ---- -----<br>------ ---- ---- ------ ------ ------- --- ----- ---------<br>---- --- -------- -------- --- --- -- ------- --- --- -----<br>-- --- ------ ------- --- --- -------- ---- --------- --<br>---------- -- -------- ----------------,171968.19999999925,171967.40000000037,171270.471,171280.59999999963,171287.141,171970.795,,3,Nui
screen,html.Screen,0_4_1_0_1_4,2021-11-12T11:55:13.787Z,,,,,,,,,,,,,,,,11,,,,,,,,,,,,,,436.5049999988696,,response,,,4,A,,,,,Space,keypress(Space),,,,silence,----- -- ---- --- to --- -------- ------------ ---------- --<br>- ------- ------ --------- -- ------------ -- --- ---- -----<br>------ ---- ---- ------ ------ ------- --- ----- ---------<br>---- --- -------- -------- --- --- -- ------- --- --- -----<br>-- --- ------ ------- --- --- -------- ---- --------- --<br>---------- -- -------- ----------------,172408.19999999925,172407.29999999888,171954.123,171968.59999999963,171970.795,172420.814,,4,to
screen,html.Screen,0_4_1_0_1_5,2021-11-12T11:55:14.211Z,,,,,,,,,,,,,,,,11,,,,,,,,,,,,,,410.4859999988694,,response,,,4,A,,,,,Space,keypress(Space),,,,silence,----- -- ---- --- -- the -------- ------------ ---------- --<br>- ------- ------ --------- -- ------------ -- --- ---- -----<br>------ ---- ---- ------ ------ ------- --- ----- ---------<br>---- --- -------- -------- --- --- -- ------- --- --- -----<br>-- --- ------ ------- --- --- -------- ---- --------- --<br>---------- -- -------- ----------------,172832.09999999963,172831.29999999888,172404.144,172408.5,172420.814,172837.557,,5,the
screen,html.Screen,0_4_1_0_1_6,2021-11-12T11:55:14.851Z,,,,,,,,,,,,,,,,11,,,,,,,,,,,,,,633.7429999988817,,response,,,4,A,,,,,Space,keypress(Space),,,,silence,----- -- ---- --- -- --- island's ------------ ---------- --<br>- ------- ------ --------- -- ------------ -- --- ---- -----<br>------ ---- ---- ------ ------ ------- --- ----- ---------<br>---- --- -------- -------- --- --- -- ------- --- --- -----<br>-- --- ------ ------- --- --- -------- ---- --------- --<br>---------- -- -------- ----------------,173472.09999999963,173471.29999999888,172820.887,172832.40000000037,172837.557,173487.731,,6,island's
screen,html.Screen,0_4_1_0_1_7,2021-11-12T11:55:15.307Z,,,,,,,,,,,,,,,,11,,,,,,,,,,,,,,439.56899999888265,,response,,,4,A,,,,,Space,keypress(Space),,,,silence,"----- -- ---- --- -- --- -------- inhabitants, ---------- --<br>- ------- ------ --------- -- ------------ -- --- ---- -----<br>------ ---- ---- ------ ------ ------- --- ----- ---------<br>---- --- -------- -------- --- --- -- ------- --- --- -----<br>-- --- ------ ------- --- --- -------- ---- --------- --<br>---------- -- -------- ----------------",173928.19999999925,173927.29999999888,173471.061,173472.29999999888,173487.731,173937.82,,7,"inhabitants,"
screen,html.Screen,0_4_1_0_1_8,2021-11-12T11:55:15.779Z,,,,,,,,,,,,,,,,11,,,,,,,,,,,,,,461.37999999924796,,response,,,4,A,,,,,Space,keypress(Space),,,,silence,----- -- ---- --- -- --- -------- ------------ Rongorongo --<br>- ------- ------ --------- -- ------------ -- --- ---- -----<br>------ ---- ---- ------ ------ ------- --- ----- ---------<br>---- --- -------- -------- --- --- -- ------- --- --- -----<br>-- --- ------ ------- --- --- -------- ---- --------- --<br>---------- -- -------- ----------------,174399.90000000037,174399.19999999925,173921.15,173928.5,173937.82,174404.511,,8,Rongorongo
screen,html.Screen,0_4_1_0_1_9,2021-11-12T11:55:16.179Z,,,,,,,,,,,,,,,,11,,,,,,,,,,,,,,394.58899999962887,,response,,,4,A,,,,,Space,keypress(Space),,,,silence,----- -- ---- --- -- --- -------- ------------ ---------- is<br>- ------- ------ --------- -- ------------ -- --- ---- -----<br>------ ---- ---- ------ ------ ------- --- ----- ---------<br>---- --- -------- -------- --- --- -- ------- --- --- -----<br>-- --- ------ ------- --- --- -------- ---- --------- --<br>---------- -- -------- ----------------,174800,174799.09999999963,174387.842,174400.19999999925,174404.511,174804.799,,9,is
screen,html.Screen,0_4_1_0_1_10,2021-11-12T11:55:16.571Z,,,,,,,,,,,,,,,,11,,,,,,,,,,,,,,386.3009999996284,,response,,,4,A,,,,,Space,keypress(Space),,,,silence,----- -- ---- --- -- --- -------- ------------ ---------- --<br>a ------- ------ --------- -- ------------ -- --- ---- -----<br>------ ---- ---- ------ ------ ------- --- ----- ---------<br>---- --- -------- -------- --- --- -- ------- --- --- -----<br>-- --- ------ ------- --- --- -------- ---- --------- --<br>---------- -- -------- ----------------,175192,175191.09999999963,174788.127,174800.19999999925,174804.799,175204.819,,10,a
screen,html.Screen,0_4_1_0_1_11,2021-11-12T11:55:16.915Z,,,,,,,,,,,,,,,,11,,,,,,,,,,,,,,330.2809999996389,,response,,,4,A,,,,,Space,keypress(Space),,,,silence,----- -- ---- --- -- --- -------- ------------ ---------- --<br>- writing ------ --------- -- ------------ -- --- ---- -----<br>------ ---- ---- ------ ------ ------- --- ----- ---------<br>---- --- -------- -------- --- --- -- ------- --- --- -----<br>-- --- ------ ------- --- --- -------- ---- --------- --<br>---------- -- -------- ----------------,175535.90000000037,175535.09999999963,175188.149,175192.19999999925,175204.819,175538.226,,11,writing
screen,html.Screen,0_4_1_0_1_12,2021-11-12T11:55:17.227Z,,,,,,,,,,,,,,,,11,,,,,,,,,,,,,,308.87399999963236,,response,,,4,A,,,,,Space,keypress(Space),,,,silence,----- -- ---- --- -- --- -------- ------------ ---------- --<br>- ------- system --------- -- ------------ -- --- ---- -----<br>------ ---- ---- ------ ------ ------- --- ----- ---------<br>---- --- -------- -------- --- --- -- ------- --- --- -----<br>-- --- ------ ------- --- --- -------- ---- --------- --<br>---------- -- -------- ----------------,175847.90000000037,175847.09999999963,175521.556,175536.19999999925,175538.226,175854.978,,12,system
screen,html.Screen,0_4_1_0_1_13,2021-11-12T11:55:17.691Z,,,,,,,,,,,,,,,,11,,,,,,,,,,,,,,456.1219999996247,,response,,,4,A,,,,,Space,keypress(Space),,,,silence,----- -- ---- --- -- --- -------- ------------ ---------- --<br>- ------- ------ comprised -- ------------ -- --- ---- -----<br>------ ---- ---- ------ ------ ------- --- ----- ---------<br>---- --- -------- -------- --- --- -- ------- --- --- -----<br>-- --- ------ ------- --- --- -------- ---- --------- --<br>---------- -- -------- ----------------,176311.90000000037,176311.09999999963,175838.308,175848.09999999963,175854.978,176321.742,,13,comprised
screen,html.Screen,0_4_1_0_1_14,2021-11-12T11:55:18.091Z,,,,,,,,,,,,,,,,11,,,,,,,,,,,,,,389.25800000000163,,response,,,4,A,,,,,Space,keypress(Space),,,,silence,----- -- ---- --- -- --- -------- ------------ ---------- --<br>- ------- ------ --------- of ------------ -- --- ---- -----<br>------ ---- ---- ------ ------ ------- --- ----- ---------<br>---- --- -------- -------- --- --- -- ------- --- --- -----<br>-- --- ------ ------- --- --- -------- ---- --------- --<br>---------- -- -------- ----------------,176711.90000000037,176711,176305.072,176312.19999999925,176321.742,176721.818,,14,of
screen,html.Screen,0_4_1_0_1_15,2021-11-12T11:55:18.555Z,,,,,,,,,,,,,,,,11,,,,,,,,,,,,,,453.28199999962817,,response,,,4,A,,,,,Space,keypress(Space),,,,silence,----- -- ---- --- -- --- -------- ------------ ---------- --<br>- ------- ------ --------- -- pictographs. -- --- ---- -----<br>------ ---- ---- ------ ------ ------- --- ----- ---------<br>---- --- -------- -------- --- --- -- ------- --- --- -----<br>-- --- ------ ------- --- --- -------- ---- --------- --<br>---------- -- -------- ----------------,177175.90000000037,177175.09999999963,176705.148,176712.09999999963,176721.818,177188.669,,15,pictographs.
screen,html.Screen,0_4_1_0_1_16,2021-11-12T11:55:19.075Z,,,,,,,,,,,,,,,,11,,,,,,,,,,,,,,506.3310000000056,,response,,,4,A,,,,,Space,keypress(Space),,,,silence,----- -- ---- --- -- --- -------- ------------ ---------- --<br>- ------- ------ --------- -- ------------ It --- ---- -----<br>------ ---- ---- ------ ------ ------- --- ----- ---------<br>---- --- -------- -------- --- --- -- ------- --- --- -----<br>-- --- ------ ------- --- --- -------- ---- --------- --<br>---------- -- -------- ----------------,177695.69999999925,177695,177171.998,177176.09999999963,177188.669,177705.416,,16,It
screen,html.Screen,0_4_1_0_1_17,2021-11-12T11:55:19.515Z,,,,,,,,,,,,,,,,11,,,,,,,,,,,,,,429.4840000003751,,response,,,4,A,,,,,Space,keypress(Space),,,,silence,----- -- ---- --- -- --- -------- ------------ ---------- --<br>- ------- ------ --------- -- ------------ -- has ---- -----<br>------ ---- ---- ------ ------ ------- --- ----- ---------<br>---- --- -------- -------- --- --- -- ------- --- --- -----<br>-- --- ------ ------- --- --- -------- ---- --------- --<br>---------- -- -------- ----------------,178135.69999999925,178134.90000000037,177688.746,177696.09999999963,177705.416,178138.707,,17,has
screen,html.Screen,0_4_1_0_1_18,2021-11-12T11:55:19.843Z,,,,,,,,,,,,,,,,11,,,,,,,,,,,,,,324.19300000037765,,response,,,4,A,,,,,Space,keypress(Space),,,,silence,----- -- ---- --- -- --- -------- ------------ ---------- --<br>- ------- ------ --------- -- ------------ -- --- been -----<br>------ ---- ---- ------ ------ ------- --- ----- ---------<br>---- --- -------- -------- --- --- -- ------- --- --- -----<br>-- --- ------ ------- --- --- -------- ---- --------- --<br>---------- -- -------- ----------------,178463.79999999888,178462.90000000037,178122.039,178136,178138.707,178472.356,,18,been
screen,html.Screen,0_4_1_0_1_19,2021-11-12T11:55:20.147Z,,,,,,,,,,,,,,,,11,,,,,,,,,,,,,,294.54400000037276,,response,,,4,A,,,,,Space,keypress(Space),,,,silence,----- -- ---- --- -- --- -------- ------------ ---------- --<br>- ------- ------ --------- -- ------------ -- --- ---- found<br>------ ---- ---- ------ ------ ------- --- ----- ---------<br>---- --- -------- -------- --- --- -- ------- --- --- -----<br>-- --- ------ ------- --- --- -------- ---- --------- --<br>---------- -- -------- ----------------,178767.69999999925,178766.90000000037,178455.684,178464.09999999963,178472.356,178772.266,,19,found
screen,html.Screen,0_4_1_0_1_20,2021-11-12T11:55:20.867Z,,,,,,,,,,,,,,,,11,,,,,,,,,,,,,,714.5339999988792,,response,,,4,A,,,,,Space,keypress(Space),,,,silence,----- -- ---- --- -- --- -------- ------------ ---------- --<br>- ------- ------ --------- -- ------------ -- --- ---- -----<br>carved ---- ---- ------ ------ ------- --- ----- ---------<br>---- --- -------- -------- --- --- -- ------- --- --- -----<br>-- --- ------ ------- --- --- -------- ---- --------- --<br>---------- -- -------- ----------------,179487.69999999925,179486.79999999888,178755.597,178768,178772.266,179489.276,,20,carved
screen,html.Screen,0_4_1_0_1_21,2021-11-12T11:55:21.243Z,,,,,,,,,,,,,,,,11,,,,,,,,,,,,,,373.42399999924237,,response,,,4,A,,,,,Space,keypress(Space),,,,silence,----- -- ---- --- -- --- -------- ------------ ---------- --<br>- ------- ------ --------- -- ------------ -- --- ---- -----<br>------ into ---- ------ ------ ------- --- ----- ---------<br>---- --- -------- -------- --- --- -- ------- --- --- -----<br>-- --- ------ ------- --- --- -------- ---- --------- --<br>---------- -- -------- ----------------,179863.59999999963,179862.69999999925,179472.604,179487.90000000037,179489.276,179872.664,,21,into
screen,html.Screen,0_4_1_0_1_22,2021-11-12T11:55:21.715Z,,,,,,,,,,,,,,,,11,,,,,,,,,,,,,,462.0359999992652,,response,,,4,A,,,,,Space,keypress(Space),,,,silence,----- -- ---- --- -- --- -------- ------------ ---------- --<br>- ------- ------ --------- -- ------------ -- --- ---- -----<br>------ ---- many ------ ------ ------- --- ----- ---------<br>---- --- -------- -------- --- --- -- ------- --- --- -----<br>-- --- ------ ------- --- --- -------- ---- --------- --<br>---------- -- -------- ----------------,180335.5,180334.69999999925,179855.993,179863.79999999888,179872.664,180339.374,,22,many
screen,html.Screen,0_4_1_0_1_23,2021-11-12T11:55:22.487Z,,,,,,,,,,,,,,,,11,,,,,,,,,,,,,,763.8259999992442,,response,,,4,A,,,,,Space,keypress(Space),,,,silence,----- -- ---- --- -- --- -------- ------------ ---------- --<br>- ------- ------ --------- -- ------------ -- --- ---- -----<br>------ ---- ---- oblong ------ ------- --- ----- ---------<br>---- --- -------- -------- --- --- -- ------- --- --- -----<br>-- --- ------ ------- --- --- -------- ---- --------- --<br>---------- -- -------- ----------------,181103.90000000037,181103.19999999925,180322.704,180335.79999999888,180339.374,181106.226,,23,oblong
screen,html.Screen,0_4_1_0_1_24,2021-11-12T11:55:22.831Z,,,,,,,,,,,,,,,,11,,,,,,,,,,,,,,340.47399999925983,,response,,,4,A,,,,,Space,keypress(Space),,,,silence,----- -- ---- --- -- --- -------- ------------ ---------- --<br>- ------- ------ --------- -- ------------ -- --- ---- -----<br>------ ---- ---- ------ wooden ------- --- ----- ---------<br>---- --- -------- -------- --- --- -- ------- --- --- -----<br>-- --- ------ ------- --- --- -------- ---- --------- --<br>---------- -- -------- ----------------,181447.5,181446.69999999925,181089.556,181104.19999999925,181106.226,181456.332,,24,wooden
screen,html.Screen,0_4_1_0_1_25,2021-11-12T11:55:23.191Z,,,,,,,,,,,,,,,,11,,,,,,,,,,,,,,350.36799999926006,,response,,,4,A,,,,,Space,keypress(Space),,,,silence,----- -- ---- --- -- --- -------- ------------ ---------- --<br>- ------- ------ --------- -- ------------ -- --- ---- -----<br>------ ---- ---- ------ ------ tablets --- ----- ---------<br>---- --- -------- -------- --- --- -- ------- --- --- -----<br>-- --- ------ ------- --- --- -------- ---- --------- --<br>---------- -- -------- ----------------,181807.5,181806.69999999925,181439.662,181447.90000000037,181456.332,181823.076,,25,tablets
screen,html.Screen,0_4_1_0_1_26,2021-11-12T11:55:23.527Z,,,,,,,,,,,,,,,,11,,,,,,,,,,,,,,319.623999999254,,response,,,4,A,,,,,Space,keypress(Space),,,,silence,----- -- ---- --- -- --- -------- ------------ ---------- --<br>- ------- ------ --------- -- ------------ -- --- ---- -----<br>------ ---- ---- ------ ------ ------- and ----- ---------<br>---- --- -------- -------- --- --- -- ------- --- --- -----<br>-- --- ------ ------- --- --- -------- ---- --------- --<br>---------- -- -------- ----------------,182143.5,182142.69999999925,181806.406,181807.90000000037,181823.076,182156.495,,26,and
screen,html.Screen,0_4_1_0_1_27,2021-11-12T11:55:23.855Z,,,,,,,,,,,,,,,,11,,,,,,,,,,,,,,314.4050000003772,,response,,,4,A,,,,,Space,keypress(Space),,,,silence,----- -- ---- --- -- --- -------- ------------ ---------- --<br>- ------- ------ --------- -- ------------ -- --- ---- -----<br>------ ---- ---- ------ ------ ------- --- other ---------<br>---- --- -------- -------- --- --- -- ------- --- --- -----<br>-- --- ------ ------- --- --- -------- ---- --------- --<br>---------- -- -------- ----------------,182471.79999999888,182470.90000000037,182139.825,182143.69999999925,182156.495,182473.25,,27,other
screen,html.Screen,0_4_1_0_1_28,2021-11-12T11:55:24.655Z,,,,,,,,,,,,,,,,11,,,,,,,,,,,,,,797.25,,response,,,4,A,,,,,Space,keypress(Space),,,,silence,----- -- ---- --- -- --- -------- ------------ ---------- --<br>- ------- ------ --------- -- ------------ -- --- ---- -----<br>------ ---- ---- ------ ------ ------- --- ----- artifacts<br>---- --- -------- -------- --- --- -- ------- --- --- -----<br>-- --- ------ ------- --- --- -------- ---- --------- --<br>---------- -- -------- ----------------,183271.5,183270.5,182456.58,182472.09999999963,182473.25,183273.343,,28,artifacts
screen,html.Screen,0_4_1_0_1_29,2021-11-12T11:55:25.007Z,,,,,,,,,,,,,,,,11,,,,,,,,,,,,,,349.256999999634,,response,,,4,A,,,,,Space,keypress(Space),,,,silence,----- -- ---- --- -- --- -------- ------------ ---------- --<br>- ------- ------ --------- -- ------------ -- --- ---- -----<br>------ ---- ---- ------ ------ ------- --- ----- ---------<br>from --- -------- -------- --- --- -- ------- --- --- -----<br>-- --- ------ ------- --- --- -------- ---- --------- --<br>---------- -- -------- ----------------,183623.40000000037,183622.59999999963,183256.674,183271.69999999925,183273.343,183640.267,,29,from
screen,html.Screen,0_4_1_0_1_30,2021-11-12T11:55:25.326Z,,,,,,,,,,,,,,,,11,,,,,,,,,,,,,,302.23300000000745,,response,,,4,A,,,,,Space,keypress(Space),,,,silence,----- -- ---- --- -- --- -------- ------------ ---------- --<br>- ------- ------ --------- -- ------------ -- --- ---- -----<br>------ ---- ---- ------ ------ ------- --- ----- ---------<br>---- the -------- -------- --- --- -- ------- --- --- -----<br>-- --- ------ ------- --- --- -------- ---- --------- --<br>---------- -- -------- ----------------,183943.19999999925,183942.5,183623.596,183623.69999999925,183640.267,183956.951,,30,the
screen,html.Screen,0_4_1_0_1_31,2021-11-12T11:55:25.631Z,,,,,,,,,,,,,,,,11,,,,,,,,,,,,,,289.54899999999907,,response,,,4,A,,,,,Space,keypress(Space),,,,silence,----- -- ---- --- -- --- -------- ------------ ---------- --<br>- ------- ------ --------- -- ------------ -- --- ---- -----<br>------ ---- ---- ------ ------ ------- --- ----- ---------<br>---- --- island's -------- --- --- -- ------- --- --- -----<br>-- --- ------ ------- --- --- -------- ---- --------- --<br>---------- -- -------- ----------------,184247.40000000037,184246.5,183940.281,183943.5,183956.951,184257.023,,31,island's
screen,html.Screen,0_4_1_0_1_32,2021-11-12T11:55:25.975Z,,,,,,,,,,,,,,,,11,,,,,,,,,,,,,,333.4770000000135,,response,,,4,A,,,,,Space,keypress(Space),,,,silence,----- -- ---- --- -- --- -------- ------------ ---------- --<br>- ------- ------ --------- -- ------------ -- --- ---- -----<br>------ ---- ---- ------ ------ ------- --- ----- ---------<br>---- --- -------- history. --- --- -- ------- --- --- -----<br>-- --- ------ ------- --- --- -------- ---- --------- --<br>---------- -- -------- ----------------,184591.40000000037,184590.5,184240.353,184247.59999999963,184257.023,184607.084,,32,history.
screen,html.Screen,0_4_1_0_1_33,2021-11-12T11:55:26.318Z,,,,,,,,,,,,,,,,11,,,,,,,,,,,,,,327.41599999999744,,response,,,4,A,,,,,Space,keypress(Space),,,,silence,----- -- ---- --- -- --- -------- ------------ ---------- --<br>- ------- ------ --------- -- ------------ -- --- ---- -----<br>------ ---- ---- ------ ------ ------- --- ----- ---------<br>---- --- -------- -------- The --- -- ------- --- --- -----<br>-- --- ------ ------- --- --- -------- ---- --------- --<br>---------- -- -------- ----------------,184935.29999999888,184934.5,184590.414,184591.79999999888,184607.084,184940.382,,33,The
screen,html.Screen,0_4_1_0_1_34,2021-11-12T11:55:26.702Z,,,,,,,,,,,,,,,,11,,,,,,,,,,,,,,378.0180000003602,,response,,,4,A,,,,,Space,keypress(Space),,,,silence,----- -- ---- --- -- --- -------- ------------ ---------- --<br>- ------- ------ --------- -- ------------ -- --- ---- -----<br>------ ---- ---- ------ ------ ------- --- ----- ---------<br>---- --- -------- -------- --- art -- ------- --- --- -----<br>-- --- ------ ------- --- --- -------- ---- --------- --<br>---------- -- -------- ----------------,185319.29999999888,185318.40000000037,184923.714,184935.5,184940.382,185324.019,,34,art
screen,html.Screen,0_4_1_0_1_35,2021-11-12T11:55:27.078Z,,,,,,,,,,,,,,,,11,,,,,,,,,,,,,,370.3810000003723,,response,,,4,A,,,,,Space,keypress(Space),,,,silence,----- -- ---- --- -- --- -------- ------------ ---------- --<br>- ------- ------ --------- -- ------------ -- --- ---- -----<br>------ ---- ---- ------ ------ ------- --- ----- ---------<br>---- --- -------- -------- --- --- of ------- --- --- -----<br>-- --- ------ ------- --- --- -------- ---- --------- --<br>---------- -- -------- ----------------,185695.19999999925,185694.40000000037,185307.347,185319.40000000037,185324.019,185707.369,,35,of
screen,html.Screen,0_4_1_0_1_36,2021-11-12T11:55:27.670Z,,,,,,,,,,,,,,,,11,,,,,,,,,,,,,,579.0310000003665,,response,,,4,A,,,,,Space,keypress(Space),,,,silence,----- -- ---- --- -- --- -------- ------------ ---------- --<br>- ------- ------ --------- -- ------------ -- --- ---- -----<br>------ ---- ---- ------ ------ ------- --- ----- ---------<br>---- --- -------- -------- --- --- -- writing --- --- -----<br>-- --- ------ ------- --- --- -------- ---- --------- --<br>---------- -- -------- ----------------,186287.09999999963,186286.40000000037,185690.699,185695.5,185707.369,186290.834,,36,writing
screen,html.Screen,0_4_1_0_1_37,2021-11-12T11:55:27.998Z,,,,,,,,,,,,,,,,11,,,,,,,,,,,,,,323.56600000036997,,response,,,4,A,,,,,Space,keypress(Space),,,,silence,----- -- ---- --- -- --- -------- ------------ ---------- --<br>- ------- ------ --------- -- ------------ -- --- ---- -----<br>------ ---- ---- ------ ------ ------- --- ----- ---------<br>---- --- -------- -------- --- --- -- ------- was --- -----<br>-- --- ------ ------- --- --- -------- ---- --------- --<br>---------- -- -------- ----------------,186615.09999999963,186614.40000000037,186274.164,186287.40000000037,186290.834,186624.257,,37,was
screen,html.Screen,0_4_1_0_1_38,2021-11-12T11:55:28.286Z,,,,,,,,,,,,,,,,11,,,,,,,,,,,,,,278.1430000003602,,response,,,4,A,,,,,Space,keypress(Space),,,,silence,----- -- ---- --- -- --- -------- ------------ ---------- --<br>- ------- ------ --------- -- ------------ -- --- ---- -----<br>------ ---- ---- ------ ------ ------- --- ----- ---------<br>---- --- -------- -------- --- --- -- ------- --- not -----<br>-- --- ------ ------- --- --- -------- ---- --------- --<br>---------- -- -------- ----------------,186903.09999999963,186902.40000000037,186607.587,186615.40000000037,186624.257,186907.65,,38,not
screen,html.Screen,0_4_1_0_1_39,2021-11-12T11:55:28.574Z,,,,,,,,,,,,,,,,11,,,,,,,,,,,,,,282.75000000037835,,response,,,4,A,,,,,Space,keypress(Space),,,,silence,----- -- ---- --- -- --- -------- ------------ ---------- --<br>- ------- ------ --------- -- ------------ -- --- ---- -----<br>------ ---- ---- ------ ------ ------- --- ----- ---------<br>---- --- -------- -------- --- --- -- ------- --- --- known<br>-- --- ------ ------- --- --- -------- ---- --------- --<br>---------- -- -------- ----------------,187191.19999999925,187190.40000000037,186890.98,186903.40000000037,186907.65,187207.738,,39,known
screen,html.Screen,0_4_1_0_1_40,2021-11-12T11:55:28.902Z,,,,,,,,,,,,,,,,11,,,,,,,,,,,,,,310.5619999988703,,response,,,4,A,,,,,Space,keypress(Space),,,,silence,----- -- ---- --- -- --- -------- ------------ ---------- --<br>- ------- ------ --------- -- ------------ -- --- ---- -----<br>------ ---- ---- ------ ------ ------- --- ----- ---------<br>---- --- -------- -------- --- --- -- ------- --- --- -----<br>in --- ------ ------- --- --- -------- ---- --------- --<br>---------- -- -------- ----------------,187519.09999999963,187518.29999999888,187191.068,187191.40000000037,187207.738,187524.488,,40,in
screen,html.Screen,0_4_1_0_1_41,2021-11-12T11:55:29.142Z,,,,,,,,,,,,,,,,11,,,,,,,,,,,,,,233.71199999924283,,response,,,4,A,,,,,Space,keypress(Space),,,,silence,----- -- ---- --- -- --- -------- ------------ ---------- --<br>- ------- ------ --------- -- ------------ -- --- ---- -----<br>------ ---- ---- ------ ------ ------- --- ----- ---------<br>---- --- -------- -------- --- --- -- ------- --- --- -----<br>-- any ------ ------- --- --- -------- ---- --------- --<br>---------- -- -------- ----------------,187759.09999999963,187758.19999999925,187507.818,187519.29999999888,187524.488,187774.527,,41,any
screen,html.Screen,0_4_1_0_1_42,2021-11-12T11:55:29.470Z,,,,,,,,,,,,,,,,11,,,,,,,,,,,,,,311.77299999888055,,response,,,4,A,,,,,Space,keypress(Space),,,,silence,----- -- ---- --- -- --- -------- ------------ ---------- --<br>- ------- ------ --------- -- ------------ -- --- ---- -----<br>------ ---- ---- ------ ------ ------- --- ----- ---------<br>---- --- -------- -------- --- --- -- ------- --- --- -----<br>-- --- nearby ------- --- --- -------- ---- --------- --<br>---------- -- -------- ----------------,188087.09999999963,188086.29999999888,187757.857,187759.29999999888,187774.527,188091.288,,42,nearby
screen,html.Screen,0_4_1_0_1_43,2021-11-12T11:55:29.806Z,,,,,,,,,,,,,,,,11,,,,,,,,,,,,,,331.01199999888195,,response,,,4,A,,,,,Space,keypress(Space),,,,silence,----- -- ---- --- -- --- -------- ------------ ---------- --<br>- ------- ------ --------- -- ------------ -- --- ---- -----<br>------ ---- ---- ------ ------ ------- --- ----- ---------<br>---- --- -------- -------- --- --- -- ------- --- --- -----<br>-- --- ------ islands --- --- -------- ---- --------- --<br>---------- -- -------- ----------------,188423,188422.29999999888,188074.618,188087.19999999925,188091.288,188424.636,,43,islands
screen,html.Screen,0_4_1_0_1_44,2021-11-12T11:55:30.174Z,,,,,,,,,,,,,,,,11,,,,,,,,,,,,,,365.6639999988838,,response,,,4,A,,,,,Space,keypress(Space),,,,silence,----- -- ---- --- -- --- -------- ------------ ---------- --<br>- ------- ------ --------- -- ------------ -- --- ---- -----<br>------ ---- ---- ------ ------ ------- --- ----- ---------<br>---- --- -------- -------- --- --- -- ------- --- --- -----<br>-- --- ------ ------- and --- -------- ---- --------- --<br>---------- -- -------- ----------------,188791.09999999963,188790.29999999888,188407.967,188423.29999999888,188424.636,188808.155,,44,and
screen,html.Screen,0_4_1_0_1_45,2021-11-12T11:55:30.502Z,,,,,,,,,,,,,,,,11,,,,,,,,,,,,,,310.0449999992561,,response,,,4,A,,,,,Space,keypress(Space),,,,silence,----- -- ---- --- -- --- -------- ------------ ---------- --<br>- ------- ------ --------- -- ------------ -- --- ---- -----<br>------ ---- ---- ------ ------ ------- --- ----- ---------<br>---- --- -------- -------- --- --- -- ------- --- --- -----<br>-- --- ------ ------- --- the -------- ---- --------- --<br>---------- -- -------- ----------------,189119,189118.19999999925,188791.484,188791.19999999925,188808.155,189124.745,,45,the
screen,html.Screen,0_4_1_0_1_46,2021-11-12T11:55:30.814Z,,,,,,,,,,,,,,,,11,,,,,,,,,,,,,,305.4549999992596,,response,,,4,A,,,,,Space,keypress(Space),,,,silence,----- -- ---- --- -- --- -------- ------------ ---------- --<br>- ------- ------ --------- -- ------------ -- --- ---- -----<br>------ ---- ---- ------ ------ ------- --- ----- ---------<br>---- --- -------- -------- --- --- -- ------- --- --- -----<br>-- --- ------ ------- --- --- script's ---- --------- --<br>---------- -- -------- ----------------,189430.90000000037,189430.19999999925,189108.077,189119.29999999888,189124.745,189441.689,,46,script's
screen,html.Screen,0_4_1_0_1_47,2021-11-12T11:55:31.126Z,,,,,,,,,,,,,,,,11,,,,,,,,,,,,,,300.5109999992419,,response,,,4,A,,,,,Space,keypress(Space),,,,silence,----- -- ---- --- -- --- -------- ------------ ---------- --<br>- ------- ------ --------- -- ------------ -- --- ---- -----<br>------ ---- ---- ------ ------ ------- --- ----- ---------<br>---- --- -------- -------- --- --- -- ------- --- --- -----<br>-- --- ------ ------- --- --- -------- mere --------- --<br>---------- -- -------- ----------------,189743,189742.19999999925,189425.017,189431.19999999925,189441.689,189758.356,,47,mere
screen,html.Screen,0_4_1_0_1_48,2021-11-12T11:55:31.486Z,,,,,,,,,,,,,,,,11,,,,,,,,,,,,,,343.7439999996277,,response,,,4,A,,,,,Space,keypress(Space),,,,silence,----- -- ---- --- -- --- -------- ------------ ---------- --<br>- ------- ------ --------- -- ------------ -- --- ---- -----<br>------ ---- ---- ------ ------ ------- --- ----- ---------<br>---- --- -------- -------- --- --- -- ------- --- --- -----<br>-- --- ------ ------- --- --- -------- ---- existence --<br>---------- -- -------- ----------------,190102.90000000037,190102.09999999963,189741.686,189743.09999999963,189758.356,190108.42,,48,existence
screen,html.Screen,0_4_1_0_1_49,2021-11-12T11:55:31.862Z,,,,,,,,,,,,,,,,11,,,,,,,,,,,,,,369.67999999961467,,response,,,4,A,,,,,Space,keypress(Space),,,,silence,----- -- ---- --- -- --- -------- ------------ ---------- --<br>- ------- ------ --------- -- ------------ -- --- ---- -----<br>------ ---- ---- ------ ------ ------- --- ----- ---------<br>---- --- -------- -------- --- --- -- ------- --- --- -----<br>-- --- ------ ------- --- --- -------- ---- --------- is<br>---------- -- -------- ----------------,190478.90000000037,190478.09999999963,190091.75,190103.19999999925,190108.42,190491.843,,49,is
screen,html.Screen,0_4_1_0_1_50,2021-11-12T11:55:32.198Z,,,,,,,,,,,,,,,,11,,,,,,,,,,,,,,322.256999999634,,response,,,4,A,,,,,Space,keypress(Space),,,,silence,----- -- ---- --- -- --- -------- ------------ ---------- --<br>- ------- ------ --------- -- ------------ -- --- ---- -----<br>------ ---- ---- ------ ------ ------- --- ----- ---------<br>---- --- -------- -------- --- --- -- ------- --- --- -----<br>-- --- ------ ------- --- --- -------- ---- --------- --<br>sufficient -- -------- ----------------,190814.90000000037,190814.09999999963,190475.173,190479.09999999963,190491.843,190825.305,,50,sufficient
