sender,sender_type,sender_id,timestamp,meta,,Blues,Classical,Country,Dance,Electronic,Folk,Gospel,Hip-Hop,Jazz,Latin,Musical/Film,New-age,Pop,Provo_ID,R&B,Rap,Reggae,Religious,Rock,Soul,Swing,Traditional,age,artist_name,correct,correctResponse,distraction,duration,education,ended_on,familiarity,gender,item,list,music_frequency,offensiveness,pleasantness,preference,response,response_action,snippet_file,song_name,song_rating,sound,text,time_commit,time_end,time_render,time_run,time_show,time_switch,url,word,word_ID
Instructions,html.Page,0_0,2021-12-03T11:21:11.776Z,"{""labjs_version"":""20.2.3"",""labjs_build"":{""flavor"":""production"",""commit"":""7ea907d66ca8aeef8054924ca5d82ffbe11e34e5""},""location"":""https://run.pavlovia.org/mvasilev/lab_music_f/"",""userAgent"":""Mozilla/5.0 (Windows NT 6.1; Win64; x64) AppleWebKit/537.36 (KHTML, like Gecko) Chrome/96.0.4664.45 Safari/537.36"",""platform"":""Win32"",""language"":""en-US"",""locale"":""en-US"",""timeZone"":""Europe/London"",""timezoneOffset"":0,""screen_width"":1920,""screen_height"":1080,""scroll_width"":1920,""scroll_height"":959,""window_innerWidth"":1920,""window_innerHeight"":1007,""devicePixelRatio"":1}",,,,,,,,,,,,,,,,,,,,,,,,,,,,,17565.665000008943,,form submission,,,,,,,,,,,,,,,,31635.79999999702,31634.60000000894,14052.203,14057.10000000894,14068.935,31629.764,{},,
Headphones,html.Page,0_1,2021-12-03T11:21:14.722Z,,,,,,,,,,,,,,,,,,,,,,,,,,,,,,2951.5359999970206,,form submission,,,,,,,,,,,,,,,,34581.79999999702,34581.29999999702,31613.145,31636.5,31629.764,34596.359,,,
Holding screen,html.Screen,0_2_0_0,2021-12-03T11:21:24.721Z,,,,,,,,,,,,,,,,,,,,,,,,,,,,,,9994.056000000004,,timeout,,,,,,,,,,,,,,,,44579.90000000596,44573.746,34579.732,34582.29999999702,34596.359,44590.415,,,
screen,html.Screen,0_2_0_1_0,2021-12-03T11:21:25.506Z,,,,,,,,,,,,,,,,53,,,,,,,,,,,,,,773.7850000029794,,response,,,99,,,,,,Space,keypress(Space),,,,,When -- ----- -- ------ - ------- --- ----------<br>------------- ------ ------ ---- ---- ------- ----- -- ----<br>-------- ------- -- ---------- --- - --- ----- ----- ----<br>---- --- --- ----- --- ---- ---- ------- ----- ---- -------<br>--- --- -- ----- -- --- ---- -- --- ---- -- ------ ------<br>--- ----- -- ----,45365.5,45364.20000000298,44573.746,44580.29999999702,44590.415,45374.186,,0,When
screen,html.Screen,0_2_0_1_1,2021-12-03T11:21:25.913Z,,,,,,,,,,,,,,,,53,,,,,,,,,,,,,,397.5140000029787,,response,,,99,,,,,,Space,keypress(Space),,,,,---- it ----- -- ------ - ------- --- ----------<br>------------- ------ ------ ---- ---- ------- ----- -- ----<br>-------- ------- -- ---------- --- - --- ----- ----- ----<br>---- --- --- ----- --- ---- ---- ------- ----- ---- -------<br>--- --- -- ----- -- --- ---- -- --- ---- -- ------ ------<br>--- ----- -- ----,45772.60000000894,45771.70000000298,45357.515,45366,45374.186,45774.35,,1,it
screen,html.Screen,0_2_0_1_2,2021-12-03T11:21:26.505Z,,,,,,,,,,,,,,,,53,,,,,,,,,,,,,,589.3500000029817,,response,,,99,,,,,,Space,keypress(Space),,,,,---- -- comes -- ------ - ------- --- ----------<br>------------- ------ ------ ---- ---- ------- ----- -- ----<br>-------- ------- -- ---------- --- - --- ----- ----- ----<br>---- --- --- ----- --- ---- ---- ------- ----- ---- -------<br>--- --- -- ----- -- --- ---- -- --- ---- -- ------ ------<br>--- ----- -- ----,46364.60000000894,46363.70000000298,45757.679,45772.79999999702,45774.35,46374.456,,2,comes
screen,html.Screen,0_2_0_1_3,2021-12-03T11:21:26.953Z,,,,,,,,,,,,,,,,53,,,,,,,,,,,,,,437.1440000089424,,response,,,99,,,,,,Space,keypress(Space),,,,,---- -- ----- to ------ - ------- --- ----------<br>------------- ------ ------ ---- ---- ------- ----- -- ----<br>-------- ------- -- ---------- --- - --- ----- ----- ----<br>---- --- --- ----- --- ---- ---- ------- ----- ---- -------<br>--- --- -- ----- -- --- ---- -- --- ---- -- ------ ------<br>--- ----- -- ----,46812.60000000894,46811.60000000894,46357.786,46364.79999999702,46374.456,46824.568,,3,to
screen,html.Screen,0_2_0_1_4,2021-12-03T11:21:27.505Z,,,,,,,,,,,,,,,,53,,,,,,,,,,,,,,539.1320000029809,,response,,,99,,,,,,Space,keypress(Space),,,,,---- -- ----- -- having - ------- --- ----------<br>------------- ------ ------ ---- ---- ------- ----- -- ----<br>-------- ------- -- ---------- --- - --- ----- ----- ----<br>---- --- --- ----- --- ---- ---- ------- ----- ---- -------<br>--- --- -- ----- -- --- ---- -- --- ---- -- ------ ------<br>--- ----- -- ----,47364.79999999702,47363.70000000298,46807.898,46813.10000000894,46824.568,47374.717,,4,having
screen,html.Screen,0_2_0_1_5,2021-12-03T11:21:27.985Z,,,,,,,,,,,,,,,,53,,,,,,,,,,,,,,468.8830000089438,,response,,,99,,,,,,Space,keypress(Space),,,,,---- -- ----- -- ------ a ------- --- ----------<br>------------- ------ ------ ---- ---- ------- ----- -- ----<br>-------- ------- -- ---------- --- - --- ----- ----- ----<br>---- --- --- ----- --- ---- ---- ------- ----- ---- -------<br>--- --- -- ----- -- --- ---- -- --- ---- -- ------ ------<br>--- ----- -- ----,47844.5,47843.60000000894,47358.047,47365.10000000894,47374.717,47858.185,,5,a
screen,html.Screen,0_2_0_1_6,2021-12-03T11:21:28.593Z,,,,,,,,,,,,,,,,53,,,,,,,,,,,,,,593.415000008943,,response,,,99,,,,,,Space,keypress(Space),,,,,---- -- ----- -- ------ - lasting --- ----------<br>------------- ------ ------ ---- ---- ------- ----- -- ----<br>-------- ------- -- ---------- --- - --- ----- ----- ----<br>---- --- --- ----- --- ---- ---- ------- ----- ---- -------<br>--- --- -- ----- -- --- ---- -- --- ---- -- ------ ------<br>--- ----- -- ----,48452.5,48451.60000000894,47841.515,47845,47858.185,48458.324,,6,lasting
screen,html.Screen,0_2_0_1_7,2021-12-03T11:21:29.113Z,,,,,,,,,,,,,,,,53,,,,,,,,,,,,,,513.2760000089402,,response,,,99,,,,,,Space,keypress(Space),,,,,---- -- ----- -- ------ - ------- and ----------<br>------------- ------ ------ ---- ---- ------- ----- -- ----<br>-------- ------- -- ---------- --- - --- ----- ----- ----<br>---- --- --- ----- --- ---- ---- ------- ----- ---- -------<br>--- --- -- ----- -- --- ---- -- --- ---- -- ------ ------<br>--- ----- -- ----,48972.5,48971.60000000894,48441.654,48452.79999999702,48458.324,48975.128,,7,and
screen,html.Screen,0_2_0_1_8,2021-12-03T11:21:29.721Z,,,,,,,,,,,,,,,,53,,,,,,,,,,,,,,604.372000000003,,response,,,99,,,,,,Space,keypress(Space),,,,,---- -- ----- -- ------ - ------- --- fulfilling<br>------------- ------ ------ ---- ---- ------- ----- -- ----<br>-------- ------- -- ---------- --- - --- ----- ----- ----<br>---- --- --- ----- --- ---- ---- ------- ----- ---- -------<br>--- --- -- ----- -- --- ---- -- --- ---- -- ------ ------<br>--- ----- -- ----,49580.5,49579.5,48958.458,48972.79999999702,48975.128,49592.015,,8,fulfilling
screen,html.Screen,0_2_0_1_9,2021-12-03T11:21:30.513Z,,,,,,,,,,,,,,,,53,,,,,,,,,,,,,,779.385000005961,,response,,,99,,,,,,Space,keypress(Space),,,,,"---- -- ----- -- ------ - ------- --- ----------<br>relationship, ------ ------ ---- ---- ------- ----- -- ----<br>-------- ------- -- ---------- --- - --- ----- ----- ----<br>---- --- --- ----- --- ---- ---- ------- ----- ---- -------<br>--- --- -- ----- -- --- ---- -- --- ---- -- ------ ------<br>--- ----- -- ----",50372.40000000596,50371.40000000596,49575.344,49580.79999999702,49592.015,50375.5,,9,"relationship,"
screen,html.Screen,0_2_0_1_10,2021-12-03T11:21:31.241Z,,,,,,,,,,,,,,,,53,,,,,,,,,,,,,,723.9000000059605,,response,,,99,,,,,,Space,keypress(Space),,,,,---- -- ----- -- ------ - ------- --- ----------<br>------------- common ------ ---- ---- ------- ----- -- ----<br>-------- ------- -- ---------- --- - --- ----- ----- ----<br>---- --- --- ----- --- ---- ---- ------- ----- ---- -------<br>--- --- -- ----- -- --- ---- -- --- ---- -- ------ ------<br>--- ----- -- ----,51100.29999999702,51099.40000000596,50358.83,50372.60000000894,50375.5,51109.036,,10,common
screen,html.Screen,0_2_0_1_11,2021-12-03T11:21:31.833Z,,,,,,,,,,,,,,,,53,,,,,,,,,,,,,,582.3640000059604,,response,,,99,,,,,,Space,keypress(Space),,,,,---- -- ----- -- ------ - ------- --- ----------<br>------------- ------ wisdom ---- ---- ------- ----- -- ----<br>-------- ------- -- ---------- --- - --- ----- ----- ----<br>---- --- --- ----- --- ---- ---- ------- ----- ---- -------<br>--- --- -- ----- -- --- ---- -- --- ---- -- ------ ------<br>--- ----- -- ----,51692.29999999702,51691.40000000596,51092.366,51100.60000000894,51109.036,51709.178,,11,wisdom
screen,html.Screen,0_2_0_1_12,2021-12-03T11:21:32.377Z,,,,,,,,,,,,,,,,53,,,,,,,,,,,,,,526.2220000059606,,response,,,99,,,,,,Space,keypress(Space),,,,,---- -- ----- -- ------ - ------- --- ----------<br>------------- ------ ------ says ---- ------- ----- -- ----<br>-------- ------- -- ---------- --- - --- ----- ----- ----<br>---- --- --- ----- --- ---- ---- ------- ----- ---- -------<br>--- --- -- ----- -- --- ---- -- --- ---- -- ------ ------<br>--- ----- -- ----,52236.20000000298,52235.40000000596,51692.508,51692.5,51709.178,52242.725,,12,says
screen,html.Screen,0_2_0_1_13,2021-12-03T11:21:32.905Z,,,,,,,,,,,,,,,,53,,,,,,,,,,,,,,520.5749999970212,,response,,,99,,,,,,Space,keypress(Space),,,,,---- -- ----- -- ------ - ------- --- ----------<br>------------- ------ ------ ---- that ------- ----- -- ----<br>-------- ------- -- ---------- --- - --- ----- ----- ----<br>---- --- --- ----- --- ---- ---- ------- ----- ---- -------<br>--- --- -- ----- -- --- ---- -- --- ---- -- ------ ------<br>--- ----- -- ----,52764.20000000298,52763.29999999702,52226.054,52236.40000000596,52242.725,52776.142,,13,that
screen,html.Screen,0_2_0_1_14,2021-12-03T11:21:33.497Z,,,,,,,,,,,,,,,,53,,,,,,,,,,,,,,579.1579999970199,,response,,,99,,,,,,Space,keypress(Space),,,,,---- -- ----- -- ------ - ------- --- ----------<br>------------- ------ ------ ---- ---- feeling ----- -- ----<br>-------- ------- -- ---------- --- - --- ----- ----- ----<br>---- --- --- ----- --- ---- ---- ------- ----- ---- -------<br>--- --- -- ----- -- --- ---- -- --- ---- -- ------ ------<br>--- ----- -- ----,53356.10000000894,53355.29999999702,52759.472,52764.5,52776.142,53359.687,,14,feeling
screen,html.Screen,0_2_0_1_15,2021-12-03T11:21:34.105Z,,,,,,,,,,,,,,,,53,,,,,,,,,,,,,,603.6129999970217,,response,,,99,,,,,,Space,keypress(Space),,,,,---- -- ----- -- ------ - ------- --- ----------<br>------------- ------ ------ ---- ---- ------- close -- ----<br>-------- ------- -- ---------- --- - --- ----- ----- ----<br>---- --- --- ----- --- ---- ---- ------- ----- ---- -------<br>--- --- -- ----- -- --- ---- -- --- ---- -- ------ ------<br>--- ----- -- ----,53964.10000000894,53963.29999999702,53343.016,53356.40000000596,53359.687,53976.452,,15,close
screen,html.Screen,0_2_0_1_16,2021-12-03T11:21:34.665Z,,,,,,,,,,,,,,,,53,,,,,,,,,,,,,,546.7480000029827,,response,,,99,,,,,,Space,keypress(Space),,,,,---- -- ----- -- ------ - ------- --- ----------<br>------------- ------ ------ ---- ---- ------- ----- to ----<br>-------- ------- -- ---------- --- - --- ----- ----- ----<br>---- --- --- ----- --- ---- ---- ------- ----- ---- -------<br>--- --- -- ----- -- --- ---- -- --- ---- -- ------ ------<br>--- ----- -- ----,54524,54523.20000000298,53959.782,53964.29999999702,53976.452,54526.614,,16,to
screen,html.Screen,0_2_0_1_17,2021-12-03T11:21:35.177Z,,,,,,,,,,,,,,,,53,,,,,,,,,,,,,,508.58600000297884,,response,,,99,,,,,,Space,keypress(Space),,,,,---- -- ----- -- ------ - ------- --- ----------<br>------------- ------ ------ ---- ---- ------- ----- -- your<br>-------- ------- -- ---------- --- - --- ----- ----- ----<br>---- --- --- ----- --- ---- ---- ------- ----- ---- -------<br>--- --- -- ----- -- --- ---- -- --- ---- -- ------ ------<br>--- ----- -- ----,55036.10000000894,55035.20000000298,54509.944,54524.29999999702,54526.614,55043.47,,17,your
screen,html.Screen,0_2_0_1_18,2021-12-03T11:21:35.777Z,,,,,,,,,,,,,,,,53,,,,,,,,,,,,,,592.1300000089395,,response,,,99,,,,,,Space,keypress(Space),,,,,---- -- ----- -- ------ - ------- --- ----------<br>------------- ------ ------ ---- ---- ------- ----- -- ----<br>romantic ------- -- ---------- --- - --- ----- ----- ----<br>---- --- --- ----- --- ---- ---- ------- ----- ---- -------<br>--- --- -- ----- -- --- ---- -- --- ---- -- ------ ------<br>--- ----- -- ----,55636.40000000596,55635.60000000894,55026.799,55036.29999999702,55043.47,55643.568,,18,romantic
screen,html.Screen,0_2_0_1_19,2021-12-03T11:21:36.361Z,,,,,,,,,,,,,,,,53,,,,,,,,,,,,,,575.6320000029809,,response,,,99,,,,,,Space,keypress(Space),,,,,---- -- ----- -- ------ - ------- --- ----------<br>------------- ------ ------ ---- ---- ------- ----- -- ----<br>-------- partner -- ---------- --- - --- ----- ----- ----<br>---- --- --- ----- --- ---- ---- ------- ----- ---- -------<br>--- --- -- ----- -- --- ---- -- --- ---- -- ------ ------<br>--- ----- -- ----,56220,56219.20000000298,55626.898,55636.60000000894,55643.568,56227.062,,19,partner
screen,html.Screen,0_2_0_1_20,2021-12-03T11:21:36.873Z,,,,,,,,,,,,,,,,53,,,,,,,,,,,,,,504.13800000298215,,response,,,99,,,,,,Space,keypress(Space),,,,,---- -- ----- -- ------ - ------- --- ----------<br>------------- ------ ------ ---- ---- ------- ----- -- ----<br>-------- ------- is ---------- --- - --- ----- ----- ----<br>---- --- --- ----- --- ---- ---- ------- ----- ---- -------<br>--- --- -- ----- -- --- ---- -- --- ---- -- ------ ------<br>--- ----- -- ----,56731.90000000596,56731.20000000298,56210.392,56220.29999999702,56227.062,56743.875,,20,is
screen,html.Screen,0_2_0_1_21,2021-12-03T11:21:37.817Z,,,,,,,,,,,,,,,,53,,,,,,,,,,,,,,931.125,,response,,,99,,,,,,Space,keypress(Space),,,,,---- -- ----- -- ------ - ------- --- ----------<br>------------- ------ ------ ---- ---- ------- ----- -- ----<br>-------- ------- -- paramount. --- - --- ----- ----- ----<br>---- --- --- ----- --- ---- ---- ------- ----- ---- -------<br>--- --- -- ----- -- --- ---- -- --- ---- -- ------ ------<br>--- ----- -- ----,57675.90000000596,57675,56727.205,56732.20000000298,56743.875,57677.305,,21,paramount.
screen,html.Screen,0_2_0_1_22,2021-12-03T11:21:38.377Z,,,,,,,,,,,,,,,,53,,,,,,,,,,,,,,557.7950000089404,,response,,,99,,,,,,Space,keypress(Space),,,,,---- -- ----- -- ------ - ------- --- ----------<br>------------- ------ ------ ---- ---- ------- ----- -- ----<br>-------- ------- -- ---------- But - --- ----- ----- ----<br>---- --- --- ----- --- ---- ---- ------- ----- ---- -------<br>--- --- -- ----- -- --- ---- -- --- ---- -- ------ ------<br>--- ----- -- ----,58235.90000000596,58235.10000000894,57660.636,57676.40000000596,57677.305,58244.336,,22,But
screen,html.Screen,0_2_0_1_23,2021-12-03T11:21:38.920Z,,,,,,,,,,,,,,,,53,,,,,,,,,,,,,,534.7640000089377,,response,,,99,,,,,,Space,keypress(Space),,,,,---- -- ----- -- ------ - ------- --- ----------<br>------------- ------ ------ ---- ---- ------- ----- -- ----<br>-------- ------- -- ---------- --- a --- ----- ----- ----<br>---- --- --- ----- --- ---- ---- ------- ----- ---- -------<br>--- --- -- ----- -- --- ---- -- --- ---- -- ------ ------<br>--- ----- -- ----,58779.79999999702,58779.10000000894,58227.665,58236.10000000894,58244.336,58794.412,,23,a
screen,html.Screen,0_2_0_1_24,2021-12-03T11:21:39.496Z,,,,,,,,,,,,,,,,53,,,,,,,,,,,,,,560.6880000089441,,response,,,99,,,,,,Space,keypress(Space),,,,,---- -- ----- -- ------ - ------- --- ----------<br>------------- ------ ------ ---- ---- ------- ----- -- ----<br>-------- ------- -- ---------- --- - new ----- ----- ----<br>---- --- --- ----- --- ---- ---- ------- ----- ---- -------<br>--- --- -- ----- -- --- ---- -- --- ---- -- ------ ------<br>--- ----- -- ----,59355.79999999702,59355.10000000894,58777.742,58780.10000000894,58794.412,59361.231,,24,new
screen,html.Screen,0_2_0_1_25,2021-12-03T11:21:40.112Z,,,,,,,,,,,,,,,,53,,,,,,,,,,,,,,609.7690000000002,,response,,,99,,,,,,Space,keypress(Space),,,,,---- -- ----- -- ------ - ------- --- ----------<br>------------- ------ ------ ---- ---- ------- ----- -- ----<br>-------- ------- -- ---------- --- - --- study ----- ----<br>---- --- --- ----- --- ---- ---- ------- ----- ---- -------<br>--- --- -- ----- -- --- ---- -- --- ---- -- ------ ------<br>--- ----- -- ----,59971.79999999702,59971,59344.561,59356.10000000894,59361.231,59978.114,,25,study
screen,html.Screen,0_2_0_1_26,2021-12-03T11:21:40.756Z,,,,,,,,,,,,,,,,53,,,,,,,,,,,,,,632.8859999999986,,response,,,99,,,,,,Space,keypress(Space),,,,,---- -- ----- -- ------ - ------- --- ----------<br>------------- ------ ------ ---- ---- ------- ----- -- ----<br>-------- ------- -- ---------- --- - --- ----- finds ----<br>---- --- --- ----- --- ---- ---- ------- ----- ---- -------<br>--- --- -- ----- -- --- ---- -- --- ---- -- ------ ------<br>--- ----- -- ----,60611.79999999702,60611,59961.443,59972.10000000894,59978.114,60628.217,,26,finds
screen,html.Screen,0_2_0_1_27,2021-12-03T11:21:41.332Z,,,,,,,,,,,,,,,,53,,,,,,,,,,,,,,558.7830000000031,,response,,,99,,,,,,Space,keypress(Space),,,,,---- -- ----- -- ------ - ------- --- ----------<br>------------- ------ ------ ---- ---- ------- ----- -- ----<br>-------- ------- -- ---------- --- - --- ----- ----- that<br>---- --- --- ----- --- ---- ---- ------- ----- ---- -------<br>--- --- -- ----- -- --- ---- -- --- ---- -- ------ ------<br>--- ----- -- ----,61187.70000000298,61187,60611.547,60612.10000000894,60628.217,61195.047,,27,that
screen,html.Screen,0_2_0_1_28,2021-12-03T11:21:42.068Z,,,,,,,,,,,,,,,,53,,,,,,,,,,,,,,727.9530000000013,,response,,,99,,,,,,Space,keypress(Space),,,,,---- -- ----- -- ------ - ------- --- ----------<br>------------- ------ ------ ---- ---- ------- ----- -- ----<br>-------- ------- -- ---------- --- - --- ----- ----- ----<br>it's --- --- ----- --- ---- ---- ------- ----- ---- -------<br>--- --- -- ----- -- --- ---- -- --- ---- -- ------ ------<br>--- ----- -- ----,61923.79999999702,61923,61178.377,61188,61195.047,61928.63,,28,it's
screen,html.Screen,0_2_0_1_29,2021-12-03T11:21:42.660Z,,,,,,,,,,,,,,,,53,,,,,,,,,,,,,,586.7700000059631,,response,,,99,,,,,,Space,keypress(Space),,,,,---- -- ----- -- ------ - ------- --- ----------<br>------------- ------ ------ ---- ---- ------- ----- -- ----<br>-------- ------- -- ---------- --- - --- ----- ----- ----<br>---- not --- ----- --- ---- ---- ------- ----- ---- -------<br>--- --- -- ----- -- --- ---- -- --- ---- -- ------ ------<br>--- ----- -- ----,62516.20000000298,62515.40000000596,61911.959,61923.90000000596,61928.63,62528.747,,29,not
screen,html.Screen,0_2_0_1_30,2021-12-03T11:21:43.348Z,,,,,,,,,,,,,,,,53,,,,,,,,,,,,,,674.1530000059574,,response,,,99,,,,,,Space,keypress(Space),,,,,---- -- ----- -- ------ - ------- --- ----------<br>------------- ------ ------ ---- ---- ------- ----- -- ----<br>-------- ------- -- ---------- --- - --- ----- ----- ----<br>---- --- how ----- --- ---- ---- ------- ----- ---- -------<br>--- --- -- ----- -- --- ---- -- --- ---- -- ------ ------<br>--- ----- -- ----,63203.70000000298,63202.90000000596,62512.077,62516.40000000596,62528.747,63212.256,,30,how
screen,html.Screen,0_2_0_1_31,2021-12-03T11:21:43.956Z,,,,,,,,,,,,,,,,53,,,,,,,,,,,,,,598.6440000059592,,response,,,99,,,,,,Space,keypress(Space),,,,,---- -- ----- -- ------ - ------- --- ----------<br>------------- ------ ------ ---- ---- ------- ----- -- ----<br>-------- ------- -- ---------- --- - --- ----- ----- ----<br>---- --- --- close --- ---- ---- ------- ----- ---- -------<br>--- --- -- ----- -- --- ---- -- --- ---- -- ------ ------<br>--- ----- -- ----,63811.79999999702,63810.90000000596,63195.586,63203.90000000596,63212.256,63829.087,,31,close
screen,html.Screen,0_2_0_1_32,2021-12-03T11:21:44.532Z,,,,,,,,,,,,,,,,53,,,,,,,,,,,,,,557.7129999970202,,response,,,99,,,,,,Space,keypress(Space),,,,,---- -- ----- -- ------ - ------- --- ----------<br>------------- ------ ------ ---- ---- ------- ----- -- ----<br>-------- ------- -- ---------- --- - --- ----- ----- ----<br>---- --- --- ----- you ---- ---- ------- ----- ---- -------<br>--- --- -- ----- -- --- ---- -- --- ---- -- ------ ------<br>--- ----- -- ----,64387.70000000298,64386.79999999702,63812.417,63812,63829.087,64395.764,,32,you
screen,html.Screen,0_2_0_1_33,2021-12-03T11:21:45.204Z,,,,,,,,,,,,,,,,53,,,,,,,,,,,,,,663.1360000059576,,response,,,99,,,,,,Space,keypress(Space),,,,,---- -- ----- -- ------ - ------- --- ----------<br>------------- ------ ------ ---- ---- ------- ----- -- ----<br>-------- ------- -- ---------- --- - --- ----- ----- ----<br>---- --- --- ----- --- feel ---- ------- ----- ---- -------<br>--- --- -- ----- -- --- ---- -- --- ---- -- ------ ------<br>--- ----- -- ----,65059.60000000894,65058.90000000596,64379.095,64387.90000000596,64395.764,65062.871,,33,feel
screen,html.Screen,0_2_0_1_34,2021-12-03T11:21:45.820Z,,,,,,,,,,,,,,,,53,,,,,,,,,,,,,,612.2290000089415,,response,,,99,,,,,,Space,keypress(Space),,,,,---- -- ----- -- ------ - ------- --- ----------<br>------------- ------ ------ ---- ---- ------- ----- -- ----<br>-------- ------- -- ---------- --- - --- ----- ----- ----<br>---- --- --- ----- --- ---- that ------- ----- ---- -------<br>--- --- -- ----- -- --- ---- -- --- ---- -- ------ ------<br>--- ----- -- ----,65675.90000000596,65675.10000000894,65046.199,65059.79999999702,65062.871,65679.539,,34,that
screen,html.Screen,0_2_0_1_35,2021-12-03T11:21:46.675Z,,,,,,,,,,,,,,,,53,,,,,,,,,,,,,,851.1610000029759,,response,,,99,,,,,,Space,keypress(Space),,,,,---- -- ----- -- ------ - ------- --- ----------<br>------------- ------ ------ ---- ---- ------- ----- -- ----<br>-------- ------- -- ---------- --- - --- ----- ----- ----<br>---- --- --- ----- --- ---- ---- matters ----- ---- -------<br>--- --- -- ----- -- --- ---- -- --- ---- -- ------ ------<br>--- ----- -- ----,66531.5,66530.70000000298,65662.869,65676.10000000894,65679.539,66546.515,,35,matters
screen,html.Screen,0_2_0_1_36,2021-12-03T11:21:47.492Z,,,,,,,,,,,,,,,,53,,,,,,,,,,,,,,800.1850000029808,,response,,,99,,,,,,Space,keypress(Space),,,,,"---- -- ----- -- ------ - ------- --- ----------<br>------------- ------ ------ ---- ---- ------- ----- -- ----<br>-------- ------- -- ---------- --- - --- ----- ----- ----<br>---- --- --- ----- --- ---- ---- ------- most, ---- -------<br>--- --- -- ----- -- --- ---- -- --- ---- -- ------ ------<br>--- ----- -- ----",67347.60000000894,67346.70000000298,66529.844,66531.70000000298,66546.515,67363.409,,36,"most,"
screen,html.Screen,0_2_0_1_37,2021-12-03T11:21:48.083Z,,,,,,,,,,,,,,,,53,,,,,,,,,,,,,,575.191000008941,,response,,,99,,,,,,Space,keypress(Space),,,,,---- -- ----- -- ------ - ------- --- ----------<br>------------- ------ ------ ---- ---- ------- ----- -- ----<br>-------- ------- -- ---------- --- - --- ----- ----- ----<br>---- --- --- ----- --- ---- ---- ------- ----- it's -------<br>--- --- -- ----- -- --- ---- -- --- ---- -- ------ ------<br>--- ----- -- ----,67939.5,67938.60000000894,67346.738,67347.90000000596,67363.409,67946.846,,37,it's
screen,html.Screen,0_2_0_1_38,2021-12-03T11:21:48.627Z,,,,,,,,,,,,,,,,53,,,,,,,,,,,,,,535.7540000089357,,response,,,99,,,,,,Space,keypress(Space),,,,,---- -- ----- -- ------ - ------- --- ----------<br>------------- ------ ------ ---- ---- ------- ----- -- ----<br>-------- ------- -- ---------- --- - --- ----- ----- ----<br>---- --- --- ----- --- ---- ---- ------- ----- ---- whether<br>--- --- -- ----- -- --- ---- -- --- ---- -- ------ ------<br>--- ----- -- ----,68483.40000000596,68482.60000000894,67930.176,67939.70000000298,67946.846,68496.999,,38,whether
screen,html.Screen,0_2_0_1_39,2021-12-03T11:21:49.107Z,,,,,,,,,,,,,,,,53,,,,,,,,,,,,,,465.60100000894454,,response,,,99,,,,,,Space,keypress(Space),,,,,---- -- ----- -- ------ - ------- --- ----------<br>------------- ------ ------ ---- ---- ------- ----- -- ----<br>-------- ------- -- ---------- --- - --- ----- ----- ----<br>---- --- --- ----- --- ---- ---- ------- ----- ---- -------<br>you --- -- ----- -- --- ---- -- --- ---- -- ------ ------<br>--- ----- -- ----,68963.29999999702,68962.60000000894,68480.329,68483.60000000894,68496.999,68980.463,,39,you
screen,html.Screen,0_2_0_1_40,2021-12-03T11:21:49.691Z,,,,,,,,,,,,,,,,53,,,,,,,,,,,,,,566.0369999999966,,response,,,99,,,,,,Space,keypress(Space),,,,,---- -- ----- -- ------ - ------- --- ----------<br>------------- ------ ------ ---- ---- ------- ----- -- ----<br>-------- ------- -- ---------- --- - --- ----- ----- ----<br>---- --- --- ----- --- ---- ---- ------- ----- ---- -------<br>--- are -- ----- -- --- ---- -- --- ---- -- ------ ------<br>--- ----- -- ----,69547.29999999702,69546.5,68963.793,68963.60000000894,68980.463,69563.932,,40,are
screen,html.Screen,0_2_0_1_41,2021-12-03T11:21:50.219Z,,,,,,,,,,,,,,,,53,,,,,,,,,,,,,,510.66800000894,,response,,,99,,,,,,Space,keypress(Space),,,,,---- -- ----- -- ------ - ------- --- ----------<br>------------- ------ ------ ---- ---- ------- ----- -- ----<br>-------- ------- -- ---------- --- - --- ----- ----- ----<br>---- --- --- ----- --- ---- ---- ------- ----- ---- -------<br>--- --- as ----- -- --- ---- -- --- ---- -- ------ ------<br>--- ----- -- ----,70075.29999999702,70074.60000000894,69547.262,69547.60000000894,69563.932,70080.8,,41,as
screen,html.Screen,0_2_0_1_42,2021-12-03T11:21:50.755Z,,,,,,,,,,,,,,,,53,,,,,,,,,,,,,,529.8000000089378,,response,,,99,,,,,,Space,keypress(Space),,,,,---- -- ----- -- ------ - ------- --- ----------<br>------------- ------ ------ ---- ---- ------- ----- -- ----<br>-------- ------- -- ---------- --- - --- ----- ----- ----<br>---- --- --- ----- --- ---- ---- ------- ----- ---- -------<br>--- --- -- close -- --- ---- -- --- ---- -- ------ ------<br>--- ----- -- ----,70611.29999999702,70610.60000000894,70064.129,70075.60000000894,70080.8,70614.201,,42,close
screen,html.Screen,0_2_0_1_43,2021-12-03T11:21:51.331Z,,,,,,,,,,,,,,,,53,,,,,,,,,,,,,,572.3990000089398,,response,,,99,,,,,,Space,keypress(Space),,,,,---- -- ----- -- ------ - ------- --- ----------<br>------------- ------ ------ ---- ---- ------- ----- -- ----<br>-------- ------- -- ---------- --- - --- ----- ----- ----<br>---- --- --- ----- --- ---- ---- ------- ----- ---- -------<br>--- --- -- ----- as --- ---- -- --- ---- -- ------ ------<br>--- ----- -- ----,71187.29999999702,71186.60000000894,70597.531,70611.5,70614.201,71197.775,,43,as
screen,html.Screen,0_2_0_1_44,2021-12-03T11:21:51.891Z,,,,,,,,,,,,,,,,53,,,,,,,,,,,,,,548.7250000000058,,response,,,99,,,,,,Space,keypress(Space),,,,,---- -- ----- -- ------ - ------- --- ----------<br>------------- ------ ------ ---- ---- ------- ----- -- ----<br>-------- ------- -- ---------- --- - --- ----- ----- ----<br>---- --- --- ----- --- ---- ---- ------- ----- ---- -------<br>--- --- -- ----- -- you ---- -- --- ---- -- ------ ------<br>--- ----- -- ----,71747.29999999702,71746.5,71181.104,71187.60000000894,71197.775,71764.394,,44,you
screen,html.Screen,0_2_0_1_45,2021-12-03T11:21:52.491Z,,,,,,,,,,,,,,,,53,,,,,,,,,,,,,,582.0060000059602,,response,,,99,,,,,,Space,keypress(Space),,,,,---- -- ----- -- ------ - ------- --- ----------<br>------------- ------ ------ ---- ---- ------- ----- -- ----<br>-------- ------- -- ---------- --- - --- ----- ----- ----<br>---- --- --- ----- --- ---- ---- ------- ----- ---- -------<br>--- --- -- ----- -- --- want -- --- ---- -- ------ ------<br>--- ----- -- ----,72347.20000000298,72346.40000000596,71747.725,71747.5,71764.394,72348.124,,45,want
screen,html.Screen,0_2_0_1_46,2021-12-03T11:21:53.019Z,,,,,,,,,,,,,,,,53,,,,,,,,,,,,,,526.3760000000038,,response,,,99,,,,,,Space,keypress(Space),,,,,---- -- ----- -- ------ - ------- --- ----------<br>------------- ------ ------ ---- ---- ------- ----- -- ----<br>-------- ------- -- ---------- --- - --- ----- ----- ----<br>---- --- --- ----- --- ---- ---- ------- ----- ---- -------<br>--- --- -- ----- -- --- ---- to --- ---- -- ------ ------<br>--- ----- -- ----,72875.20000000298,72874.5,72331.452,72347.5,72348.124,72881.483,,46,to
screen,html.Screen,0_2_0_1_47,2021-12-03T11:21:54.003Z,,,,,,,,,,,,,,,,53,,,,,,,,,,,,,,976.8169999970269,,response,,,99,,,,,,Space,keypress(Space),,,,,"---- -- ----- -- ------ - ------- --- ----------<br>------------- ------ ------ ---- ---- ------- ----- -- ----<br>-------- ------- -- ---------- --- - --- ----- ----- ----<br>---- --- --- ----- --- ---- ---- ------- ----- ---- -------<br>--- --- -- ----- -- --- ---- -- be, ---- -- ------ ------<br>--- ----- -- ----",73859.10000000894,73858.29999999702,72864.813,72875.40000000596,72881.483,73865.062,,47,"be,"
screen,html.Screen,0_2_0_1_48,2021-12-03T11:21:54.843Z,,,,,,,,,,,,,,,,53,,,,,,,,,,,,,,833.2379999970144,,response,,,99,,,,,,Space,keypress(Space),,,,,---- -- ----- -- ------ - ------- --- ----------<br>------------- ------ ------ ---- ---- ------- ----- -- ----<br>-------- ------- -- ---------- --- - --- ----- ----- ----<br>---- --- --- ----- --- ---- ---- ------- ----- ---- -------<br>--- --- -- ----- -- --- ---- -- --- even -- ------ ------<br>--- ----- -- ----,74699.10000000894,74698.29999999702,73848.392,73859.29999999702,73865.062,74715.274,,48,even
screen,html.Screen,0_2_0_1_49,2021-12-03T11:21:55.403Z,,,,,,,,,,,,,,,,53,,,,,,,,,,,,,,543.0259999970149,,response,,,99,,,,,,Space,keypress(Space),,,,,---- -- ----- -- ------ - ------- --- ----------<br>------------- ------ ------ ---- ---- ------- ----- -- ----<br>-------- ------- -- ---------- --- - --- ----- ----- ----<br>---- --- --- ----- --- ---- ---- ------- ----- ---- -------<br>--- --- -- ----- -- --- ---- -- --- ---- if ------ ------<br>--- ----- -- ----,75259,75258.29999999702,74698.604,74699.40000000596,74715.274,75265.518,,49,if
screen,html.Screen,0_2_0_1_50,2021-12-03T11:21:55.987Z,,,,,,,,,,,,,,,,53,,,,,,,,,,,,,,577.1820000029838,,response,,,99,,,,,,Space,keypress(Space),,,,,---- -- ----- -- ------ - ------- --- ----------<br>------------- ------ ------ ---- ---- ------- ----- -- ----<br>-------- ------- -- ---------- --- - --- ----- ----- ----<br>---- --- --- ----- --- ---- ---- ------- ----- ---- -------<br>--- --- -- ----- -- --- ---- -- --- ---- -- that's ------<br>--- ----- -- ----,75843.40000000596,75842.70000000298,75248.847,75259.20000000298,75265.518,75848.94,,50,that's
screen,html.Screen,0_2_0_1_51,2021-12-03T11:21:56.579Z,,,,,,,,,,,,,,,,53,,,,,,,,,,,,,,585.2600000029779,,response,,,99,,,,,,Space,keypress(Space),,,,,---- -- ----- -- ------ - ------- --- ----------<br>------------- ------ ------ ---- ---- ------- ----- -- ----<br>-------- ------- -- ---------- --- - --- ----- ----- ----<br>---- --- --- ----- --- ---- ---- ------- ----- ---- -------<br>--- --- -- ----- -- --- ---- -- --- ---- -- ------ really<br>--- ----- -- ----,76434.90000000596,76434.20000000298,75832.27,75843.60000000894,75848.94,76449.107,,51,really
screen,html.Screen,0_2_0_1_52,2021-12-03T11:21:57.195Z,,,,,,,,,,,,,,,,53,,,,,,,,,,,,,,601.0930000029766,,response,,,99,,,,,,Space,keypress(Space),,,,,---- -- ----- -- ------ - ------- --- ----------<br>------------- ------ ------ ---- ---- ------- ----- -- ----<br>-------- ------- -- ---------- --- - --- ----- ----- ----<br>---- --- --- ----- --- ---- ---- ------- ----- ---- -------<br>--- --- -- ----- -- --- ---- -- --- ---- -- ------ ------<br>not ----- -- ----,77051,77050.20000000298,76432.437,76435.10000000894,76449.107,77065.932,,52,not
screen,html.Screen,0_2_0_1_53,2021-12-03T11:21:57.875Z,,,,,,,,,,,,,,,,53,,,,,,,,,,,,,,664.2680000029795,,response,,,99,,,,,,Space,keypress(Space),,,,,---- -- ----- -- ------ - ------- --- ----------<br>------------- ------ ------ ---- ---- ------- ----- -- ----<br>-------- ------- -- ---------- --- - --- ----- ----- ----<br>---- --- --- ----- --- ---- ---- ------- ----- ---- -------<br>--- --- -- ----- -- --- ---- -- --- ---- -- ------ ------<br>--- close -- ----,77731,77730.20000000298,77049.262,77051.20000000298,77065.932,77732.772,,53,close
screen,html.Screen,0_2_0_1_54,2021-12-03T11:21:58.235Z,,,,,,,,,,,,,,,,53,,,,,,,,,,,,,,357.428000002983,,response,,,99,,,,,,Space,keypress(Space),,,,,---- -- ----- -- ------ - ------- --- ----------<br>------------- ------ ------ ---- ---- ------- ----- -- ----<br>-------- ------- -- ---------- --- - --- ----- ----- ----<br>---- --- --- ----- --- ---- ---- ------- ----- ---- -------<br>--- --- -- ----- -- --- ---- -- --- ---- -- ------ ------<br>--- ----- at ----,78090.90000000596,78090.20000000298,77716.102,77731.20000000298,77732.772,78099.509,,54,at
screen,html.Screen,0_2_0_1_55,2021-12-03T11:21:58.619Z,,,,,,,,,,,,,,,,53,,,,,,,,,,,,,,374.69100000297476,,response,,,99,,,,,,Space,keypress(Space),,,,,---- -- ----- -- ------ - ------- --- ----------<br>------------- ------ ------ ---- ---- ------- ----- -- ----<br>-------- ------- -- ---------- --- - --- ----- ----- ----<br>---- --- --- ----- --- ---- ---- ------- ----- ---- -------<br>--- --- -- ----- -- --- ---- -- --- ---- -- ------ ------<br>--- ----- -- all.,78474.90000000596,78474.20000000298,78082.839,78091.20000000298,78099.509,78483.03,,55,all.
Item 99,flow.Loop,0_2_0_1,2021-12-03T11:21:58.623Z,,,,,,,,,,,,,,,,,,,,,,,,,,,,,,33883.78500000298,,completion,,,,F,,,,,,,,,,silence,,78479.29999999702,78474.20000000298,44573.746,44580.29999999702,44590.415,78483.03,,,
Question 1,html.Screen,0_2_0_2,2021-12-03T11:22:03.314Z,,,,,,,,,,,,,,,,,,,,,,,,,,,true,FALSE,,4686.370000005962,,response,,,99,F,,,,,FALSE,click #choice-2,,,,silence,,83169.90000000596,83169.40000000596,78466.359,78479.60000000894,78483.03,83184.194,,,
Question 2,html.Screen,0_2_0_3,2021-12-03T11:22:12.075Z,,,,,,,,,,,,,,,,,,,,,,,,,,,true,TRUE,,8745.206000005957,,response,,,99,F,,,,,TRUE,click #choice-1,,,,silence,,91930.5,91929.40000000596,83167.524,83170,83184.194,91953.187,,,
Item 99,flow.Sequence,0_2_0,2021-12-03T11:22:12.075Z,,,,,,,,,,,,,,,,,,,,,,,,,,,,,,57333.041000005964,,completion,,,,,,,,,,,,,,,,91931.10000000894,91929.40000000596,34579.732,34582.10000000894,34596.359,91953.187,,,
Holding screen,html.Screen,0_2_1_0,2021-12-03T11:22:22.085Z,,,,,,,,,,,,,,,,,,,,,,,,,,,,,,10002.606,,timeout,,,,,,,,,,,,,,,,101940.70000000298,101939.123,91936.517,91931.40000000596,91953.187,101955.793,,,
screen,html.Screen,0_2_1_1_0,2021-12-03T11:22:23.170Z,,,,,,,,,,,,,,,,54,,,,,,,,,,,,,,1069.6070000059553,,response,,,100,,,,,,Space,keypress(Space),,,,,At --- ---- --- ------ ----- ------- ---- -- --- ------- --<br>------- ---------- ------ -- ----- -- ----- -- ---- ------<br>--- ----- --- --- ------ -------- ----- --- ------ ----- --<br>----- ----- ---------- --- --- ------ ------ ---- -- ------<br>------- --- ------ ----- --- ---- ------- -- ---- --- --<br>------- ------,103026.29999999702,103025.40000000596,101939.123,101941,101955.793,103039.588,,0,At
screen,html.Screen,0_2_1_1_1,2021-12-03T11:22:23.618Z,,,,,,,,,,,,,,,,54,,,,,,,,,,,,,,433.5120000089373,,response,,,100,,,,,,Space,keypress(Space),,,,,-- the ---- --- ------ ----- ------- ---- -- --- ------- --<br>------- ---------- ------ -- ----- -- ----- -- ---- ------<br>--- ----- --- --- ------ -------- ----- --- ------ ----- --<br>----- ----- ---------- --- --- ------ ------ ---- -- ------<br>------- --- ------ ----- --- ---- ------- -- ---- --- --<br>------- ------,103473.90000000596,103473.10000000894,103022.916,103026.5,103039.588,103489.478,,1,the
screen,html.Screen,0_2_1_1_2,2021-12-03T11:22:24.154Z,,,,,,,,,,,,,,,,54,,,,,,,,,,,,,,519.5219999999972,,response,,,100,,,,,,Space,keypress(Space),,,,,-- --- time --- ------ ----- ------- ---- -- --- ------- --<br>------- ---------- ------ -- ----- -- ----- -- ---- ------<br>--- ----- --- --- ------ -------- ----- --- ------ ----- --<br>----- ----- ---------- --- --- ------ ------ ---- -- ------<br>------- --- ------ ----- --- ---- ------- -- ---- --- --<br>------- ------,104009.70000000298,104009,103472.809,103474.10000000894,103489.478,104023.167,,2,time
screen,html.Screen,0_2_1_1_3,2021-12-03T11:22:24.634Z,,,,,,,,,,,,,,,,54,,,,,,,,,,,,,,465.7330000059592,,response,,,100,,,,,,Space,keypress(Space),,,,,-- --- ---- the ------ ----- ------- ---- -- --- ------- --<br>------- ---------- ------ -- ----- -- ----- -- ---- ------<br>--- ----- --- --- ------ -------- ----- --- ------ ----- --<br>----- ----- ---------- --- --- ------ ------ ---- -- ------<br>------- --- ------ ----- --- ---- ------- -- ---- --- --<br>------- ------,104489.70000000298,104488.90000000596,104006.496,104010,104023.167,104506.577,,3,the
screen,html.Screen,0_2_1_1_4,2021-12-03T11:22:25.154Z,,,,,,,,,,,,,,,,54,,,,,,,,,,,,,,502.4229999999952,,response,,,100,,,,,,Space,keypress(Space),,,,,-- --- ---- --- French ----- ------- ---- -- --- ------- --<br>------- ---------- ------ -- ----- -- ----- -- ---- ------<br>--- ----- --- --- ------ -------- ----- --- ------ ----- --<br>----- ----- ---------- --- --- ------ ------ ---- -- ------<br>------- --- ------ ----- --- ---- ------- -- ---- --- --<br>------- ------,105009.70000000298,105009,104489.907,104490,104506.577,105023.38,,4,French
screen,html.Screen,0_2_1_1_5,2021-12-03T11:22:25.690Z,,,,,,,,,,,,,,,,54,,,,,,,,,,,,,,521.5200000059558,,response,,,100,,,,,,Space,keypress(Space),,,,,-- --- ---- --- ------ crown ------- ---- -- --- ------- --<br>------- ---------- ------ -- ----- -- ----- -- ---- ------<br>--- ----- --- --- ------ -------- ----- --- ------ ----- --<br>----- ----- ---------- --- --- ------ ------ ---- -- ------<br>------- --- ------ ----- --- ---- ------- -- ---- --- --<br>------- ------,105545.60000000894,105544.90000000596,105006.71,105010,105023.38,105556.836,,5,crown
screen,html.Screen,0_2_1_1_6,2021-12-03T11:22:26.458Z,,,,,,,,,,,,,,,,54,,,,,,,,,,,,,,755.9639999970241,,response,,,100,,,,,,Space,keypress(Space),,,,,-- --- ---- --- ------ ----- secured ---- -- --- ------- --<br>------- ---------- ------ -- ----- -- ----- -- ---- ------<br>--- ----- --- --- ------ -------- ----- --- ------ ----- --<br>----- ----- ---------- --- --- ------ ------ ---- -- ------<br>------- --- ------ ----- --- ---- ------- -- ---- --- --<br>------- ------,106313.60000000894,106312.79999999702,105540.166,105545.90000000596,105556.836,106323.7,,6,secured
screen,html.Screen,0_2_1_1_7,2021-12-03T11:22:27.018Z,,,,,,,,,,,,,,,,54,,,,,,,,,,,,,,549.0999999970227,,response,,,100,,,,,,Space,keypress(Space),,,,,-- --- ---- --- ------ ----- ------- much -- --- ------- --<br>------- ---------- ------ -- ----- -- ----- -- ---- ------<br>--- ----- --- --- ------ -------- ----- --- ------ ----- --<br>----- ----- ---------- --- --- ------ ------ ---- -- ------<br>------- --- ------ ----- --- ---- ------- -- ---- --- --<br>------- ------,106873.5,106872.79999999702,106307.03,106313.90000000596,106323.7,106890.529,,7,much
screen,html.Screen,0_2_1_1_8,2021-12-03T11:22:27.474Z,,,,,,,,,,,,,,,,54,,,,,,,,,,,,,,438.2709999970248,,response,,,100,,,,,,Space,keypress(Space),,,,,-- --- ---- --- ------ ----- ------- ---- of --- ------- --<br>------- ---------- ------ -- ----- -- ----- -- ---- ------<br>--- ----- --- --- ------ -------- ----- --- ------ ----- --<br>----- ----- ---------- --- --- ------ ------ ---- -- ------<br>------- --- ------ ----- --- ---- ------- -- ---- --- --<br>------- ------,107329.5,107328.79999999702,106873.859,106873.79999999702,106890.529,107340.705,,8,of
screen,html.Screen,0_2_1_1_9,2021-12-03T11:22:27.970Z,,,,,,,,,,,,,,,,54,,,,,,,,,,,,,,484.094999997018,,response,,,100,,,,,,Space,keypress(Space),,,,,-- --- ---- --- ------ ----- ------- ---- -- its ------- --<br>------- ---------- ------ -- ----- -- ----- -- ---- ------<br>--- ----- --- --- ------ -------- ----- --- ------ ----- --<br>----- ----- ---------- --- --- ------ ------ ---- -- ------<br>------- --- ------ ----- --- ---- ------- -- ---- --- --<br>------- ------,107825.5,107824.79999999702,107324.034,107329.70000000298,107340.705,107840.787,,9,its
screen,html.Screen,0_2_1_1_10,2021-12-03T11:22:28.657Z,,,,,,,,,,,,,,,,54,,,,,,,,,,,,,,671.9130000029836,,response,,,100,,,,,,Space,keypress(Space),,,,,-- --- ---- --- ------ ----- ------- ---- -- --- revenue --<br>------- ---------- ------ -- ----- -- ----- -- ---- ------<br>--- ----- --- --- ------ -------- ----- --- ------ ----- --<br>----- ----- ---------- --- --- ------ ------ ---- -- ------<br>------- --- ------ ----- --- ---- ------- -- ---- --- --<br>------- ------,108513.40000000596,108512.70000000298,107824.117,107825.70000000298,107840.787,108524.282,,10,revenue
screen,html.Screen,0_2_1_1_11,2021-12-03T11:22:29.137Z,,,,,,,,,,,,,,,,54,,,,,,,,,,,,,,468.4180000029737,,response,,,100,,,,,,Space,keypress(Space),,,,,-- --- ---- --- ------ ----- ------- ---- -- --- ------- by<br>------- ---------- ------ -- ----- -- ----- -- ---- ------<br>--- ----- --- --- ------ -------- ----- --- ------ ----- --<br>----- ----- ---------- --- --- ------ ------ ---- -- ------<br>------- --- ------ ----- --- ---- ------- -- ---- --- --<br>------- ------,108993.5,108992.70000000298,108507.612,108513.70000000298,108524.282,109007.632,,11,by
screen,html.Screen,0_2_1_1_12,2021-12-03T11:22:29.657Z,,,,,,,,,,,,,,,,54,,,,,,,,,,,,,,504.9680000089429,,response,,,100,,,,,,Space,keypress(Space),,,,,-- --- ---- --- ------ ----- ------- ---- -- --- ------- --<br>issuing ---------- ------ -- ----- -- ----- -- ---- ------<br>--- ----- --- --- ------ -------- ----- --- ------ ----- --<br>----- ----- ---------- --- --- ------ ------ ---- -- ------<br>------- --- ------ ----- --- ---- ------- -- ---- --- --<br>------- ------,109513.40000000596,109512.60000000894,108990.963,108993.60000000894,109007.632,109524.527,,12,issuing
screen,html.Screen,0_2_1_1_13,2021-12-03T11:22:30.385Z,,,,,,,,,,,,,,,,54,,,,,,,,,,,,,,716.1730000029784,,response,,,100,,,,,,Space,keypress(Space),,,,,-- --- ---- --- ------ ----- ------- ---- -- --- ------- --<br>------- government ------ -- ----- -- ----- -- ---- ------<br>--- ----- --- --- ------ -------- ----- --- ------ ----- --<br>----- ----- ---------- --- --- ------ ------ ---- -- ------<br>------- --- ------ ----- --- ---- ------- -- ---- --- --<br>------- ------,110241.40000000596,110240.70000000298,109507.857,109513.60000000894,109524.527,110258.216,,13,government
screen,html.Screen,0_2_1_1_14,2021-12-03T11:22:31.385Z,,,,,,,,,,,,,,,,54,,,,,,,,,,,,,,982.2839999999997,,response,,,100,,,,,,Space,keypress(Space),,,,,-- --- ---- --- ------ ----- ------- ---- -- --- ------- --<br>------- ---------- bonds. -- ----- -- ----- -- ---- ------<br>--- ----- --- --- ------ -------- ----- --- ------ ----- --<br>----- ----- ---------- --- --- ------ ------ ---- -- ------<br>------- --- ------ ----- --- ---- ------- -- ---- --- --<br>------- ------,111241.40000000596,111240.5,110241.544,110241.70000000298,110258.216,111258.334,,14,bonds.
screen,html.Screen,0_2_1_1_15,2021-12-03T11:22:31.913Z,,,,,,,,,,,,,,,,54,,,,,,,,,,,,,,510.26600000893814,,response,,,100,,,,,,Space,keypress(Space),,,,,-- --- ---- --- ------ ----- ------- ---- -- --- ------- --<br>------- ---------- ------ In ----- -- ----- -- ---- ------<br>--- ----- --- --- ------ -------- ----- --- ------ ----- --<br>----- ----- ---------- --- --- ------ ------ ---- -- ------<br>------- --- ------ ----- --- ---- ------- -- ---- --- --<br>------- ------,111769.29999999702,111768.60000000894,111241.664,111241.60000000894,111258.334,111775.226,,15,In
screen,html.Screen,0_2_1_1_16,2021-12-03T11:22:33.145Z,,,,,,,,,,,,,,,,54,,,,,,,,,,,,,,1225.3740000089456,,response,,,100,,,,,,Space,keypress(Space),,,,,"-- --- ---- --- ------ ----- ------- ---- -- --- ------- --<br>------- ---------- ------ -- 1727, -- ----- -- ---- ------<br>--- ----- --- --- ------ -------- ----- --- ------ ----- --<br>----- ----- ---------- --- --- ------ ------ ---- -- ------<br>------- --- ------ ----- --- ---- ------- -- ---- --- --<br>------- ------",113001.40000000596,113000.60000000894,111758.555,111769.60000000894,111775.226,113008.77,,16,"1727,"
screen,html.Screen,0_2_1_1_17,2021-12-03T11:22:33.594Z,,,,,,,,,,,,,,,,54,,,,,,,,,,,,,,440.2299999999959,,response,,,100,,,,,,Space,keypress(Space),,,,,-- --- ---- --- ------ ----- ------- ---- -- --- ------- --<br>------- ---------- ------ -- ----- in ----- -- ---- ------<br>--- ----- --- --- ------ -------- ----- --- ------ ----- --<br>----- ----- ---------- --- --- ------ ------ ---- -- ------<br>------- --- ------ ----- --- ---- ------- -- ---- --- --<br>------- ------,113449.79999999702,113449,112992.1,113001.60000000894,113008.77,113458.947,,17,in
screen,html.Screen,0_2_1_1_18,2021-12-03T11:22:34.113Z,,,,,,,,,,,,,,,,54,,,,,,,,,,,,,,509.5529999999999,,response,,,100,,,,,,Space,keypress(Space),,,,,-- --- ---- --- ------ ----- ------- ---- -- --- ------- --<br>------- ---------- ------ -- ----- -- order -- ---- ------<br>--- ----- --- --- ------ -------- ----- --- ------ ----- --<br>----- ----- ---------- --- --- ------ ------ ---- -- ------<br>------- --- ------ ----- --- ---- ------- -- ---- --- --<br>------- ------,113969.20000000298,113968.5,113442.277,113450,113458.947,113975.696,,18,order
screen,html.Screen,0_2_1_1_19,2021-12-03T11:22:34.593Z,,,,,,,,,,,,,,,,54,,,,,,,,,,,,,,472.9040000089444,,response,,,100,,,,,,Space,keypress(Space),,,,,-- --- ---- --- ------ ----- ------- ---- -- --- ------- --<br>------- ---------- ------ -- ----- -- ----- to ---- ------<br>--- ----- --- --- ------ -------- ----- --- ------ ----- --<br>----- ----- ---------- --- --- ------ ------ ---- -- ------<br>------- --- ------ ----- --- ---- ------- -- ---- --- --<br>------- ------,114449.20000000298,114448.60000000894,113959.026,113969.5,113975.696,114459.334,,19,to
screen,html.Screen,0_2_1_1_20,2021-12-03T11:22:35.169Z,,,,,,,,,,,,,,,,54,,,,,,,,,,,,,,565.1659999999974,,response,,,100,,,,,,Space,keypress(Space),,,,,-- --- ---- --- ------ ----- ------- ---- -- --- ------- --<br>------- ---------- ------ -- ----- -- ----- -- save ------<br>--- ----- --- --- ------ -------- ----- --- ------ ----- --<br>----- ----- ---------- --- --- ------ ------ ---- -- ------<br>------- --- ------ ----- --- ---- ------- -- ---- --- --<br>------- ------,115025.29999999702,115024.5,114442.662,114449.5,114459.334,115042.687,,20,save
screen,html.Screen,0_2_1_1_21,2021-12-03T11:22:35.730Z,,,,,,,,,,,,,,,,54,,,,,,,,,,,,,,542.1129999970144,,response,,,100,,,,,,Space,keypress(Space),,,,,"-- --- ---- --- ------ ----- ------- ---- -- --- ------- --<br>------- ---------- ------ -- ----- -- ----- -- ---- money,<br>--- ----- --- --- ------ -------- ----- --- ------ ----- --<br>----- ----- ---------- --- --- ------ ------ ---- -- ------<br>------- --- ------ ----- --- ---- ------- -- ---- --- --<br>------- ------",115585.70000000298,115584.79999999702,115026.017,115025.5,115042.687,115592.898,,21,"money,"
screen,html.Screen,0_2_1_1_22,2021-12-03T11:22:36.273Z,,,,,,,,,,,,,,,,54,,,,,,,,,,,,,,535.5020000059594,,response,,,100,,,,,,Space,keypress(Space),,,,,-- --- ---- --- ------ ----- ------- ---- -- --- ------- --<br>------- ---------- ------ -- ----- -- ----- -- ---- ------<br>the ----- --- --- ------ -------- ----- --- ------ ----- --<br>----- ----- ---------- --- --- ------ ------ ---- -- ------<br>------- --- ------ ----- --- ---- ------- -- ---- --- --<br>------- ------,116129.20000000298,116128.40000000596,115576.227,115585.90000000596,115592.898,116142.981,,22,the
screen,html.Screen,0_2_1_1_23,2021-12-03T11:22:36.745Z,,,,,,,,,,,,,,,,54,,,,,,,,,,,,,,457.4190000059607,,response,,,100,,,,,,Space,keypress(Space),,,,,-- --- ---- --- ------ ----- ------- ---- -- --- ------- --<br>------- ---------- ------ -- ----- -- ----- -- ---- ------<br>--- state --- --- ------ -------- ----- --- ------ ----- --<br>----- ----- ---------- --- --- ------ ------ ---- -- ------<br>------- --- ------ ----- --- ---- ------- -- ---- --- --<br>------- ------,116601.29999999702,116600.40000000596,116126.311,116129.5,116142.981,116609.832,,23,state
screen,html.Screen,0_2_1_1_24,2021-12-03T11:22:37.241Z,,,,,,,,,,,,,,,,54,,,,,,,,,,,,,,486.5680000059656,,response,,,100,,,,,,Space,keypress(Space),,,,,-- --- ---- --- ------ ----- ------- ---- -- --- ------- --<br>------- ---------- ------ -- ----- -- ----- -- ---- ------<br>--- ----- cut --- ------ -------- ----- --- ------ ----- --<br>----- ----- ---------- --- --- ------ ------ ---- -- ------<br>------- --- ------ ----- --- ---- ------- -- ---- --- --<br>------- ------,117097.10000000894,117096.40000000596,116593.161,116601.60000000894,116609.832,117109.924,,24,cut
screen,html.Screen,0_2_1_1_25,2021-12-03T11:22:37.673Z,,,,,,,,,,,,,,,,54,,,,,,,,,,,,,,418.4760000059614,,response,,,100,,,,,,Space,keypress(Space),,,,,-- --- ---- --- ------ ----- ------- ---- -- --- ------- --<br>------- ---------- ------ -- ----- -- ----- -- ---- ------<br>--- ----- --- the ------ -------- ----- --- ------ ----- --<br>----- ----- ---------- --- --- ------ ------ ---- -- ------<br>------- --- ------ ----- --- ---- ------- -- ---- --- --<br>------- ------,117529.10000000894,117528.40000000596,117093.254,117097.40000000596,117109.924,117543.374,,25,the
screen,html.Screen,0_2_1_1_26,2021-12-03T11:22:38.145Z,,,,,,,,,,,,,,,,54,,,,,,,,,,,,,,457.0260000059643,,response,,,100,,,,,,Space,keypress(Space),,,,,-- --- ---- --- ------ ----- ------- ---- -- --- ------- --<br>------- ---------- ------ -- ----- -- ----- -- ---- ------<br>--- ----- --- --- bonds' -------- ----- --- ------ ----- --<br>----- ----- ---------- --- --- ------ ------ ---- -- ------<br>------- --- ------ ----- --- ---- ------- -- ---- --- --<br>------- ------,118001.10000000894,118000.40000000596,117526.704,117529.40000000596,117543.374,118010.205,,26,bonds'
screen,html.Screen,0_2_1_1_27,2021-12-03T11:22:38.721Z,,,,,,,,,,,,,,,,54,,,,,,,,,,,,,,566.1950000059587,,response,,,100,,,,,,Space,keypress(Space),,,,,-- --- ---- --- ------ ----- ------- ---- -- --- ------- --<br>------- ---------- ------ -- ----- -- ----- -- ---- ------<br>--- ----- --- --- ------ interest ----- --- ------ ----- --<br>----- ----- ---------- --- --- ------ ------ ---- -- ------<br>------- --- ------ ----- --- ---- ------- -- ---- --- --<br>------- ------,118577.10000000894,118576.40000000596,117993.534,118001.40000000596,118010.205,118593.475,,27,interest
screen,html.Screen,0_2_1_1_28,2021-12-03T11:22:39.273Z,,,,,,,,,,,,,,,,54,,,,,,,,,,,,,,534.7250000029744,,response,,,100,,,,,,Space,keypress(Space),,,,,-- --- ---- --- ------ ----- ------- ---- -- --- ------- --<br>------- ---------- ------ -- ----- -- ----- -- ---- ------<br>--- ----- --- --- ------ -------- rate. --- ------ ----- --<br>----- ----- ---------- --- --- ------ ------ ---- -- ------<br>------- --- ------ ----- --- ---- ------- -- ---- --- --<br>------- ------,119129,119128.20000000298,118576.807,118577.29999999702,118593.475,119143.924,,28,rate.
screen,html.Screen,0_2_1_1_29,2021-12-03T11:22:39.825Z,,,,,,,,,,,,,,,,54,,,,,,,,,,,,,,536.3759999970207,,response,,,100,,,,,,Space,keypress(Space),,,,,-- --- ---- --- ------ ----- ------- ---- -- --- ------- --<br>------- ---------- ------ -- ----- -- ----- -- ---- ------<br>--- ----- --- --- ------ -------- ----- The ------ ----- --<br>----- ----- ---------- --- --- ------ ------ ---- -- ------<br>------- --- ------ ----- --- ---- ------- -- ---- --- --<br>------- ------,119681.10000000894,119680.29999999702,119127.252,119129.29999999702,119143.924,119693.93,,29,The
screen,html.Screen,0_2_1_1_30,2021-12-03T11:22:40.657Z,,,,,,,,,,,,,,,,54,,,,,,,,,,,,,,818.3699999970268,,response,,,100,,,,,,Space,keypress(Space),,,,,-- --- ---- --- ------ ----- ------- ---- -- --- ------- --<br>------- ---------- ------ -- ----- -- ----- -- ---- ------<br>--- ----- --- --- ------ -------- ----- --- market ----- --<br>----- ----- ---------- --- --- ------ ------ ---- -- ------<br>------- --- ------ ----- --- ---- ------- -- ---- --- --<br>------- ------,120513,120512.29999999702,119677.26,119681.29999999702,119693.93,120527.479,,30,market
screen,html.Screen,0_2_1_1_31,2021-12-03T11:22:41.108Z,,,,,,,,,,,,,,,,54,,,,,,,,,,,,,,432.7210000029736,,response,,,100,,,,,,Space,keypress(Space),,,,,-- --- ---- --- ------ ----- ------- ---- -- --- ------- --<br>------- ---------- ------ -- ----- -- ----- -- ---- ------<br>--- ----- --- --- ------ -------- ----- --- ------ value --<br>----- ----- ---------- --- --- ------ ------ ---- -- ------<br>------- --- ------ ----- --- ---- ------- -- ---- --- --<br>------- ------,120961,120960.20000000298,120510.809,120513.20000000298,120527.479,120977.624,,31,value
screen,html.Screen,0_2_1_1_32,2021-12-03T11:22:41.548Z,,,,,,,,,,,,,,,,54,,,,,,,,,,,,,,422.47600000894454,,response,,,100,,,,,,Space,keypress(Space),,,,,-- --- ---- --- ------ ----- ------- ---- -- --- ------- --<br>------- ---------- ------ -- ----- -- ----- -- ---- ------<br>--- ----- --- --- ------ -------- ----- --- ------ ----- of<br>----- ----- ---------- --- --- ------ ------ ---- -- ------<br>------- --- ------ ----- --- ---- ------- -- ---- --- --<br>------- ------,121400.90000000596,121400.10000000894,120960.954,120961.29999999702,120977.624,121411.056,,32,of
screen,html.Screen,0_2_1_1_33,2021-12-03T11:22:41.980Z,,,,,,,,,,,,,,,,54,,,,,,,,,,,,,,421.1440000029834,,response,,,100,,,,,,Space,keypress(Space),,,,,-- --- ---- --- ------ ----- ------- ---- -- --- ------- --<br>------- ---------- ------ -- ----- -- ----- -- ---- ------<br>--- ----- --- --- ------ -------- ----- --- ------ ----- --<br>these ----- ---------- --- --- ------ ------ ---- -- ------<br>------- --- ------ ----- --- ---- ------- -- ---- --- --<br>------- ------,121832.90000000596,121832.20000000298,121394.386,121401.20000000298,121411.056,121844.515,,33,these
screen,html.Screen,0_2_1_1_34,2021-12-03T11:22:42.372Z,,,,,,,,,,,,,,,,54,,,,,,,,,,,,,,379.5850000089413,,response,,,100,,,,,,Space,keypress(Space),,,,,-- --- ---- --- ------ ----- ------- ---- -- --- ------- --<br>------- ---------- ------ -- ----- -- ----- -- ---- ------<br>--- ----- --- --- ------ -------- ----- --- ------ ----- --<br>----- bonds ---------- --- --- ------ ------ ---- -- ------<br>------- --- ------ ----- --- ---- ------- -- ---- --- --<br>------- ------,122224.90000000596,122224.10000000894,121827.845,121833.10000000894,121844.515,122227.989,,34,bonds
screen,html.Screen,0_2_1_1_35,2021-12-03T11:22:43.076Z,,,,,,,,,,,,,,,,54,,,,,,,,,,,,,,700.1110000089393,,response,,,100,,,,,,Space,keypress(Space),,,,,"-- --- ---- --- ------ ----- ------- ---- -- --- ------- --<br>------- ---------- ------ -- ----- -- ----- -- ---- ------<br>--- ----- --- --- ------ -------- ----- --- ------ ----- --<br>----- ----- plummeted, --- --- ------ ------ ---- -- ------<br>------- --- ------ ----- --- ---- ------- -- ---- --- --<br>------- ------",122928.90000000596,122928.10000000894,122211.318,122225.10000000894,122227.989,122944.667,,35,"plummeted,"
screen,html.Screen,0_2_1_1_36,2021-12-03T11:22:43.669Z,,,,,,,,,,,,,,,,54,,,,,,,,,,,,,,575.8329999999987,,response,,,100,,,,,,Space,keypress(Space),,,,,-- --- ---- --- ------ ----- ------- ---- -- --- ------- --<br>------- ---------- ------ -- ----- -- ----- -- ---- ------<br>--- ----- --- --- ------ -------- ----- --- ------ ----- --<br>----- ----- ---------- and --- ------ ------ ---- -- ------<br>------- --- ------ ----- --- ---- ------- -- ---- --- --<br>------- ------,123521.29999999702,123520.5,122927.998,122929.10000000894,122944.667,123528.429,,36,and
screen,html.Screen,0_2_1_1_37,2021-12-03T11:22:44.148Z,,,,,,,,,,,,,,,,54,,,,,,,,,,,,,,471.67100000893697,,response,,,100,,,,,,Space,keypress(Space),,,,,-- --- ---- --- ------ ----- ------- ---- -- --- ------- --<br>------- ---------- ------ -- ----- -- ----- -- ---- ------<br>--- ----- --- --- ------ -------- ----- --- ------ ----- --<br>----- ----- ---------- --- the ------ ------ ---- -- ------<br>------- --- ------ ----- --- ---- ------- -- ---- --- --<br>------- ------,124000.90000000596,124000.10000000894,123511.757,123521.5,123528.429,124011.754,,37,the
screen,html.Screen,0_2_1_1_38,2021-12-03T11:22:44.588Z,,,,,,,,,,,,,,,,54,,,,,,,,,,,,,,428.3460000089399,,response,,,100,,,,,,Space,keypress(Space),,,,,-- --- ---- --- ------ ----- ------- ---- -- --- ------- --<br>------- ---------- ------ -- ----- -- ----- -- ---- ------<br>--- ----- --- --- ------ -------- ----- --- ------ ----- --<br>----- ----- ---------- --- --- market ------ ---- -- ------<br>------- --- ------ ----- --- ---- ------- -- ---- --- --<br>------- ------,124440.79999999702,124440.10000000894,123995.084,124001,124011.754,124445.25,,38,market
screen,html.Screen,0_2_1_1_39,2021-12-03T11:22:45.124Z,,,,,,,,,,,,,,,,54,,,,,,,,,,,,,,530.8500000089407,,response,,,100,,,,,,Space,keypress(Space),,,,,-- --- ---- --- ------ ----- ------- ---- -- --- ------- --<br>------- ---------- ------ -- ----- -- ----- -- ---- ------<br>--- ----- --- --- ------ -------- ----- --- ------ ----- --<br>----- ----- ---------- --- --- ------ became ---- -- ------<br>------- --- ------ ----- --- ---- ------- -- ---- --- --<br>------- ------,124976.79999999702,124976.10000000894,124428.579,124441,124445.25,124978.668,,39,became
screen,html.Screen,0_2_1_1_40,2021-12-03T11:22:46.020Z,,,,,,,,,,,,,,,,54,,,,,,,,,,,,,,893.3319999999949,,response,,,100,,,,,,Space,keypress(Space),,,,,-- --- ---- --- ------ ----- ------- ---- -- --- ------- --<br>------- ---------- ------ -- ----- -- ----- -- ---- ------<br>--- ----- --- --- ------ -------- ----- --- ------ ----- --<br>----- ----- ---------- --- --- ------ ------ wary -- ------<br>------- --- ------ ----- --- ---- ------- -- ---- --- --<br>------- ------,125872.70000000298,125872,124961.998,124977,124978.668,125878.89,,40,wary
screen,html.Screen,0_2_1_1_41,2021-12-03T11:22:46.468Z,,,,,,,,,,,,,,,,54,,,,,,,,,,,,,,441.01000000596105,,response,,,100,,,,,,Space,keypress(Space),,,,,-- --- ---- --- ------ ----- ------- ---- -- --- ------- --<br>------- ---------- ------ -- ----- -- ----- -- ---- ------<br>--- ----- --- --- ------ -------- ----- --- ------ ----- --<br>----- ----- ---------- --- --- ------ ------ ---- of ------<br>------- --- ------ ----- --- ---- ------- -- ---- --- --<br>------- ------,126320.70000000298,126319.90000000596,125862.22,125872.90000000596,125878.89,126329.092,,41,of
screen,html.Screen,0_2_1_1_42,2021-12-03T11:22:46.892Z,,,,,,,,,,,,,,,,54,,,,,,,,,,,,,,414.8080000059563,,response,,,100,,,,,,Space,keypress(Space),,,,,-- --- ---- --- ------ ----- ------- ---- -- --- ------- --<br>------- ---------- ------ -- ----- -- ----- -- ---- ------<br>--- ----- --- --- ------ -------- ----- --- ------ ----- --<br>----- ----- ---------- --- --- ------ ------ ---- -- French<br>------- --- ------ ----- --- ---- ------- -- ---- --- --<br>------- ------,126744.60000000894,126743.90000000596,126312.421,126322,126329.092,126745.782,,42,French
screen,html.Screen,0_2_1_1_43,2021-12-03T11:22:47.396Z,,,,,,,,,,,,,,,,54,,,,,,,,,,,,,,502.01799999701325,,response,,,100,,,,,,Space,keypress(Space),,,,,-- --- ---- --- ------ ----- ------- ---- -- --- ------- --<br>------- ---------- ------ -- ----- -- ----- -- ---- ------<br>--- ----- --- --- ------ -------- ----- --- ------ ----- --<br>----- ----- ---------- --- --- ------ ------ ---- -- ------<br>credit. --- ------ ----- --- ---- ------- -- ---- --- --<br>------- ------,127248.60000000894,127247.79999999702,126729.112,126744.90000000596,126745.782,127262.563,,43,credit.
screen,html.Screen,0_2_1_1_44,2021-12-03T11:22:47.956Z,,,,,,,,,,,,,,,,54,,,,,,,,,,,,,,545.3370000059658,,response,,,100,,,,,,Space,keypress(Space),,,,,-- --- ---- --- ------ ----- ------- ---- -- --- ------- --<br>------- ---------- ------ -- ----- -- ----- -- ---- ------<br>--- ----- --- --- ------ -------- ----- --- ------ ----- --<br>----- ----- ---------- --- --- ------ ------ ---- -- ------<br>------- The ------ ----- --- ---- ------- -- ---- --- --<br>------- ------,127808.60000000894,127807.90000000596,127245.893,127248.90000000596,127262.563,127812.932,,44,The
screen,html.Screen,0_2_1_1_45,2021-12-03T11:22:48.484Z,,,,,,,,,,,,,,,,54,,,,,,,,,,,,,,522.9680000059598,,response,,,100,,,,,,Space,keypress(Space),,,,,-- --- ---- --- ------ ----- ------- ---- -- --- ------- --<br>------- ---------- ------ -- ----- -- ----- -- ---- ------<br>--- ----- --- --- ------ -------- ----- --- ------ ----- --<br>----- ----- ---------- --- --- ------ ------ ---- -- ------<br>------- --- French ----- --- ---- ------- -- ---- --- --<br>------- ------,128336.60000000894,128335.90000000596,127796.259,127808.90000000596,127812.932,128346.128,,45,French
screen,html.Screen,0_2_1_1_46,2021-12-03T11:22:49.060Z,,,,,,,,,,,,,,,,54,,,,,,,,,,,,,,565.6719999970228,,response,,,100,,,,,,Space,keypress(Space),,,,,-- --- ---- --- ------ ----- ------- ---- -- --- ------- --<br>------- ---------- ------ -- ----- -- ----- -- ---- ------<br>--- ----- --- --- ------ -------- ----- --- ------ ----- --<br>----- ----- ---------- --- --- ------ ------ ---- -- ------<br>------- --- ------ state --- ---- ------- -- ---- --- --<br>------- ------,128912.60000000894,128911.79999999702,128329.459,128336.79999999702,128346.128,128929.785,,46,state
screen,html.Screen,0_2_1_1_47,2021-12-03T11:22:49.508Z,,,,,,,,,,,,,,,,54,,,,,,,,,,,,,,430.0149999970163,,response,,,100,,,,,,Space,keypress(Space),,,,,-- --- ---- --- ------ ----- ------- ---- -- --- ------- --<br>------- ---------- ------ -- ----- -- ----- -- ---- ------<br>--- ----- --- --- ------ -------- ----- --- ------ ----- --<br>----- ----- ---------- --- --- ------ ------ ---- -- ------<br>------- --- ------ ----- was ---- ------- -- ---- --- --<br>------- ------,129360.60000000894,129359.79999999702,128913.114,128912.79999999702,128929.785,129363.224,,47,was
screen,html.Screen,0_2_1_1_48,2021-12-03T11:22:49.988Z,,,,,,,,,,,,,,,,54,,,,,,,,,,,,,,476.47600000297825,,response,,,100,,,,,,Space,keypress(Space),,,,,-- --- ---- --- ------ ----- ------- ---- -- --- ------- --<br>------- ---------- ------ -- ----- -- ----- -- ---- ------<br>--- ----- --- --- ------ -------- ----- --- ------ ----- --<br>----- ----- ---------- --- --- ------ ------ ---- -- ------<br>------- --- ------ ----- --- left ------- -- ---- --- --<br>------- ------,129840.5,129839.70000000298,129346.553,129360.79999999702,129363.224,129846.612,,48,left
screen,html.Screen,0_2_1_1_49,2021-12-03T11:22:50.620Z,,,,,,,,,,,,,,,,54,,,,,,,,,,,,,,625.187999997026,,response,,,100,,,,,,Space,keypress(Space),,,,,-- --- ---- --- ------ ----- ------- ---- -- --- ------- --<br>------- ---------- ------ -- ----- -- ----- -- ---- ------<br>--- ----- --- --- ------ -------- ----- --- ------ ----- --<br>----- ----- ---------- --- --- ------ ------ ---- -- ------<br>------- --- ------ ----- --- ---- without -- ---- --- --<br>------- ------,130472.5,130471.79999999702,129829.942,129840.79999999702,129846.612,130480.177,,49,without
screen,html.Screen,0_2_1_1_50,2021-12-03T11:22:51.340Z,,,,,,,,,,,,,,,,54,,,,,,,,,,,,,,711.5230000029842,,response,,,100,,,,,,Space,keypress(Space),,,,,-- --- ---- --- ------ ----- ------- ---- -- --- ------- --<br>------- ---------- ------ -- ----- -- ----- -- ---- ------<br>--- ----- --- --- ------ -------- ----- --- ------ ----- --<br>----- ----- ---------- --- --- ------ ------ ---- -- ------<br>------- --- ------ ----- --- ---- ------- an ---- --- --<br>------- ------,131192.5,131191.70000000298,130463.506,130472.79999999702,130480.177,131196.985,,50,an
screen,html.Screen,0_2_1_1_51,2021-12-03T11:22:51.948Z,,,,,,,,,,,,,,,,54,,,,,,,,,,,,,,602.7150000029942,,response,,,100,,,,,,Space,keypress(Space),,,,,-- --- ---- --- ------ ----- ------- ---- -- --- ------- --<br>------- ---------- ------ -- ----- -- ----- -- ---- ------<br>--- ----- --- --- ------ -------- ----- --- ------ ----- --<br>----- ----- ---------- --- --- ------ ------ ---- -- ------<br>------- --- ------ ----- --- ---- ------- -- easy --- --<br>------- ------,131800.5,131799.70000000298,131180.315,131192.79999999702,131196.985,131813.805,,51,easy
screen,html.Screen,0_2_1_1_52,2021-12-03T11:22:52.516Z,,,,,,,,,,,,,,,,54,,,,,,,,,,,,,,553.8950000029872,,response,,,100,,,,,,Space,keypress(Space),,,,,-- --- ---- --- ------ ----- ------- ---- -- --- ------- --<br>------- ---------- ------ -- ----- -- ----- -- ---- ------<br>--- ----- --- --- ------ -------- ----- --- ------ ----- --<br>----- ----- ---------- --- --- ------ ------ ---- -- ------<br>------- --- ------ ----- --- ---- ------- -- ---- way --<br>------- ------,132368.5,132367.70000000298,131797.135,131800.70000000298,131813.805,132380.594,,52,way
screen,html.Screen,0_2_1_1_53,2021-12-03T11:22:52.956Z,,,,,,,,,,,,,,,,54,,,,,,,,,,,,,,427.0060000089288,,response,,,100,,,,,,Space,keypress(Space),,,,,-- --- ---- --- ------ ----- ------- ---- -- --- ------- --<br>------- ---------- ------ -- ----- -- ----- -- ---- ------<br>--- ----- --- --- ------ -------- ----- --- ------ ----- --<br>----- ----- ---------- --- --- ------ ------ ---- -- ------<br>------- --- ------ ----- --- ---- ------- -- ---- --- of<br>------- ------,132808.40000000596,132807.60000000894,132363.924,132368.70000000298,132380.594,132814.158,,53,of
screen,html.Screen,0_2_1_1_54,2021-12-03T11:22:53.708Z,,,,,,,,,,,,,,,,54,,,,,,,,,,,,,,745.8420000000042,,response,,,100,,,,,,Space,keypress(Space),,,,,-- --- ---- --- ------ ----- ------- ---- -- --- ------- --<br>------- ---------- ------ -- ----- -- ----- -- ---- ------<br>--- ----- --- --- ------ -------- ----- --- ------ ----- --<br>----- ----- ---------- --- --- ------ ------ ---- -- ------<br>------- --- ------ ----- --- ---- ------- -- ---- --- --<br>raising ------,133560.90000000596,133560,132797.487,132808.60000000894,132814.158,133564.252,,54,raising
screen,html.Screen,0_2_1_1_55,2021-12-03T11:22:54.188Z,,,,,,,,,,,,,,,,54,,,,,,,,,,,,,,475.348000008933,,response,,,100,,,,,,Space,keypress(Space),,,,,-- --- ---- --- ------ ----- ------- ---- -- --- ------- --<br>------- ---------- ------ -- ----- -- ----- -- ---- ------<br>--- ----- --- --- ------ -------- ----- --- ------ ----- --<br>----- ----- ---------- --- --- ------ ------ ---- -- ------<br>------- --- ------ ----- --- ---- ------- -- ---- --- --<br>------- money.,134040.5,134039.60000000894,133547.582,133561.10000000894,133564.252,134047.635,,55,money.
Item 100,flow.Loop,0_2_1_1,2021-12-03T11:22:54.188Z,,,,,,,,,,,,,,,,,,,,,,,,,,,,,,32083.807000008936,,completion,,,,F,,,,,,,,,,silence,,134041,134039.60000000894,101939.123,101940.90000000596,101955.793,134047.635,,,
Question 1,html.Screen,0_2_1_2,2021-12-03T11:22:56.820Z,,,,,,,,,,,,,,,,,,,,,,,,,,,true,TRUE,,2623.6649999970105,,response,,,100,F,,,,,TRUE,click #choice-1,,,,silence,,136672.5,136671.29999999702,134030.966,134041.10000000894,134047.635,136681.835,,,
Question 2,html.Screen,0_2_1_3,2021-12-03T11:22:58.948Z,,,,,,,,,,,,,,,,,,,,,,,,,,,true,FALSE,,2117.3650000029884,,response,,,100,F,,,,,FALSE,click #choice-2,,,,silence,,138800.5,138799.20000000298,136665.164,136672.70000000298,136681.835,138816.105,,,
Item 100,flow.Sequence,0_2_1,2021-12-03T11:22:58.948Z,,,,,,,,,,,,,,,,,,,,,,,,,,,,,,46846.013000002975,,completion,,,,,,,,,,,,,,,,138800.90000000596,138799.20000000298,91936.517,91931.29999999702,91953.187,138816.105,,,
End of Practice,html.Page,0_2_2,2021-12-03T11:23:01.997Z,,,,,,,,,,,,,,,,,,,,,,,,,,,,,,3032.49500000893,,form submission,,,,,,,,,,,,,,,,141849.20000000298,141848.60000000894,138799.396,138801,138816.105,141849.58,,,
Practice,flow.Sequence,0_2,2021-12-03T11:23:01.997Z,,,,,,,,,,,,,,,,,,,,,,,,,,,,,,107252.24100000894,,completion,,,,,,,,,,,,,,,,141849.60000000894,141848.60000000894,34579.732,34582.10000000894,34596.359,141849.58,,,
Trap_instruction,html.Page,0_3_0,2021-12-03T11:23:07.092Z,,,,,,,,,,,,,,,,,,,,,,,,,,,,,,5094.719999997033,,form submission,,,,,,,,,,,,,,,,146944.79999999702,146944.29999999702,141832.911,141849.90000000596,141849.58,146967.881,,,
trap_trial,html.Screen,0_3_1,2021-12-03T11:23:09.979Z,,,,,,,,,,,,,,,,,,,,,,,,,,,true,1,,2862.7190000089468,,response,,,,,,,,,1,click #choice-1,,,,,,149831.90000000596,149830.60000000894,146934.537,146945,146967.881,149835.631,,,
end of trap trial,html.Page,0_3_2,2021-12-03T11:23:12.956Z,,,,,,,,,,,,,,,,,,,,,,,,,,,,,,2972.369000000006,,form submission,,,,,,,,,,,,,,,,152808.5,152808,149818.958,149832.10000000894,149835.631,152819.338,,,
Trap 1,flow.Sequence,0_3,2021-12-03T11:23:12.956Z,,,,,,,,,,,,,,,,,,,,,,,,,,,,,,10958.420000000013,,completion,,,,,,,,,,,,,,,,152808.79999999702,152808,141832.911,141849.79999999702,141849.58,152819.338,,,
Standby,html.Page,0_4_0,2021-12-03T11:23:20.954Z,,,,,,,,,,,,,,,,,,,,,,,,,,,,,,8002.188000000024,,timeout,,,,,,,,,,,,,,,,160806.70000000298,160804.855,152802.668,152809.10000000894,152819.338,160821.526,,,
Holding screen,html.Screen,0_4_1_0_0,2021-12-03T11:23:27.956Z,,,,,,,,,,,,,,,,,,,,,,,,,,,,,,7001.9649999999965,,timeout,,,,,,,,,,,,,,,,167808.40000000596,167806.82,160804.855,160807.10000000894,160821.526,167823.491,,,
screen,html.Screen,0_4_1_0_1_0,2021-12-03T11:23:28.651Z,,,,,,,,,,,,,,,,48,,,,,,,,,,,,,,679.1090000089316,,response,,,10,F,,,,,Space,keypress(Space),,,,instrumental,As -- --- ------ ------- --------- ----------- --------<br>--------- -------- --- ------- -- ------- ---- -- ------<br>-- --- -------- -------- ---------- ---- ---- ---- ------<br>-- --------- -- ---- -- --- -- --- ------- -- - -----<br>---------- -- -- -- ---- ----- -- ------ -- --- ------<br>-------,168503.60000000894,168502.60000000894,167806.82,167808.70000000298,167823.491,168506.887,,0,As
screen,html.Screen,0_4_1_0_1_1,2021-12-03T11:23:29.074Z,,,,,,,,,,,,,,,,48,,,,,,,,,,,,,,419.1130000000121,,response,,,10,F,,,,,Space,keypress(Space),,,,instrumental,-- in --- ------ ------- --------- ----------- --------<br>--------- -------- --- ------- -- ------- ---- -- ------<br>-- --- -------- -------- ---------- ---- ---- ---- ------<br>-- --------- -- ---- -- --- -- --- ------- -- - -----<br>---------- -- -- -- ---- ----- -- ------ -- --- ------<br>-------,168926.70000000298,168926,168490.217,168504,168506.887,168940.282,,1,in
screen,html.Screen,0_4_1_0_1_2,2021-12-03T11:23:29.474Z,,,,,,,,,,,,,,,,48,,,,,,,,,,,,,,385.7179999999935,,response,,,10,F,,,,,Space,keypress(Space),,,,instrumental,-- -- the ------ ------- --------- ----------- --------<br>--------- -------- --- ------- -- ------- ---- -- ------<br>-- --- -------- -------- ---------- ---- ---- ---- ------<br>-- --------- -- ---- -- --- -- --- ------- -- - -----<br>---------- -- -- -- ---- ----- -- ------ -- --- ------<br>-------,169326.70000000298,169326,168923.612,168926.90000000596,168940.282,169340.569,,2,the
screen,html.Screen,0_4_1_0_1_3,2021-12-03T11:23:29.970Z,,,,,,,,,,,,,,,,48,,,,,,,,,,,,,,481.3310000059719,,response,,,10,F,,,,,Space,keypress(Space),,,,instrumental,-- -- --- United ------- --------- ----------- --------<br>--------- -------- --- ------- -- ------- ---- -- ------<br>-- --- -------- -------- ---------- ---- ---- ---- ------<br>-- --------- -- ---- -- --- -- --- ------- -- - -----<br>---------- -- -- -- ---- ----- -- ------ -- --- ------<br>-------,169822.70000000298,169821.90000000596,169323.897,169327,169340.569,169823.927,,3,United
screen,html.Screen,0_4_1_0_1_4,2021-12-03T11:23:30.482Z,,,,,,,,,,,,,,,,48,,,,,,,,,,,,,,509.8729999970237,,response,,,10,F,,,,,Space,keypress(Space),,,,instrumental,"-- -- --- ------ States, --------- ----------- --------<br>--------- -------- --- ------- -- ------- ---- -- ------<br>-- --- -------- -------- ---------- ---- ---- ---- ------<br>-- --------- -- ---- -- --- -- --- ------- -- - -----<br>---------- -- -- -- ---- ----- -- ------ -- --- ------<br>-------",170334.60000000894,170333.79999999702,169807.257,169823,169823.927,170340.739,,4,"States,"
screen,html.Screen,0_4_1_0_1_5,2021-12-03T11:23:31.130Z,,,,,,,,,,,,,,,,48,,,,,,,,,,,,,,641.0609999970184,,response,,,10,F,,,,,Space,keypress(Space),,,,instrumental,-- -- --- ------ ------- Colombian ----------- --------<br>--------- -------- --- ------- -- ------- ---- -- ------<br>-- --- -------- -------- ---------- ---- ---- ---- ------<br>-- --------- -- ---- -- --- -- --- ------- -- - -----<br>---------- -- -- -- ---- ----- -- ------ -- --- ------<br>-------,170982.60000000894,170981.79999999702,170324.069,170334.79999999702,170340.739,170990.906,,5,Colombian
screen,html.Screen,0_4_1_0_1_6,2021-12-03T11:23:31.746Z,,,,,,,,,,,,,,,,48,,,,,,,,,,,,,,606.8939999970316,,response,,,10,F,,,,,Space,keypress(Space),,,,instrumental,-- -- --- ------ ------- --------- legislation --------<br>--------- -------- --- ------- -- ------- ---- -- ------<br>-- --- -------- -------- ---------- ---- ---- ---- ------<br>-- --------- -- ---- -- --- -- --- ------- -- - -----<br>---------- -- -- -- ---- ----- -- ------ -- --- ------<br>-------,171598.60000000894,171597.79999999702,170974.236,170982.90000000596,170990.906,171607.738,,6,legislation
screen,html.Screen,0_4_1_0_1_7,2021-12-03T11:23:32.330Z,,,,,,,,,,,,,,,,48,,,,,,,,,,,,,,574.0619999970077,,response,,,10,F,,,,,Space,keypress(Space),,,,instrumental,-- -- --- ------ ------- --------- ----------- requires<br>--------- -------- --- ------- -- ------- ---- -- ------<br>-- --- -------- -------- ---------- ---- ---- ---- ------<br>-- --------- -- ---- -- --- -- --- ------- -- - -----<br>---------- -- -- -- ---- ----- -- ------ -- --- ------<br>-------,172182.60000000894,172181.79999999702,171591.068,171598.79999999702,171607.738,172191.209,,7,requires
screen,html.Screen,0_4_1_0_1_8,2021-12-03T11:23:33.114Z,,,,,,,,,,,,,,,,48,,,,,,,,,,,,,,774.5909999970172,,response,,,10,F,,,,,Space,keypress(Space),,,,instrumental,-- -- --- ------ ------- --------- ----------- --------<br>travelers -------- --- ------- -- ------- ---- -- ------<br>-- --- -------- -------- ---------- ---- ---- ---- ------<br>-- --------- -- ---- -- --- -- --- ------- -- - -----<br>---------- -- -- -- ---- ----- -- ------ -- --- ------<br>-------,172966.60000000894,172965.79999999702,172174.539,172182.90000000596,172191.209,172974.749,,8,travelers
screen,html.Screen,0_4_1_0_1_9,2021-12-03T11:23:33.706Z,,,,,,,,,,,,,,,,48,,,,,,,,,,,,,,583.0509999970091,,response,,,10,F,,,,,Space,keypress(Space),,,,instrumental,-- -- --- ------ ------- --------- ----------- --------<br>--------- entering --- ------- -- ------- ---- -- ------<br>-- --- -------- -------- ---------- ---- ---- ---- ------<br>-- --------- -- ---- -- --- -- --- ------- -- - -----<br>---------- -- -- -- ---- ----- -- ------ -- --- ------<br>-------,173558.60000000894,173557.79999999702,172958.079,172966.70000000298,172974.749,173574.788,,9,entering
screen,html.Screen,0_4_1_0_1_10,2021-12-03T11:23:34.210Z,,,,,,,,,,,,,,,,48,,,,,,,,,,,,,,486.91200000297977,,response,,,10,F,,,,,Space,keypress(Space),,,,instrumental,-- -- --- ------ ------- --------- ----------- --------<br>--------- -------- the ------- -- ------- ---- -- ------<br>-- --- -------- -------- ---------- ---- ---- ---- ------<br>-- --------- -- ---- -- --- -- --- ------- -- - -----<br>---------- -- -- -- ---- ----- -- ------ -- --- ------<br>-------,174062.5,174061.70000000298,173558.119,173558.79999999702,173574.788,174075.175,,10,the
screen,html.Screen,0_4_1_0_1_11,2021-12-03T11:23:34.794Z,,,,,,,,,,,,,,,,48,,,,,,,,,,,,,,570.5250000029919,,response,,,10,F,,,,,Space,keypress(Space),,,,instrumental,-- -- --- ------ ------- --------- ----------- --------<br>--------- -------- --- country -- ------- ---- -- ------<br>-- --- -------- -------- ---------- ---- ---- ---- ------<br>-- --------- -- ---- -- --- -- --- ------- -- - -----<br>---------- -- -- -- ---- ----- -- ------ -- --- ------<br>-------,174646.5,174645.70000000298,174058.503,174062.79999999702,174075.175,174658.525,,11,country
screen,html.Screen,0_4_1_0_1_12,2021-12-03T11:23:35.370Z,,,,,,,,,,,,,,,,48,,,,,,,,,,,,,,563.2749999970256,,response,,,10,F,,,,,Space,keypress(Space),,,,instrumental,-- -- --- ------ ------- --------- ----------- --------<br>--------- -------- --- ------- to ------- ---- -- ------<br>-- --- -------- -------- ---------- ---- ---- ---- ------<br>-- --------- -- ---- -- --- -- --- ------- -- - -----<br>---------- -- -- -- ---- ----- -- ------ -- --- ------<br>-------,175222.70000000298,175221.79999999702,174641.855,174646.70000000298,174658.525,175225.365,,12,to
screen,html.Screen,0_4_1_0_1_13,2021-12-03T11:23:36.082Z,,,,,,,,,,,,,,,,48,,,,,,,,,,,,,,708.1350000000093,,response,,,10,F,,,,,Space,keypress(Space),,,,instrumental,-- -- --- ------ ------- --------- ----------- --------<br>--------- -------- --- ------- -- declare ---- -- ------<br>-- --- -------- -------- ---------- ---- ---- ---- ------<br>-- --------- -- ---- -- --- -- --- ------- -- - -----<br>---------- -- -- -- ---- ----- -- ------ -- --- ------<br>-------,175934.40000000596,175933.5,175208.695,175223,175225.365,175942.214,,13,declare
screen,html.Screen,0_4_1_0_1_14,2021-12-03T11:23:36.722Z,,,,,,,,,,,,,,,,48,,,,,,,,,,,,,,631.3860000089335,,response,,,10,F,,,,,Space,keypress(Space),,,,instrumental,-- -- --- ------ ------- --------- ----------- --------<br>--------- -------- --- ------- -- ------- cash -- ------<br>-- --- -------- -------- ---------- ---- ---- ---- ------<br>-- --------- -- ---- -- --- -- --- ------- -- - -----<br>---------- -- -- -- ---- ----- -- ------ -- --- ------<br>-------,176574.5,176573.60000000894,175925.544,175934.60000000894,175942.214,176575.719,,14,cash
screen,html.Screen,0_4_1_0_1_15,2021-12-03T11:23:37.106Z,,,,,,,,,,,,,,,,48,,,,,,,,,,,,,,381.7809999999881,,response,,,10,F,,,,,Space,keypress(Space),,,,instrumental,-- -- --- ------ ------- --------- ----------- --------<br>--------- -------- --- ------- -- ------- ---- in ------<br>-- --- -------- -------- ---------- ---- ---- ---- ------<br>-- --------- -- ---- -- --- -- --- ------- -- - -----<br>---------- -- -- -- ---- ----- -- ------ -- --- ------<br>-------,176958.40000000596,176957.5,176559.049,176574.70000000298,176575.719,176975.839,,15,in
screen,html.Screen,0_4_1_0_1_16,2021-12-03T11:23:37.754Z,,,,,,,,,,,,,,,,48,,,,,,,,,,,,,,629.6609999999928,,response,,,10,F,,,,,Space,keypress(Space),,,,instrumental,-- -- --- ------ ------- --------- ----------- --------<br>--------- -------- --- ------- -- ------- ---- -- excess<br>-- --- -------- -------- ---------- ---- ---- ---- ------<br>-- --------- -- ---- -- --- -- --- ------- -- - -----<br>---------- -- -- -- ---- ----- -- ------ -- --- ------<br>-------,177606.29999999702,177605.5,176959.169,176958.60000000894,176975.839,177609.379,,16,excess
screen,html.Screen,0_4_1_0_1_17,2021-12-03T11:23:38.314Z,,,,,,,,,,,,,,,,48,,,,,,,,,,,,,,556.1210000000137,,response,,,10,F,,,,,Space,keypress(Space),,,,instrumental,-- -- --- ------ ------- --------- ----------- --------<br>--------- -------- --- ------- -- ------- ---- -- ------<br>of --- -------- -------- ---------- ---- ---- ---- ------<br>-- --------- -- ---- -- --- -- --- ------- -- - -----<br>---------- -- -- -- ---- ----- -- ------ -- --- ------<br>-------,178166.20000000298,178165.5,177592.708,177606.5,177609.379,178175.95,,17,of
screen,html.Screen,0_4_1_0_1_18,2021-12-03T11:23:38.770Z,,,,,,,,,,,,,,,,48,,,,,,,,,,,,,,446.04999999998836,,response,,,10,F,,,,,Space,keypress(Space),,,,instrumental,-- -- --- ------ ------- --------- ----------- --------<br>--------- -------- --- ------- -- ------- ---- -- ------<br>-- ten -------- -------- ---------- ---- ---- ---- ------<br>-- --------- -- ---- -- --- -- --- ------- -- - -----<br>---------- -- -- -- ---- ----- -- ------ -- --- ------<br>-------,178622.70000000298,178622,178159.282,178166.5,178175.95,178626.232,,18,ten
screen,html.Screen,0_4_1_0_1_19,2021-12-03T11:23:39.410Z,,,,,,,,,,,,,,,,48,,,,,,,,,,,,,,635.2680000000109,,response,,,10,F,,,,,Space,keypress(Space),,,,instrumental,-- -- --- ------ ------- --------- ----------- --------<br>--------- -------- --- ------- -- ------- ---- -- ------<br>-- --- thousand -------- ---------- ---- ---- ---- ------<br>-- --------- -- ---- -- --- -- --- ------- -- - -----<br>---------- -- -- -- ---- ----- -- ------ -- --- ------<br>-------,179262.20000000298,179261.5,178609.562,178623,178626.232,179276.394,,19,thousand
screen,html.Screen,0_4_1_0_1_20,2021-12-03T11:23:40.090Z,,,,,,,,,,,,,,,,48,,,,,,,,,,,,,,665.0060000059602,,response,,,10,F,,,,,Space,keypress(Space),,,,instrumental,-- -- --- ------ ------- --------- ----------- --------<br>--------- -------- --- ------- -- ------- ---- -- ------<br>-- --- -------- dollars. ---------- ---- ---- ---- ------<br>-- --------- -- ---- -- --- -- --- ------- -- - -----<br>---------- -- -- -- ---- ----- -- ------ -- --- ------<br>-------,179942.29999999702,179941.40000000596,179259.724,179262.5,179276.394,179943.432,,20,dollars.
screen,html.Screen,0_4_1_0_1_21,2021-12-03T11:23:40.738Z,,,,,,,,,,,,,,,,48,,,,,,,,,,,,,,645.9680000059598,,response,,,10,F,,,,,Space,keypress(Space),,,,instrumental,-- -- --- ------ ------- --------- ----------- --------<br>--------- -------- --- ------- -- ------- ---- -- ------<br>-- --- -------- -------- Concealing ---- ---- ---- ------<br>-- --------- -- ---- -- --- -- --- ------- -- - -----<br>---------- -- -- -- ---- ----- -- ------ -- --- ------<br>-------,180590.10000000894,180589.40000000596,179926.76,179942.60000000894,179943.432,180593.312,,21,Concealing
screen,html.Screen,0_4_1_0_1_22,2021-12-03T11:23:41.156Z,,,,,,,,,,,,,,,,48,,,,,,,,,,,,,,419.9879999970144,,response,,,10,F,,,,,Space,keypress(Space),,,,instrumental,-- -- --- ------ ------- --------- ----------- --------<br>--------- -------- --- ------- -- ------- ---- -- ------<br>-- --- -------- -------- ---------- more ---- ---- ------<br>-- --------- -- ---- -- --- -- --- ------- -- - -----<br>---------- -- -- -- ---- ----- -- ------ -- --- ------<br>-------,181014.10000000894,181013.29999999702,180576.643,180590.40000000596,180593.312,181027.012,,22,more
screen,html.Screen,0_4_1_0_1_23,2021-12-03T11:23:41.644Z,,,,,,,,,,,,,,,,48,,,,,,,,,,,,,,474.2879999970319,,response,,,10,F,,,,,Space,keypress(Space),,,,instrumental,-- -- --- ------ ------- --------- ----------- --------<br>--------- -------- --- ------- -- ------- ---- -- ------<br>-- --- -------- -------- ---------- ---- than ---- ------<br>-- --------- -- ---- -- --- -- --- ------- -- - -----<br>---------- -- -- -- ---- ----- -- ------ -- --- ------<br>-------,181502.10000000894,181501.29999999702,181010.34,181014.29999999702,181027.012,181510.377,,23,than
screen,html.Screen,0_4_1_0_1_24,2021-12-03T11:23:42.092Z,,,,,,,,,,,,,,,,48,,,,,,,,,,,,,,439.0230000059528,,response,,,10,F,,,,,Space,keypress(Space),,,,instrumental,-- -- --- ------ ------- --------- ----------- --------<br>--------- -------- --- ------- -- ------- ---- -- ------<br>-- --- -------- -------- ---------- ---- ---- that ------<br>-- --------- -- ---- -- --- -- --- ------- -- - -----<br>---------- -- -- -- ---- ----- -- ------ -- --- ------<br>-------,181950.20000000298,181949.40000000596,181493.707,181502.40000000596,181510.377,181960.484,,24,that
screen,html.Screen,0_4_1_0_1_25,2021-12-03T11:23:42.636Z,,,,,,,,,,,,,,,,48,,,,,,,,,,,,,,532.7160000029835,,response,,,10,F,,,,,Space,keypress(Space),,,,instrumental,-- -- --- ------ ------- --------- ----------- --------<br>--------- -------- --- ------- -- ------- ---- -- ------<br>-- --- -------- -------- ---------- ---- ---- ---- amount<br>-- --------- -- ---- -- --- -- --- ------- -- - -----<br>---------- -- -- -- ---- ----- -- ------ -- --- ------<br>-------,182494.10000000894,182493.20000000298,181943.814,181950.40000000596,181960.484,182510.619,,25,amount
screen,html.Screen,0_4_1_0_1_26,2021-12-03T11:23:43.068Z,,,,,,,,,,,,,,,,48,,,,,,,,,,,,,,414.6809999970137,,response,,,10,F,,,,,Space,keypress(Space),,,,instrumental,-- -- --- ------ ------- --------- ----------- --------<br>--------- -------- --- ------- -- ------- ---- -- ------<br>-- --- -------- -------- ---------- ---- ---- ---- ------<br>to --------- -- ---- -- --- -- --- ------- -- - -----<br>---------- -- -- -- ---- ----- -- ------ -- --- ------<br>-------,182926.10000000894,182925.29999999702,182493.949,182494.29999999702,182510.619,182927.416,,26,to
screen,html.Screen,0_4_1_0_1_27,2021-12-03T11:23:43.676Z,,,,,,,,,,,,,,,,48,,,,,,,,,,,,,,605.7840000029828,,response,,,10,F,,,,,Space,keypress(Space),,,,instrumental,-- -- --- ------ ------- --------- ----------- --------<br>--------- -------- --- ------- -- ------- ---- -- ------<br>-- --- -------- -------- ---------- ---- ---- ---- ------<br>-- transport -- ---- -- --- -- --- ------- -- - -----<br>---------- -- -- -- ---- ----- -- ------ -- --- ------<br>-------,183533.90000000596,183533.20000000298,182910.746,182926.29999999702,182927.416,183544.239,,27,transport
screen,html.Screen,0_4_1_0_1_28,2021-12-03T11:23:44.236Z,,,,,,,,,,,,,,,,48,,,,,,,,,,,,,,548.9610000029788,,response,,,10,F,,,,,Space,keypress(Space),,,,instrumental,-- -- --- ------ ------- --------- ----------- --------<br>--------- -------- --- ------- -- ------- ---- -- ------<br>-- --- -------- -------- ---------- ---- ---- ---- ------<br>-- --------- it ---- -- --- -- --- ------- -- - -----<br>---------- -- -- -- ---- ----- -- ------ -- --- ------<br>-------,184093.90000000596,184093.20000000298,183527.569,183534.10000000894,183544.239,184111.113,,28,it
screen,html.Screen,0_4_1_0_1_29,2021-12-03T11:23:44.764Z,,,,,,,,,,,,,,,,48,,,,,,,,,,,,,,510.0870000029681,,response,,,10,F,,,,,Space,keypress(Space),,,,instrumental,-- -- --- ------ ------- --------- ----------- --------<br>--------- -------- --- ------- -- ------- ---- -- ------<br>-- --- -------- -------- ---------- ---- ---- ---- ------<br>-- --------- -- into -- --- -- --- ------- -- - -----<br>---------- -- -- -- ---- ----- -- ------ -- --- ------<br>-------,184622,184621.20000000298,184094.442,184094.20000000298,184111.113,184627.814,,29,into
screen,html.Screen,0_4_1_0_1_30,2021-12-03T11:23:45.428Z,,,,,,,,,,,,,,,,48,,,,,,,,,,,,,,657.3860000029672,,response,,,10,F,,,,,Space,keypress(Space),,,,instrumental,-- -- --- ------ ------- --------- ----------- --------<br>--------- -------- --- ------- -- ------- ---- -- ------<br>-- --- -------- -------- ---------- ---- ---- ---- ------<br>-- --------- -- ---- or --- -- --- ------- -- - -----<br>---------- -- -- -- ---- ----- -- ------ -- --- ------<br>-------,185286,185285.20000000298,184611.144,184622.29999999702,184627.814,185294.758,,30,or
screen,html.Screen,0_4_1_0_1_31,2021-12-03T11:23:45.876Z,,,,,,,,,,,,,,,,48,,,,,,,,,,,,,,438.34200000893907,,response,,,10,F,,,,,Space,keypress(Space),,,,instrumental,-- -- --- ------ ------- --------- ----------- --------<br>--------- -------- --- ------- -- ------- ---- -- ------<br>-- --- -------- -------- ---------- ---- ---- ---- ------<br>-- --------- -- ---- -- out -- --- ------- -- - -----<br>---------- -- -- -- ---- ----- -- ------ -- --- ------<br>-------,185733.79999999702,185733.10000000894,185278.087,185286.20000000298,185294.758,185744.881,,31,out
screen,html.Screen,0_4_1_0_1_32,2021-12-03T11:23:46.260Z,,,,,,,,,,,,,,,,48,,,,,,,,,,,,,,372.3190000029863,,response,,,10,F,,,,,Space,keypress(Space),,,,instrumental,-- -- --- ------ ------- --------- ----------- --------<br>--------- -------- --- ------- -- ------- ---- -- ------<br>-- --- -------- -------- ---------- ---- ---- ---- ------<br>-- --------- -- ---- -- --- of --- ------- -- - -----<br>---------- -- -- -- ---- ----- -- ------ -- --- ------<br>-------,186118,186117.20000000298,185728.21,185734,185744.881,186128.264,,32,of
screen,html.Screen,0_4_1_0_1_33,2021-12-03T11:23:46.748Z,,,,,,,,,,,,,,,,48,,,,,,,,,,,,,,476.93600000298466,,response,,,10,F,,,,,Space,keypress(Space),,,,instrumental,-- -- --- ------ ------- --------- ----------- --------<br>--------- -------- --- ------- -- ------- ---- -- ------<br>-- --- -------- -------- ---------- ---- ---- ---- ------<br>-- --------- -- ---- -- --- -- the ------- -- - -----<br>---------- -- -- -- ---- ----- -- ------ -- --- ------<br>-------,186605.90000000596,186605.20000000298,186111.594,186118.10000000894,186128.264,186611.625,,33,the
screen,html.Screen,0_4_1_0_1_34,2021-12-03T11:23:47.324Z,,,,,,,,,,,,,,,,48,,,,,,,,,,,,,,569.4750000089407,,response,,,10,F,,,,,Space,keypress(Space),,,,instrumental,-- -- --- ------ ------- --------- ----------- --------<br>--------- -------- --- ------- -- ------- ---- -- ------<br>-- --- -------- -------- ---------- ---- ---- ---- ------<br>-- --------- -- ---- -- --- -- --- country -- - -----<br>---------- -- -- -- ---- ----- -- ------ -- --- ------<br>-------,187181.90000000596,187181.10000000894,186594.956,186606.20000000298,186611.625,187195.328,,34,country
screen,html.Screen,0_4_1_0_1_35,2021-12-03T11:23:47.892Z,,,,,,,,,,,,,,,,48,,,,,,,,,,,,,,553.6719999999914,,response,,,10,F,,,,,Space,keypress(Space),,,,instrumental,-- -- --- ------ ------- --------- ----------- --------<br>--------- -------- --- ------- -- ------- ---- -- ------<br>-- --- -------- -------- ---------- ---- ---- ---- ------<br>-- --------- -- ---- -- --- -- --- ------- is - -----<br>---------- -- -- -- ---- ----- -- ------ -- --- ------<br>-------,187749.79999999702,187749,187178.656,187182.20000000298,187195.328,187762.075,,35,is
screen,html.Screen,0_4_1_0_1_36,2021-12-03T11:23:48.516Z,,,,,,,,,,,,,,,,48,,,,,,,,,,,,,,610.9249999999884,,response,,,10,F,,,,,Space,keypress(Space),,,,instrumental,-- -- --- ------ ------- --------- ----------- --------<br>--------- -------- --- ------- -- ------- ---- -- ------<br>-- --- -------- -------- ---------- ---- ---- ---- ------<br>-- --------- -- ---- -- --- -- --- ------- -- a -----<br>---------- -- -- -- ---- ----- -- ------ -- --- ------<br>-------,188373.79999999702,188373,187745.404,187749.90000000596,187762.075,188378.729,,36,a
screen,html.Screen,0_4_1_0_1_37,2021-12-03T11:23:49.164Z,,,,,,,,,,,,,,,,48,,,,,,,,,,,,,,642.7710000000079,,response,,,10,F,,,,,Space,keypress(Space),,,,instrumental,-- -- --- ------ ------- --------- ----------- --------<br>--------- -------- --- ------- -- ------- ---- -- ------<br>-- --- -------- -------- ---------- ---- ---- ---- ------<br>-- --------- -- ---- -- --- -- --- ------- -- - crime<br>---------- -- -- -- ---- ----- -- ------ -- --- ------<br>-------,189022.29999999702,189021.5,188362.06,188373.90000000596,188378.729,189029.046,,37,crime
screen,html.Screen,0_4_1_0_1_38,2021-12-03T11:23:49.780Z,,,,,,,,,,,,,,,,48,,,,,,,,,,,,,,607.9539999999979,,response,,,10,F,,,,,Space,keypress(Space),,,,instrumental,-- -- --- ------ ------- --------- ----------- --------<br>--------- -------- --- ------- -- ------- ---- -- ------<br>-- --- -------- -------- ---------- ---- ---- ---- ------<br>-- --------- -- ---- -- --- -- --- ------- -- - -----<br>punishable -- -- -- ---- ----- -- ------ -- --- ------<br>-------,189637.79999999702,189637,189012.375,189022.5,189029.046,189645.806,,38,punishable
screen,html.Screen,0_4_1_0_1_39,2021-12-03T11:23:50.300Z,,,,,,,,,,,,,,,,48,,,,,,,,,,,,,,511.1939999999886,,response,,,10,F,,,,,Space,keypress(Space),,,,instrumental,-- -- --- ------ ------- --------- ----------- --------<br>--------- -------- --- ------- -- ------- ---- -- ------<br>-- --- -------- -------- ---------- ---- ---- ---- ------<br>-- --------- -- ---- -- --- -- --- ------- -- - -----<br>---------- by -- -- ---- ----- -- ------ -- --- ------<br>-------,190157.70000000298,190157,189629.136,189638,189645.806,190162.627,,39,by
screen,html.Screen,0_4_1_0_1_40,2021-12-03T11:23:50.844Z,,,,,,,,,,,,,,,,48,,,,,,,,,,,,,,538.2730000059528,,response,,,10,F,,,,,Space,keypress(Space),,,,instrumental,-- -- --- ------ ------- --------- ----------- --------<br>--------- -------- --- ------- -- ------- ---- -- ------<br>-- --- -------- -------- ---------- ---- ---- ---- ------<br>-- --------- -- ---- -- --- -- --- ------- -- - -----<br>---------- -- up -- ---- ----- -- ------ -- --- ------<br>-------,190701.70000000298,190700.90000000596,190145.957,190157.90000000596,190162.627,190712.92,,40,up
screen,html.Screen,0_4_1_0_1_41,2021-12-03T11:23:51.420Z,,,,,,,,,,,,,,,,48,,,,,,,,,,,,,,563.9800000059477,,response,,,10,F,,,,,Space,keypress(Space),,,,instrumental,-- -- --- ------ ------- --------- ----------- --------<br>--------- -------- --- ------- -- ------- ---- -- ------<br>-- --- -------- -------- ---------- ---- ---- ---- ------<br>-- --------- -- ---- -- --- -- --- ------- -- - -----<br>---------- -- -- to ---- ----- -- ------ -- --- ------<br>-------,191277.70000000298,191276.90000000596,190696.248,190702,190712.92,191279.635,,41,to
screen,html.Screen,0_4_1_0_1_42,2021-12-03T11:23:51.956Z,,,,,,,,,,,,,,,,48,,,,,,,,,,,,,,533.1649999970105,,response,,,10,F,,,,,Space,keypress(Space),,,,instrumental,-- -- --- ------ ------- --------- ----------- --------<br>--------- -------- --- ------- -- ------- ---- -- ------<br>-- --- -------- -------- ---------- ---- ---- ---- ------<br>-- --------- -- ---- -- --- -- --- ------- -- - -----<br>---------- -- -- -- five ----- -- ------ -- --- ------<br>-------,191813.60000000894,191812.79999999702,191262.965,191277.90000000596,191279.635,191829.838,,42,five
screen,html.Screen,0_4_1_0_1_43,2021-12-03T11:23:52.492Z,,,,,,,,,,,,,,,,48,,,,,,,,,,,,,,519.0620000059716,,response,,,10,F,,,,,Space,keypress(Space),,,,instrumental,-- -- --- ------ ------- --------- ----------- --------<br>--------- -------- --- ------- -- ------- ---- -- ------<br>-- --- -------- -------- ---------- ---- ---- ---- ------<br>-- --------- -- ---- -- --- -- --- ------- -- - -----<br>---------- -- -- -- ---- years -- ------ -- --- ------<br>-------,192349.70000000298,192348.90000000596,191813.167,191814,191829.838,192363.212,,43,years
screen,html.Screen,0_4_1_0_1_44,2021-12-03T11:23:53.036Z,,,,,,,,,,,,,,,,48,,,,,,,,,,,,,,529.5879999970202,,response,,,10,F,,,,,Space,keypress(Space),,,,instrumental,-- -- --- ------ ------- --------- ----------- --------<br>--------- -------- --- ------- -- ------- ---- -- ------<br>-- --- -------- -------- ---------- ---- ---- ---- ------<br>-- --------- -- ---- -- --- -- --- ------- -- - -----<br>---------- -- -- -- ---- ----- in ------ -- --- ------<br>-------,192893.60000000894,192892.79999999702,192346.542,192349.79999999702,192363.212,192896.788,,44,in
screen,html.Screen,0_4_1_0_1_45,2021-12-03T11:23:53.884Z,,,,,,,,,,,,,,,,48,,,,,,,,,,,,,,844.0119999970193,,response,,,10,F,,,,,Space,keypress(Space),,,,instrumental,-- -- --- ------ ------- --------- ----------- --------<br>--------- -------- --- ------- -- ------- ---- -- ------<br>-- --- -------- -------- ---------- ---- ---- ---- ------<br>-- --------- -- ---- -- --- -- --- ------- -- - -----<br>---------- -- -- -- ---- ----- -- prison -- --- ------<br>-------,193741.60000000894,193740.79999999702,192880.117,192893.90000000596,192896.788,193746.944,,45,prison
screen,html.Screen,0_4_1_0_1_46,2021-12-03T11:23:54.444Z,,,,,,,,,,,,,,,,48,,,,,,,,,,,,,,553.8559999970312,,response,,,10,F,,,,,Space,keypress(Space),,,,instrumental,-- -- --- ------ ------- --------- ----------- --------<br>--------- -------- --- ------- -- ------- ---- -- ------<br>-- --- -------- -------- ---------- ---- ---- ---- ------<br>-- --------- -- ---- -- --- -- --- ------- -- - -----<br>---------- -- -- -- ---- ----- -- ------ in --- ------<br>-------,194301.5,194300.79999999702,193730.274,193741.79999999702,193746.944,194313.758,,46,in
screen,html.Screen,0_4_1_0_1_47,2021-12-03T11:23:54.980Z,,,,,,,,,,,,,,,,48,,,,,,,,,,,,,,522.9420000029786,,response,,,10,F,,,,,Space,keypress(Space),,,,instrumental,-- -- --- ------ ------- --------- ----------- --------<br>--------- -------- --- ------- -- ------- ---- -- ------<br>-- --- -------- -------- ---------- ---- ---- ---- ------<br>-- --------- -- ---- -- --- -- --- ------- -- - -----<br>---------- -- -- -- ---- ----- -- ------ -- the ------<br>-------,194837.5,194836.70000000298,194297.088,194301.79999999702,194313.758,194847.254,,47,the
screen,html.Screen,0_4_1_0_1_48,2021-12-03T11:23:55.508Z,,,,,,,,,,,,,,,,48,,,,,,,,,,,,,,517.5459999970335,,response,,,10,F,,,,,Space,keypress(Space),,,,instrumental,-- -- --- ------ ------- --------- ----------- --------<br>--------- -------- --- ------- -- ------- ---- -- ------<br>-- --- -------- -------- ---------- ---- ---- ---- ------<br>-- --------- -- ---- -- --- -- --- ------- -- - -----<br>---------- -- -- -- ---- ----- -- ------ -- --- United<br>-------,195365.5,195364.79999999702,194830.584,194837.70000000298,194847.254,195380.622,,48,United
screen,html.Screen,0_4_1_0_1_49,2021-12-03T11:23:56.124Z,,,,,,,,,,,,,,,,48,,,,,,,,,,,,,,600.0780000029772,,response,,,10,F,,,,,Space,keypress(Space),,,,instrumental,-- -- --- ------ ------- --------- ----------- --------<br>--------- -------- --- ------- -- ------- ---- -- ------<br>-- --- -------- -------- ---------- ---- ---- ---- ------<br>-- --------- -- ---- -- --- -- --- ------- -- - -----<br>---------- -- -- -- ---- ----- -- ------ -- --- ------<br>States.,195981.60000000894,195980.70000000298,195363.953,195365.70000000298,195380.622,195997.611,,49,States.
Item 10,flow.Loop,0_4_1_0_1,2021-12-03T11:23:56.124Z,,,,,,,,,,,,,,,,,,,,,,,,,,,,,,28157.20900000297,,completion,,,,,,,,,,,,,,,,195982,195980.70000000298,167806.82,167808.60000000894,167823.491,195997.611,,,
Question 1,html.Screen,0_4_1_0_2,2021-12-03T11:24:01.748Z,,,,,,,,,,,,,,,,,,,,,,,,,,,true,TRUE,,5606.688999997015,,response,,,10,F,,,,,TRUE,click #choice-1,,,,instrumental,,201605.40000000596,201604.29999999702,195980.94,195982.10000000894,195997.611,201615.673,,,
Question 2,html.Screen,0_4_1_0_3,2021-12-03T11:24:04.339Z,,,,,,,,,,,,,,,,,,,,,,,,,,,true,TRUE,,2580.5270000029705,,response,,,10,F,,,,,TRUE,click #choice-1,,,,instrumental,,204197.29999999702,204196.20000000298,201599.003,201605.90000000596,201615.673,204199.769,,,
Item 10,flow.Sequence,0_4_1_0,2021-12-03T11:24:04.340Z,,,,,,,,,,,,,,,,,,,,,,,,,,,,,,43374.67400000297,,completion,,,,,,,,,,,,,,,,204197.70000000298,204196.20000000298,160804.855,160807,160821.526,204199.769,,,
Holding screen,html.Screen,0_4_1_1_0,2021-12-03T11:24:11.329Z,,,,,,,,,,,,,,,,,,,,,,,,,,,,,,7001.886999999988,,timeout,,,,,,,,,,,,,,,,211186.79999999702,211184.985,204183.098,204197.90000000596,204199.769,211201.656,,,
screen,html.Screen,0_4_1_1_1_0,2021-12-03T11:24:12.171Z,,,,,,,,,,,,,,,,2,,,,,,,,,,,,,,826.7440000059723,,response,,,1,F,,,,,Space,keypress(Space),,,,instrumental,Two ---- ------ --- ------- ---------- ------- ----------<br>--- --------- --- ----------- ------- ----- ------- ---<br>--------- ---- -- --- ---- -- --------- -- ---- -------<br>-- --------- ------ --- ----- ------ ---- --- --------- --<br>------ - ---- -- --- ----------- ------- ---- ----- -----<br>--- -------- - ------ ---- -- ----- ---- --- --- -----------<br>-- -------,212029.20000000298,212028.40000000596,211184.985,211187.29999999702,211201.656,212035.02,,0,Two
screen,html.Screen,0_4_1_1_1_1,2021-12-03T11:24:12.595Z,,,,,,,,,,,,,,,,2,,,,,,,,,,,,,,416.77999999703025,,response,,,1,F,,,,,Space,keypress(Space),,,,instrumental,--- days ------ --- ------- ---------- ------- ----------<br>--- --------- --- ----------- ------- ----- ------- ---<br>--------- ---- -- --- ---- -- --------- -- ---- -------<br>-- --------- ------ --- ----- ------ ---- --- --------- --<br>------ - ---- -- --- ----------- ------- ---- ----- -----<br>--- -------- - ------ ---- -- ----- ---- --- --- -----------<br>-- -------,212452.60000000894,212451.79999999702,212018.35,212029.60000000894,212035.02,212468.524,,1,days
screen,html.Screen,0_4_1_1_1_2,2021-12-03T11:24:13.107Z,,,,,,,,,,,,,,,,2,,,,,,,,,,,,,,495.3760000059556,,response,,,1,F,,,,,Space,keypress(Space),,,,instrumental,"--- ---- later, --- ------- ---------- ------- ----------<br>--- --------- --- ----------- ------- ----- ------- ---<br>--------- ---- -- --- ---- -- --------- -- ---- -------<br>-- --------- ------ --- ----- ------ ---- --- --------- --<br>------ - ---- -- --- ----------- ------- ---- ----- -----<br>--- -------- - ------ ---- -- ----- ---- --- --- -----------<br>-- -------",212964.70000000298,212963.90000000596,212451.854,212452.90000000596,212468.524,212968.833,,2,"later,"
