sender,sender_type,sender_id,timestamp,meta,,Blues,Classical,Country,Dance,Electronic,Folk,Gospel,Hip-Hop,Jazz,Latin,Musical/Film,New-age,Pop,Provo_ID,R&B,Rap,Reggae,Religious,Rock,Soul,Swing,Traditional,age,artist_name,correct,correctResponse,distraction,duration,education,ended_on,familiarity,gender,item,list,music_frequency,offensiveness,pleasantness,preference,response,response_action,snippet_file,song_name,song_rating,sound,text,time_commit,time_end,time_render,time_run,time_show,time_switch,url,word,word_ID
Instructions,html.Page,0_0,2021-12-03T13:19:21.728Z,"{""labjs_version"":""20.2.3"",""labjs_build"":{""flavor"":""production"",""commit"":""7ea907d66ca8aeef8054924ca5d82ffbe11e34e5""},""location"":""https://run.pavlovia.org/mvasilev/lab_music_f/"",""userAgent"":""Mozilla/5.0 (Windows NT 6.1; Win64; x64) AppleWebKit/537.36 (KHTML, like Gecko) Chrome/96.0.4664.45 Safari/537.36"",""platform"":""Win32"",""language"":""en-US"",""locale"":""en-US"",""timeZone"":""Europe/London"",""timezoneOffset"":0,""screen_width"":1920,""screen_height"":1080,""scroll_width"":1920,""scroll_height"":959,""window_innerWidth"":1920,""window_innerHeight"":1007,""devicePixelRatio"":1}",,,,,,,,,,,,,,,,,,,,,,,,,,,,,16014.51799999702,,form submission,,,,,,,,,,,,,,,,22533,22531.79999999702,6483.942,6498.5,6517.282,22537.801,{},,
Headphones,html.Page,0_1,2021-12-03T13:19:24.194Z,,,,,,,,,,,,,,,,,,,,,,,,,,,,,,2460.3990000029808,,form submission,,,,,,,,,,,,,,,,24998.59999999404,24998.20000000298,22521.177,22533.70000000298,22537.801,25005.424,,,
Holding screen,html.Screen,0_2_0_0,2021-12-03T13:19:34.192Z,,,,,,,,,,,,,,,,,,,,,,,,,,,,,,10002.726000000002,,timeout,,,,,,,,,,,,,,,,34997.59999999404,34991.481,24988.763,24999.20000000298,25005.424,35008.15,,,
screen,html.Screen,0_2_0_1_0,2021-12-03T13:19:35.073Z,,,,,,,,,,,,,,,,53,,,,,,,,,,,,,,868.9499999940381,,response,,,99,,,,,,Space,keypress(Space),,,,,When -- ----- -- ------ - ------- --- ----------<br>------------- ------ ------ ---- ---- ------- ----- -- ----<br>-------- ------- -- ---------- --- - --- ----- ----- ----<br>---- --- --- ----- --- ---- ---- ------- ----- ---- -------<br>--- --- -- ----- -- --- ---- -- --- ---- -- ------ ------<br>--- ----- -- ----,35878.5,35877.09999999404,34991.481,34998,35008.15,35891.955,,0,When
screen,html.Screen,0_2_0_1_1,2021-12-03T13:19:35.664Z,,,,,,,,,,,,,,,,53,,,,,,,,,,,,,,576.6449999940378,,response,,,99,,,,,,Space,keypress(Space),,,,,---- it ----- -- ------ - ------- --- ----------<br>------------- ------ ------ ---- ---- ------- ----- -- ----<br>-------- ------- -- ---------- --- - --- ----- ----- ----<br>---- --- --- ----- --- ---- ---- ------- ----- ---- -------<br>--- --- -- ----- -- --- ---- -- --- ---- -- ------ ------<br>--- ----- -- ----,36469.40000000596,36468.59999999404,35875.284,35878.79999999702,35891.955,36475.272,,1,it
screen,html.Screen,0_2_0_1_2,2021-12-03T13:19:36.296Z,,,,,,,,,,,,,,,,53,,,,,,,,,,,,,,625.3279999940423,,response,,,99,,,,,,Space,keypress(Space),,,,,---- -- comes -- ------ - ------- --- ----------<br>------------- ------ ------ ---- ---- ------- ----- -- ----<br>-------- ------- -- ---------- --- - --- ----- ----- ----<br>---- --- --- ----- --- ---- ---- ------- ----- ---- -------<br>--- --- -- ----- -- --- ---- -- --- ---- -- ------ ------<br>--- ----- -- ----,37101.5,37100.59999999404,36458.603,36469.79999999702,36475.272,37109.092,,2,comes
screen,html.Screen,0_2_0_1_3,2021-12-03T13:19:36.792Z,,,,,,,,,,,,,,,,53,,,,,,,,,,,,,,487.4080000000031,,response,,,99,,,,,,Space,keypress(Space),,,,,---- -- ----- to ------ - ------- --- ----------<br>------------- ------ ------ ---- ---- ------- ----- -- ----<br>-------- ------- -- ---------- --- - --- ----- ----- ----<br>---- --- --- ----- --- ---- ---- ------- ----- ---- -------<br>--- --- -- ----- -- --- ---- -- --- ---- -- ------ ------<br>--- ----- -- ----,37597.5,37596.5,37092.42,37101.79999999702,37109.092,37609.036,,3,to
screen,html.Screen,0_2_0_1_4,2021-12-03T13:19:37.409Z,,,,,,,,,,,,,,,,53,,,,,,,,,,,,,,603.3640000059604,,response,,,99,,,,,,Space,keypress(Space),,,,,---- -- ----- -- having - ------- --- ----------<br>------------- ------ ------ ---- ---- ------- ----- -- ----<br>-------- ------- -- ---------- --- - --- ----- ----- ----<br>---- --- --- ----- --- ---- ---- ------- ----- ---- -------<br>--- --- -- ----- -- --- ---- -- --- ---- -- ------ ------<br>--- ----- -- ----,38213.70000000298,38212.40000000596,37592.366,37598,37609.036,38225.954,,4,having
screen,html.Screen,0_2_0_1_5,2021-12-03T13:19:37.992Z,,,,,,,,,,,,,,,,53,,,,,,,,,,,,,,570.5460000000021,,response,,,99,,,,,,Space,keypress(Space),,,,,---- -- ----- -- ------ a ------- --- ----------<br>------------- ------ ------ ---- ---- ------- ----- -- ----<br>-------- ------- -- ---------- --- - --- ----- ----- ----<br>---- --- --- ----- --- ---- ---- ------- ----- ---- -------<br>--- --- -- ----- -- --- ---- -- --- ---- -- ------ ------<br>--- ----- -- ----,38797.29999999702,38796.5,38209.283,38213.90000000596,38225.954,38809.359,,5,a
screen,html.Screen,0_2_0_1_6,2021-12-03T13:19:38.624Z,,,,,,,,,,,,,,,,53,,,,,,,,,,,,,,619.0410000059637,,response,,,99,,,,,,Space,keypress(Space),,,,,---- -- ----- -- ------ - lasting --- ----------<br>------------- ------ ------ ---- ---- ------- ----- -- ----<br>-------- ------- -- ---------- --- - --- ----- ----- ----<br>---- --- --- ----- --- ---- ---- ------- ----- ---- -------<br>--- --- -- ----- -- --- ---- -- --- ---- -- ------ ------<br>--- ----- -- ----,39429.29999999702,39428.40000000596,38792.689,38797.79999999702,38809.359,39442.885,,6,lasting
screen,html.Screen,0_2_0_1_7,2021-12-03T13:19:39.232Z,,,,,,,,,,,,,,,,53,,,,,,,,,,,,,,593.5150000059584,,response,,,99,,,,,,Space,keypress(Space),,,,,---- -- ----- -- ------ - ------- and ----------<br>------------- ------ ------ ---- ---- ------- ----- -- ----<br>-------- ------- -- ---------- --- - --- ----- ----- ----<br>---- --- --- ----- --- ---- ---- ------- ----- ---- -------<br>--- --- -- ----- -- --- ---- -- --- ---- -- ------ ------<br>--- ----- -- ----,40037.40000000596,40036.40000000596,39426.215,39429.59999999404,39442.885,40043.047,,7,and
screen,html.Screen,0_2_0_1_8,2021-12-03T13:19:39.824Z,,,,,,,,,,,,,,,,53,,,,,,,,,,,,,,585.2529999970211,,response,,,99,,,,,,Space,keypress(Space),,,,,---- -- ----- -- ------ - ------- --- fulfilling<br>------------- ------ ------ ---- ---- ------- ----- -- ----<br>-------- ------- -- ---------- --- - --- ----- ----- ----<br>---- --- --- ----- --- ---- ---- ------- ----- ---- -------<br>--- --- -- ----- -- --- ---- -- --- ---- -- ------ ------<br>--- ----- -- ----,40629.40000000596,40628.29999999702,40026.377,40037.59999999404,40043.047,40643.211,,8,fulfilling
screen,html.Screen,0_2_0_1_9,2021-12-03T13:19:40.680Z,,,,,,,,,,,,,,,,53,,,,,,,,,,,,,,841.1890000059575,,response,,,99,,,,,,Space,keypress(Space),,,,,"---- -- ----- -- ------ - ------- --- ----------<br>relationship, ------ ------ ---- ---- ------- ----- -- ----<br>-------- ------- -- ---------- --- - --- ----- ----- ----<br>---- --- --- ----- --- ---- ---- ------- ----- ---- -------<br>--- --- -- ----- -- --- ---- -- --- ---- -- ------ ------<br>--- ----- -- ----",41485.29999999702,41484.40000000596,40626.541,40629.70000000298,40643.211,41493.354,,9,"relationship,"
screen,html.Screen,0_2_0_1_10,2021-12-03T13:19:41.248Z,,,,,,,,,,,,,,,,53,,,,,,,,,,,,,,558.9459999970204,,response,,,99,,,,,,Space,keypress(Space),,,,,---- -- ----- -- ------ - ------- --- ----------<br>------------- common ------ ---- ---- ------- ----- -- ----<br>-------- ------- -- ---------- --- - --- ----- ----- ----<br>---- --- --- ----- --- ---- ---- ------- ----- ---- -------<br>--- --- -- ----- -- --- ---- -- --- ---- -- ------ ------<br>--- ----- -- ----,42053.29999999702,42052.29999999702,41476.684,41485.59999999404,41493.354,42060.329,,10,common
screen,html.Screen,0_2_0_1_11,2021-12-03T13:19:41.800Z,,,,,,,,,,,,,,,,53,,,,,,,,,,,,,,543.9709999970219,,response,,,99,,,,,,Space,keypress(Space),,,,,---- -- ----- -- ------ - ------- --- ----------<br>------------- ------ wisdom ---- ---- ------- ----- -- ----<br>-------- ------- -- ---------- --- - --- ----- ----- ----<br>---- --- --- ----- --- ---- ---- ------- ----- ---- -------<br>--- --- -- ----- -- --- ---- -- --- ---- -- ------ ------<br>--- ----- -- ----,42605.20000000298,42604.29999999702,42043.658,42053.5,42060.329,42610.406,,11,wisdom
screen,html.Screen,0_2_0_1_12,2021-12-03T13:19:42.304Z,,,,,,,,,,,,,,,,53,,,,,,,,,,,,,,497.8939999970171,,response,,,99,,,,,,Space,keypress(Space),,,,,---- -- ----- -- ------ - ------- --- ----------<br>------------- ------ ------ says ---- ------- ----- -- ----<br>-------- ------- -- ---------- --- - --- ----- ----- ----<br>---- --- --- ----- --- ---- ---- ------- ----- ---- -------<br>--- --- -- ----- -- --- ---- -- --- ---- -- ------ ------<br>--- ----- -- ----,43109.09999999404,43108.29999999702,42593.736,42605.5,42610.406,43110.525,,12,says
screen,html.Screen,0_2_0_1_13,2021-12-03T13:19:42.904Z,,,,,,,,,,,,,,,,53,,,,,,,,,,,,,,597.7749999970183,,response,,,99,,,,,,Space,keypress(Space),,,,,---- -- ----- -- ------ - ------- --- ----------<br>------------- ------ ------ ---- that ------- ----- -- ----<br>-------- ------- -- ---------- --- - --- ----- ----- ----<br>---- --- --- ----- --- ---- ---- ------- ----- ---- -------<br>--- --- -- ----- -- --- ---- -- --- ---- -- ------ ------<br>--- ----- -- ----,43709,43708.29999999702,43093.855,43109.29999999702,43110.525,43710.672,,13,that
screen,html.Screen,0_2_0_1_14,2021-12-03T13:19:43.440Z,,,,,,,,,,,,,,,,53,,,,,,,,,,,,,,533.6279999970211,,response,,,99,,,,,,Space,keypress(Space),,,,,---- -- ----- -- ------ - ------- --- ----------<br>------------- ------ ------ ---- ---- feeling ----- -- ----<br>-------- ------- -- ---------- --- - --- ----- ----- ----<br>---- --- --- ----- --- ---- ---- ------- ----- ---- -------<br>--- --- -- ----- -- --- ---- -- --- ---- -- ------ ------<br>--- ----- -- ----,44245.09999999404,44244.29999999702,43694.002,43709.29999999702,43710.672,44260.879,,14,feeling
screen,html.Screen,0_2_0_1_15,2021-12-03T13:19:44.016Z,,,,,,,,,,,,,,,,53,,,,,,,,,,,,,,559.2209999940387,,response,,,99,,,,,,Space,keypress(Space),,,,,---- -- ----- -- ------ - ------- --- ----------<br>------------- ------ ------ ---- ---- ------- close -- ----<br>-------- ------- -- ---------- --- - --- ----- ----- ----<br>---- --- --- ----- --- ---- ---- ------- ----- ---- -------<br>--- --- -- ----- -- --- ---- -- --- ---- -- ------ ------<br>--- ----- -- ----,44821,44820.09999999404,44244.208,44245.29999999702,44260.879,44827.703,,15,close
screen,html.Screen,0_2_0_1_16,2021-12-03T13:19:44.464Z,,,,,,,,,,,,,,,,53,,,,,,,,,,,,,,440.4970000029789,,response,,,99,,,,,,Space,keypress(Space),,,,,---- -- ----- -- ------ - ------- --- ----------<br>------------- ------ ------ ---- ---- ------- ----- to ----<br>-------- ------- -- ---------- --- - --- ----- ----- ----<br>---- --- --- ----- --- ---- ---- ------- ----- ---- -------<br>--- --- -- ----- -- --- ---- -- --- ---- -- ------ ------<br>--- ----- -- ----,45268.90000000596,45268.20000000298,44811.032,44821.29999999702,44827.703,45277.734,,16,to
screen,html.Screen,0_2_0_1_17,2021-12-03T13:19:44.952Z,,,,,,,,,,,,,,,,53,,,,,,,,,,,,,,478.3659999940428,,response,,,99,,,,,,Space,keypress(Space),,,,,---- -- ----- -- ------ - ------- --- ----------<br>------------- ------ ------ ---- ---- ------- ----- -- your<br>-------- ------- -- ---------- --- - --- ----- ----- ----<br>---- --- --- ----- --- ---- ---- ------- ----- ---- -------<br>--- --- -- ----- -- --- ---- -- --- ---- -- ------ ------<br>--- ----- -- ----,45756.79999999702,45756.09999999404,45261.064,45269.20000000298,45277.734,45761.302,,17,your
screen,html.Screen,0_2_0_1_18,2021-12-03T13:19:45.544Z,,,,,,,,,,,,,,,,53,,,,,,,,,,,,,,587.1979999999967,,response,,,99,,,,,,Space,keypress(Space),,,,,---- -- ----- -- ------ - ------- --- ----------<br>------------- ------ ------ ---- ---- ------- ----- -- ----<br>romantic ------- -- ---------- --- - --- ----- ----- ----<br>---- --- --- ----- --- ---- ---- ------- ----- ---- -------<br>--- --- -- ----- -- --- ---- -- --- ---- -- ------ ------<br>--- ----- -- ----,46349.29999999702,46348.5,45744.631,45757.09999999404,45761.302,46361.218,,18,romantic
screen,html.Screen,0_2_0_1_19,2021-12-03T13:19:46.048Z,,,,,,,,,,,,,,,,53,,,,,,,,,,,,,,490.8819999940388,,response,,,99,,,,,,Space,keypress(Space),,,,,---- -- ----- -- ------ - ------- --- ----------<br>------------- ------ ------ ---- ---- ------- ----- -- ----<br>-------- partner -- ---------- --- - --- ----- ----- ----<br>---- --- --- ----- --- ---- ---- ------- ----- ---- -------<br>--- --- -- ----- -- --- ---- -- --- ---- -- ------ ------<br>--- ----- -- ----,46852.79999999702,46852.09999999404,46344.55,46349.5,46361.218,46861.625,,19,partner
screen,html.Screen,0_2_0_1_20,2021-12-03T13:19:46.528Z,,,,,,,,,,,,,,,,53,,,,,,,,,,,,,,470.27500000596046,,response,,,99,,,,,,Space,keypress(Space),,,,,---- -- ----- -- ------ - ------- --- ----------<br>------------- ------ ------ ---- ---- ------- ----- -- ----<br>-------- ------- is ---------- --- - --- ----- ----- ----<br>---- --- --- ----- --- ---- ---- ------- ----- ---- -------<br>--- --- -- ----- -- --- ---- -- --- ---- -- ------ ------<br>--- ----- -- ----,47332.79999999702,47331.90000000596,46844.953,46853.09999999404,46861.625,47345.033,,20,is
screen,html.Screen,0_2_0_1_21,2021-12-03T13:19:47.472Z,,,,,,,,,,,,,,,,53,,,,,,,,,,,,,,930.8670000059574,,response,,,99,,,,,,Space,keypress(Space),,,,,---- -- ----- -- ------ - ------- --- ----------<br>------------- ------ ------ ---- ---- ------- ----- -- ----<br>-------- ------- -- paramount. --- - --- ----- ----- ----<br>---- --- --- ----- --- ---- ---- ------- ----- ---- -------<br>--- --- -- ----- -- --- ---- -- --- ---- -- ------ ------<br>--- ----- -- ----,48277.20000000298,48275.90000000596,47328.362,47333.09999999404,47345.033,48278.553,,21,paramount.
screen,html.Screen,0_2_0_1_22,2021-12-03T13:19:48.032Z,,,,,,,,,,,,,,,,53,,,,,,,,,,,,,,557.3470000059606,,response,,,99,,,,,,Space,keypress(Space),,,,,---- -- ----- -- ------ - ------- --- ----------<br>------------- ------ ------ ---- ---- ------- ----- -- ----<br>-------- ------- -- ---------- But - --- ----- ----- ----<br>---- --- --- ----- --- ---- ---- ------- ----- ---- -------<br>--- --- -- ----- -- --- ---- -- --- ---- -- ------ ------<br>--- ----- -- ----,48836.79999999702,48835.90000000596,48261.883,48277.59999999404,48278.553,48845.366,,22,But
screen,html.Screen,0_2_0_1_23,2021-12-03T13:19:48.520Z,,,,,,,,,,,,,,,,53,,,,,,,,,,,,,,478.53400000595866,,response,,,99,,,,,,Space,keypress(Space),,,,,---- -- ----- -- ------ - ------- --- ----------<br>------------- ------ ------ ---- ---- ------- ----- -- ----<br>-------- ------- -- ---------- --- a --- ----- ----- ----<br>---- --- --- ----- --- ---- ---- ------- ----- ---- -------<br>--- --- -- ----- -- --- ---- -- --- ---- -- ------ ------<br>--- ----- -- ----,49324.70000000298,49323.90000000596,48828.696,48837,48845.366,49328.849,,23,a
screen,html.Screen,0_2_0_1_24,2021-12-03T13:19:49.032Z,,,,,,,,,,,,,,,,53,,,,,,,,,,,,,,507.0510000059585,,response,,,99,,,,,,Space,keypress(Space),,,,,---- -- ----- -- ------ - ------- --- ----------<br>------------- ------ ------ ---- ---- ------- ----- -- ----<br>-------- ------- -- ---------- --- - new ----- ----- ----<br>---- --- --- ----- --- ---- ---- ------- ----- ---- -------<br>--- --- -- ----- -- --- ---- -- --- ---- -- ------ ------<br>--- ----- -- ----,49836.70000000298,49835.90000000596,49312.179,49325,49328.849,49845.703,,24,new
screen,html.Screen,0_2_0_1_25,2021-12-03T13:19:49.616Z,,,,,,,,,,,,,,,,53,,,,,,,,,,,,,,574.1970000059591,,response,,,99,,,,,,Space,keypress(Space),,,,,---- -- ----- -- ------ - ------- --- ----------<br>------------- ------ ------ ---- ---- ------- ----- -- ----<br>-------- ------- -- ---------- --- - --- study ----- ----<br>---- --- --- ----- --- ---- ---- ------- ----- ---- -------<br>--- --- -- ----- -- --- ---- -- --- ---- -- ------ ------<br>--- ----- -- ----,50420.70000000298,50419.90000000596,49829.032,49837,49845.703,50429.133,,25,study
screen,html.Screen,0_2_0_1_26,2021-12-03T13:19:50.088Z,,,,,,,,,,,,,,,,53,,,,,,,,,,,,,,462.76700000595883,,response,,,99,,,,,,Space,keypress(Space),,,,,---- -- ----- -- ------ - ------- --- ----------<br>------------- ------ ------ ---- ---- ------- ----- -- ----<br>-------- ------- -- ---------- --- - --- ----- finds ----<br>---- --- --- ----- --- ---- ---- ------- ----- ---- -------<br>--- --- -- ----- -- --- ---- -- --- ---- -- ------ ------<br>--- ----- -- ----,50892.70000000298,50891.90000000596,50412.463,50420.90000000596,50429.133,50895.941,,26,finds
screen,html.Screen,0_2_0_1_27,2021-12-03T13:19:50.520Z,,,,,,,,,,,,,,,,53,,,,,,,,,,,,,,427.95900000596157,,response,,,99,,,,,,Space,keypress(Space),,,,,---- -- ----- -- ------ - ------- --- ----------<br>------------- ------ ------ ---- ---- ------- ----- -- ----<br>-------- ------- -- ---------- --- - --- ----- ----- that<br>---- --- --- ----- --- ---- ---- ------- ----- ---- -------<br>--- --- -- ----- -- --- ---- -- --- ---- -- ------ ------<br>--- ----- -- ----,51324.59999999404,51323.90000000596,50879.271,50893,50895.941,51329.353,,27,that
screen,html.Screen,0_2_0_1_28,2021-12-03T13:19:51.080Z,,,,,,,,,,,,,,,,53,,,,,,,,,,,,,,554.5470000059577,,response,,,99,,,,,,Space,keypress(Space),,,,,---- -- ----- -- ------ - ------- --- ----------<br>------------- ------ ------ ---- ---- ------- ----- -- ----<br>-------- ------- -- ---------- --- - --- ----- ----- ----<br>it's --- --- ----- --- ---- ---- ------- ----- ---- -------<br>--- --- -- ----- -- --- ---- -- --- ---- -- ------ ------<br>--- ----- -- ----,51884.59999999404,51883.90000000596,51312.683,51324.90000000596,51329.353,51896.246,,28,it's
screen,html.Screen,0_2_0_1_29,2021-12-03T13:19:51.504Z,,,,,,,,,,,,,,,,53,,,,,,,,,,,,,,411.5539999970206,,response,,,99,,,,,,Space,keypress(Space),,,,,---- -- ----- -- ------ - ------- --- ----------<br>------------- ------ ------ ---- ---- ------- ----- -- ----<br>-------- ------- -- ---------- --- - --- ----- ----- ----<br>---- not --- ----- --- ---- ---- ------- ----- ---- -------<br>--- --- -- ----- -- --- ---- -- --- ---- -- ------ ------<br>--- ----- -- ----,52308.70000000298,52307.79999999702,51879.575,51884.90000000596,51896.246,52312.981,,29,not
screen,html.Screen,0_2_0_1_30,2021-12-03T13:19:52.047Z,,,,,,,,,,,,,,,,53,,,,,,,,,,,,,,538.81899999702,,response,,,99,,,,,,Space,keypress(Space),,,,,---- -- ----- -- ------ - ------- --- ----------<br>------------- ------ ------ ---- ---- ------- ----- -- ----<br>-------- ------- -- ---------- --- - --- ----- ----- ----<br>---- --- how ----- --- ---- ---- ------- ----- ---- -------<br>--- --- -- ----- -- --- ---- -- --- ---- -- ------ ------<br>--- ----- -- ----,52852.59999999404,52851.79999999702,52296.311,52309,52312.981,52863.001,,30,how
screen,html.Screen,0_2_0_1_31,2021-12-03T13:19:52.655Z,,,,,,,,,,,,,,,,53,,,,,,,,,,,,,,596.6990000029837,,response,,,99,,,,,,Space,keypress(Space),,,,,---- -- ----- -- ------ - ------- --- ----------<br>------------- ------ ------ ---- ---- ------- ----- -- ----<br>-------- ------- -- ---------- --- - --- ----- ----- ----<br>---- --- --- close --- ---- ---- ------- ----- ---- -------<br>--- --- -- ----- -- --- ---- -- --- ---- -- ------ ------<br>--- ----- -- ----,53460.5,53459.70000000298,52846.332,52852.90000000596,52863.001,53463.454,,31,close
screen,html.Screen,0_2_0_1_32,2021-12-03T13:19:53.055Z,,,,,,,,,,,,,,,,53,,,,,,,,,,,,,,396.2460000029823,,response,,,99,,,,,,Space,keypress(Space),,,,,---- -- ----- -- ------ - ------- --- ----------<br>------------- ------ ------ ---- ---- ------- ----- -- ----<br>-------- ------- -- ---------- --- - --- ----- ----- ----<br>---- --- --- ----- you ---- ---- ------- ----- ---- -------<br>--- --- -- ----- -- --- ---- -- --- ---- -- ------ ------<br>--- ----- -- ----,53860.5,53859.70000000298,53446.781,53460.79999999702,53463.454,53863.4,,32,you
screen,html.Screen,0_2_0_1_33,2021-12-03T13:19:53.575Z,,,,,,,,,,,,,,,,53,,,,,,,,,,,,,,516.3999999970183,,response,,,99,,,,,,Space,keypress(Space),,,,,---- -- ----- -- ------ - ------- --- ----------<br>------------- ------ ------ ---- ---- ------- ----- -- ----<br>-------- ------- -- ---------- --- - --- ----- ----- ----<br>---- --- --- ----- --- feel ---- ------- ----- ---- -------<br>--- --- -- ----- -- --- ---- -- --- ---- -- ------ ------<br>--- ----- -- ----,54380.59999999404,54379.79999999702,53846.73,53860.79999999702,53863.4,54396.854,,33,feel
screen,html.Screen,0_2_0_1_34,2021-12-03T13:19:54.031Z,,,,,,,,,,,,,,,,53,,,,,,,,,,,,,,438.8460000029809,,response,,,99,,,,,,Space,keypress(Space),,,,,---- -- ----- -- ------ - ------- --- ----------<br>------------- ------ ------ ---- ---- ------- ----- -- ----<br>-------- ------- -- ---------- --- - --- ----- ----- ----<br>---- --- --- ----- --- ---- that ------- ----- ---- -------<br>--- --- -- ----- -- --- ---- -- --- ---- -- ------ ------<br>--- ----- -- ----,54836.5,54835.70000000298,54380.184,54380.79999999702,54396.854,54847.025,,34,that
screen,html.Screen,0_2_0_1_35,2021-12-03T13:19:54.591Z,,,,,,,,,,,,,,,,53,,,,,,,,,,,,,,548.6750000029788,,response,,,99,,,,,,Space,keypress(Space),,,,,---- -- ----- -- ------ - ------- --- ----------<br>------------- ------ ------ ---- ---- ------- ----- -- ----<br>-------- ------- -- ---------- --- - --- ----- ----- ----<br>---- --- --- ----- --- ---- ---- matters ----- ---- -------<br>--- --- -- ----- -- --- ---- -- --- ---- -- ------ ------<br>--- ----- -- ----,55396.5,55395.70000000298,54830.354,54836.70000000298,54847.025,55413.685,,35,matters
screen,html.Screen,0_2_0_1_36,2021-12-03T13:19:55.240Z,,,,,,,,,,,,,,,,53,,,,,,,,,,,,,,630.0150000029826,,response,,,99,,,,,,Space,keypress(Space),,,,,"---- -- ----- -- ------ - ------- --- ----------<br>------------- ------ ------ ---- ---- ------- ----- -- ----<br>-------- ------- -- ---------- --- - --- ----- ----- ----<br>---- --- --- ----- --- ---- ---- ------- most, ---- -------<br>--- --- -- ----- -- --- ---- -- --- ---- -- ------ ------<br>--- ----- -- ----",56044.70000000298,56043.70000000298,55397.016,55396.70000000298,55413.685,56047.402,,36,"most,"
screen,html.Screen,0_2_0_1_37,2021-12-03T13:19:55.760Z,,,,,,,,,,,,,,,,53,,,,,,,,,,,,,,516.6979999940377,,response,,,99,,,,,,Space,keypress(Space),,,,,---- -- ----- -- ------ - ------- --- ----------<br>------------- ------ ------ ---- ---- ------- ----- -- ----<br>-------- ------- -- ---------- --- - --- ----- ----- ----<br>---- --- --- ----- --- ---- ---- ------- ----- it's -------<br>--- --- -- ----- -- --- ---- -- --- ---- -- ------ ------<br>--- ----- -- ----,56564.90000000596,56564.09999999404,56030.73,56044.90000000596,56047.402,56580.822,,37,it's
screen,html.Screen,0_2_0_1_38,2021-12-03T13:19:56.207Z,,,,,,,,,,,,,,,,53,,,,,,,,,,,,,,430.7779999940394,,response,,,99,,,,,,Space,keypress(Space),,,,,---- -- ----- -- ------ - ------- --- ----------<br>------------- ------ ------ ---- ---- ------- ----- -- ----<br>-------- ------- -- ---------- --- - --- ----- ----- ----<br>---- --- --- ----- --- ---- ---- ------- ----- ---- whether<br>--- --- -- ----- -- --- ---- -- --- ---- -- ------ ------<br>--- ----- -- ----,57012.40000000596,57011.59999999404,56564.151,56565.20000000298,56580.822,57014.215,,38,whether
screen,html.Screen,0_2_0_1_39,2021-12-03T13:19:56.663Z,,,,,,,,,,,,,,,,53,,,,,,,,,,,,,,453.384999994043,,response,,,99,,,,,,Space,keypress(Space),,,,,---- -- ----- -- ------ - ------- --- ----------<br>------------- ------ ------ ---- ---- ------- ----- -- ----<br>-------- ------- -- ---------- --- - --- ----- ----- ----<br>---- --- --- ----- --- ---- ---- ------- ----- ---- -------<br>you --- -- ----- -- --- ---- -- --- ---- -- ------ ------<br>--- ----- -- ----,57468.29999999702,57467.59999999404,56997.545,57012.59999999404,57014.215,57481.062,,39,you
screen,html.Screen,0_2_0_1_40,2021-12-03T13:19:57.111Z,,,,,,,,,,,,,,,,53,,,,,,,,,,,,,,434.53799999404146,,response,,,99,,,,,,Space,keypress(Space),,,,,---- -- ----- -- ------ - ------- --- ----------<br>------------- ------ ------ ---- ---- ------- ----- -- ----<br>-------- ------- -- ---------- --- - --- ----- ----- ----<br>---- --- --- ----- --- ---- ---- ------- ----- ---- -------<br>--- are -- ----- -- --- ---- -- --- ---- -- ------ ------<br>--- ----- -- ----,57916.40000000596,57915.59999999404,57464.391,57468.59999999404,57481.062,57931.026,,40,are
screen,html.Screen,0_2_0_1_41,2021-12-03T13:19:57.743Z,,,,,,,,,,,,,,,,53,,,,,,,,,,,,,,616.5739999940415,,response,,,99,,,,,,Space,keypress(Space),,,,,---- -- ----- -- ------ - ------- --- ----------<br>------------- ------ ------ ---- ---- ------- ----- -- ----<br>-------- ------- -- ---------- --- - --- ----- ----- ----<br>---- --- --- ----- --- ---- ---- ------- ----- ---- -------<br>--- --- as ----- -- --- ---- -- --- ---- -- ------ ------<br>--- ----- -- ----,58548.29999999702,58547.59999999404,57914.357,57916.59999999404,57931.026,58564.741,,41,as
screen,html.Screen,0_2_0_1_42,2021-12-03T13:19:58.239Z,,,,,,,,,,,,,,,,53,,,,,,,,,,,,,,478.7589999999982,,response,,,99,,,,,,Space,keypress(Space),,,,,---- -- ----- -- ------ - ------- --- ----------<br>------------- ------ ------ ---- ---- ------- ----- -- ----<br>-------- ------- -- ---------- --- - --- ----- ----- ----<br>---- --- --- ----- --- ---- ---- ------- ----- ---- -------<br>--- --- -- close -- --- ---- -- --- ---- -- ------ ------<br>--- ----- -- ----,59044.29999999702,59043.5,58548.069,58548.5,58564.741,59048.143,,42,close
screen,html.Screen,0_2_0_1_43,2021-12-03T13:19:58.687Z,,,,,,,,,,,,,,,,53,,,,,,,,,,,,,,443.3570000000036,,response,,,99,,,,,,Space,keypress(Space),,,,,---- -- ----- -- ------ - ------- --- ----------<br>------------- ------ ------ ---- ---- ------- ----- -- ----<br>-------- ------- -- ---------- --- - --- ----- ----- ----<br>---- --- --- ----- --- ---- ---- ------- ----- ---- -------<br>--- --- -- ----- as --- ---- -- --- ---- -- ------ ------<br>--- ----- -- ----,59492.20000000298,59491.5,59031.472,59044.59999999404,59048.143,59498.225,,43,as
screen,html.Screen,0_2_0_1_44,2021-12-03T13:19:59.159Z,,,,,,,,,,,,,,,,53,,,,,,,,,,,,,,465.27500000000146,,response,,,99,,,,,,Space,keypress(Space),,,,,---- -- ----- -- ------ - ------- --- ----------<br>------------- ------ ------ ---- ---- ------- ----- -- ----<br>-------- ------- -- ---------- --- - --- ----- ----- ----<br>---- --- --- ----- --- ---- ---- ------- ----- ---- -------<br>--- --- -- ----- -- you ---- -- --- ---- -- ------ ------<br>--- ----- -- ----,59964.20000000298,59963.5,59481.555,59492.5,59498.225,59981.748,,44,you
screen,html.Screen,0_2_0_1_45,2021-12-03T13:19:59.745Z,,,,,,,,,,,,,,,,53,,,,,,,,,,,,,,565.7520000000004,,response,,,99,,,,,,Space,keypress(Space),,,,,---- -- ----- -- ------ - ------- --- ----------<br>------------- ------ ------ ---- ---- ------- ----- -- ----<br>-------- ------- -- ---------- --- - --- ----- ----- ----<br>---- --- --- ----- --- ---- ---- ------- ----- ---- -------<br>--- --- -- ----- -- --- want -- --- ---- -- ------ ------<br>--- ----- -- ----,60548.20000000298,60547.5,59965.077,59964.5,59981.748,60565.088,,45,want
screen,html.Screen,0_2_0_1_46,2021-12-03T13:20:00.146Z,,,,,,,,,,,,,,,,53,,,,,,,,,,,,,,382.4119999999966,,response,,,99,,,,,,Space,keypress(Space),,,,,---- -- ----- -- ------ - ------- --- ----------<br>------------- ------ ------ ---- ---- ------- ----- -- ----<br>-------- ------- -- ---------- --- - --- ----- ----- ----<br>---- --- --- ----- --- ---- ---- ------- ----- ---- -------<br>--- --- -- ----- -- --- ---- to --- ---- -- ------ ------<br>--- ----- -- ----,60948.29999999702,60947.5,60548.419,60548.5,60565.088,60965.32,,46,to
screen,html.Screen,0_2_0_1_47,2021-12-03T13:20:00.873Z,,,,,,,,,,,,,,,,53,,,,,,,,,,,,,,710.0800000059608,,response,,,99,,,,,,Space,keypress(Space),,,,,"---- -- ----- -- ------ - ------- --- ----------<br>------------- ------ ------ ---- ---- ------- ----- -- ----<br>-------- ------- -- ---------- --- - --- ----- ----- ----<br>---- --- --- ----- --- ---- ---- ------- ----- ---- -------<br>--- --- -- ----- -- --- ---- -- be, ---- -- ------ ------<br>--- ----- -- ----",61676.09999999404,61675.40000000596,60948.649,60948.5,60965.32,61682.126,,47,"be,"
screen,html.Screen,0_2_0_1_48,2021-12-03T13:20:01.385Z,,,,,,,,,,,,,,,,53,,,,,,,,,,,,,,505.2740000059639,,response,,,99,,,,,,Space,keypress(Space),,,,,---- -- ----- -- ------ - ------- --- ----------<br>------------- ------ ------ ---- ---- ------- ----- -- ----<br>-------- ------- -- ---------- --- - --- ----- ----- ----<br>---- --- --- ----- --- ---- ---- ------- ----- ---- -------<br>--- --- -- ----- -- --- ---- -- --- even -- ------ ------<br>--- ----- -- ----,62188.09999999404,62187.40000000596,61665.456,61676.40000000596,61682.126,62198.925,,48,even
screen,html.Screen,0_2_0_1_49,2021-12-03T13:20:01.849Z,,,,,,,,,,,,,,,,53,,,,,,,,,,,,,,452.37499999701686,,response,,,99,,,,,,Space,keypress(Space),,,,,---- -- ----- -- ------ - ------- --- ----------<br>------------- ------ ------ ---- ---- ------- ----- -- ----<br>-------- ------- -- ---------- --- - --- ----- ----- ----<br>---- --- --- ----- --- ---- ---- ------- ----- ---- -------<br>--- --- -- ----- -- --- ---- -- --- ---- if ------ ------<br>--- ----- -- ----,62652,62651.29999999702,62182.255,62188.29999999702,62198.925,62665.779,,49,if
screen,html.Screen,0_2_0_1_50,2021-12-03T13:20:02.369Z,,,,,,,,,,,,,,,,53,,,,,,,,,,,,,,505.6210000059582,,response,,,99,,,,,,Space,keypress(Space),,,,,---- -- ----- -- ------ - ------- --- ----------<br>------------- ------ ------ ---- ---- ------- ----- -- ----<br>-------- ------- -- ---------- --- - --- ----- ----- ----<br>---- --- --- ----- --- ---- ---- ------- ----- ---- -------<br>--- --- -- ----- -- --- ---- -- --- ---- -- that's ------<br>--- ----- -- ----,63172.09999999404,63171.40000000596,62649.108,62652.29999999702,62665.779,63182.434,,50,that's
screen,html.Screen,0_2_0_1_51,2021-12-03T13:20:02.921Z,,,,,,,,,,,,,,,,53,,,,,,,,,,,,,,540.7660000029791,,response,,,99,,,,,,Space,keypress(Space),,,,,---- -- ----- -- ------ - ------- --- ----------<br>------------- ------ ------ ---- ---- ------- ----- -- ----<br>-------- ------- -- ---------- --- - --- ----- ----- ----<br>---- --- --- ----- --- ---- ---- ------- ----- ---- -------<br>--- --- -- ----- -- --- ---- -- --- ---- -- ------ really<br>--- ----- -- ----,63724,63723.20000000298,63165.765,63172.29999999702,63182.434,63732.733,,51,really
screen,html.Screen,0_2_0_1_52,2021-12-03T13:20:03.481Z,,,,,,,,,,,,,,,,53,,,,,,,,,,,,,,550.4670000029801,,response,,,99,,,,,,Space,keypress(Space),,,,,---- -- ----- -- ------ - ------- --- ----------<br>------------- ------ ------ ---- ---- ------- ----- -- ----<br>-------- ------- -- ---------- --- - --- ----- ----- ----<br>---- --- --- ----- --- ---- ---- ------- ----- ---- -------<br>--- --- -- ----- -- --- ---- -- --- ---- -- ------ ------<br>not ----- -- ----,64284,64283.20000000298,63716.062,63724.20000000298,63732.733,64299.49,,52,not
screen,html.Screen,0_2_0_1_53,2021-12-03T13:20:03.865Z,,,,,,,,,,,,,,,,53,,,,,,,,,,,,,,367.71000000298227,,response,,,99,,,,,,Space,keypress(Space),,,,,---- -- ----- -- ------ - ------- --- ----------<br>------------- ------ ------ ---- ---- ------- ----- -- ----<br>-------- ------- -- ---------- --- - --- ----- ----- ----<br>---- --- --- ----- --- ---- ---- ------- ----- ---- -------<br>--- --- -- ----- -- --- ---- -- --- ---- -- ------ ------<br>--- close -- ----,64667.90000000596,64667.20000000298,64282.82,64284.20000000298,64299.49,64682.976,,53,close
screen,html.Screen,0_2_0_1_54,2021-12-03T13:20:04.361Z,,,,,,,,,,,,,,,,53,,,,,,,,,,,,,,480.12399999403715,,response,,,99,,,,,,Space,keypress(Space),,,,,---- -- ----- -- ------ - ------- --- ----------<br>------------- ------ ------ ---- ---- ------- ----- -- ----<br>-------- ------- -- ---------- --- - --- ----- ----- ----<br>---- --- --- ----- --- ---- ---- ------- ----- ---- -------<br>--- --- -- ----- -- --- ---- -- --- ---- -- ------ ------<br>--- ----- at ----,65163.90000000596,65163.09999999404,64666.305,64668.20000000298,64682.976,65166.406,,54,at
screen,html.Screen,0_2_0_1_55,2021-12-03T13:20:04.753Z,,,,,,,,,,,,,,,,53,,,,,,,,,,,,,,388.69399999403686,,response,,,99,,,,,,Space,keypress(Space),,,,,---- -- ----- -- ------ - ------- --- ----------<br>------------- ------ ------ ---- ---- ------- ----- -- ----<br>-------- ------- -- ---------- --- - --- ----- ----- ----<br>---- --- --- ----- --- ---- ---- ------- ----- ---- -------<br>--- --- -- ----- -- --- ---- -- --- ---- -- ------ ------<br>--- ----- -- all.,65555.90000000596,65555.09999999404,65149.736,65164.20000000298,65166.406,65566.436,,55,all.
Item 99,flow.Loop,0_2_0_1,2021-12-03T13:20:04.757Z,,,,,,,,,,,,,,,,,,,,,,,,,,,,,,30546.949999994038,,completion,,,,F,,,,,,,,,,silence,,65560.20000000298,65555.09999999404,34991.481,34997.90000000596,35008.15,65566.436,,,
Question 1,html.Screen,0_2_0_2,2021-12-03T13:20:09.953Z,,,,,,,,,,,,,,,,,,,,,,,,,,,true,FALSE,,5188.363999997018,,response,,,99,F,,,,,FALSE,click #choice-2,,,,silence,,70756.20000000298,70754.79999999702,65549.767,65560.5,65566.436,70767.965,,,
Question 2,html.Screen,0_2_0_3,2021-12-03T13:20:15.249Z,,,,,,,,,,,,,,,,,,,,,,,,,,,true,TRUE,,5282.5350000000035,,response,,,99,F,,,,,TRUE,click #choice-1,,,,silence,,76051.79999999702,76050.5,70751.293,70756.5,70767.965,76052.66,,,
Item 99,flow.Sequence,0_2_0,2021-12-03T13:20:15.249Z,,,,,,,,,,,,,,,,,,,,,,,,,,,,,,51045.076,,completion,,,,,,,,,,,,,,,,76052.20000000298,76050.5,24988.763,24999.20000000298,25005.424,76052.66,,,
Holding screen,html.Screen,0_2_1_0,2021-12-03T13:20:25.237Z,,,,,,,,,,,,,,,,,,,,,,,,,,,,,,10002.525999999998,,timeout,,,,,,,,,,,,,,,,86039.59999999404,86038.516,76035.989,76052.59999999404,76052.66,86055.186,,,
screen,html.Screen,0_2_1_1_0,2021-12-03T13:20:26.408Z,,,,,,,,,,,,,,,,54,,,,,,,,,,,,,,1155.0140000029787,,response,,,100,,,,,,Space,keypress(Space),,,,,At --- ---- --- ------ ----- ------- ---- -- --- ------- --<br>------- ---------- ------ -- ----- -- ----- -- ---- ------<br>--- ----- --- --- ------ -------- ----- --- ------ ----- --<br>----- ----- ---------- --- --- ------ ------ ---- -- ------<br>------- --- ------ ----- --- ---- ------- -- ---- --- --<br>------- ------,87211,87210.20000000298,86038.516,86039.90000000596,86055.186,87222.382,,0,At
screen,html.Screen,0_2_1_1_1,2021-12-03T13:20:26.808Z,,,,,,,,,,,,,,,,54,,,,,,,,,,,,,,387.71799999404175,,response,,,100,,,,,,Space,keypress(Space),,,,,-- the ---- --- ------ ----- ------- ---- -- --- ------- --<br>------- ---------- ------ -- ----- -- ----- -- ---- ------<br>--- ----- --- --- ------ -------- ----- --- ------ ----- --<br>----- ----- ---------- --- --- ------ ------ ---- -- ------<br>------- --- ------ ----- --- ---- ------- -- ---- --- --<br>------- ------,87611,87610.09999999404,87205.71,87211.29999999702,87222.382,87622.345,,1,the
screen,html.Screen,0_2_1_1_2,2021-12-03T13:20:27.408Z,,,,,,,,,,,,,,,,54,,,,,,,,,,,,,,587.7549999940384,,response,,,100,,,,,,Space,keypress(Space),,,,,-- --- time --- ------ ----- ------- ---- -- --- ------- --<br>------- ---------- ------ -- ----- -- ----- -- ---- ------<br>--- ----- --- --- ------ -------- ----- --- ------ ----- --<br>----- ----- ---------- --- --- ------ ------ ---- -- ------<br>------- --- ------ ----- --- ---- ------- -- ---- --- --<br>------- ------,88211,88210.09999999404,87605.675,87611.20000000298,87622.345,88222.471,,2,time
screen,html.Screen,0_2_1_1_3,2021-12-03T13:20:27.952Z,,,,,,,,,,,,,,,,54,,,,,,,,,,,,,,531.6289999940345,,response,,,100,,,,,,Space,keypress(Space),,,,,-- --- ---- the ------ ----- ------- ---- -- --- ------- --<br>------- ---------- ------ -- ----- -- ----- -- ---- ------<br>--- ----- --- --- ------ -------- ----- --- ------ ----- --<br>----- ----- ---------- --- --- ------ ------ ---- -- ------<br>------- --- ------ ----- --- ---- ------- -- ---- --- --<br>------- ------,88755,88754.09999999404,88205.801,88211.20000000298,88222.471,88755.944,,3,the
screen,html.Screen,0_2_1_1_4,2021-12-03T13:20:28.465Z,,,,,,,,,,,,,,,,54,,,,,,,,,,,,,,510.1559999940364,,response,,,100,,,,,,Space,keypress(Space),,,,,-- --- ---- --- French ----- ------- ---- -- --- ------- --<br>------- ---------- ------ -- ----- -- ----- -- ---- ------<br>--- ----- --- --- ------ -------- ----- --- ------ ----- --<br>----- ----- ---------- --- --- ------ ------ ---- -- ------<br>------- --- ------ ----- --- ---- ------- -- ---- --- --<br>------- ------,89268.20000000298,89266.09999999404,88739.274,88755.09999999404,88755.944,89272.901,,4,French
screen,html.Screen,0_2_1_1_5,2021-12-03T13:20:29.000Z,,,,,,,,,,,,,,,,54,,,,,,,,,,,,,,528.9990000059624,,response,,,100,,,,,,Space,keypress(Space),,,,,-- --- ---- --- ------ crown ------- ---- -- --- ------- --<br>------- ---------- ------ -- ----- -- ----- -- ---- ------<br>--- ----- --- --- ------ -------- ----- --- ------ ----- --<br>----- ----- ---------- --- --- ------ ------ ---- -- ------<br>------- --- ------ ----- --- ---- ------- -- ---- --- --<br>------- ------,89802.79999999702,89801.90000000596,89256.229,89268.40000000596,89272.901,89806.274,,5,crown
screen,html.Screen,0_2_1_1_6,2021-12-03T13:20:29.544Z,,,,,,,,,,,,,,,,54,,,,,,,,,,,,,,539.8259999940346,,response,,,100,,,,,,Space,keypress(Space),,,,,-- --- ---- --- ------ ----- secured ---- -- --- ------- --<br>------- ---------- ------ -- ----- -- ----- -- ---- ------<br>--- ----- --- --- ------ -------- ----- --- ------ ----- --<br>----- ----- ---------- --- --- ------ ------ ---- -- ------<br>------- --- ------ ----- --- ---- ------- -- ---- --- --<br>------- ------,90346.79999999702,90346.09999999404,89789.604,89803,89806.274,90356.473,,6,secured
screen,html.Screen,0_2_1_1_7,2021-12-03T13:20:30.120Z,,,,,,,,,,,,,,,,54,,,,,,,,,,,,,,565.5270000000019,,response,,,100,,,,,,Space,keypress(Space),,,,,-- --- ---- --- ------ ----- ------- much -- --- ------- --<br>------- ---------- ------ -- ----- -- ----- -- ---- ------<br>--- ----- --- --- ------ -------- ----- --- ------ ----- --<br>----- ----- ---------- --- --- ------ ------ ---- -- ------<br>------- --- ------ ----- --- ---- ------- -- ---- --- --<br>------- ------,90922.79999999702,90922,90339.802,90347.09999999404,90356.473,90939.897,,7,much
screen,html.Screen,0_2_1_1_8,2021-12-03T13:20:30.608Z,,,,,,,,,,,,,,,,54,,,,,,,,,,,,,,470.1030000000028,,response,,,100,,,,,,Space,keypress(Space),,,,,-- --- ---- --- ------ ----- ------- ---- of --- ------- --<br>------- ---------- ------ -- ----- -- ----- -- ---- ------<br>--- ----- --- --- ------ -------- ----- --- ------ ----- --<br>----- ----- ---------- --- --- ------ ------ ---- -- ------<br>------- --- ------ ----- --- ---- ------- -- ---- --- --<br>------- ------,91410.79999999702,91410,90923.227,90923.09999999404,90939.897,91423.372,,8,of
screen,html.Screen,0_2_1_1_9,2021-12-03T13:20:30.984Z,,,,,,,,,,,,,,,,54,,,,,,,,,,,,,,362.627999999997,,response,,,100,,,,,,Space,keypress(Space),,,,,-- --- ---- --- ------ ----- ------- ---- -- its ------- --<br>------- ---------- ------ -- ----- -- ----- -- ---- ------<br>--- ----- --- --- ------ -------- ----- --- ------ ----- --<br>----- ----- ---------- --- --- ------ ------ ---- -- ------<br>------- --- ------ ----- --- ---- ------- -- ---- --- --<br>------- ------,91786.79999999702,91786,91406.702,91411.09999999404,91423.372,91790.149,,9,its
screen,html.Screen,0_2_1_1_10,2021-12-03T13:20:31.696Z,,,,,,,,,,,,,,,,54,,,,,,,,,,,,,,707.8509999999951,,response,,,100,,,,,,Space,keypress(Space),,,,,-- --- ---- --- ------ ----- ------- ---- -- --- revenue --<br>------- ---------- ------ -- ----- -- ----- -- ---- ------<br>--- ----- --- --- ------ -------- ----- --- ------ ----- --<br>----- ----- ---------- --- --- ------ ------ ---- -- ------<br>------- --- ------ ----- --- ---- ------- -- ---- --- --<br>------- ------,92498.79999999702,92498,91773.479,91787,91790.149,92506.984,,10,revenue
screen,html.Screen,0_2_1_1_11,2021-12-03T13:20:32.304Z,,,,,,,,,,,,,,,,54,,,,,,,,,,,,,,598.9160000059637,,response,,,100,,,,,,Space,keypress(Space),,,,,-- --- ---- --- ------ ----- ------- ---- -- --- ------- by<br>------- ---------- ------ -- ----- -- ----- -- ---- ------<br>--- ----- --- --- ------ -------- ----- --- ------ ----- --<br>----- ----- ---------- --- --- ------ ------ ---- -- ------<br>------- --- ------ ----- --- ---- ------- -- ---- --- --<br>------- ------,93106.79999999702,93105.90000000596,92490.314,92498.90000000596,92506.984,93123.876,,11,by
screen,html.Screen,0_2_1_1_12,2021-12-03T13:20:32.856Z,,,,,,,,,,,,,,,,54,,,,,,,,,,,,,,534.4239999970159,,response,,,100,,,,,,Space,keypress(Space),,,,,-- --- ---- --- ------ ----- ------- ---- -- --- ------- --<br>issuing ---------- ------ -- ----- -- ----- -- ---- ------<br>--- ----- --- --- ------ -------- ----- --- ------ ----- --<br>----- ----- ---------- --- --- ------ ------ ---- -- ------<br>------- --- ------ ----- --- ---- ------- -- ---- --- --<br>------- ------,93659,93658.29999999702,93107.205,93107.20000000298,93123.876,93673.956,,12,issuing
screen,html.Screen,0_2_1_1_13,2021-12-03T13:20:33.440Z,,,,,,,,,,,,,,,,54,,,,,,,,,,,,,,567.9440000059549,,response,,,100,,,,,,Space,keypress(Space),,,,,-- --- ---- --- ------ ----- ------- ---- -- --- ------- --<br>------- government ------ -- ----- -- ----- -- ---- ------<br>--- ----- --- --- ------ -------- ----- --- ------ ----- --<br>----- ----- ---------- --- --- ------ ------ ---- -- ------<br>------- --- ------ ----- --- ---- ------- -- ---- --- --<br>------- ------,94242.70000000298,94241.90000000596,93657.286,93659.29999999702,93673.956,94257.507,,13,government
screen,html.Screen,0_2_1_1_14,2021-12-03T13:20:34.896Z,,,,,,,,,,,,,,,,54,,,,,,,,,,,,,,1440.292999997022,,response,,,100,,,,,,Space,keypress(Space),,,,,-- --- ---- --- ------ ----- ------- ---- -- --- ------- --<br>------- ---------- bonds. -- ----- -- ----- -- ---- ------<br>--- ----- --- --- ------ -------- ----- --- ------ ----- --<br>----- ----- ---------- --- --- ------ ------ ---- -- ------<br>------- --- ------ ----- --- ---- ------- -- ---- --- --<br>------- ------,95698.59999999404,95697.79999999702,94240.836,94242.90000000596,94257.507,95707.777,,14,bonds.
screen,html.Screen,0_2_1_1_15,2021-12-03T13:20:35.400Z,,,,,,,,,,,,,,,,54,,,,,,,,,,,,,,493.92300000297837,,response,,,100,,,,,,Space,keypress(Space),,,,,-- --- ---- --- ------ ----- ------- ---- -- --- ------- --<br>------- ---------- ------ In ----- -- ----- -- ---- ------<br>--- ----- --- --- ------ -------- ----- --- ------ ----- --<br>----- ----- ---------- --- --- ------ ------ ---- -- ------<br>------- --- ------ ----- --- ---- ------- -- ---- --- --<br>------- ------,96202.5,96201.70000000298,95691.107,95698.79999999702,95707.777,96207.979,,15,In
screen,html.Screen,0_2_1_1_16,2021-12-03T13:20:36.608Z,,,,,,,,,,,,,,,,54,,,,,,,,,,,,,,1201.620999994033,,response,,,100,,,,,,Space,keypress(Space),,,,,"-- --- ---- --- ------ ----- ------- ---- -- --- ------- --<br>------- ---------- ------ -- 1727, -- ----- -- ---- ------<br>--- ----- --- --- ------ -------- ----- --- ------ ----- --<br>----- ----- ---------- --- --- ------ ------ ---- -- ------<br>------- --- ------ ----- --- ---- ------- -- ---- --- --<br>------- ------",97410.5,97409.59999999404,96191.309,96202.79999999702,96207.979,97424.922,,16,"1727,"
screen,html.Screen,0_2_1_1_17,2021-12-03T13:20:37.136Z,,,,,,,,,,,,,,,,54,,,,,,,,,,,,,,512.7780000029743,,response,,,100,,,,,,Space,keypress(Space),,,,,-- --- ---- --- ------ ----- ------- ---- -- --- ------- --<br>------- ---------- ------ -- ----- in ----- -- ---- ------<br>--- ----- --- --- ------ -------- ----- --- ------ ----- --<br>----- ----- ---------- --- --- ------ ------ ---- -- ------<br>------- --- ------ ----- --- ---- ------- -- ---- --- --<br>------- ------,97938.5,97937.70000000298,97408.252,97410.70000000298,97424.922,97941.766,,17,in
screen,html.Screen,0_2_1_1_18,2021-12-03T13:20:38.192Z,,,,,,,,,,,,,,,,54,,,,,,,,,,,,,,1051.8339999940363,,response,,,100,,,,,,Space,keypress(Space),,,,,-- --- ---- --- ------ ----- ------- ---- -- --- ------- --<br>------- ---------- ------ -- ----- -- order -- ---- ------<br>--- ----- --- --- ------ -------- ----- --- ------ ----- --<br>----- ----- ---------- --- --- ------ ------ ---- -- ------<br>------- --- ------ ----- --- ---- ------- -- ---- --- --<br>------- ------,98994.40000000596,98993.59999999404,97925.096,97938.79999999702,97941.766,99008.69,,18,order
screen,html.Screen,0_2_1_1_19,2021-12-03T13:20:38.728Z,,,,,,,,,,,,,,,,54,,,,,,,,,,,,,,520.8099999999977,,response,,,100,,,,,,Space,keypress(Space),,,,,-- --- ---- --- ------ ----- ------- ---- -- --- ------- --<br>------- ---------- ------ -- ----- -- ----- to ---- ------<br>--- ----- --- --- ------ -------- ----- --- ------ ----- --<br>----- ----- ---------- --- --- ------ ------ ---- -- ------<br>------- --- ------ ----- --- ---- ------- -- ---- --- --<br>------- ------,99530.29999999702,99529.5,98992.02,98994.59999999404,99008.69,99542.195,,19,to
screen,html.Screen,0_2_1_1_20,2021-12-03T13:20:39.264Z,,,,,,,,,,,,,,,,54,,,,,,,,,,,,,,523.304999999993,,response,,,100,,,,,,Space,keypress(Space),,,,,-- --- ---- --- ------ ----- ------- ---- -- --- ------- --<br>------- ---------- ------ -- ----- -- ----- -- save ------<br>--- ----- --- --- ------ -------- ----- --- ------ ----- --<br>----- ----- ---------- --- --- ------ ------ ---- -- ------<br>------- --- ------ ----- --- ---- ------- -- ---- --- --<br>------- ------,100066.29999999702,100065.5,99525.525,99530.5,99542.195,100075.669,,20,save
screen,html.Screen,0_2_1_1_21,2021-12-03T13:20:40.008Z,,,,,,,,,,,,,,,,54,,,,,,,,,,,,,,733.9309999940451,,response,,,100,,,,,,Space,keypress(Space),,,,,"-- --- ---- --- ------ ----- ------- ---- -- --- ------- --<br>------- ---------- ------ -- ----- -- ----- -- ---- money,<br>--- ----- --- --- ------ -------- ----- --- ------ ----- --<br>----- ----- ---------- --- --- ------ ------ ---- -- ------<br>------- --- ------ ----- --- ---- ------- -- ---- --- --<br>------- ------",100810.40000000596,100809.59999999404,100058.999,100066.5,100075.669,100825.859,,21,"money,"
screen,html.Screen,0_2_1_1_22,2021-12-03T13:20:40.472Z,,,,,,,,,,,,,,,,54,,,,,,,,,,,,,,447.64100000000326,,response,,,100,,,,,,Space,keypress(Space),,,,,-- --- ---- --- ------ ----- ------- ---- -- --- ------- --<br>------- ---------- ------ -- ----- -- ----- -- ---- ------<br>the ----- --- --- ------ -------- ----- --- ------ ----- --<br>----- ----- ---------- --- --- ------ ------ ---- -- ------<br>------- --- ------ ----- --- ---- ------- -- ---- --- --<br>------- ------,101274.29999999702,101273.5,100809.189,100810.59999999404,100825.859,101275.979,,22,the
screen,html.Screen,0_2_1_1_23,2021-12-03T13:20:41.016Z,,,,,,,,,,,,,,,,54,,,,,,,,,,,,,,541.5209999999934,,response,,,100,,,,,,Space,keypress(Space),,,,,-- --- ---- --- ------ ----- ------- ---- -- --- ------- --<br>------- ---------- ------ -- ----- -- ----- -- ---- ------<br>--- state --- --- ------ -------- ----- --- ------ ----- --<br>----- ----- ---------- --- --- ------ ------ ---- -- ------<br>------- --- ------ ----- --- ---- ------- -- ---- --- --<br>------- ------,101818.29999999702,101817.5,101259.309,101274.5,101275.979,101826.136,,23,state
screen,html.Screen,0_2_1_1_24,2021-12-03T13:20:41.512Z,,,,,,,,,,,,,,,,54,,,,,,,,,,,,,,487.3640000000014,,response,,,100,,,,,,Space,keypress(Space),,,,,-- --- ---- --- ------ ----- ------- ---- -- --- ------- --<br>------- ---------- ------ -- ----- -- ----- -- ---- ------<br>--- ----- cut --- ------ -------- ----- --- ------ ----- --<br>----- ----- ---------- --- --- ------ ------ ---- -- ------<br>------- --- ------ ----- --- ---- ------- -- ---- --- --<br>------- ------,102314.20000000298,102313.5,101809.466,101818.5,101826.136,102326.271,,24,cut
screen,html.Screen,0_2_1_1_25,2021-12-03T13:20:41.928Z,,,,,,,,,,,,,,,,54,,,,,,,,,,,,,,403.22900000000664,,response,,,100,,,,,,Space,keypress(Space),,,,,-- --- ---- --- ------ ----- ------- ---- -- --- ------- --<br>------- ---------- ------ -- ----- -- ----- -- ---- ------<br>--- ----- --- the ------ -------- ----- --- ------ ----- --<br>----- ----- ---------- --- --- ------ ------ ---- -- ------<br>------- --- ------ ----- --- ---- ------- -- ---- --- --<br>------- ------,102730.29999999702,102729.5,102309.601,102314.5,102326.271,102743.054,,25,the
screen,html.Screen,0_2_1_1_26,2021-12-03T13:20:42.519Z,,,,,,,,,,,,,,,,54,,,,,,,,,,,,,,578.4459999999963,,response,,,100,,,,,,Space,keypress(Space),,,,,-- --- ---- --- ------ ----- ------- ---- -- --- ------- --<br>------- ---------- ------ -- ----- -- ----- -- ---- ------<br>--- ----- --- --- bonds' -------- ----- --- ------ ----- --<br>----- ----- ---------- --- --- ------ ------ ---- -- ------<br>------- --- ------ ----- --- ---- ------- -- ---- --- --<br>------- ------,103322.29999999702,103321.5,102726.384,102730.59999999404,102743.054,103326.533,,26,bonds'
screen,html.Screen,0_2_1_1_27,2021-12-03T13:20:43.128Z,,,,,,,,,,,,,,,,54,,,,,,,,,,,,,,603.3670000059647,,response,,,100,,,,,,Space,keypress(Space),,,,,-- --- ---- --- ------ ----- ------- ---- -- --- ------- --<br>------- ---------- ------ -- ----- -- ----- -- ---- ------<br>--- ----- --- --- ------ interest ----- --- ------ ----- --<br>----- ----- ---------- --- --- ------ ------ ---- -- ------<br>------- --- ------ ----- --- ---- ------- -- ---- --- --<br>------- ------,103930.70000000298,103929.90000000596,103309.863,103322.5,103326.533,103943.361,,27,interest
screen,html.Screen,0_2_1_1_28,2021-12-03T13:20:43.727Z,,,,,,,,,,,,,,,,54,,,,,,,,,,,,,,586.039000005956,,response,,,100,,,,,,Space,keypress(Space),,,,,-- --- ---- --- ------ ----- ------- ---- -- --- ------- --<br>------- ---------- ------ -- ----- -- ----- -- ---- ------<br>--- ----- --- --- ------ -------- rate. --- ------ ----- --<br>----- ----- ---------- --- --- ------ ------ ---- -- ------<br>------- --- ------ ----- --- ---- ------- -- ---- --- --<br>------- ------,104530.20000000298,104529.40000000596,103926.691,103930.79999999702,103943.361,104543.527,,28,rate.
screen,html.Screen,0_2_1_1_29,2021-12-03T13:20:44.423Z,,,,,,,,,,,,,,,,54,,,,,,,,,,,,,,681.8730000059586,,response,,,100,,,,,,Space,keypress(Space),,,,,-- --- ---- --- ------ ----- ------- ---- -- --- ------- --<br>------- ---------- ------ -- ----- -- ----- -- ---- ------<br>--- ----- --- --- ------ -------- ----- The ------ ----- --<br>----- ----- ---------- --- --- ------ ------ ---- -- ------<br>------- --- ------ ----- --- ---- ------- -- ---- --- --<br>------- ------,105226.20000000298,105225.40000000596,104526.857,104530.40000000596,104543.527,105243.645,,29,The
screen,html.Screen,0_2_1_1_30,2021-12-03T13:20:44.927Z,,,,,,,,,,,,,,,,54,,,,,,,,,,,,,,485.7550000059564,,response,,,100,,,,,,Space,keypress(Space),,,,,-- --- ---- --- ------ ----- ------- ---- -- --- ------- --<br>------- ---------- ------ -- ----- -- ----- -- ---- ------<br>--- ----- --- --- ------ -------- ----- --- market ----- --<br>----- ----- ---------- --- --- ------ ------ ---- -- ------<br>------- --- ------ ----- --- ---- ------- -- ---- --- --<br>------- ------,105730.09999999404,105729.40000000596,105226.975,105226.40000000596,105243.645,105743.898,,30,market
screen,html.Screen,0_2_1_1_31,2021-12-03T13:20:45.392Z,,,,,,,,,,,,,,,,54,,,,,,,,,,,,,,449.5020000059594,,response,,,100,,,,,,Space,keypress(Space),,,,,-- --- ---- --- ------ ----- ------- ---- -- --- ------- --<br>------- ---------- ------ -- ----- -- ----- -- ---- ------<br>--- ----- --- --- ------ -------- ----- --- ------ value --<br>----- ----- ---------- --- --- ------ ------ ---- -- ------<br>------- --- ------ ----- --- ---- ------- -- ---- --- --<br>------- ------,106194.29999999702,106193.40000000596,105727.227,105730.40000000596,105743.898,106210.645,,31,value
screen,html.Screen,0_2_1_1_32,2021-12-03T13:20:45.815Z,,,,,,,,,,,,,,,,54,,,,,,,,,,,,,,406.6549999970157,,response,,,100,,,,,,Space,keypress(Space),,,,,-- --- ---- --- ------ ----- ------- ---- -- --- ------- --<br>------- ---------- ------ -- ----- -- ----- -- ---- ------<br>--- ----- --- --- ------ -------- ----- --- ------ ----- of<br>----- ----- ---------- --- --- ------ ------ ---- -- ------<br>------- --- ------ ----- --- ---- ------- -- ---- --- --<br>------- ------,106618.09999999404,106617.29999999702,106193.975,106194.59999999404,106210.645,106627.43,,32,of
screen,html.Screen,0_2_1_1_33,2021-12-03T13:20:46.527Z,,,,,,,,,,,,,,,,54,,,,,,,,,,,,,,701.8699999970268,,response,,,100,,,,,,Space,keypress(Space),,,,,-- --- ---- --- ------ ----- ------- ---- -- --- ------- --<br>------- ---------- ------ -- ----- -- ----- -- ---- ------<br>--- ----- --- --- ------ -------- ----- --- ------ ----- --<br>these ----- ---------- --- --- ------ ------ ---- -- ------<br>------- --- ------ ----- --- ---- ------- -- ---- --- --<br>------- ------,107330.09999999404,107329.29999999702,106610.76,106618.29999999702,106627.43,107344.266,,33,these
screen,html.Screen,0_2_1_1_34,2021-12-03T13:20:46.903Z,,,,,,,,,,,,,,,,54,,,,,,,,,,,,,,360.934000002977,,response,,,100,,,,,,Space,keypress(Space),,,,,-- --- ---- --- ------ ----- ------- ---- -- --- ------- --<br>------- ---------- ------ -- ----- -- ----- -- ---- ------<br>--- ----- --- --- ------ -------- ----- --- ------ ----- --<br>----- bonds ---------- --- --- ------ ------ ---- -- ------<br>------- --- ------ ----- --- ---- ------- -- ---- --- --<br>------- ------,107706.09999999404,107705.20000000298,107327.596,107330.40000000596,107344.266,107710.916,,34,bonds
screen,html.Screen,0_2_1_1_35,2021-12-03T13:20:47.695Z,,,,,,,,,,,,,,,,54,,,,,,,,,,,,,,786.2840000029828,,response,,,100,,,,,,Space,keypress(Space),,,,,"-- --- ---- --- ------ ----- ------- ---- -- --- ------- --<br>------- ---------- ------ -- ----- -- ----- -- ---- ------<br>--- ----- --- --- ------ -------- ----- --- ------ ----- --<br>----- ----- plummeted, --- --- ------ ------ ---- -- ------<br>------- --- ------ ----- --- ---- ------- -- ---- --- --<br>------- ------",108498.09999999404,108497.20000000298,107694.247,107706.29999999702,107710.916,108511.304,,35,"plummeted,"
screen,html.Screen,0_2_1_1_36,2021-12-03T13:20:48.279Z,,,,,,,,,,,,,,,,54,,,,,,,,,,,,,,569.7959999940358,,response,,,100,,,,,,Space,keypress(Space),,,,,-- --- ---- --- ------ ----- ------- ---- -- --- ------- --<br>------- ---------- ------ -- ----- -- ----- -- ---- ------<br>--- ----- --- --- ------ -------- ----- --- ------ ----- --<br>----- ----- ---------- and --- ------ ------ ---- -- ------<br>------- --- ------ ----- --- ---- ------- -- ---- --- --<br>------- ------,109081.59999999404,109081.09999999404,108494.633,108498.29999999702,108511.304,109094.717,,36,and
screen,html.Screen,0_2_1_1_37,2021-12-03T13:20:48.631Z,,,,,,,,,,,,,,,,54,,,,,,,,,,,,,,338.38299999403534,,response,,,100,,,,,,Space,keypress(Space),,,,,-- --- ---- --- ------ ----- ------- ---- -- --- ------- --<br>------- ---------- ------ -- ----- -- ----- -- ---- ------<br>--- ----- --- --- ------ -------- ----- --- ------ ----- --<br>----- ----- ---------- --- the ------ ------ ---- -- ------<br>------- --- ------ ----- --- ---- ------- -- ---- --- --<br>------- ------,109434,109433.09999999404,109078.047,109081.79999999702,109094.717,109444.884,,37,the
screen,html.Screen,0_2_1_1_38,2021-12-03T13:20:49.135Z,,,,,,,,,,,,,,,,54,,,,,,,,,,,,,,492.21599999403406,,response,,,100,,,,,,Space,keypress(Space),,,,,-- --- ---- --- ------ ----- ------- ---- -- --- ------- --<br>------- ---------- ------ -- ----- -- ----- -- ---- ------<br>--- ----- --- --- ------ -------- ----- --- ------ ----- --<br>----- ----- ---------- --- --- market ------ ---- -- ------<br>------- --- ------ ----- --- ---- ------- -- ---- --- --<br>------- ------,109937.79999999702,109937.09999999404,109428.213,109434.20000000298,109444.884,109944.951,,38,market
screen,html.Screen,0_2_1_1_39,2021-12-03T13:20:49.655Z,,,,,,,,,,,,,,,,54,,,,,,,,,,,,,,512.1489999940386,,response,,,100,,,,,,Space,keypress(Space),,,,,-- --- ---- --- ------ ----- ------- ---- -- --- ------- --<br>------- ---------- ------ -- ----- -- ----- -- ---- ------<br>--- ----- --- --- ------ -------- ----- --- ------ ----- --<br>----- ----- ---------- --- --- ------ became ---- -- ------<br>------- --- ------ ----- --- ---- ------- -- ---- --- --<br>------- ------,110457.90000000596,110457.09999999404,109928.281,109938.09999999404,109944.951,110461.603,,39,became
screen,html.Screen,0_2_1_1_40,2021-12-03T13:20:50.263Z,,,,,,,,,,,,,,,,54,,,,,,,,,,,,,,603.4969999940367,,response,,,100,,,,,,Space,keypress(Space),,,,,-- --- ---- --- ------ ----- ------- ---- -- --- ------- --<br>------- ---------- ------ -- ----- -- ----- -- ---- ------<br>--- ----- --- --- ------ -------- ----- --- ------ ----- --<br>----- ----- ---------- --- --- ------ ------ wary -- ------<br>------- --- ------ ----- --- ---- ------- -- ---- --- --<br>------- ------,111065.90000000596,111065.09999999404,110444.935,110458.09999999404,110461.603,111078.708,,40,wary
screen,html.Screen,0_2_1_1_41,2021-12-03T13:20:50.679Z,,,,,,,,,,,,,,,,54,,,,,,,,,,,,,,402.3919999940408,,response,,,100,,,,,,Space,keypress(Space),,,,,-- --- ---- --- ------ ----- ------- ---- -- --- ------- --<br>------- ---------- ------ -- ----- -- ----- -- ---- ------<br>--- ----- --- --- ------ -------- ----- --- ------ ----- --<br>----- ----- ---------- --- --- ------ ------ ---- of ------<br>------- --- ------ ----- --- ---- ------- -- ---- --- --<br>------- ------,111481.79999999702,111481.09999999404,111062.036,111066.09999999404,111078.708,111495.261,,41,of
screen,html.Screen,0_2_1_1_42,2021-12-03T13:20:51.247Z,,,,,,,,,,,,,,,,54,,,,,,,,,,,,,,553.7390000000014,,response,,,100,,,,,,Space,keypress(Space),,,,,-- --- ---- --- ------ ----- ------- ---- -- --- ------- --<br>------- ---------- ------ -- ----- -- ----- -- ---- ------<br>--- ----- --- --- ------ -------- ----- --- ------ ----- --<br>----- ----- ---------- --- --- ------ ------ ---- -- French<br>------- --- ------ ----- --- ---- ------- -- ---- --- --<br>------- ------,112049.79999999702,112049,111478.592,111482,111495.261,112062.284,,42,French
screen,html.Screen,0_2_1_1_43,2021-12-03T13:20:52.047Z,,,,,,,,,,,,,,,,54,,,,,,,,,,,,,,786.6160000059608,,response,,,100,,,,,,Space,keypress(Space),,,,,-- --- ---- --- ------ ----- ------- ---- -- --- ------- --<br>------- ---------- ------ -- ----- -- ----- -- ---- ------<br>--- ----- --- --- ------ -------- ----- --- ------ ----- --<br>----- ----- ---------- --- --- ------ ------ ---- -- ------<br>credit. --- ------ ----- --- ---- ------- -- ---- --- --<br>------- ------,112849.70000000298,112848.90000000596,112045.612,112050.09999999404,112062.284,112862.382,,43,credit.
screen,html.Screen,0_2_1_1_44,2021-12-03T13:20:52.503Z,,,,,,,,,,,,,,,,54,,,,,,,,,,,,,,442.417999997022,,response,,,100,,,,,,Space,keypress(Space),,,,,-- --- ---- --- ------ ----- ------- ---- -- --- ------- --<br>------- ---------- ------ -- ----- -- ----- -- ---- ------<br>--- ----- --- --- ------ -------- ----- --- ------ ----- --<br>----- ----- ---------- --- --- ------ ------ ---- -- ------<br>------- The ------ ----- --- ---- ------- -- ---- --- --<br>------- ------,113305.29999999702,113304.79999999702,112845.712,112849.90000000596,112862.382,113312.376,,44,The
screen,html.Screen,0_2_1_1_45,2021-12-03T13:20:52.975Z,,,,,,,,,,,,,,,,54,,,,,,,,,,,,,,464.4239999970159,,response,,,100,,,,,,Space,keypress(Space),,,,,-- --- ---- --- ------ ----- ------- ---- -- --- ------- --<br>------- ---------- ------ -- ----- -- ----- -- ---- ------<br>--- ----- --- --- ------ -------- ----- --- ------ ----- --<br>----- ----- ---------- --- --- ------ ------ ---- -- ------<br>------- --- French ----- --- ---- ------- -- ---- --- --<br>------- ------,113777.29999999702,113776.79999999702,113295.707,113305.5,113312.376,113779.263,,45,French
screen,html.Screen,0_2_1_1_46,2021-12-03T13:20:53.543Z,,,,,,,,,,,,,,,,54,,,,,,,,,,,,,,565.937000002974,,response,,,100,,,,,,Space,keypress(Space),,,,,-- --- ---- --- ------ ----- ------- ---- -- --- ------- --<br>------- ---------- ------ -- ----- -- ----- -- ---- ------<br>--- ----- --- --- ------ -------- ----- --- ------ ----- --<br>----- ----- ---------- --- --- ------ ------ ---- -- ------<br>------- --- ------ state --- ---- ------- -- ---- --- --<br>------- ------,114346,114345.20000000298,113762.593,113777.40000000596,113779.263,114362.957,,46,state
screen,html.Screen,0_2_1_1_47,2021-12-03T13:20:53.990Z,,,,,,,,,,,,,,,,54,,,,,,,,,,,,,,429.64299999404466,,response,,,100,,,,,,Space,keypress(Space),,,,,-- --- ---- --- ------ ----- ------- ---- -- --- ------- --<br>------- ---------- ------ -- ----- -- ----- -- ---- ------<br>--- ----- --- --- ------ -------- ----- --- ------ ----- --<br>----- ----- ---------- --- --- ------ ------ ---- -- ------<br>------- --- ------ ----- was ---- ------- -- ---- --- --<br>------- ------,114793.09999999404,114792.59999999404,114346.284,114346.29999999702,114362.957,114796.257,,47,was
screen,html.Screen,0_2_1_1_48,2021-12-03T13:20:54.478Z,,,,,,,,,,,,,,,,54,,,,,,,,,,,,,,484.34299999404175,,response,,,100,,,,,,Space,keypress(Space),,,,,-- --- ---- --- ------ ----- ------- ---- -- --- ------- --<br>------- ---------- ------ -- ----- -- ----- -- ---- ------<br>--- ----- --- --- ------ -------- ----- --- ------ ----- --<br>----- ----- ---------- --- --- ------ ------ ---- -- ------<br>------- --- ------ ----- --- left ------- -- ---- --- --<br>------- ------,115280.90000000596,115280.59999999404,114779.587,114793.29999999702,114796.257,115296.381,,48,left
screen,html.Screen,0_2_1_1_49,2021-12-03T13:20:55.111Z,,,,,,,,,,,,,,,,54,,,,,,,,,,,,,,616.4189999970258,,response,,,100,,,,,,Space,keypress(Space),,,,,-- --- ---- --- ------ ----- ------- ---- -- --- ------- --<br>------- ---------- ------ -- ----- -- ----- -- ---- ------<br>--- ----- --- --- ------ -------- ----- --- ------ ----- --<br>----- ----- ---------- --- --- ------ ------ ---- -- ------<br>------- --- ------ ----- --- ---- without -- ---- --- --<br>------- ------,115913.70000000298,115912.79999999702,115279.711,115281,115296.381,115929.663,,49,without
screen,html.Screen,0_2_1_1_50,2021-12-03T13:20:55.511Z,,,,,,,,,,,,,,,,54,,,,,,,,,,,,,,383.03700000297977,,response,,,100,,,,,,Space,keypress(Space),,,,,-- --- ---- --- ------ ----- ------- ---- -- --- ------- --<br>------- ---------- ------ -- ----- -- ----- -- ---- ------<br>--- ----- --- --- ------ -------- ----- --- ------ ----- --<br>----- ----- ---------- --- --- ------ ------ ---- -- ------<br>------- --- ------ ----- --- ---- ------- an ---- --- --<br>------- ------,116313.5,116312.70000000298,115912.995,115913.90000000596,115929.663,116330.075,,50,an
screen,html.Screen,0_2_1_1_51,2021-12-03T13:20:55.991Z,,,,,,,,,,,,,,,,54,,,,,,,,,,,,,,462.7249999970227,,response,,,100,,,,,,Space,keypress(Space),,,,,-- --- ---- --- ------ ----- ------- ---- -- --- ------- --<br>------- ---------- ------ -- ----- -- ----- -- ---- ------<br>--- ----- --- --- ------ -------- ----- --- ------ ----- --<br>----- ----- ---------- --- --- ------ ------ ---- -- ------<br>------- --- ------ ----- --- ---- ------- -- easy --- --<br>------- ------,116793.59999999404,116792.79999999702,116313.403,116313.79999999702,116330.075,116796.725,,51,easy
screen,html.Screen,0_2_1_1_52,2021-12-03T13:20:56.487Z,,,,,,,,,,,,,,,,54,,,,,,,,,,,,,,492.07499999701395,,response,,,100,,,,,,Space,keypress(Space),,,,,-- --- ---- --- ------ ----- ------- ---- -- --- ------- --<br>------- ---------- ------ -- ----- -- ----- -- ---- ------<br>--- ----- --- --- ------ -------- ----- --- ------ ----- --<br>----- ----- ---------- --- --- ------ ------ ---- -- ------<br>------- --- ------ ----- --- ---- ------- -- ---- way --<br>------- ------,117289.5,117288.79999999702,116780.055,116793.90000000596,116796.725,117297.024,,52,way
screen,html.Screen,0_2_1_1_53,2021-12-03T13:20:56.831Z,,,,,,,,,,,,,,,,54,,,,,,,,,,,,,,335.7759999970149,,response,,,100,,,,,,Space,keypress(Space),,,,,-- --- ---- --- ------ ----- ------- ---- -- --- ------- --<br>------- ---------- ------ -- ----- -- ----- -- ---- ------<br>--- ----- --- --- ------ -------- ----- --- ------ ----- --<br>----- ----- ---------- --- --- ------ ------ ---- -- ------<br>------- --- ------ ----- --- ---- ------- -- ---- --- of<br>------- ------,117633.5,117632.79999999702,117280.352,117289.79999999702,117297.024,117647.057,,53,of
screen,html.Screen,0_2_1_1_54,2021-12-03T13:20:57.271Z,,,,,,,,,,,,,,,,54,,,,,,,,,,,,,,425.54299999403884,,response,,,100,,,,,,Space,keypress(Space),,,,,-- --- ---- --- ------ ----- ------- ---- -- --- ------- --<br>------- ---------- ------ -- ----- -- ----- -- ---- ------<br>--- ----- --- --- ------ -------- ----- --- ------ ----- --<br>----- ----- ---------- --- --- ------ ------ ---- -- ------<br>------- --- ------ ----- --- ---- ------- -- ---- --- --<br>raising ------,118073.40000000596,118072.59999999404,117630.386,117633.79999999702,117647.057,118080.362,,54,raising
screen,html.Screen,0_2_1_1_55,2021-12-03T13:20:57.647Z,,,,,,,,,,,,,,,,54,,,,,,,,,,,,,,368.2379999940458,,response,,,100,,,,,,Space,keypress(Space),,,,,-- --- ---- --- ------ ----- ------- ---- -- --- ------- --<br>------- ---------- ------ -- ----- -- ----- -- ---- ------<br>--- ----- --- --- ------ -------- ----- --- ------ ----- --<br>----- ----- ---------- --- --- ------ ------ ---- -- ------<br>------- --- ------ ----- --- ---- ------- -- ---- --- --<br>------- money.,118449.40000000596,118448.59999999404,118063.693,118073.59999999404,118080.362,118463.86,,55,money.
Item 100,flow.Loop,0_2_1_1,2021-12-03T13:20:57.647Z,,,,,,,,,,,,,,,,,,,,,,,,,,,,,,32393.413999994038,,completion,,,,F,,,,,,,,,,silence,,118449.79999999702,118448.59999999404,86038.516,86039.79999999702,86055.186,118463.86,,,
Question 1,html.Screen,0_2_1_2,2021-12-03T13:21:01.314Z,,,,,,,,,,,,,,,,,,,,,,,,,,,true,TRUE,,3648.6399999999994,,response,,,100,F,,,,,TRUE,click #choice-1,,,,silence,,122113.59999999404,122112.5,118447.19,118450,118463.86,122130.007,,,
Question 2,html.Screen,0_2_1_3,2021-12-03T13:21:03.490Z,,,,,,,,,,,,,,,,,,,,,,,,,,,true,FALSE,,2158.0929999940417,,response,,,100,F,,,,,FALSE,click #choice-2,,,,silence,,124289.29999999702,124288.09999999404,122113.385,122113.79999999702,122130.007,124297.598,,,
Item 100,flow.Sequence,0_2_1,2021-12-03T13:21:03.490Z,,,,,,,,,,,,,,,,,,,,,,,,,,,,,,48235.439999994036,,completion,,,,,,,,,,,,,,,,124289.70000000298,124288.09999999404,76035.989,76052.5,76052.66,124297.598,,,
End of Practice,html.Page,0_2_2,2021-12-03T13:21:06.498Z,,,,,,,,,,,,,,,,,,,,,,,,,,,,,,3000.0019999940414,,form submission,,,,,,,,,,,,,,,,127298.09999999404,127297.59999999404,124280.957,124289.90000000596,124297.598,127299.547,,,
Practice,flow.Sequence,0_2,2021-12-03T13:21:06.499Z,,,,,,,,,,,,,,,,,,,,,,,,,,,,,,102292.17599999404,,completion,,,,,,,,,,,,,,,,127298.5,127297.59999999404,24988.763,24999.09999999404,25005.424,127299.547,,,
Trap_instruction,html.Page,0_3_0,2021-12-03T13:21:10.682Z,,,,,,,,,,,,,,,,,,,,,,,,,,,,,,4181.952999999994,,form submission,,,,,,,,,,,,,,,,131481.90000000596,131481.5,127282.877,127298.70000000298,127299.547,131516.632,,,
trap_trial,html.Screen,0_3_1,2021-12-03T13:21:13.690Z,,,,,,,,,,,,,,,,,,,,,,,,,,,true,1,,2971.268000005948,,response,,,,,,,,,1,click #choice-1,,,,,,134489.20000000298,134487.90000000596,131466.628,131482.09999999404,131516.632,134501.671,,,
end of trap trial,html.Page,0_3_2,2021-12-03T13:21:15.170Z,,,,,,,,,,,,,,,,,,,,,,,,,,,,,,1467.5290000029781,,form submission,,,,,,,,,,,,,,,,135969.79999999702,135969.20000000298,134484.999,134489.5,134501.671,135985.26,,,
Trap 1,flow.Sequence,0_3,2021-12-03T13:21:15.171Z,,,,,,,,,,,,,,,,,,,,,,,,,,,,,,8669.653000002974,,completion,,,,,,,,,,,,,,,,135970.29999999702,135969.20000000298,127282.877,127298.59999999404,127299.547,135985.26,,,
Standby,html.Page,0_4_0,2021-12-03T13:21:23.172Z,,,,,,,,,,,,,,,,,,,,,,,,,,,,,,8001.571999999986,,timeout,,,,,,,,,,,,,,,,143971.90000000596,143970.162,135968.589,135970.5,135985.26,143986.832,,,
Holding screen,html.Screen,0_4_1_0_0,2021-12-03T13:21:30.174Z,,,,,,,,,,,,,,,,,,,,,,,,,,,,,,7002.33600000001,,timeout,,,,,,,,,,,,,,,,150973.40000000596,150972.498,143970.162,143972.29999999702,143986.832,150989.168,,,
screen,html.Screen,0_4_1_0_1_0,2021-12-03T13:21:31.489Z,,,,,,,,,,,,,,,,11,,,,,,,,,,,,,,1298.4319999940344,,response,,,4,F,,,,,Space,keypress(Space),,,,instrumental,Known -- ---- --- -- --- -------- ------------ ---------- --<br>- ------- ------ --------- -- ------------ -- --- ---- -----<br>------ ---- ---- ------ ------ ------- --- ----- ---------<br>---- --- -------- -------- --- --- -- ------- --- --- -----<br>-- --- ------ ------- --- --- -------- ---- --------- --<br>---------- -- -------- ----------------,152288.79999999702,152287.59999999404,150972.498,150973.90000000596,150989.168,152289.391,,0,Known
screen,html.Screen,0_4_1_0_1_1,2021-12-03T13:21:31.800Z,,,,,,,,,,,,,,,,11,,,,,,,,,,,,,,309.7089999940363,,response,,,4,F,,,,,Space,keypress(Space),,,,instrumental,----- as ---- --- -- --- -------- ------------ ---------- --<br>- ------- ------ --------- -- ------------ -- --- ---- -----<br>------ ---- ---- ------ ------ ------- --- ----- ---------<br>---- --- -------- -------- --- --- -- ------- --- --- -----<br>-- --- ------ ------- --- --- -------- ---- --------- --<br>---------- -- -------- ----------------,152600,152599.09999999404,152272.721,152289.20000000298,152289.391,152606.256,,1,as
screen,html.Screen,0_4_1_0_1_2,2021-12-03T13:21:32.424Z,,,,,,,,,,,,,,,,11,,,,,,,,,,,,,,616.8439999940456,,response,,,4,F,,,,,Space,keypress(Space),,,,instrumental,----- -- Rapa --- -- --- -------- ------------ ---------- --<br>- ------- ------ --------- -- ------------ -- --- ---- -----<br>------ ---- ---- ------ ------ ------- --- ----- ---------<br>---- --- -------- -------- --- --- -- ------- --- --- -----<br>-- --- ------ ------- --- --- -------- ---- --------- --<br>---------- -- -------- ----------------,153224.20000000298,153223.09999999404,152589.586,152600.29999999702,152606.256,153239.849,,2,Rapa
screen,html.Screen,0_4_1_0_1_3,2021-12-03T13:21:32.896Z,,,,,,,,,,,,,,,,11,,,,,,,,,,,,,,455.2509999940521,,response,,,4,F,,,,,Space,keypress(Space),,,,instrumental,----- -- ---- Nui -- --- -------- ------------ ---------- --<br>- ------- ------ --------- -- ------------ -- --- ---- -----<br>------ ---- ---- ------ ------ ------- --- ----- ---------<br>---- --- -------- -------- --- --- -- ------- --- --- -----<br>-- --- ------ ------- --- --- -------- ---- --------- --<br>---------- -- -------- ----------------,153695.90000000596,153695.09999999404,153223.178,153224.5,153239.849,153706.414,,3,Nui
screen,html.Screen,0_4_1_0_1_4,2021-12-03T13:21:33.472Z,,,,,,,,,,,,,,,,11,,,,,,,,,,,,,,564.5860000000102,,response,,,4,F,,,,,Space,keypress(Space),,,,instrumental,----- -- ---- --- to --- -------- ------------ ---------- --<br>- ------- ------ --------- -- ------------ -- --- ---- -----<br>------ ---- ---- ------ ------ ------- --- ----- ---------<br>---- --- -------- -------- --- --- -- ------- --- --- -----<br>-- --- ------ ------- --- --- -------- ---- --------- --<br>---------- -- -------- ----------------,154271.79999999702,154271,153689.746,153696.20000000298,153706.414,154273.419,,4,to
screen,html.Screen,0_4_1_0_1_5,2021-12-03T13:21:33.816Z,,,,,,,,,,,,,,,,11,,,,,,,,,,,,,,341.6809999940451,,response,,,4,F,,,,,Space,keypress(Space),,,,instrumental,----- -- ---- --- -- the -------- ------------ ---------- --<br>- ------- ------ --------- -- ------------ -- --- ---- -----<br>------ ---- ---- ------ ------ ------- --- ----- ---------<br>---- --- -------- -------- --- --- -- ------- --- --- -----<br>-- --- ------ ------- --- --- -------- ---- --------- --<br>---------- -- -------- ----------------,154615.79999999702,154615.09999999404,154256.748,154272,154273.419,154623.595,,5,the
screen,html.Screen,0_4_1_0_1_6,2021-12-03T13:21:34.224Z,,,,,,,,,,,,,,,,11,,,,,,,,,,,,,,399.40499999999884,,response,,,4,F,,,,,Space,keypress(Space),,,,instrumental,----- -- ---- --- -- --- island's ------------ ---------- --<br>- ------- ------ --------- -- ------------ -- --- ---- -----<br>------ ---- ---- ------ ------ ------- --- ----- ---------<br>---- --- -------- -------- --- --- -- ------- --- --- -----<br>-- --- ------ ------- --- --- -------- ---- --------- --<br>---------- -- -------- ----------------,155023.90000000596,155023,154606.923,154616.09999999404,154623.595,155040.291,,6,island's
screen,html.Screen,0_4_1_0_1_7,2021-12-03T13:21:34.872Z,,,,,,,,,,,,,,,,11,,,,,,,,,,,,,,630.7090000000026,,response,,,4,F,,,,,Space,keypress(Space),,,,instrumental,"----- -- ---- --- -- --- -------- inhabitants, ---------- --<br>- ------- ------ --------- -- ------------ -- --- ---- -----<br>------ ---- ---- ------ ------ ------- --- ----- ---------<br>---- --- -------- -------- --- --- -- ------- --- --- -----<br>-- --- ------ ------- --- --- -------- ---- --------- --<br>---------- -- -------- ----------------",155671.70000000298,155671,155023.621,155024.09999999404,155040.291,155673.827,,7,"inhabitants,"
screen,html.Screen,0_4_1_0_1_8,2021-12-03T13:21:36.672Z,,,,,,,,,,,,,,,,11,,,,,,,,,,,,,,1796.9729999970295,,response,,,4,F,,,,,Space,keypress(Space),,,,instrumental,----- -- ---- --- -- --- -------- ------------ Rongorongo --<br>- ------- ------ --------- -- ------------ -- --- ---- -----<br>------ ---- ---- ------ ------ ------- --- ----- ---------<br>---- --- -------- -------- --- --- -- ------- --- --- -----<br>-- --- ------ ------- --- --- -------- ---- --------- --<br>---------- -- -------- ----------------,157471.59999999404,157470.79999999702,155657.156,155671.90000000596,155673.827,157474.165,,8,Rongorongo
screen,html.Screen,0_4_1_0_1_9,2021-12-03T13:21:37.168Z,,,,,,,,,,,,,,,,11,,,,,,,,,,,,,,492.7350000059523,,response,,,4,F,,,,,Space,keypress(Space),,,,instrumental,----- -- ---- --- -- --- -------- ------------ ---------- is<br>- ------- ------ --------- -- ------------ -- --- ---- -----<br>------ ---- ---- ------ ------ ------- --- ----- ---------<br>---- --- -------- -------- --- --- -- ------- --- --- -----<br>-- --- ------ ------- --- --- -------- ---- --------- --<br>---------- -- -------- ----------------,157967.70000000298,157966.90000000596,157457.495,157471.79999999702,157474.165,157974.412,,9,is
screen,html.Screen,0_4_1_0_1_10,2021-12-03T13:21:37.632Z,,,,,,,,,,,,,,,,11,,,,,,,,,,,,,,456.3879999970086,,response,,,4,F,,,,,Space,keypress(Space),,,,instrumental,----- -- ---- --- -- --- -------- ------------ ---------- --<br>a ------- ------ --------- -- ------------ -- --- ---- -----<br>------ ---- ---- ------ ------ ------- --- ----- ---------<br>---- --- -------- -------- --- --- -- ------- --- --- -----<br>-- --- ------ ------- --- --- -------- ---- --------- --<br>---------- -- -------- ----------------,158431.70000000298,158430.79999999702,157957.741,157967.90000000596,157974.412,158441.11,,10,a
screen,html.Screen,0_4_1_0_1_11,2021-12-03T13:21:38.072Z,,,,,,,,,,,,,,,,11,,,,,,,,,,,,,,429.68999999703374,,response,,,4,F,,,,,Space,keypress(Space),,,,instrumental,----- -- ---- --- -- --- -------- ------------ ---------- --<br>- writing ------ --------- -- ------------ -- --- ---- -----<br>------ ---- ---- ------ ------ ------- --- ----- ---------<br>---- --- -------- -------- --- --- -- ------- --- --- -----<br>-- --- ------ ------- --- --- -------- ---- --------- --<br>---------- -- -------- ----------------,158871.59999999404,158870.79999999702,158424.44,158432,158441.11,158874.79,,11,writing
screen,html.Screen,0_4_1_0_1_12,2021-12-03T13:21:38.696Z,,,,,,,,,,,,,,,,11,,,,,,,,,,,,,,620.0099999970116,,response,,,4,F,,,,,Space,keypress(Space),,,,instrumental,----- -- ---- --- -- --- -------- ------------ ---------- --<br>- ------- system --------- -- ------------ -- --- ---- -----<br>------ ---- ---- ------ ------ ------- --- ----- ---------<br>---- --- -------- -------- --- --- -- ------- --- --- -----<br>-- --- ------ ------- --- --- -------- ---- --------- --<br>---------- -- -------- ----------------,159495.59999999404,159494.79999999702,158858.117,158871.90000000596,158874.79,159508.189,,12,system
screen,html.Screen,0_4_1_0_1_13,2021-12-03T13:21:39.328Z,,,,,,,,,,,,,,,,11,,,,,,,,,,,,,,618.6109999970067,,response,,,4,F,,,,,Space,keypress(Space),,,,instrumental,----- -- ---- --- -- --- -------- ------------ ---------- --<br>- ------- ------ comprised -- ------------ -- --- ---- -----<br>------ ---- ---- ------ ------ ------- --- ----- ---------<br>---- --- -------- -------- --- --- -- ------- --- --- -----<br>-- --- ------ ------- --- --- -------- ---- --------- --<br>---------- -- -------- ----------------,160127.59999999404,160126.79999999702,159491.518,159495.90000000596,159508.189,160141.629,,13,comprised
screen,html.Screen,0_4_1_0_1_14,2021-12-03T13:21:39.880Z,,,,,,,,,,,,,,,,11,,,,,,,,,,,,,,537.1709999970335,,response,,,4,F,,,,,Space,keypress(Space),,,,instrumental,----- -- ---- --- -- --- -------- ------------ ---------- --<br>- ------- ------ --------- of ------------ -- --- ---- -----<br>------ ---- ---- ------ ------ ------- --- ----- ---------<br>---- --- -------- -------- --- --- -- ------- --- --- -----<br>-- --- ------ ------- --- --- -------- ---- --------- --<br>---------- -- -------- ----------------,160679.70000000298,160678.79999999702,160124.959,160127.79999999702,160141.629,160691.791,,14,of
screen,html.Screen,0_4_1_0_1_15,2021-12-03T13:21:41.584Z,,,,,,,,,,,,,,,,11,,,,,,,,,,,,,,1691.308999994042,,response,,,4,F,,,,,Space,keypress(Space),,,,instrumental,----- -- ---- --- -- --- -------- ------------ ---------- --<br>- ------- ------ --------- -- pictographs. -- --- ---- -----<br>------ ---- ---- ------ ------ ------- --- ----- ---------<br>---- --- -------- -------- --- --- -- ------- --- --- -----<br>-- --- ------ ------- --- --- -------- ---- --------- --<br>---------- -- -------- ----------------,162383.90000000596,162383.09999999404,160675.121,160679.90000000596,160691.791,162392.145,,15,pictographs.
screen,html.Screen,0_4_1_0_1_16,2021-12-03T13:21:42.160Z,,,,,,,,,,,,,,,,11,,,,,,,,,,,,,,566.5550000029907,,response,,,4,F,,,,,Space,keypress(Space),,,,instrumental,----- -- ---- --- -- --- -------- ------------ ---------- --<br>- ------- ------ --------- -- ------------ It --- ---- -----<br>------ ---- ---- ------ ------ ------- --- ----- ---------<br>---- --- -------- -------- --- --- -- ------- --- --- -----<br>-- --- ------ ------- --- --- -------- ---- --------- --<br>---------- -- -------- ----------------,162959.59999999404,162958.70000000298,162375.475,162384.09999999404,162392.145,162975.711,,16,It
screen,html.Screen,0_4_1_0_1_17,2021-12-03T13:21:42.784Z,,,,,,,,,,,,,,,,11,,,,,,,,,,,,,,606.8889999940293,,response,,,4,F,,,,,Space,keypress(Space),,,,instrumental,----- -- ---- --- -- --- -------- ------------ ---------- --<br>- ------- ------ --------- -- ------------ -- has ---- -----<br>------ ---- ---- ------ ------ ------- --- ----- ---------<br>---- --- -------- -------- --- --- -- ------- --- --- -----<br>-- --- ------ ------- --- --- -------- ---- --------- --<br>---------- -- -------- ----------------,163583.5,163582.59999999404,162959.041,162959.90000000596,162975.711,163592.464,,17,has
screen,html.Screen,0_4_1_0_1_18,2021-12-03T13:21:43.256Z,,,,,,,,,,,,,,,,11,,,,,,,,,,,,,,462.1359999940323,,response,,,4,F,,,,,Space,keypress(Space),,,,instrumental,----- -- ---- --- -- --- -------- ------------ ---------- --<br>- ------- ------ --------- -- ------------ -- --- been -----<br>------ ---- ---- ------ ------ ------- --- ----- ---------<br>---- --- -------- -------- --- --- -- ------- --- --- -----<br>-- --- ------ ------- --- --- -------- ---- --------- --<br>---------- -- -------- ----------------,164055.5,164054.59999999404,163575.794,163583.79999999702,163592.464,164059.504,,18,been
screen,html.Screen,0_4_1_0_1_19,2021-12-03T13:21:43.864Z,,,,,,,,,,,,,,,,11,,,,,,,,,,,,,,602.9960000000137,,response,,,4,F,,,,,Space,keypress(Space),,,,instrumental,----- -- ---- --- -- --- -------- ------------ ---------- --<br>- ------- ------ --------- -- ------------ -- --- ---- found<br>------ ---- ---- ------ ------ ------- --- ----- ---------<br>---- --- -------- -------- --- --- -- ------- --- --- -----<br>-- --- ------ ------- --- --- -------- ---- --------- --<br>---------- -- -------- ----------------,164663.29999999702,164662.5,164042.831,164055.79999999702,164059.504,164676.052,,19,found
screen,html.Screen,0_4_1_0_1_20,2021-12-03T13:21:44.504Z,,,,,,,,,,,,,,,,11,,,,,,,,,,,,,,626.5479999940435,,response,,,4,F,,,,,Space,keypress(Space),,,,instrumental,----- -- ---- --- -- --- -------- ------------ ---------- --<br>- ------- ------ --------- -- ------------ -- --- ---- -----<br>carved ---- ---- ------ ------ ------- --- ----- ---------<br>---- --- -------- -------- --- --- -- ------- --- --- -----<br>-- --- ------ ------- --- --- -------- ---- --------- --<br>---------- -- -------- ----------------,165303.29999999702,165302.59999999404,164659.383,164663.59999999404,164676.052,165309.82,,20,carved
screen,html.Screen,0_4_1_0_1_21,2021-12-03T13:21:44.888Z,,,,,,,,,,,,,,,,11,,,,,,,,,,,,,,376.679999999993,,response,,,4,F,,,,,Space,keypress(Space),,,,instrumental,----- -- ---- --- -- --- -------- ------------ ---------- --<br>- ------- ------ --------- -- ------------ -- --- ---- -----<br>------ into ---- ------ ------ ------- --- ----- ---------<br>---- --- -------- -------- --- --- -- ------- --- --- -----<br>-- --- ------ ------- --- --- -------- ---- --------- --<br>---------- -- -------- ----------------,165687.40000000596,165686.5,165293.148,165303.5,165309.82,165693.114,,21,into
screen,html.Screen,0_4_1_0_1_22,2021-12-03T13:21:45.280Z,,,,,,,,,,,,,,,,11,,,,,,,,,,,,,,385.3859999999986,,response,,,4,F,,,,,Space,keypress(Space),,,,instrumental,----- -- ---- --- -- --- -------- ------------ ---------- --<br>- ------- ------ --------- -- ------------ -- --- ---- -----<br>------ ---- many ------ ------ ------- --- ----- ---------<br>---- --- -------- -------- --- --- -- ------- --- --- -----<br>-- --- ------ ------- --- --- -------- ---- --------- --<br>---------- -- -------- ----------------,166079.29999999702,166078.5,165676.444,165687.59999999404,165693.114,166093.138,,22,many
screen,html.Screen,0_4_1_0_1_23,2021-12-03T13:21:45.864Z,,,,,,,,,,,,,,,,11,,,,,,,,,,,,,,569.2620000059542,,response,,,4,F,,,,,Space,keypress(Space),,,,instrumental,----- -- ---- --- -- --- -------- ------------ ---------- --<br>- ------- ------ --------- -- ------------ -- --- ---- -----<br>------ ---- ---- oblong ------ ------- --- ----- ---------<br>---- --- -------- -------- --- --- -- ------- --- --- -----<br>-- --- ------ ------- --- --- -------- ---- --------- --<br>---------- -- -------- ----------------,166663.20000000298,166662.40000000596,166076.469,166079.5,166093.138,166676.872,,23,oblong
screen,html.Screen,0_4_1_0_1_24,2021-12-03T13:21:46.360Z,,,,,,,,,,,,,,,,11,,,,,,,,,,,,,,481.627999999997,,response,,,4,F,,,,,Space,keypress(Space),,,,instrumental,----- -- ---- --- -- --- -------- ------------ ---------- --<br>- ------- ------ --------- -- ------------ -- --- ---- -----<br>------ ---- ---- ------ wooden ------- --- ----- ---------<br>---- --- -------- -------- --- --- -- ------- --- --- -----<br>-- --- ------ ------- --- --- -------- ---- --------- --<br>---------- -- -------- ----------------,167159.29999999702,167158.5,166660.199,166663.5,166676.872,167176.8,,24,wooden
screen,html.Screen,0_4_1_0_1_25,2021-12-03T13:21:47.039Z,,,,,,,,,,,,,,,,11,,,,,,,,,,,,,,661.6000000059721,,response,,,4,F,,,,,Space,keypress(Space),,,,instrumental,----- -- ---- --- -- --- -------- ------------ ---------- --<br>- ------- ------ --------- -- ------------ -- --- ---- -----<br>------ ---- ---- ------ ------ tablets --- ----- ---------<br>---- --- -------- -------- --- --- -- ------- --- --- -----<br>-- --- ------ ------- --- --- -------- ---- --------- --<br>---------- -- -------- ----------------,167839.20000000298,167838.40000000596,167160.13,167159.5,167176.8,167843.722,,25,tablets
screen,html.Screen,0_4_1_0_1_26,2021-12-03T13:21:47.519Z,,,,,,,,,,,,,,,,11,,,,,,,,,,,,,,474.77799999999115,,response,,,4,F,,,,,Space,keypress(Space),,,,instrumental,----- -- ---- --- -- --- -------- ------------ ---------- --<br>- ------- ------ --------- -- ------------ -- --- ---- -----<br>------ ---- ---- ------ ------ ------- and ----- ---------<br>---- --- -------- -------- --- --- -- ------- --- --- -----<br>-- --- ------ ------- --- --- -------- ---- --------- --<br>---------- -- -------- ----------------,168319.29999999702,168318.5,167827.051,167839.40000000596,167843.722,168327.02,,26,and
screen,html.Screen,0_4_1_0_1_27,2021-12-03T13:21:47.911Z,,,,,,,,,,,,,,,,11,,,,,,,,,,,,,,383.27999999703025,,response,,,4,F,,,,,Space,keypress(Space),,,,instrumental,----- -- ---- --- -- --- -------- ------------ ---------- --<br>- ------- ------ --------- -- ------------ -- --- ---- -----<br>------ ---- ---- ------ ------ ------- --- other ---------<br>---- --- -------- -------- --- --- -- ------- --- --- -----<br>-- --- ------ ------- --- --- -------- ---- --------- --<br>---------- -- -------- ----------------,168711.09999999404,168710.29999999702,168310.351,168319.5,168327.02,168727.342,,27,other
screen,html.Screen,0_4_1_0_1_28,2021-12-03T13:21:48.687Z,,,,,,,,,,,,,,,,11,,,,,,,,,,,,,,759.0580000059563,,response,,,4,F,,,,,Space,keypress(Space),,,,instrumental,----- -- ---- --- -- --- -------- ------------ ---------- --<br>- ------- ------ --------- -- ------------ -- --- ---- -----<br>------ ---- ---- ------ ------ ------- --- ----- artifacts<br>---- --- -------- -------- --- --- -- ------- --- --- -----<br>-- --- ------ ------- --- --- -------- ---- --------- --<br>---------- -- -------- ----------------,169487.20000000298,169486.40000000596,168710.67,168711.40000000596,168727.342,169494.095,,28,artifacts
screen,html.Screen,0_4_1_0_1_29,2021-12-03T13:21:49.263Z,,,,,,,,,,,,,,,,11,,,,,,,,,,,,,,568.2049999970186,,response,,,4,F,,,,,Space,keypress(Space),,,,instrumental,----- -- ---- --- -- --- -------- ------------ ---------- --<br>- ------- ------ --------- -- ------------ -- --- ---- -----<br>------ ---- ---- ------ ------ ------- --- ----- ---------<br>from --- -------- -------- --- --- -- ------- --- --- -----<br>-- --- ------ ------- --- --- -------- ---- --------- --<br>---------- -- -------- ----------------,170063.20000000298,170062.29999999702,169477.425,169487.40000000596,169494.095,170077.599,,29,from
screen,html.Screen,0_4_1_0_1_30,2021-12-03T13:21:49.599Z,,,,,,,,,,,,,,,,11,,,,,,,,,,,,,,320.80100000597304,,response,,,4,F,,,,,Space,keypress(Space),,,,instrumental,----- -- ---- --- -- --- -------- ------------ ---------- --<br>- ------- ------ --------- -- ------------ -- --- ---- -----<br>------ ---- ---- ------ ------ ------- --- ----- ---------<br>---- the -------- -------- --- --- -- ------- --- --- -----<br>-- --- ------ ------- --- --- -------- ---- --------- --<br>---------- -- -------- ----------------,170399.09999999404,170398.40000000596,170060.929,170063.40000000596,170077.599,170411.088,,30,the
screen,html.Screen,0_4_1_0_1_31,2021-12-03T13:21:50.015Z,,,,,,,,,,,,,,,,11,,,,,,,,,,,,,,403.21199999703094,,response,,,4,F,,,,,Space,keypress(Space),,,,instrumental,----- -- ---- --- -- --- -------- ------------ ---------- --<br>- ------- ------ --------- -- ------------ -- --- ---- -----<br>------ ---- ---- ------ ------ ------- --- ----- ---------<br>---- --- island's -------- --- --- -- ------- --- --- -----<br>-- --- ------ ------- --- --- -------- ---- --------- --<br>---------- -- -------- ----------------,170815.09999999404,170814.29999999702,170394.417,170399.40000000596,170411.088,170827.806,,31,island's
screen,html.Screen,0_4_1_0_1_32,2021-12-03T13:21:50.983Z,,,,,,,,,,,,,,,,11,,,,,,,,,,,,,,954.3940000029688,,response,,,4,F,,,,,Space,keypress(Space),,,,instrumental,----- -- ---- --- -- --- -------- ------------ ---------- --<br>- ------- ------ --------- -- ------------ -- --- ---- -----<br>------ ---- ---- ------ ------ ------- --- ----- ---------<br>---- --- -------- history. --- --- -- ------- --- --- -----<br>-- --- ------ ------- --- --- -------- ---- --------- --<br>---------- -- -------- ----------------,171783,171782.20000000298,170811.136,170815.29999999702,170827.806,171794.779,,32,history.
screen,html.Screen,0_4_1_0_1_33,2021-12-03T13:21:51.472Z,,,,,,,,,,,,,,,,11,,,,,,,,,,,,,,475.32099999403,,response,,,4,F,,,,,Space,keypress(Space),,,,instrumental,----- -- ---- --- -- --- -------- ------------ ---------- --<br>- ------- ------ --------- -- ------------ -- --- ---- -----<br>------ ---- ---- ------ ------ ------- --- ----- ---------<br>---- --- -------- -------- The --- -- ------- --- --- -----<br>-- --- ------ ------- --- --- -------- ---- --------- --<br>---------- -- -------- ----------------,172272,172270.09999999404,171778.108,171783.20000000298,171794.779,172278.204,,33,The
screen,html.Screen,0_4_1_0_1_34,2021-12-03T13:21:52.128Z,,,,,,,,,,,,,,,,11,,,,,,,,,,,,,,648.3959999940416,,response,,,4,F,,,,,Space,keypress(Space),,,,instrumental,----- -- ---- --- -- --- -------- ------------ ---------- --<br>- ------- ------ --------- -- ------------ -- --- ---- -----<br>------ ---- ---- ------ ------ ------- --- ----- ---------<br>---- --- -------- -------- --- art -- ------- --- --- -----<br>-- --- ------ ------- --- --- -------- ---- --------- --<br>---------- -- -------- ----------------,172927.40000000596,172926.59999999404,172261.534,172272.20000000298,172278.204,172928.352,,34,art
screen,html.Screen,0_4_1_0_1_35,2021-12-03T13:21:52.655Z,,,,,,,,,,,,,,,,11,,,,,,,,,,,,,,525.8480000029667,,response,,,4,F,,,,,Space,keypress(Space),,,,instrumental,----- -- ---- --- -- --- -------- ------------ ---------- --<br>- ------- ------ --------- -- ------------ -- --- ---- -----<br>------ ---- ---- ------ ------ ------- --- ----- ---------<br>---- --- -------- -------- --- --- of ------- --- --- -----<br>-- --- ------ ------- --- --- -------- ---- --------- --<br>---------- -- -------- ----------------,173455,173454.20000000298,172911.682,172927.59999999404,172928.352,173461.845,,35,of
screen,html.Screen,0_4_1_0_1_36,2021-12-03T13:21:53.247Z,,,,,,,,,,,,,,,,11,,,,,,,,,,,,,,584.2549999940384,,response,,,4,F,,,,,Space,keypress(Space),,,,instrumental,----- -- ---- --- -- --- -------- ------------ ---------- --<br>- ------- ------ --------- -- ------------ -- --- ---- -----<br>------ ---- ---- ------ ------ ------- --- ----- ---------<br>---- --- -------- -------- --- --- -- writing --- --- -----<br>-- --- ------ ------- --- --- -------- ---- --------- --<br>---------- -- -------- ----------------,174046.79999999702,174046.09999999404,173445.175,173455.20000000298,173461.845,174061.977,,36,writing
screen,html.Screen,0_4_1_0_1_37,2021-12-03T13:21:53.735Z,,,,,,,,,,,,,,,,11,,,,,,,,,,,,,,472.12299999402603,,response,,,4,F,,,,,Space,keypress(Space),,,,instrumental,----- -- ---- --- -- --- -------- ------------ ---------- --<br>- ------- ------ --------- -- ------------ -- --- ---- -----<br>------ ---- ---- ------ ------ ------- --- ----- ---------<br>---- --- -------- -------- --- --- -- ------- was --- -----<br>-- --- ------ ------- --- --- -------- ---- --------- --<br>---------- -- -------- ----------------,174534.90000000596,174534.09999999404,174045.307,174047.09999999404,174061.977,174545.508,,37,was
screen,html.Screen,0_4_1_0_1_38,2021-12-03T13:21:54.207Z,,,,,,,,,,,,,,,,11,,,,,,,,,,,,,,460.5919999940379,,response,,,4,F,,,,,Space,keypress(Space),,,,instrumental,----- -- ---- --- -- --- -------- ------------ ---------- --<br>- ------- ------ --------- -- ------------ -- --- ---- -----<br>------ ---- ---- ------ ------ ------- --- ----- ---------<br>---- --- -------- -------- --- --- -- ------- --- not -----<br>-- --- ------ ------- --- --- -------- ---- --------- --<br>---------- -- -------- ----------------,175006.90000000596,175006.09999999404,174528.837,174535.09999999404,174545.508,175012.159,,38,not
screen,html.Screen,0_4_1_0_1_39,2021-12-03T13:21:54.679Z,,,,,,,,,,,,,,,,11,,,,,,,,,,,,,,465.94099999402533,,response,,,4,F,,,,,Space,keypress(Space),,,,instrumental,----- -- ---- --- -- --- -------- ------------ ---------- --<br>- ------- ------ --------- -- ------------ -- --- ---- -----<br>------ ---- ---- ------ ------ ------- --- ----- ---------<br>---- --- -------- -------- --- --- -- ------- --- --- known<br>-- --- ------ ------- --- --- -------- ---- --------- --<br>---------- -- -------- ----------------,175479,175478.09999999404,174995.49,175007.09999999404,175012.159,175495.818,,39,known
screen,html.Screen,0_4_1_0_1_40,2021-12-03T13:21:55.103Z,,,,,,,,,,,,,,,,11,,,,,,,,,,,,,,406.28199999404023,,response,,,4,F,,,,,Space,keypress(Space),,,,instrumental,----- -- ---- --- -- --- -------- ------------ ---------- --<br>- ------- ------ --------- -- ------------ -- --- ---- -----<br>------ ---- ---- ------ ------ ------- --- ----- ---------<br>---- --- -------- -------- --- --- -- ------- --- --- -----<br>in --- ------ ------- --- --- -------- ---- --------- --<br>---------- -- -------- ----------------,175902.90000000596,175902.09999999404,175479.146,175479.29999999702,175495.818,175912.396,,40,in
screen,html.Screen,0_4_1_0_1_41,2021-12-03T13:21:55.519Z,,,,,,,,,,,,,,,,11,,,,,,,,,,,,,,405.7039999940316,,response,,,4,F,,,,,Space,keypress(Space),,,,instrumental,----- -- ---- --- -- --- -------- ------------ ---------- --<br>- ------- ------ --------- -- ------------ -- --- ---- -----<br>------ ---- ---- ------ ------ ------- --- ----- ---------<br>---- --- -------- -------- --- --- -- ------- --- --- -----<br>-- any ------ ------- --- --- -------- ---- --------- --<br>---------- -- -------- ----------------,176318.79999999702,176318.09999999404,175895.727,175903.09999999404,175912.396,176329.382,,41,any
screen,html.Screen,0_4_1_0_1_42,2021-12-03T13:21:55.935Z,,,,,,,,,,,,,,,,11,,,,,,,,,,,,,,404.61799999998766,,response,,,4,F,,,,,Space,keypress(Space),,,,instrumental,----- -- ---- --- -- --- -------- ------------ ---------- --<br>- ------- ------ --------- -- ------------ -- --- ---- -----<br>------ ---- ---- ------ ------ ------- --- ----- ---------<br>---- --- -------- -------- --- --- -- ------- --- --- -----<br>-- --- nearby ------- --- --- -------- ---- --------- --<br>---------- -- -------- ----------------,176734.79999999702,176734,176312.71,176319.09999999404,176329.382,176745.918,,42,nearby
screen,html.Screen,0_4_1_0_1_43,2021-12-03T13:21:56.503Z,,,,,,,,,,,,,,,,11,,,,,,,,,,,,,,556.0819999999949,,response,,,4,F,,,,,Space,keypress(Space),,,,instrumental,----- -- ---- --- -- --- -------- ------------ ---------- --<br>- ------- ------ --------- -- ------------ -- --- ---- -----<br>------ ---- ---- ------ ------ ------- --- ----- ---------<br>---- --- -------- -------- --- --- -- ------- --- --- -----<br>-- --- ------ islands --- --- -------- ---- --------- --<br>---------- -- -------- ----------------,177302.79999999702,177302,176729.25,176735,176745.918,177312.967,,43,islands
screen,html.Screen,0_4_1_0_1_44,2021-12-03T13:21:56.959Z,,,,,,,,,,,,,,,,11,,,,,,,,,,,,,,444.9330000059563,,response,,,4,F,,,,,Space,keypress(Space),,,,instrumental,----- -- ---- --- -- --- -------- ------------ ---------- --<br>- ------- ------ --------- -- ------------ -- --- ---- -----<br>------ ---- ---- ------ ------ ------- --- ----- ---------<br>---- --- -------- -------- --- --- -- ------- --- --- -----<br>-- --- ------ ------- and --- -------- ---- --------- --<br>---------- -- -------- ----------------,177758.70000000298,177757.90000000596,177296.295,177303,177312.967,177763.033,,44,and
screen,html.Screen,0_4_1_0_1_45,2021-12-03T13:21:57.343Z,,,,,,,,,,,,,,,,11,,,,,,,,,,,,,,378.86700000596466,,response,,,4,F,,,,,Space,keypress(Space),,,,instrumental,----- -- ---- --- -- --- -------- ------------ ---------- --<br>- ------- ------ --------- -- ------------ -- --- ---- -----<br>------ ---- ---- ------ ------ ------- --- ----- ---------<br>---- --- -------- -------- --- --- -- ------- --- --- -----<br>-- --- ------ ------- --- the -------- ---- --------- --<br>---------- -- -------- ----------------,178142.79999999702,178141.90000000596,177746.362,177758.90000000596,177763.033,178146.331,,45,the
screen,html.Screen,0_4_1_0_1_46,2021-12-03T13:21:57.871Z,,,,,,,,,,,,,,,,11,,,,,,,,,,,,,,523.4689999970142,,response,,,4,F,,,,,Space,keypress(Space),,,,instrumental,----- -- ---- --- -- --- -------- ------------ ---------- --<br>- ------- ------ --------- -- ------------ -- --- ---- -----<br>------ ---- ---- ------ ------ ------- --- ----- ---------<br>---- --- -------- -------- --- --- -- ------- --- --- -----<br>-- --- ------ ------- --- --- script's ---- --------- --<br>---------- -- -------- ----------------,178670.5,178669.79999999702,178129.662,178143,178146.331,178680.014,,46,script's
screen,html.Screen,0_4_1_0_1_47,2021-12-03T13:21:58.503Z,,,,,,,,,,,,,,,,11,,,,,,,,,,,,,,621.9860000000044,,response,,,4,F,,,,,Space,keypress(Space),,,,instrumental,----- -- ---- --- -- --- -------- ------------ ---------- --<br>- ------- ------ --------- -- ------------ -- --- ---- -----<br>------ ---- ---- ------ ------ ------- --- ----- ---------<br>---- --- -------- -------- --- --- -- ------- --- --- -----<br>-- --- ------ ------- --- --- -------- mere --------- --<br>---------- -- -------- ----------------,179302.70000000298,179302,178663.342,178670.79999999702,178680.014,179313.378,,47,mere
screen,html.Screen,0_4_1_0_1_48,2021-12-03T13:21:59.239Z,,,,,,,,,,,,,,,,11,,,,,,,,,,,,,,724.5220000059635,,response,,,4,F,,,,,Space,keypress(Space),,,,instrumental,----- -- ---- --- -- --- -------- ------------ ---------- --<br>- ------- ------ --------- -- ------------ -- --- ---- -----<br>------ ---- ---- ------ ------ ------- --- ----- ---------<br>---- --- -------- -------- --- --- -- ------- --- --- -----<br>-- --- ------ ------- --- --- -------- ---- existence --<br>---------- -- -------- ----------------,180038.70000000298,180037.90000000596,179296.708,179302.90000000596,179313.378,180046.92,,48,existence
screen,html.Screen,0_4_1_0_1_49,2021-12-03T13:21:59.703Z,,,,,,,,,,,,,,,,11,,,,,,,,,,,,,,454.98000000594766,,response,,,4,F,,,,,Space,keypress(Space),,,,instrumental,----- -- ---- --- -- --- -------- ------------ ---------- --<br>- ------- ------ --------- -- ------------ -- --- ---- -----<br>------ ---- ---- ------ ------ ------- --- ----- ---------<br>---- --- -------- -------- --- --- -- ------- --- --- -----<br>-- --- ------ ------- --- --- -------- ---- --------- is<br>---------- -- -------- ----------------,180502.59999999404,180501.90000000596,180030.25,180038.90000000596,180046.92,180513.73,,49,is
screen,html.Screen,0_4_1_0_1_50,2021-12-03T13:22:00.460Z,,,,,,,,,,,,,,,,11,,,,,,,,,,,,,,747.67000000595,,response,,,4,F,,,,,Space,keypress(Space),,,,instrumental,----- -- ---- --- -- --- -------- ------------ ---------- --<br>- ------- ------ --------- -- ------------ -- --- ---- -----<br>------ ---- ---- ------ ------ ------- --- ----- ---------<br>---- --- -------- -------- --- --- -- ------- --- --- -----<br>-- --- ------ ------- --- --- -------- ---- --------- --<br>sufficient -- -------- ----------------,181261.79999999702,181261.40000000596,180497.06,180502.90000000596,180513.73,181263.893,,50,sufficient
