sender,sender_type,sender_id,timestamp,meta,,Blues,Classical,Country,Dance,Electronic,Folk,Gospel,Hip-Hop,Jazz,Latin,Musical/Film,New-age,Pop,Provo_ID,R&B,Rap,Reggae,Religious,Rock,Soul,Swing,Traditional,age,artist_name,correct,correctResponse,distraction,duration,education,ended_on,familiarity,gender,item,list,music_frequency,offensiveness,pleasantness,preference,response,response_action,snippet_file,song_name,song_rating,sound,text,time_commit,time_end,time_render,time_run,time_show,time_switch,url,word,word_ID
Instructions,html.Page,0_0,2021-11-05T13:00:23.956Z,"{""labjs_version"":""20.2.3"",""labjs_build"":{""flavor"":""production"",""commit"":""7ea907d66ca8aeef8054924ca5d82ffbe11e34e5""},""location"":""https://run.pavlovia.org/mvasilev/lab_music_d/"",""userAgent"":""Mozilla/5.0 (Windows NT 6.1; Win64; x64) AppleWebKit/537.36 (KHTML, like Gecko) Chrome/95.0.4638.54 Safari/537.36"",""platform"":""Win32"",""language"":""en-US"",""locale"":""en-US"",""timeZone"":""Europe/London"",""timezoneOffset"":0,""screen_width"":1920,""screen_height"":1080,""scroll_width"":1920,""scroll_height"":959,""window_innerWidth"":1920,""window_innerHeight"":1007,""devicePixelRatio"":1}",,,,,,,,,,,,,,,,,,,,,,,,,,,,,38108.04199998808,,form submission,,,,,,,,,,,,,,,,50520.39999999106,50519.19999998808,12377.818,12395.39999999106,12411.158,50521.105,{},,
Headphones,html.Page,0_1,2021-11-05T13:00:26.816Z,,,,,,,,,,,,,,,,,,,,,,,,,,,,,,2859.394999999997,,form submission,,,,,,,,,,,,,,,,53381,53380.5,50504.434,50521.19999998808,50521.105,53388.325,,,
Holding screen,html.Screen,0_2_0_0,2021-11-05T13:00:36.819Z,,,,,,,,,,,,,,,,,,,,,,,,,,,,,,10002.527000000002,,timeout,,,,,,,,,,,,,,,,63380.19999998808,63374.183,53371.655,53381.5,53388.325,63390.852,,,
screen,html.Screen,0_2_0_1_0,2021-11-05T13:00:37.905Z,,,,,,,,,,,,,,,,53,,,,,,,,,,,,,,1073.8479999880801,,response,,,99,,,,,,Space,keypress(Space),,,,,When -- ----- -- ------ - ------- --- ----------<br>------------- ------ ------ ---- ---- ------- ----- -- ----<br>-------- ------- -- ---------- --- - --- ----- ----- ----<br>---- --- --- ----- --- ---- ---- ------- ----- ---- -------<br>--- --- -- ----- -- --- ---- -- --- ---- -- ------ ------<br>--- ----- -- ----,64466.09999999404,64464.69999998808,63374.183,63380.59999999404,63390.852,64474.808,,0,When
screen,html.Screen,0_2_0_1_1,2021-11-05T13:00:39.144Z,,,,,,,,,,,,,,,,53,,,,,,,,,,,,,,1229.2919999940423,,response,,,99,,,,,,Space,keypress(Space),,,,,---- it ----- -- ------ - ------- --- ----------<br>------------- ------ ------ ---- ---- ------- ----- -- ----<br>-------- ------- -- ---------- --- - --- ----- ----- ----<br>---- --- --- ----- --- ---- ---- ------- ----- ---- -------<br>--- --- -- ----- -- --- ---- -- --- ---- -- ------ ------<br>--- ----- -- ----,65705,65704.09999999404,64458.136,64466.5,64474.808,65708.287,,1,it
screen,html.Screen,0_2_0_1_2,2021-11-05T13:00:39.672Z,,,,,,,,,,,,,,,,53,,,,,,,,,,,,,,523.9129999880824,,response,,,99,,,,,,Space,keypress(Space),,,,,---- -- comes -- ------ - ------- --- ----------<br>------------- ------ ------ ---- ---- ------- ----- -- ----<br>-------- ------- -- ---------- --- - --- ----- ----- ----<br>---- --- --- ----- --- ---- ---- ------- ----- ---- -------<br>--- --- -- ----- -- --- ---- -- --- ---- -- ------ ------<br>--- ----- -- ----,66233,66232.19999998808,65691.617,65705.39999999106,65708.287,66241.825,,2,comes
screen,html.Screen,0_2_0_1_3,2021-11-05T13:00:40.080Z,,,,,,,,,,,,,,,,53,,,,,,,,,,,,,,398.27499999404245,,response,,,99,,,,,,Space,keypress(Space),,,,,---- -- ----- to ------ - ------- --- ----------<br>------------- ------ ------ ---- ---- ------- ----- -- ----<br>-------- ------- -- ---------- --- - --- ----- ----- ----<br>---- --- --- ----- --- ---- ---- ------- ----- ---- -------<br>--- --- -- ----- -- --- ---- -- --- ---- -- ------ ------<br>--- ----- -- ----,66641.09999999404,66640.09999999404,66225.155,66233.29999999702,66241.825,66658.612,,3,to
screen,html.Screen,0_2_0_1_4,2021-11-05T13:00:40.560Z,,,,,,,,,,,,,,,,53,,,,,,,,,,,,,,461.3880000000063,,response,,,99,,,,,,Space,keypress(Space),,,,,---- -- ----- -- having - ------- --- ----------<br>------------- ------ ------ ---- ---- ------- ----- -- ----<br>-------- ------- -- ---------- --- - --- ----- ----- ----<br>---- --- --- ----- --- ---- ---- ------- ----- ---- -------<br>--- --- -- ----- -- --- ---- -- --- ---- -- ------ ------<br>--- ----- -- ----,67121.29999999702,67120,66641.942,66641.59999999404,66658.612,67125.382,,4,having
screen,html.Screen,0_2_0_1_5,2021-11-05T13:00:41.016Z,,,,,,,,,,,,,,,,53,,,,,,,,,,,,,,450.71799999404175,,response,,,99,,,,,,Space,keypress(Space),,,,,---- -- ----- -- ------ a ------- --- ----------<br>------------- ------ ------ ---- ---- ------- ----- -- ----<br>-------- ------- -- ---------- --- - --- ----- ----- ----<br>---- --- --- ----- --- ---- ---- ------- ----- ---- -------<br>--- --- -- ----- -- --- ---- -- --- ---- -- ------ ------<br>--- ----- -- ----,67577,67576.09999999404,67108.712,67121.69999998808,67125.382,67592.216,,5,a
screen,html.Screen,0_2_0_1_6,2021-11-05T13:00:41.992Z,,,,,,,,,,,,,,,,53,,,,,,,,,,,,,,959.7839999999997,,response,,,99,,,,,,Space,keypress(Space),,,,,---- -- ----- -- ------ - lasting --- ----------<br>------------- ------ ------ ---- ---- ------- ----- -- ----<br>-------- ------- -- ---------- --- - --- ----- ----- ----<br>---- --- --- ----- --- ---- ---- ------- ----- ---- -------<br>--- --- -- ----- -- --- ---- -- --- ---- -- ------ ------<br>--- ----- -- ----,68553,68552,67575.545,67577.5,67592.216,68559.071,,6,lasting
screen,html.Screen,0_2_0_1_7,2021-11-05T13:00:42.536Z,,,,,,,,,,,,,,,,53,,,,,,,,,,,,,,536.9290000000037,,response,,,99,,,,,,Space,keypress(Space),,,,,---- -- ----- -- ------ - ------- and ----------<br>------------- ------ ------ ---- ---- ------- ----- -- ----<br>-------- ------- -- ---------- --- - --- ----- ----- ----<br>---- --- --- ----- --- ---- ---- ------- ----- ---- -------<br>--- --- -- ----- -- --- ---- -- --- ---- -- ------ ------<br>--- ----- -- ----,69096.89999999106,69096,68542.401,68553.29999999702,68559.071,69109.214,,7,and
screen,html.Screen,0_2_0_1_8,2021-11-05T13:00:42.944Z,,,,,,,,,,,,,,,,53,,,,,,,,,,,,,,394.6859999910521,,response,,,99,,,,,,Space,keypress(Space),,,,,---- -- ----- -- ------ - ------- --- fulfilling<br>------------- ------ ------ ---- ---- ------- ----- -- ----<br>-------- ------- -- ---------- --- - --- ----- ----- ----<br>---- --- --- ----- --- ---- ---- ------- ----- ---- -------<br>--- --- -- ----- -- --- ---- -- --- ---- -- ------ ------<br>--- ----- -- ----,69505.09999999404,69503.89999999106,69092.544,69097.19999998808,69109.214,69509.339,,8,fulfilling
screen,html.Screen,0_2_0_1_9,2021-11-05T13:00:43.416Z,,,,,,,,,,,,,,,,53,,,,,,,,,,,,,,466.5609999910521,,response,,,99,,,,,,Space,keypress(Space),,,,,"---- -- ----- -- ------ - ------- --- ----------<br>relationship, ------ ------ ---- ---- ------- ----- -- ----<br>-------- ------- -- ---------- --- - --- ----- ----- ----<br>---- --- --- ----- --- ---- ---- ------- ----- ---- -------<br>--- --- -- ----- -- --- ---- -- --- ---- -- ------ ------<br>--- ----- -- ----",69976.89999999106,69975.89999999106,69492.669,69505.39999999106,69509.339,69992.721,,9,"relationship,"
screen,html.Screen,0_2_0_1_10,2021-11-05T13:00:44.223Z,,,,,,,,,,,,,,,,53,,,,,,,,,,,,,,791.1789999910543,,response,,,99,,,,,,Space,keypress(Space),,,,,---- -- ----- -- ------ - ------- --- ----------<br>------------- common ------ ---- ---- ------- ----- -- ----<br>-------- ------- -- ---------- --- - --- ----- ----- ----<br>---- --- --- ----- --- ---- ---- ------- ----- ---- -------<br>--- --- -- ----- -- --- ---- -- --- ---- -- ------ ------<br>--- ----- -- ----,70784.79999999702,70783.89999999106,69976.052,69977.19999998808,69992.721,70793.116,,10,common
screen,html.Screen,0_2_0_1_11,2021-11-05T13:00:44.735Z,,,,,,,,,,,,,,,,53,,,,,,,,,,,,,,502.7839999910648,,response,,,99,,,,,,Space,keypress(Space),,,,,---- -- ----- -- ------ - ------- --- ----------<br>------------- ------ wisdom ---- ---- ------- ----- -- ----<br>-------- ------- -- ---------- --- - --- ----- ----- ----<br>---- --- --- ----- --- ---- ---- ------- ----- ---- -------<br>--- --- -- ----- -- --- ---- -- --- ---- -- ------ ------<br>--- ----- -- ----,71296.79999999702,71295.89999999106,70776.444,70785.09999999404,70793.116,71309.78,,11,wisdom
screen,html.Screen,0_2_0_1_12,2021-11-05T13:00:45.135Z,,,,,,,,,,,,,,,,53,,,,,,,,,,,,,,386.01999999702093,,response,,,99,,,,,,Space,keypress(Space),,,,,---- -- ----- -- ------ - ------- --- ----------<br>------------- ------ ------ says ---- ------- ----- -- ----<br>-------- ------- -- ---------- --- - --- ----- ----- ----<br>---- --- --- ----- --- ---- ---- ------- ----- ---- -------<br>--- --- -- ----- -- --- ---- -- --- ---- -- ------ ------<br>--- ----- -- ----,71696.59999999404,71695.79999999702,71293.11,71297,71309.78,71709.949,,12,says
screen,html.Screen,0_2_0_1_13,2021-11-05T13:00:45.511Z,,,,,,,,,,,,,,,,53,,,,,,,,,,,,,,361.8509999970265,,response,,,99,,,,,,Space,keypress(Space),,,,,---- -- ----- -- ------ - ------- --- ----------<br>------------- ------ ------ ---- that ------- ----- -- ----<br>-------- ------- -- ---------- --- - --- ----- ----- ----<br>---- --- --- ----- --- ---- ---- ------- ----- ---- -------<br>--- --- -- ----- -- --- ---- -- --- ---- -- ------ ------<br>--- ----- -- ----,72072.59999999404,72071.79999999702,71693.278,71696.89999999106,71709.949,72076.668,,13,that
screen,html.Screen,0_2_0_1_14,2021-11-05T13:00:46.767Z,,,,,,,,,,,,,,,,53,,,,,,,,,,,,,,1250.9319999940344,,response,,,99,,,,,,Space,keypress(Space),,,,,---- -- ----- -- ------ - ------- --- ----------<br>------------- ------ ------ ---- ---- feeling ----- -- ----<br>-------- ------- -- ---------- --- - --- ----- ----- ----<br>---- --- --- ----- --- ---- ---- ------- ----- ---- -------<br>--- --- -- ----- -- --- ---- -- --- ---- -- ------ ------<br>--- ----- -- ----,73328.39999999106,73327.59999999404,72059.998,72072.89999999106,72076.668,73343.615,,14,feeling
screen,html.Screen,0_2_0_1_15,2021-11-05T13:00:47.351Z,,,,,,,,,,,,,,,,53,,,,,,,,,,,,,,568.0849999880738,,response,,,99,,,,,,Space,keypress(Space),,,,,---- -- ----- -- ------ - ------- --- ----------<br>------------- ------ ------ ---- ---- ------- close -- ----<br>-------- ------- -- ---------- --- - --- ----- ----- ----<br>---- --- --- ----- --- ---- ---- ------- ----- ---- -------<br>--- --- -- ----- -- --- ---- -- --- ---- -- ------ ------<br>--- ----- -- ----,73912.59999999404,73911.69999998808,73326.945,73328.79999999702,73343.615,73927.105,,15,close
screen,html.Screen,0_2_0_1_16,2021-11-05T13:00:47.679Z,,,,,,,,,,,,,,,,53,,,,,,,,,,,,,,312.59499998808315,,response,,,99,,,,,,Space,keypress(Space),,,,,---- -- ----- -- ------ - ------- --- ----------<br>------------- ------ ------ ---- ---- ------- ----- to ----<br>-------- ------- -- ---------- --- - --- ----- ----- ----<br>---- --- --- ----- --- ---- ---- ------- ----- ---- -------<br>--- --- -- ----- -- --- ---- -- --- ---- -- ------ ------<br>--- ----- -- ----,74240.5,74239.69999998808,73910.435,73912.79999999702,73927.105,74243.894,,16,to
screen,html.Screen,0_2_0_1_17,2021-11-05T13:00:48.039Z,,,,,,,,,,,,,,,,53,,,,,,,,,,,,,,356.10599999999977,,response,,,99,,,,,,Space,keypress(Space),,,,,---- -- ----- -- ------ - ------- --- ----------<br>------------- ------ ------ ---- ---- ------- ----- -- your<br>-------- ------- -- ---------- --- - --- ----- ----- ----<br>---- --- --- ----- --- ---- ---- ------- ----- ---- -------<br>--- --- -- ----- -- --- ---- -- --- ---- -- ------ ------<br>--- ----- -- ----,74600.79999999702,74600,74227.224,74240.79999999702,74243.894,74610.695,,17,your
screen,html.Screen,0_2_0_1_18,2021-11-05T13:00:48.671Z,,,,,,,,,,,,,,,,53,,,,,,,,,,,,,,620.9049999940326,,response,,,99,,,,,,Space,keypress(Space),,,,,---- -- ----- -- ------ - ------- --- ----------<br>------------- ------ ------ ---- ---- ------- ----- -- ----<br>romantic ------- -- ---------- --- - --- ----- ----- ----<br>---- --- --- ----- --- ---- ---- ------- ----- ---- -------<br>--- --- -- ----- -- --- ---- -- --- ---- -- ------ ------<br>--- ----- -- ----,75232.39999999106,75231.59999999404,74594.024,74601.09999999404,74610.695,75244.135,,18,romantic
screen,html.Screen,0_2_0_1_19,2021-11-05T13:00:49.143Z,,,,,,,,,,,,,,,,53,,,,,,,,,,,,,,459.36500000000524,,response,,,99,,,,,,Space,keypress(Space),,,,,---- -- ----- -- ------ - ------- --- ----------<br>------------- ------ ------ ---- ---- ------- ----- -- ----<br>-------- partner -- ---------- --- - --- ----- ----- ----<br>---- --- --- ----- --- ---- ---- ------- ----- ---- -------<br>--- --- -- ----- -- --- ---- -- --- ---- -- ------ ------<br>--- ----- -- ----,75704.39999999106,75703.5,75227.465,75232.69999998808,75244.135,75710.934,,19,partner
screen,html.Screen,0_2_0_1_20,2021-11-05T13:00:49.535Z,,,,,,,,,,,,,,,,53,,,,,,,,,,,,,,384.56600000000617,,response,,,99,,,,,,Space,keypress(Space),,,,,---- -- ----- -- ------ - ------- --- ----------<br>------------- ------ ------ ---- ---- ------- ----- -- ----<br>-------- ------- is ---------- --- - --- ----- ----- ----<br>---- --- --- ----- --- ---- ---- ------- ----- ---- -------<br>--- --- -- ----- -- --- ---- -- --- ---- -- ------ ------<br>--- ----- -- ----,76096.29999999702,76095.5,75694.264,75704.69999998808,75710.934,76111.086,,20,is
screen,html.Screen,0_2_0_1_21,2021-11-05T13:00:49.855Z,,,,,,,,,,,,,,,,53,,,,,,,,,,,,,,304.4140000000043,,response,,,99,,,,,,Space,keypress(Space),,,,,---- -- ----- -- ------ - ------- --- ----------<br>------------- ------ ------ ---- ---- ------- ----- -- ----<br>-------- ------- -- paramount. --- - --- ----- ----- ----<br>---- --- --- ----- --- ---- ---- ------- ----- ---- -------<br>--- --- -- ----- -- --- ---- -- --- ---- -- ------ ------<br>--- ----- -- ----,76416.39999999106,76415.5,76094.415,76096.59999999404,76111.086,76427.78,,21,paramount.
screen,html.Screen,0_2_0_1_22,2021-11-05T13:00:50.471Z,,,,,,,,,,,,,,,,53,,,,,,,,,,,,,,603.7200000000012,,response,,,99,,,,,,Space,keypress(Space),,,,,---- -- ----- -- ------ - ------- --- ----------<br>------------- ------ ------ ---- ---- ------- ----- -- ----<br>-------- ------- -- ---------- But - --- ----- ----- ----<br>---- --- --- ----- --- ---- ---- ------- ----- ---- -------<br>--- --- -- ----- -- --- ---- -- --- ---- -- ------ ------<br>--- ----- -- ----,77032.29999999702,77031.5,76411.11,76416.89999999106,76427.78,77044.599,,22,But
screen,html.Screen,0_2_0_1_23,2021-11-05T13:00:52.319Z,,,,,,,,,,,,,,,,53,,,,,,,,,,,,,,1834.8009999910573,,response,,,99,,,,,,Space,keypress(Space),,,,,---- -- ----- -- ------ - ------- --- ----------<br>------------- ------ ------ ---- ---- ------- ----- -- ----<br>-------- ------- -- ---------- --- a --- ----- ----- ----<br>---- --- --- ----- --- ---- ---- ------- ----- ---- -------<br>--- --- -- ----- -- --- ---- -- --- ---- -- ------ ------<br>--- ----- -- ----,78880.29999999702,78879.39999999106,77027.929,77032.59999999404,77044.599,78895.133,,23,a
screen,html.Screen,0_2_0_1_24,2021-11-05T13:00:52.767Z,,,,,,,,,,,,,,,,53,,,,,,,,,,,,,,432.2669999910577,,response,,,99,,,,,,Space,keypress(Space),,,,,---- -- ----- -- ------ - ------- --- ----------<br>------------- ------ ------ ---- ---- ------- ----- -- ----<br>-------- ------- -- ---------- --- - new ----- ----- ----<br>---- --- --- ----- --- ---- ---- ------- ----- ---- -------<br>--- --- -- ----- -- --- ---- -- --- ---- -- ------ ------<br>--- ----- -- ----,79328.19999998808,79327.39999999106,78878.462,78880.59999999404,78895.133,79345.185,,24,new
screen,html.Screen,0_2_0_1_25,2021-11-05T13:00:53.351Z,,,,,,,,,,,,,,,,53,,,,,,,,,,,,,,566.2149999910616,,response,,,99,,,,,,Space,keypress(Space),,,,,---- -- ----- -- ------ - ------- --- ----------<br>------------- ------ ------ ---- ---- ------- ----- -- ----<br>-------- ------- -- ---------- --- - --- study ----- ----<br>---- --- --- ----- --- ---- ---- ------- ----- ---- -------<br>--- --- -- ----- -- --- ---- -- --- ---- -- ------ ------<br>--- ----- -- ----,79912.19999998808,79911.39999999106,79328.515,79328.5,79345.185,79928.598,,25,study
screen,html.Screen,0_2_0_1_26,2021-11-05T13:00:53.863Z,,,,,,,,,,,,,,,,53,,,,,,,,,,,,,,494.80199999106117,,response,,,99,,,,,,Space,keypress(Space),,,,,---- -- ----- -- ------ - ------- --- ----------<br>------------- ------ ------ ---- ---- ------- ----- -- ----<br>-------- ------- -- ---------- --- - --- ----- finds ----<br>---- --- --- ----- --- ---- ---- ------- ----- ---- -------<br>--- --- -- ----- -- --- ---- -- --- ---- -- ------ ------<br>--- ----- -- ----,80424.19999998808,80423.39999999106,79911.928,79912.39999999106,79928.598,80428.976,,26,finds
screen,html.Screen,0_2_0_1_27,2021-11-05T13:00:54.303Z,,,,,,,,,,,,,,,,53,,,,,,,,,,,,,,434.4239999910642,,response,,,99,,,,,,Space,keypress(Space),,,,,---- -- ----- -- ------ - ------- --- ----------<br>------------- ------ ------ ---- ---- ------- ----- -- ----<br>-------- ------- -- ---------- --- - --- ----- ----- that<br>---- --- --- ----- --- ---- ---- ------- ----- ---- -------<br>--- --- -- ----- -- --- ---- -- --- ---- -- ------ ------<br>--- ----- -- ----,80864.19999998808,80863.39999999106,80412.303,80424.39999999106,80428.976,80878.928,,27,that
screen,html.Screen,0_2_0_1_28,2021-11-05T13:00:54.711Z,,,,,,,,,,,,,,,,53,,,,,,,,,,,,,,392.3719999970199,,response,,,99,,,,,,Space,keypress(Space),,,,,---- -- ----- -- ------ - ------- --- ----------<br>------------- ------ ------ ---- ---- ------- ----- -- ----<br>-------- ------- -- ---------- --- - --- ----- ----- ----<br>it's --- --- ----- --- ---- ---- ------- ----- ---- -------<br>--- --- -- ----- -- --- ---- -- --- ---- -- ------ ------<br>--- ----- -- ----,81272.19999998808,81271.29999999702,80862.258,80864.39999999106,80878.928,81279.033,,28,it's
screen,html.Screen,0_2_0_1_29,2021-11-05T13:00:55.103Z,,,,,,,,,,,,,,,,53,,,,,,,,,,,,,,384.16699998808326,,response,,,99,,,,,,Space,keypress(Space),,,,,---- -- ----- -- ------ - ------- --- ----------<br>------------- ------ ------ ---- ---- ------- ----- -- ----<br>-------- ------- -- ---------- --- - --- ----- ----- ----<br>---- not --- ----- --- ---- ---- ------- ----- ---- -------<br>--- --- -- ----- -- --- ---- -- --- ---- -- ------ ------<br>--- ----- -- ----,81664,81663.19999998808,81262.363,81272.39999999106,81279.033,81679.178,,29,not
screen,html.Screen,0_2_0_1_30,2021-11-05T13:00:55.471Z,,,,,,,,,,,,,,,,53,,,,,,,,,,,,,,352.0219999880792,,response,,,99,,,,,,Space,keypress(Space),,,,,---- -- ----- -- ------ - ------- --- ----------<br>------------- ------ ------ ---- ---- ------- ----- -- ----<br>-------- ------- -- ---------- --- - --- ----- ----- ----<br>---- --- how ----- --- ---- ---- ------- ----- ---- -------<br>--- --- -- ----- -- --- ---- -- --- ---- -- ------ ------<br>--- ----- -- ----,82032.09999999404,82031.19999998808,81662.507,81664.29999999702,81679.178,82045.9,,30,how
screen,html.Screen,0_2_0_1_31,2021-11-05T13:00:55.855Z,,,,,,,,,,,,,,,,53,,,,,,,,,,,,,,369.2999999880849,,response,,,99,,,,,,Space,keypress(Space),,,,,---- -- ----- -- ------ - ------- --- ----------<br>------------- ------ ------ ---- ---- ------- ----- -- ----<br>-------- ------- -- ---------- --- - --- ----- ----- ----<br>---- --- --- close --- ---- ---- ------- ----- ---- -------<br>--- --- -- ----- -- --- ---- -- --- ---- -- ------ ------<br>--- ----- -- ----,82416,82415.19999998808,82029.23,82032.29999999702,82045.9,82429.376,,31,close
screen,html.Screen,0_2_0_1_32,2021-11-05T13:00:56.207Z,,,,,,,,,,,,,,,,53,,,,,,,,,,,,,,337.82399998807523,,response,,,99,,,,,,Space,keypress(Space),,,,,---- -- ----- -- ------ - ------- --- ----------<br>------------- ------ ------ ---- ---- ------- ----- -- ----<br>-------- ------- -- ---------- --- - --- ----- ----- ----<br>---- --- --- ----- you ---- ---- ------- ----- ---- -------<br>--- --- -- ----- -- --- ---- -- --- ---- -- ------ ------<br>--- ----- -- ----,82768,82767.19999998808,82412.705,82416.29999999702,82429.376,82779.425,,32,you
screen,html.Screen,0_2_0_1_33,2021-11-05T13:00:56.527Z,,,,,,,,,,,,,,,,53,,,,,,,,,,,,,,307.77499998807616,,response,,,99,,,,,,Space,keypress(Space),,,,,---- -- ----- -- ------ - ------- --- ----------<br>------------- ------ ------ ---- ---- ------- ----- -- ----<br>-------- ------- -- ---------- --- - --- ----- ----- ----<br>---- --- --- ----- --- feel ---- ------- ----- ---- -------<br>--- --- -- ----- -- --- ---- -- --- ---- -- ------ ------<br>--- ----- -- ----,83088.29999999702,83087.19999998808,82762.755,82770.59999999404,82779.425,83096.123,,33,feel
screen,html.Screen,0_2_0_1_34,2021-11-05T13:00:57.071Z,,,,,,,,,,,,,,,,53,,,,,,,,,,,,,,535.0769999880722,,response,,,99,,,,,,Space,keypress(Space),,,,,---- -- ----- -- ------ - ------- --- ----------<br>------------- ------ ------ ---- ---- ------- ----- -- ----<br>-------- ------- -- ---------- --- - --- ----- ----- ----<br>---- --- --- ----- --- ---- that ------- ----- ---- -------<br>--- --- -- ----- -- --- ---- -- --- ---- -- ------ ------<br>--- ----- -- ----,83631.89999999106,83631.19999998808,83079.454,83088.59999999404,83096.123,83646.343,,34,that
screen,html.Screen,0_2_0_1_35,2021-11-05T13:00:57.575Z,,,,,,,,,,,,,,,,53,,,,,,,,,,,,,,488.8569999880856,,response,,,99,,,,,,Space,keypress(Space),,,,,---- -- ----- -- ------ - ------- --- ----------<br>------------- ------ ------ ---- ---- ------- ----- -- ----<br>-------- ------- -- ---------- --- - --- ----- ----- ----<br>---- --- --- ----- --- ---- ---- matters ----- ---- -------<br>--- --- -- ----- -- --- ---- -- --- ---- -- ------ ------<br>--- ----- -- ----,84136,84135.19999998808,83629.672,83632.19999998808,83646.343,84146.476,,35,matters
screen,html.Screen,0_2_0_1_36,2021-11-05T13:00:58.399Z,,,,,,,,,,,,,,,,53,,,,,,,,,,,,,,813.0240000000049,,response,,,99,,,,,,Space,keypress(Space),,,,,"---- -- ----- -- ------ - ------- --- ----------<br>------------- ------ ------ ---- ---- ------- ----- -- ----<br>-------- ------- -- ---------- --- - --- ----- ----- ----<br>---- --- --- ----- --- ---- ---- ------- most, ---- -------<br>--- --- -- ----- -- --- ---- -- --- ---- -- ------ ------<br>--- ----- -- ----",84960.29999999702,84959.5,84129.805,84136.19999998808,84146.476,84963.261,,36,"most,"
screen,html.Screen,0_2_0_1_37,2021-11-05T13:00:58.823Z,,,,,,,,,,,,,,,,53,,,,,,,,,,,,,,419.83899999404093,,response,,,99,,,,,,Space,keypress(Space),,,,,---- -- ----- -- ------ - ------- --- ----------<br>------------- ------ ------ ---- ---- ------- ----- -- ----<br>-------- ------- -- ---------- --- - --- ----- ----- ----<br>---- --- --- ----- --- ---- ---- ------- ----- it's -------<br>--- --- -- ----- -- --- ---- -- --- ---- -- ------ ------<br>--- ----- -- ----,85383.89999999106,85383.09999999404,84946.591,84960.59999999404,84963.261,85396.817,,37,it's
screen,html.Screen,0_2_0_1_38,2021-11-05T13:00:59.190Z,,,,,,,,,,,,,,,,53,,,,,,,,,,,,,,354.18300000000454,,response,,,99,,,,,,Space,keypress(Space),,,,,---- -- ----- -- ------ - ------- --- ----------<br>------------- ------ ------ ---- ---- ------- ----- -- ----<br>-------- ------- -- ---------- --- - --- ----- ----- ----<br>---- --- --- ----- --- ---- ---- ------- ----- ---- whether<br>--- --- -- ----- -- --- ---- -- --- ---- -- ------ ------<br>--- ----- -- ----,85751.79999999702,85751,85380.146,85384.09999999404,85396.817,85763.528,,38,whether
screen,html.Screen,0_2_0_1_39,2021-11-05T13:00:59.559Z,,,,,,,,,,,,,,,,53,,,,,,,,,,,,,,355.4719999999943,,response,,,99,,,,,,Space,keypress(Space),,,,,---- -- ----- -- ------ - ------- --- ----------<br>------------- ------ ------ ---- ---- ------- ----- -- ----<br>-------- ------- -- ---------- --- - --- ----- ----- ----<br>---- --- --- ----- --- ---- ---- ------- ----- ---- -------<br>you --- -- ----- -- --- ---- -- --- ---- -- ------ ------<br>--- ----- -- ----,86120.29999999702,86119,85746.858,85752.09999999404,85763.528,86130.292,,39,you
screen,html.Screen,0_2_0_1_40,2021-11-05T13:00:59.886Z,,,,,,,,,,,,,,,,53,,,,,,,,,,,,,,316.80799999403825,,response,,,99,,,,,,Space,keypress(Space),,,,,---- -- ----- -- ------ - ------- --- ----------<br>------------- ------ ------ ---- ---- ------- ----- -- ----<br>-------- ------- -- ---------- --- - --- ----- ----- ----<br>---- --- --- ----- --- ---- ---- ------- ----- ---- -------<br>--- are -- ----- -- --- ---- -- --- ---- -- ------ ------<br>--- ----- -- ----,86447.79999999702,86447.09999999404,86113.622,86120.5,86130.292,86463.562,,40,are
screen,html.Screen,0_2_0_1_41,2021-11-05T13:01:00.206Z,,,,,,,,,,,,,,,,53,,,,,,,,,,,,,,303.43799999999464,,response,,,99,,,,,,Space,keypress(Space),,,,,---- -- ----- -- ------ - ------- --- ----------<br>------------- ------ ------ ---- ---- ------- ----- -- ----<br>-------- ------- -- ---------- --- - --- ----- ----- ----<br>---- --- --- ----- --- ---- ---- ------- ----- ---- -------<br>--- --- as ----- -- --- ---- -- --- ---- -- ------ ------<br>--- ----- -- ----,86767.69999998808,86767,86446.894,86448.09999999404,86463.562,86780.438,,41,as
screen,html.Screen,0_2_0_1_42,2021-11-05T13:01:00.566Z,,,,,,,,,,,,,,,,53,,,,,,,,,,,,,,346.56200000000536,,response,,,99,,,,,,Space,keypress(Space),,,,,---- -- ----- -- ------ - ------- --- ----------<br>------------- ------ ------ ---- ---- ------- ----- -- ----<br>-------- ------- -- ---------- --- - --- ----- ----- ----<br>---- --- --- ----- --- ---- ---- ------- ----- ---- -------<br>--- --- -- close -- --- ---- -- --- ---- -- ------ ------<br>--- ----- -- ----,87127.79999999702,87127,86763.767,86768,86780.438,87130.624,,42,close
screen,html.Screen,0_2_0_1_43,2021-11-05T13:01:00.942Z,,,,,,,,,,,,,,,,53,,,,,,,,,,,,,,372.37600000000384,,response,,,99,,,,,,Space,keypress(Space),,,,,---- -- ----- -- ------ - ------- --- ----------<br>------------- ------ ------ ---- ---- ------- ----- -- ----<br>-------- ------- -- ---------- --- - --- ----- ----- ----<br>---- --- --- ----- --- ---- ---- ------- ----- ---- -------<br>--- --- -- ----- as --- ---- -- --- ---- -- ------ ------<br>--- ----- -- ----,87503.79999999702,87503,87113.952,87128,87130.624,87513.84,,43,as
screen,html.Screen,0_2_0_1_44,2021-11-05T13:01:01.270Z,,,,,,,,,,,,,,,,53,,,,,,,,,,,,,,317.1600000000035,,response,,,99,,,,,,Space,keypress(Space),,,,,---- -- ----- -- ------ - ------- --- ----------<br>------------- ------ ------ ---- ---- ------- ----- -- ----<br>-------- ------- -- ---------- --- - --- ----- ----- ----<br>---- --- --- ----- --- ---- ---- ------- ----- ---- -------<br>--- --- -- ----- -- you ---- -- --- ---- -- ------ ------<br>--- ----- -- ----,87831.69999998808,87831,87497.172,87504.09999999404,87513.84,87847.469,,44,you
screen,html.Screen,0_2_0_1_45,2021-11-05T13:01:01.630Z,,,,,,,,,,,,,,,,53,,,,,,,,,,,,,,343.5310000000027,,response,,,99,,,,,,Space,keypress(Space),,,,,---- -- ----- -- ------ - ------- --- ----------<br>------------- ------ ------ ---- ---- ------- ----- -- ----<br>-------- ------- -- ---------- --- - --- ----- ----- ----<br>---- --- --- ----- --- ---- ---- ------- ----- ---- -------<br>--- --- -- ----- -- --- want -- --- ---- -- ------ ------<br>--- ----- -- ----,88191.69999998808,88191,87830.797,87832,87847.469,88197.514,,45,want
screen,html.Screen,0_2_0_1_46,2021-11-05T13:01:01.990Z,,,,,,,,,,,,,,,,53,,,,,,,,,,,,,,353.3859999910637,,response,,,99,,,,,,Space,keypress(Space),,,,,---- -- ----- -- ------ - ------- --- ----------<br>------------- ------ ------ ---- ---- ------- ----- -- ----<br>-------- ------- -- ---------- --- - --- ----- ----- ----<br>---- --- --- ----- --- ---- ---- ------- ----- ---- -------<br>--- --- -- ----- -- --- ---- to --- ---- -- ------ ------<br>--- ----- -- ----,88551.69999998808,88550.89999999106,88180.843,88191.89999999106,88197.514,88564.238,,46,to
screen,html.Screen,0_2_0_1_47,2021-11-05T13:01:02.366Z,,,,,,,,,,,,,,,,53,,,,,,,,,,,,,,362.66199999106175,,response,,,99,,,,,,Space,keypress(Space),,,,,"---- -- ----- -- ------ - ------- --- ----------<br>------------- ------ ------ ---- ---- ------- ----- -- ----<br>-------- ------- -- ---------- --- - --- ----- ----- ----<br>---- --- --- ----- --- ---- ---- ------- ----- ---- -------<br>--- --- -- ----- -- --- ---- -- be, ---- -- ------ ------<br>--- ----- -- ----",88927.59999999404,88926.89999999106,88547.568,88551.89999999106,88564.238,88931.05,,47,"be,"
screen,html.Screen,0_2_0_1_48,2021-11-05T13:01:02.726Z,,,,,,,,,,,,,,,,53,,,,,,,,,,,,,,355.8499999910564,,response,,,99,,,,,,Space,keypress(Space),,,,,---- -- ----- -- ------ - ------- --- ----------<br>------------- ------ ------ ---- ---- ------- ----- -- ----<br>-------- ------- -- ---------- --- - --- ----- ----- ----<br>---- --- --- ----- --- ---- ---- ------- ----- ---- -------<br>--- --- -- ----- -- --- ---- -- --- even -- ------ ------<br>--- ----- -- ----,89287.69999998808,89286.89999999106,88914.379,88927.89999999106,88931.05,89297.647,,48,even
screen,html.Screen,0_2_0_1_49,2021-11-05T13:01:03.078Z,,,,,,,,,,,,,,,,53,,,,,,,,,,,,,,341.05299998808187,,response,,,99,,,,,,Space,keypress(Space),,,,,---- -- ----- -- ------ - ------- --- ----------<br>------------- ------ ------ ---- ---- ------- ----- -- ----<br>-------- ------- -- ---------- --- - --- ----- ----- ----<br>---- --- --- ----- --- ---- ---- ------- ----- ---- -------<br>--- --- -- ----- -- --- ---- -- --- ---- if ------ ------<br>--- ----- -- ----,89639.5,89638.69999998808,89280.979,89287.89999999106,89297.647,89647.929,,49,if
screen,html.Screen,0_2_0_1_50,2021-11-05T13:01:03.430Z,,,,,,,,,,,,,,,,53,,,,,,,,,,,,,,342.87099999701604,,response,,,99,,,,,,Space,keypress(Space),,,,,---- -- ----- -- ------ - ------- --- ----------<br>------------- ------ ------ ---- ---- ------- ----- -- ----<br>-------- ------- -- ---------- --- - --- ----- ----- ----<br>---- --- --- ----- --- ---- ---- ------- ----- ---- -------<br>--- --- -- ----- -- --- ---- -- --- ---- -- that's ------<br>--- ----- -- ----,89991.69999998808,89990.79999999702,89631.257,89639.79999999702,89647.929,89997.992,,50,that's
screen,html.Screen,0_2_0_1_51,2021-11-05T13:01:03.814Z,,,,,,,,,,,,,,,,53,,,,,,,,,,,,,,376.8079999970214,,response,,,99,,,,,,Space,keypress(Space),,,,,---- -- ----- -- ------ - ------- --- ----------<br>------------- ------ ------ ---- ---- ------- ----- -- ----<br>-------- ------- -- ---------- --- - --- ----- ----- ----<br>---- --- --- ----- --- ---- ---- ------- ----- ---- -------<br>--- --- -- ----- -- --- ---- -- --- ---- -- ------ really<br>--- ----- -- ----,90375.5,90374.79999999702,89981.321,89991.79999999702,89997.992,90381.367,,51,really
screen,html.Screen,0_2_0_1_52,2021-11-05T13:01:04.174Z,,,,,,,,,,,,,,,,53,,,,,,,,,,,,,,353.4329999970214,,response,,,99,,,,,,Space,keypress(Space),,,,,---- -- ----- -- ------ - ------- --- ----------<br>------------- ------ ------ ---- ---- ------- ----- -- ----<br>-------- ------- -- ---------- --- - --- ----- ----- ----<br>---- --- --- ----- --- ---- ---- ------- ----- ---- -------<br>--- --- -- ----- -- --- ---- -- --- ---- -- ------ ------<br>not ----- -- ----,90735.59999999404,90734.79999999702,90364.697,90375.89999999106,90381.367,90748.177,,52,not
screen,html.Screen,0_2_0_1_53,2021-11-05T13:01:04.638Z,,,,,,,,,,,,,,,,53,,,,,,,,,,,,,,450.6229999970237,,response,,,99,,,,,,Space,keypress(Space),,,,,---- -- ----- -- ------ - ------- --- ----------<br>------------- ------ ------ ---- ---- ------- ----- -- ----<br>-------- ------- -- ---------- --- - --- ----- ----- ----<br>---- --- --- ----- --- ---- ---- ------- ----- ---- -------<br>--- --- -- ----- -- --- ---- -- --- ---- -- ------ ------<br>--- close -- ----,91199.59999999404,91198.79999999702,90731.506,90735.79999999702,90748.177,91214.929,,53,close
screen,html.Screen,0_2_0_1_54,2021-11-05T13:01:04.998Z,,,,,,,,,,,,,,,,53,,,,,,,,,,,,,,343.77099998807535,,response,,,99,,,,,,Space,keypress(Space),,,,,---- -- ----- -- ------ - ------- --- ----------<br>------------- ------ ------ ---- ---- ------- ----- -- ----<br>-------- ------- -- ---------- --- - --- ----- ----- ----<br>---- --- --- ----- --- ---- ---- ------- ----- ---- -------<br>--- --- -- ----- -- --- ---- -- --- ---- -- ------ ------<br>--- ----- at ----,91559.59999999404,91558.69999998808,91198.259,91199.79999999702,91214.929,91565.028,,54,at
screen,html.Screen,0_2_0_1_55,2021-11-05T13:01:05.406Z,,,,,,,,,,,,,,,,53,,,,,,,,,,,,,,401.67199998807337,,response,,,99,,,,,,Space,keypress(Space),,,,,---- -- ----- -- ------ - ------- --- ----------<br>------------- ------ ------ ---- ---- ------- ----- -- ----<br>-------- ------- -- ---------- --- - --- ----- ----- ----<br>---- --- --- ----- --- ---- ---- ------- ----- ---- -------<br>--- --- -- ----- -- --- ---- -- --- ---- -- ------ ------<br>--- ----- -- all.,91967.5,91966.69999998808,91548.358,91559.79999999702,91565.028,91981.802,,55,all.
Item 99,flow.Loop,0_2_0_1,2021-11-05T13:01:05.411Z,,,,,,,,,,,,,,,,,,,,,,,,,,,,,,28575.84799998808,,completion,,,,D,,,,,,,,,,silence,,91972.09999999404,91966.69999998808,63374.183,63380.5,63390.852,91981.802,,,
Question 1,html.Screen,0_2_0_2,2021-11-05T13:01:11.504Z,,,,,,,,,,,,,,,,,,,,,,,,,,,true,FALSE,,6082.198000000004,,response,,,99,D,,,,,FALSE,click #choice-2,,,,silence,,98065.39999999106,98064,91965.132,91972.39999999106,91981.802,98066.683,,,
Question 2,html.Screen,0_2_0_3,2021-11-05T13:01:16.774Z,,,,,,,,,,,,,,,,,,,,,,,,,,,true,TRUE,,5267.716999991055,,response,,,99,D,,,,,TRUE,click #choice-1,,,,silence,,103335.59999999404,103334.39999999106,98050.013,98065.59999999404,98066.683,103351.419,,,
Item 99,flow.Sequence,0_2_0,2021-11-05T13:01:16.775Z,,,,,,,,,,,,,,,,,,,,,,,,,,,,,,49946.07499999106,,completion,,,,,,,,,,,,,,,,103336.09999999404,103334.39999999106,53371.655,53381.39999999106,53388.325,103351.419,,,
Holding screen,html.Screen,0_2_1_0,2021-11-05T13:01:26.777Z,,,,,,,,,,,,,,,,,,,,,,,,,,,,,,10002.436000000002,,timeout,,,,,,,,,,,,,,,,113338.69999998808,113337.185,103334.748,103336.5,103351.419,113353.855,,,
screen,html.Screen,0_2_1_1_0,2021-11-05T13:01:27.926Z,,,,,,,,,,,,,,,,54,,,,,,,,,,,,,,1132.145000000004,,response,,,100,,,,,,Space,keypress(Space),,,,,At --- ---- --- ------ ----- ------- ---- -- --- ------- --<br>------- ---------- ------ -- ----- -- ----- -- ---- ------<br>--- ----- --- --- ------ -------- ----- --- ------ ----- --<br>----- ----- ---------- --- --- ------ ------ ---- -- ------<br>------- --- ------ ----- --- ---- ------- -- ---- --- --<br>------- ------,114487,114486,113337.185,113339.09999999404,113353.855,114487.633,,0,At
screen,html.Screen,0_2_1_1_1,2021-11-05T13:01:28.997Z,,,,,,,,,,,,,,,,54,,,,,,,,,,,,,,1069.7669999910577,,response,,,100,,,,,,Space,keypress(Space),,,,,-- the ---- --- ------ ----- ------- ---- -- --- ------- --<br>------- ---------- ------ -- ----- -- ----- -- ---- ------<br>--- ----- --- --- ------ -------- ----- --- ------ ----- --<br>----- ----- ---------- --- --- ------ ------ ---- -- ------<br>------- --- ------ ----- --- ---- ------- -- ---- --- --<br>------- ------,115558.19999998808,115557.39999999106,114470.962,114487.19999998808,114487.633,115570.986,,1,the
screen,html.Screen,0_2_1_1_2,2021-11-05T13:01:29.693Z,,,,,,,,,,,,,,,,54,,,,,,,,,,,,,,682.3139999970153,,response,,,100,,,,,,Space,keypress(Space),,,,,-- --- time --- ------ ----- ------- ---- -- --- ------- --<br>------- ---------- ------ -- ----- -- ----- -- ---- ------<br>--- ----- --- --- ------ -------- ----- --- ------ ----- --<br>----- ----- ---------- --- --- ------ ------ ---- -- ------<br>------- --- ------ ----- --- ---- ------- -- ---- --- --<br>------- ------,116254.09999999404,116253.29999999702,115554.317,115558.39999999106,115570.986,116271.377,,2,time
screen,html.Screen,0_2_1_1_3,2021-11-05T13:01:30.237Z,,,,,,,,,,,,,,,,54,,,,,,,,,,,,,,526.0229999910662,,response,,,100,,,,,,Space,keypress(Space),,,,,-- --- ---- the ------ ----- ------- ---- -- --- ------- --<br>------- ---------- ------ -- ----- -- ----- -- ---- ------<br>--- ----- --- --- ------ -------- ----- --- ------ ----- --<br>----- ----- ---------- --- --- ------ ------ ---- -- ------<br>------- --- ------ ----- --- ---- ------- -- ---- --- --<br>------- ------,116798.19999998808,116797.39999999106,116254.706,116254.39999999106,116271.377,116804.76,,3,the
screen,html.Screen,0_2_1_1_4,2021-11-05T13:01:30.685Z,,,,,,,,,,,,,,,,54,,,,,,,,,,,,,,440.63999999106454,,response,,,100,,,,,,Space,keypress(Space),,,,,-- --- ---- --- French ----- ------- ---- -- --- ------- --<br>------- ---------- ------ -- ----- -- ----- -- ---- ------<br>--- ----- --- --- ------ -------- ----- --- ------ ----- --<br>----- ----- ---------- --- --- ------ ------ ---- -- ------<br>------- --- ------ ----- --- ---- ------- -- ---- --- --<br>------- ------,117246.09999999404,117245.39999999106,116788.09,116798.59999999404,116804.76,117254.995,,4,French
screen,html.Screen,0_2_1_1_5,2021-11-05T13:01:31.061Z,,,,,,,,,,,,,,,,54,,,,,,,,,,,,,,366.2049999880837,,response,,,100,,,,,,Space,keypress(Space),,,,,-- --- ---- --- ------ crown ------- ---- -- --- ------- --<br>------- ---------- ------ -- ----- -- ----- -- ---- ------<br>--- ----- --- --- ------ -------- ----- --- ------ ----- --<br>----- ----- ---------- --- --- ------ ------ ---- -- ------<br>------- --- ------ ----- --- ---- ------- -- ---- --- --<br>------- ------,117622.5,117621.19999998808,117238.324,117246.39999999106,117254.995,117638.435,,5,crown
screen,html.Screen,0_2_1_1_6,2021-11-05T13:01:31.461Z,,,,,,,,,,,,,,,,54,,,,,,,,,,,,,,382.7649999880814,,response,,,100,,,,,,Space,keypress(Space),,,,,-- --- ---- --- ------ ----- secured ---- -- --- ------- --<br>------- ---------- ------ -- ----- -- ----- -- ---- ------<br>--- ----- --- --- ------ -------- ----- --- ------ ----- --<br>----- ----- ---------- --- --- ------ ------ ---- -- ------<br>------- --- ------ ----- --- ---- ------- -- ---- --- --<br>------- ------,118022.09999999404,118021.19999998808,117621.764,117622.69999998808,117638.435,118038.499,,6,secured
screen,html.Screen,0_2_1_1_7,2021-11-05T13:01:31.805Z,,,,,,,,,,,,,,,,54,,,,,,,,,,,,,,326.8009999970236,,response,,,100,,,,,,Space,keypress(Space),,,,,-- --- ---- --- ------ ----- ------- much -- --- ------- --<br>------- ---------- ------ -- ----- -- ----- -- ---- ------<br>--- ----- --- --- ------ -------- ----- --- ------ ----- --<br>----- ----- ---------- --- --- ------ ------ ---- -- ------<br>------- --- ------ ----- --- ---- ------- -- ---- --- --<br>------- ------,118366.09999999404,118365.29999999702,118021.829,118022.29999999702,118038.499,118371.897,,7,much
screen,html.Screen,0_2_1_1_8,2021-11-05T13:01:32.253Z,,,,,,,,,,,,,,,,54,,,,,,,,,,,,,,441.40299999702256,,response,,,100,,,,,,Space,keypress(Space),,,,,-- --- ---- --- ------ ----- ------- ---- of --- ------- --<br>------- ---------- ------ -- ----- -- ----- -- ---- ------<br>--- ----- --- --- ------ -------- ----- --- ------ ----- --<br>----- ----- ---------- --- --- ------ ------ ---- -- ------<br>------- --- ------ ----- --- ---- ------- -- ---- --- --<br>------- ------,118814,118813.29999999702,118355.227,118366.29999999702,118371.897,118821.929,,8,of
screen,html.Screen,0_2_1_1_9,2021-11-05T13:01:32.549Z,,,,,,,,,,,,,,,,54,,,,,,,,,,,,,,287.27099998807535,,response,,,100,,,,,,Space,keypress(Space),,,,,-- --- ---- --- ------ ----- ------- ---- -- its ------- --<br>------- ---------- ------ -- ----- -- ----- -- ---- ------<br>--- ----- --- --- ------ -------- ----- --- ------ ----- --<br>----- ----- ---------- --- --- ------ ------ ---- -- ------<br>------- --- ------ ----- --- ---- ------- -- ---- --- --<br>------- ------,119110,119109.19999998808,118805.26,118814.29999999702,118821.929,119122.198,,9,its
screen,html.Screen,0_2_1_1_10,2021-11-05T13:01:32.869Z,,,,,,,,,,,,,,,,54,,,,,,,,,,,,,,307.0019999880751,,response,,,100,,,,,,Space,keypress(Space),,,,,-- --- ---- --- ------ ----- ------- ---- -- --- revenue --<br>------- ---------- ------ -- ----- -- ----- -- ---- ------<br>--- ----- --- --- ------ -------- ----- --- ------ ----- --<br>----- ----- ---------- --- --- ------ ------ ---- -- ------<br>------- --- ------ ----- --- ---- ------- -- ---- --- --<br>------- ------,119430,119429.19999998808,119105.526,119110.19999998808,119122.198,119438.86,,10,revenue
screen,html.Screen,0_2_1_1_11,2021-11-05T13:01:33.301Z,,,,,,,,,,,,,,,,54,,,,,,,,,,,,,,422.3399999880785,,response,,,100,,,,,,Space,keypress(Space),,,,,-- --- ---- --- ------ ----- ------- ---- -- --- ------- by<br>------- ---------- ------ -- ----- -- ----- -- ---- ------<br>--- ----- --- --- ------ -------- ----- --- ------ ----- --<br>----- ----- ---------- --- --- ------ ------ ---- -- ------<br>------- --- ------ ----- --- ---- ------- -- ---- --- --<br>------- ------,119862,119861.19999998808,119422.19,119430.19999998808,119438.86,119872.334,,11,by
screen,html.Screen,0_2_1_1_12,2021-11-05T13:01:33.725Z,,,,,,,,,,,,,,,,54,,,,,,,,,,,,,,412.765999994037,,response,,,100,,,,,,Space,keypress(Space),,,,,-- --- ---- --- ------ ----- ------- ---- -- --- ------- --<br>issuing ---------- ------ -- ----- -- ----- -- ---- ------<br>--- ----- --- --- ------ -------- ----- --- ------ ----- --<br>----- ----- ---------- --- --- ------ ------ ---- -- ------<br>------- --- ------ ----- --- ---- ------- -- ---- --- --<br>------- ------,120285.89999999106,120285.09999999404,119855.663,119862.19999998808,119872.334,120289.067,,12,issuing
screen,html.Screen,0_2_1_1_13,2021-11-05T13:01:34.424Z,,,,,,,,,,,,,,,,54,,,,,,,,,,,,,,692.0329999940441,,response,,,100,,,,,,Space,keypress(Space),,,,,-- --- ---- --- ------ ----- ------- ---- -- --- ------- --<br>------- government ------ -- ----- -- ----- -- ---- ------<br>--- ----- --- --- ------ -------- ----- --- ------ ----- --<br>----- ----- ---------- --- --- ------ ------ ---- -- ------<br>------- --- ------ ----- --- ---- ------- -- ---- --- --<br>------- ------,120981.89999999106,120981.09999999404,120272.397,120286.09999999404,120289.067,120989.14,,13,government
screen,html.Screen,0_2_1_1_14,2021-11-05T13:01:34.816Z,,,,,,,,,,,,,,,,54,,,,,,,,,,,,,,383.9599999940401,,response,,,100,,,,,,Space,keypress(Space),,,,,-- --- ---- --- ------ ----- ------- ---- -- --- ------- --<br>------- ---------- bonds. -- ----- -- ----- -- ---- ------<br>--- ----- --- --- ------ -------- ----- --- ------ ----- --<br>----- ----- ---------- --- --- ------ ------ ---- -- ------<br>------- --- ------ ----- --- ---- ------- -- ---- --- --<br>------- ------,121373.89999999106,121373.09999999404,120972.471,120982.19999998808,120989.14,121389.415,,14,bonds.
screen,html.Screen,0_2_1_1_15,2021-11-05T13:01:35.464Z,,,,,,,,,,,,,,,,54,,,,,,,,,,,,,,631.5850000000064,,response,,,100,,,,,,Space,keypress(Space),,,,,-- --- ---- --- ------ ----- ------- ---- -- --- ------- --<br>------- ---------- ------ In ----- -- ----- -- ---- ------<br>--- ----- --- --- ------ -------- ----- --- ------ ----- --<br>----- ----- ---------- --- --- ------ ------ ---- -- ------<br>------- --- ------ ----- --- ---- ------- -- ---- --- --<br>------- ------,122021.89999999106,122021,121372.744,121374.09999999404,121389.415,122039.566,,15,In
screen,html.Screen,0_2_1_1_16,2021-11-05T13:01:36.536Z,,,,,,,,,,,,,,,,54,,,,,,,,,,,,,,1053.4339999999938,,response,,,100,,,,,,Space,keypress(Space),,,,,"-- --- ---- --- ------ ----- ------- ---- -- --- ------- --<br>------- ---------- ------ -- 1727, -- ----- -- ---- ------<br>--- ----- --- --- ------ -------- ----- --- ------ ----- --<br>----- ----- ---------- --- --- ------ ------ ---- -- ------<br>------- --- ------ ----- --- ---- ------- -- ---- --- --<br>------- ------",123093.79999999702,123093,122022.895,122022.29999999702,122039.566,123106.165,,16,"1727,"
screen,html.Screen,0_2_1_1_17,2021-11-05T13:01:36.968Z,,,,,,,,,,,,,,,,54,,,,,,,,,,,,,,418.7349999910657,,response,,,100,,,,,,Space,keypress(Space),,,,,-- --- ---- --- ------ ----- ------- ---- -- --- ------- --<br>------- ---------- ------ -- ----- in ----- -- ---- ------<br>--- ----- --- --- ------ -------- ----- --- ------ ----- --<br>----- ----- ---------- --- --- ------ ------ ---- -- ------<br>------- --- ------ ----- --- ---- ------- -- ---- --- --<br>------- ------,123525.69999998808,123524.89999999106,123089.497,123094.09999999404,123106.165,123540.022,,17,in
screen,html.Screen,0_2_1_1_18,2021-11-05T13:01:38.017Z,,,,,,,,,,,,,,,,54,,,,,,,,,,,,,,1033.377999991062,,response,,,100,,,,,,Space,keypress(Space),,,,,-- --- ---- --- ------ ----- ------- ---- -- --- ------- --<br>------- ---------- ------ -- ----- -- order -- ---- ------<br>--- ----- --- --- ------ -------- ----- --- ------ ----- --<br>----- ----- ---------- --- --- ------ ------ ---- -- ------<br>------- --- ------ ----- --- ---- ------- -- ---- --- --<br>------- ------,124574.29999999702,124573.39999999106,123523.35,123526,123540.022,124590.093,,18,order
screen,html.Screen,0_2_1_1_19,2021-11-05T13:01:38.392Z,,,,,,,,,,,,,,,,54,,,,,,,,,,,,,,358.8069999910658,,response,,,100,,,,,,Space,keypress(Space),,,,,-- --- ---- --- ------ ----- ------- ---- -- --- ------- --<br>------- ---------- ------ -- ----- -- ----- to ---- ------<br>--- ----- --- --- ------ -------- ----- --- ------ ----- --<br>----- ----- ---------- --- --- ------ ------ ---- -- ------<br>------- --- ------ ----- --- ---- ------- -- ---- --- --<br>------- ------,124949.59999999404,124948.89999999106,124573.423,124574.59999999404,124590.093,124957.055,,19,to
screen,html.Screen,0_2_1_1_20,2021-11-05T13:01:38.768Z,,,,,,,,,,,,,,,,54,,,,,,,,,,,,,,367.8449999910663,,response,,,100,,,,,,Space,keypress(Space),,,,,-- --- ---- --- ------ ----- ------- ---- -- --- ------- --<br>------- ---------- ------ -- ----- -- ----- -- save ------<br>--- ----- --- --- ------ -------- ----- --- ------ ----- --<br>----- ----- ---------- --- --- ------ ------ ---- -- ------<br>------- --- ------ ----- --- ---- ------- -- ---- --- --<br>------- ------,125325.59999999404,125324.89999999106,124940.383,124949.89999999106,124957.055,125340.386,,20,save
screen,html.Screen,0_2_1_1_21,2021-11-05T13:01:39.544Z,,,,,,,,,,,,,,,,54,,,,,,,,,,,,,,760.5139999910607,,response,,,100,,,,,,Space,keypress(Space),,,,,"-- --- ---- --- ------ ----- ------- ---- -- --- ------- --<br>------- ---------- ------ -- ----- -- ----- -- ---- money,<br>--- ----- --- --- ------ -------- ----- --- ------ ----- --<br>----- ----- ---------- --- --- ------ ------ ---- -- ------<br>------- --- ------ ----- --- ---- ------- -- ---- --- --<br>------- ------",126101.59999999404,126100.89999999106,125323.716,125325.89999999106,125340.386,126107.226,,21,"money,"
screen,html.Screen,0_2_1_1_22,2021-11-05T13:01:39.872Z,,,,,,,,,,,,,,,,54,,,,,,,,,,,,,,321.57399999702466,,response,,,100,,,,,,Space,keypress(Space),,,,,-- --- ---- --- ------ ----- ------- ---- -- --- ------- --<br>------- ---------- ------ -- ----- -- ----- -- ---- ------<br>the ----- --- --- ------ -------- ----- --- ------ ----- --<br>----- ----- ---------- --- --- ------ ------ ---- -- ------<br>------- --- ------ ----- --- ---- ------- -- ---- --- --<br>------- ------,126429.69999998808,126428.79999999702,126090.556,126101.89999999106,126107.226,126440.47,,22,the
screen,html.Screen,0_2_1_1_23,2021-11-05T13:01:40.184Z,,,,,,,,,,,,,,,,54,,,,,,,,,,,,,,300.3299999970186,,response,,,100,,,,,,Space,keypress(Space),,,,,-- --- ---- --- ------ ----- ------- ---- -- --- ------- --<br>------- ---------- ------ -- ----- -- ----- -- ---- ------<br>--- state --- --- ------ -------- ----- --- ------ ----- --<br>----- ----- ---------- --- --- ------ ------ ---- -- ------<br>------- --- ------ ----- --- ---- ------- -- ---- --- --<br>------- ------,126741.59999999404,126740.79999999702,126423.802,126429.79999999702,126440.47,126757.446,,23,state
screen,html.Screen,0_2_1_1_24,2021-11-05T13:01:40.808Z,,,,,,,,,,,,,,,,54,,,,,,,,,,,,,,607.2539999880828,,response,,,100,,,,,,Space,keypress(Space),,,,,-- --- ---- --- ------ ----- ------- ---- -- --- ------- --<br>------- ---------- ------ -- ----- -- ----- -- ---- ------<br>--- ----- cut --- ------ -------- ----- --- ------ ----- --<br>----- ----- ---------- --- --- ------ ------ ---- -- ------<br>------- --- ------ ----- --- ---- ------- -- ---- --- --<br>------- ------,127365.59999999404,127364.69999998808,126740.775,126741.79999999702,126757.446,127374.21,,24,cut
screen,html.Screen,0_2_1_1_25,2021-11-05T13:01:42.296Z,,,,,,,,,,,,,,,,54,,,,,,,,,,,,,,1478.4899999880727,,response,,,100,,,,,,Space,keypress(Space),,,,,-- --- ---- --- ------ ----- ------- ---- -- --- ------- --<br>------- ---------- ------ -- ----- -- ----- -- ---- ------<br>--- ----- --- the ------ -------- ----- --- ------ ----- --<br>----- ----- ---------- --- --- ------ ------ ---- -- ------<br>------- --- ------ ----- --- ---- ------- -- ---- --- --<br>------- ------,128853.39999999106,128852.69999998808,127357.54,127366,127374.21,128857.865,,25,the
screen,html.Screen,0_2_1_1_26,2021-11-05T13:01:42.976Z,,,,,,,,,,,,,,,,54,,,,,,,,,,,,,,674.7349999940343,,response,,,100,,,,,,Space,keypress(Space),,,,,-- --- ---- --- ------ ----- ------- ---- -- --- ------- --<br>------- ---------- ------ -- ----- -- ----- -- ---- ------<br>--- ----- --- --- bonds' -------- ----- --- ------ ----- --<br>----- ----- ---------- --- --- ------ ------ ---- -- ------<br>------- --- ------ ----- --- ---- ------- -- ---- --- --<br>------- ------,129533.5,129532.59999999404,128841.195,128853.69999998808,128857.865,129541.395,,26,bonds'
screen,html.Screen,0_2_1_1_27,2021-11-05T13:01:43.536Z,,,,,,,,,,,,,,,,54,,,,,,,,,,,,,,551.1049999999959,,response,,,100,,,,,,Space,keypress(Space),,,,,-- --- ---- --- ------ ----- ------- ---- -- --- ------- --<br>------- ---------- ------ -- ----- -- ----- -- ---- ------<br>--- ----- --- --- ------ interest ----- --- ------ ----- --<br>----- ----- ---------- --- --- ------ ------ ---- -- ------<br>------- --- ------ ----- --- ---- ------- -- ---- --- --<br>------- ------,130093.39999999106,130092.5,129524.725,129533.69999998808,129541.395,130108.184,,27,interest
screen,html.Screen,0_2_1_1_28,2021-11-05T13:01:43.960Z,,,,,,,,,,,,,,,,54,,,,,,,,,,,,,,408.4159999940457,,response,,,100,,,,,,Space,keypress(Space),,,,,-- --- ---- --- ------ ----- ------- ---- -- --- ------- --<br>------- ---------- ------ -- ----- -- ----- -- ---- ------<br>--- ----- --- --- ------ -------- rate. --- ------ ----- --<br>----- ----- ---------- --- --- ------ ------ ---- -- ------<br>------- --- ------ ----- --- ---- ------- -- ---- --- --<br>------- ------,130517.39999999106,130516.59999999404,130091.514,130093.59999999404,130108.184,130525.153,,28,rate.
screen,html.Screen,0_2_1_1_29,2021-11-05T13:01:44.424Z,,,,,,,,,,,,,,,,54,,,,,,,,,,,,,,455.3469999999943,,response,,,100,,,,,,Space,keypress(Space),,,,,-- --- ---- --- ------ ----- ------- ---- -- --- ------- --<br>------- ---------- ------ -- ----- -- ----- -- ---- ------<br>--- ----- --- --- ------ -------- ----- The ------ ----- --<br>----- ----- ---------- --- --- ------ ------ ---- -- ------<br>------- --- ------ ----- --- ---- ------- -- ---- --- --<br>------- ------,130981.29999999702,130980.5,130508.481,130517.59999999404,130525.153,130991.804,,29,The
screen,html.Screen,0_2_1_1_30,2021-11-05T13:01:44.952Z,,,,,,,,,,,,,,,,54,,,,,,,,,,,,,,516.6959999999963,,response,,,100,,,,,,Space,keypress(Space),,,,,-- --- ---- --- ------ ----- ------- ---- -- --- ------- --<br>------- ---------- ------ -- ----- -- ----- -- ---- ------<br>--- ----- --- --- ------ -------- ----- --- market ----- --<br>----- ----- ---------- --- --- ------ ------ ---- -- ------<br>------- --- ------ ----- --- ---- ------- -- ---- --- --<br>------- ------,131509.39999999106,131508.5,130975.134,130981.59999999404,130991.804,131525.175,,30,market
screen,html.Screen,0_2_1_1_31,2021-11-05T13:01:45.288Z,,,,,,,,,,,,,,,,54,,,,,,,,,,,,,,319.6249999970314,,response,,,100,,,,,,Space,keypress(Space),,,,,-- --- ---- --- ------ ----- ------- ---- -- --- ------- --<br>------- ---------- ------ -- ----- -- ----- -- ---- ------<br>--- ----- --- --- ------ -------- ----- --- ------ value --<br>----- ----- ---------- --- --- ------ ------ ---- -- ------<br>------- --- ------ ----- --- ---- ------- -- ---- --- --<br>------- ------,131845.5,131844.79999999702,131508.506,131509.59999999404,131525.175,131858.805,,31,value
screen,html.Screen,0_2_1_1_32,2021-11-05T13:01:45.704Z,,,,,,,,,,,,,,,,54,,,,,,,,,,,,,,401.695000000007,,response,,,100,,,,,,Space,keypress(Space),,,,,-- --- ---- --- ------ ----- ------- ---- -- --- ------- --<br>------- ---------- ------ -- ----- -- ----- -- ---- ------<br>--- ----- --- --- ------ -------- ----- --- ------ ----- of<br>----- ----- ---------- --- --- ------ ------ ---- -- ------<br>------- --- ------ ----- --- ---- ------- -- ---- --- --<br>------- ------,132261.29999999702,132260.5,131842.133,131845.89999999106,131858.805,132275.419,,32,of
screen,html.Screen,0_2_1_1_33,2021-11-05T13:01:46.064Z,,,,,,,,,,,,,,,,54,,,,,,,,,,,,,,345.0810000000056,,response,,,100,,,,,,Space,keypress(Space),,,,,-- --- ---- --- ------ ----- ------- ---- -- --- ------- --<br>------- ---------- ------ -- ----- -- ----- -- ---- ------<br>--- ----- --- --- ------ -------- ----- --- ------ ----- --<br>these ----- ---------- --- --- ------ ------ ---- -- ------<br>------- --- ------ ----- --- ---- ------- -- ---- --- --<br>------- ------,132621.29999999702,132620.5,132258.75,132261.59999999404,132275.419,132625.659,,33,these
screen,html.Screen,0_2_1_1_34,2021-11-05T13:01:46.416Z,,,,,,,,,,,,,,,,54,,,,,,,,,,,,,,346.8409999999858,,response,,,100,,,,,,Space,keypress(Space),,,,,-- --- ---- --- ------ ----- ------- ---- -- --- ------- --<br>------- ---------- ------ -- ----- -- ----- -- ---- ------<br>--- ----- --- --- ------ -------- ----- --- ------ ----- --<br>----- bonds ---------- --- --- ------ ------ ---- -- ------<br>------- --- ------ ----- --- ---- ------- -- ---- --- --<br>------- ------,132973.19999998808,132972.5,132608.987,132621.59999999404,132625.659,132975.676,,34,bonds
screen,html.Screen,0_2_1_1_35,2021-11-05T13:01:46.968Z,,,,,,,,,,,,,,,,54,,,,,,,,,,,,,,548.7239999910526,,response,,,100,,,,,,Space,keypress(Space),,,,,"-- --- ---- --- ------ ----- ------- ---- -- --- ------- --<br>------- ---------- ------ -- ----- -- ----- -- ---- ------<br>--- ----- --- --- ------ -------- ----- --- ------ ----- --<br>----- ----- plummeted, --- --- ------ ------ ---- -- ------<br>------- --- ------ ----- --- ---- ------- -- ---- --- --<br>------- ------",133525.29999999702,133524.39999999106,132959.006,132973.5,132975.676,133542.523,,35,"plummeted,"
screen,html.Screen,0_2_1_1_36,2021-11-05T13:01:47.616Z,,,,,,,,,,,,,,,,54,,,,,,,,,,,,,,629.8769999910728,,response,,,100,,,,,,Space,keypress(Space),,,,,-- --- ---- --- ------ ----- ------- ---- -- --- ------- --<br>------- ---------- ------ -- ----- -- ----- -- ---- ------<br>--- ----- --- --- ------ -------- ----- --- ------ ----- --<br>----- ----- ---------- and --- ------ ------ ---- -- ------<br>------- --- ------ ----- --- ---- ------- -- ---- --- --<br>------- ------,134173.19999998808,134172.39999999106,133525.852,133525.59999999404,133542.523,134175.772,,36,and
screen,html.Screen,0_2_1_1_37,2021-11-05T13:01:48.016Z,,,,,,,,,,,,,,,,54,,,,,,,,,,,,,,396.52799999702256,,response,,,100,,,,,,Space,keypress(Space),,,,,-- --- ---- --- ------ ----- ------- ---- -- --- ------- --<br>------- ---------- ------ -- ----- -- ----- -- ---- ------<br>--- ----- --- --- ------ -------- ----- --- ------ ----- --<br>----- ----- ---------- --- the ------ ------ ---- -- ------<br>------- --- ------ ----- --- ---- ------- -- ---- --- --<br>------- ------,134573.29999999702,134572.29999999702,134159.104,134173.39999999106,134175.772,134576.04,,37,the
screen,html.Screen,0_2_1_1_38,2021-11-05T13:01:48.448Z,,,,,,,,,,,,,,,,54,,,,,,,,,,,,,,428.7599999970116,,response,,,100,,,,,,Space,keypress(Space),,,,,-- --- ---- --- ------ ----- ------- ---- -- --- ------- --<br>------- ---------- ------ -- ----- -- ----- -- ---- ------<br>--- ----- --- --- ------ -------- ----- --- ------ ----- --<br>----- ----- ---------- --- --- market ------ ---- -- ------<br>------- --- ------ ----- --- ---- ------- -- ---- --- --<br>------- ------,135005.59999999404,135004.79999999702,134559.37,134573.59999999404,134576.04,135009.571,,38,market
screen,html.Screen,0_2_1_1_39,2021-11-05T13:01:48.936Z,,,,,,,,,,,,,,,,54,,,,,,,,,,,,,,482.7289999970235,,response,,,100,,,,,,Space,keypress(Space),,,,,-- --- ---- --- ------ ----- ------- ---- -- --- ------- --<br>------- ---------- ------ -- ----- -- ----- -- ---- ------<br>--- ----- --- --- ------ -------- ----- --- ------ ----- --<br>----- ----- ---------- --- --- ------ became ---- -- ------<br>------- --- ------ ----- --- ---- ------- -- ---- --- --<br>------- ------,135493.19999998808,135492.29999999702,134992.9,135005.79999999702,135009.571,135509.693,,39,became
screen,html.Screen,0_2_1_1_40,2021-11-05T13:01:49.296Z,,,,,,,,,,,,,,,,54,,,,,,,,,,,,,,342.60699999702047,,response,,,100,,,,,,Space,keypress(Space),,,,,-- --- ---- --- ------ ----- ------- ---- -- --- ------- --<br>------- ---------- ------ -- ----- -- ----- -- ---- ------<br>--- ----- --- --- ------ -------- ----- --- ------ ----- --<br>----- ----- ---------- --- --- ------ ------ wary -- ------<br>------- --- ------ ----- --- ---- ------- -- ---- --- --<br>------- ------,135853.09999999404,135852.29999999702,135493.022,135493.5,135509.693,135859.755,,40,wary
screen,html.Screen,0_2_1_1_41,2021-11-05T13:01:49.665Z,,,,,,,,,,,,,,,,54,,,,,,,,,,,,,,360.5449999970151,,response,,,100,,,,,,Space,keypress(Space),,,,,-- --- ---- --- ------ ----- ------- ---- -- --- ------- --<br>------- ---------- ------ -- ----- -- ----- -- ---- ------<br>--- ----- --- --- ------ -------- ----- --- ------ ----- --<br>----- ----- ---------- --- --- ------ ------ ---- of ------<br>------- --- ------ ----- --- ---- ------- -- ---- --- --<br>------- ------,136222.59999999404,136220.29999999702,135843.085,135853.39999999106,135859.755,136226.52,,41,of
screen,html.Screen,0_2_1_1_42,2021-11-05T13:01:50.048Z,,,,,,,,,,,,,,,,54,,,,,,,,,,,,,,377.77999999703025,,response,,,100,,,,,,Space,keypress(Space),,,,,-- --- ---- --- ------ ----- ------- ---- -- --- ------- --<br>------- ---------- ------ -- ----- -- ----- -- ---- ------<br>--- ----- --- --- ------ -------- ----- --- ------ ----- --<br>----- ----- ---------- --- --- ------ ------ ---- -- French<br>------- --- ------ ----- --- ---- ------- -- ---- --- --<br>------- ------,136605.09999999404,136604.29999999702,136209.85,136222.89999999106,136226.52,136609.894,,42,French
screen,html.Screen,0_2_1_1_43,2021-11-05T13:01:50.976Z,,,,,,,,,,,,,,,,54,,,,,,,,,,,,,,922.3059999880788,,response,,,100,,,,,,Space,keypress(Space),,,,,-- --- ---- --- ------ ----- ------- ---- -- --- ------- --<br>------- ---------- ------ -- ----- -- ----- -- ---- ------<br>--- ----- --- --- ------ -------- ----- --- ------ ----- --<br>----- ----- ---------- --- --- ------ ------ ---- -- ------<br>credit. --- ------ ----- --- ---- ------- -- ---- --- --<br>------- ------,137533.09999999404,137532.19999998808,136593.225,136605.39999999106,136609.894,137543.558,,43,credit.
screen,html.Screen,0_2_1_1_44,2021-11-05T13:01:51.391Z,,,,,,,,,,,,,,,,54,,,,,,,,,,,,,,404.6419999880891,,response,,,100,,,,,,Space,keypress(Space),,,,,-- --- ---- --- ------ ----- ------- ---- -- --- ------- --<br>------- ---------- ------ -- ----- -- ----- -- ---- ------<br>--- ----- --- --- ------ -------- ----- --- ------ ----- --<br>----- ----- ---------- --- --- ------ ------ ---- -- ------<br>------- The ------ ----- --- ---- ------- -- ---- --- --<br>------- ------,137949,137948.19999998808,137526.887,137533.39999999106,137543.558,137960.267,,44,The
screen,html.Screen,0_2_1_1_45,2021-11-05T13:01:51.712Z,,,,,,,,,,,,,,,,54,,,,,,,,,,,,,,307.9329999880865,,response,,,100,,,,,,Space,keypress(Space),,,,,-- --- ---- --- ------ ----- ------- ---- -- --- ------- --<br>------- ---------- ------ -- ----- -- ----- -- ---- ------<br>--- ----- --- --- ------ -------- ----- --- ------ ----- --<br>----- ----- ---------- --- --- ------ ------ ---- -- ------<br>------- --- French ----- --- ---- ------- -- ---- --- --<br>------- ------,138269,138268.19999998808,137943.597,137949.19999998808,137960.267,138276.956,,45,French
screen,html.Screen,0_2_1_1_46,2021-11-05T13:01:52.023Z,,,,,,,,,,,,,,,,54,,,,,,,,,,,,,,303.14399999403395,,response,,,100,,,,,,Space,keypress(Space),,,,,-- --- ---- --- ------ ----- ------- ---- -- --- ------- --<br>------- ---------- ------ -- ----- -- ----- -- ---- ------<br>--- ----- --- --- ------ -------- ----- --- ------ ----- --<br>----- ----- ---------- --- --- ------ ------ ---- -- ------<br>------- --- ------ state --- ---- ------- -- ---- --- --<br>------- ------,138580.89999999106,138580.09999999404,138260.287,138269.29999999702,138276.956,138593.836,,46,state
screen,html.Screen,0_2_1_1_47,2021-11-05T13:01:52.351Z,,,,,,,,,,,,,,,,54,,,,,,,,,,,,,,314.3639999880688,,response,,,100,,,,,,Space,keypress(Space),,,,,-- --- ---- --- ------ ----- ------- ---- -- --- ------- --<br>------- ---------- ------ -- ----- -- ----- -- ---- ------<br>--- ----- --- --- ------ -------- ----- --- ------ ----- --<br>----- ----- ---------- --- --- ------ ------ ---- -- ------<br>------- --- ------ ----- was ---- ------- -- ---- --- --<br>------- ------,138908.89999999106,138908.19999998808,138577.164,138581.19999998808,138593.836,138910.575,,47,was
screen,html.Screen,0_2_1_1_48,2021-11-05T13:01:52.959Z,,,,,,,,,,,,,,,,54,,,,,,,,,,,,,,605.5249999940279,,response,,,100,,,,,,Space,keypress(Space),,,,,-- --- ---- --- ------ ----- ------- ---- -- --- ------- --<br>------- ---------- ------ -- ----- -- ----- -- ---- ------<br>--- ----- --- --- ------ -------- ----- --- ------ ----- --<br>----- ----- ---------- --- --- ------ ------ ---- -- ------<br>------- --- ------ ----- --- left ------- -- ---- --- --<br>------- ------,139517,139516.09999999404,138893.904,138909.19999998808,138910.575,139527.35,,48,left
screen,html.Screen,0_2_1_1_49,2021-11-05T13:01:53.279Z,,,,,,,,,,,,,,,,54,,,,,,,,,,,,,,308.6499999999942,,response,,,100,,,,,,Space,keypress(Space),,,,,-- --- ---- --- ------ ----- ------- ---- -- --- ------- --<br>------- ---------- ------ -- ----- -- ----- -- ---- ------<br>--- ----- --- --- ------ -------- ----- --- ------ ----- --<br>----- ----- ---------- --- --- ------ ------ ---- -- ------<br>------- --- ------ ----- --- ---- without -- ---- --- --<br>------- ------,139836.89999999106,139836,139510.68,139517.19999998808,139527.35,139844.083,,49,without
screen,html.Screen,0_2_1_1_50,2021-11-05T13:01:53.663Z,,,,,,,,,,,,,,,,54,,,,,,,,,,,,,,376.01699999402626,,response,,,100,,,,,,Space,keypress(Space),,,,,-- --- ---- --- ------ ----- ------- ---- -- --- ------- --<br>------- ---------- ------ -- ----- -- ----- -- ---- ------<br>--- ----- --- --- ------ -------- ----- --- ------ ----- --<br>----- ----- ---------- --- --- ------ ------ ---- -- ------<br>------- --- ------ ----- --- ---- ------- an ---- --- --<br>------- ------,140220.89999999106,140220.09999999404,139827.413,139837.19999998808,139844.083,140227.452,,50,an
screen,html.Screen,0_2_1_1_51,2021-11-05T13:01:54.063Z,,,,,,,,,,,,,,,,54,,,,,,,,,,,,,,392.6479999940493,,response,,,100,,,,,,Space,keypress(Space),,,,,-- --- ---- --- ------ ----- ------- ---- -- --- ------- --<br>------- ---------- ------ -- ----- -- ----- -- ---- ------<br>--- ----- --- --- ------ -------- ----- --- ------ ----- --<br>----- ----- ---------- --- --- ------ ------ ---- -- ------<br>------- --- ------ ----- --- ---- ------- -- easy --- --<br>------- ------,140620.89999999106,140620.09999999404,140210.783,140221.09999999404,140227.452,140627.734,,51,easy
screen,html.Screen,0_2_1_1_52,2021-11-05T13:01:54.463Z,,,,,,,,,,,,,,,,54,,,,,,,,,,,,,,392.26600000000326,,response,,,100,,,,,,Space,keypress(Space),,,,,-- --- ---- --- ------ ----- ------- ---- -- --- ------- --<br>------- ---------- ------ -- ----- -- ----- -- ---- ------<br>--- ----- --- --- ------ -------- ----- --- ------ ----- --<br>----- ----- ---------- --- --- ------ ------ ---- -- ------<br>------- --- ------ ----- --- ---- ------- -- ---- way --<br>------- ------,141020.79999999702,141020,140611.062,140621.09999999404,140627.734,141027.783,,52,way
screen,html.Screen,0_2_1_1_53,2021-11-05T13:01:54.863Z,,,,,,,,,,,,,,,,54,,,,,,,,,,,,,,392.2170000000042,,response,,,100,,,,,,Space,keypress(Space),,,,,-- --- ---- --- ------ ----- ------- ---- -- --- ------- --<br>------- ---------- ------ -- ----- -- ----- -- ---- ------<br>--- ----- --- --- ------ -------- ----- --- ------ ----- --<br>----- ----- ---------- --- --- ------ ------ ---- -- ------<br>------- --- ------ ----- --- ---- ------- -- ---- --- of<br>------- ------,141420.89999999106,141420,141011.112,141021.09999999404,141027.783,141427.719,,53,of
screen,html.Screen,0_2_1_1_54,2021-11-05T13:01:55.903Z,,,,,,,,,,,,,,,,54,,,,,,,,,,,,,,1032.1809999910474,,response,,,100,,,,,,Space,keypress(Space),,,,,-- --- ---- --- ------ ----- ------- ---- -- --- ------- --<br>------- ---------- ------ -- ----- -- ----- -- ---- ------<br>--- ----- --- --- ------ -------- ----- --- ------ ----- --<br>----- ----- ---------- --- --- ------ ------ ---- -- ------<br>------- --- ------ ----- --- ---- ------- -- ---- --- --<br>raising ------,142460.69999998808,142459.89999999106,141411.051,141421.09999999404,141427.719,142478.151,,54,raising
screen,html.Screen,0_2_1_1_55,2021-11-05T13:01:56.231Z,,,,,,,,,,,,,,,,54,,,,,,,,,,,,,,309.74899999104673,,response,,,100,,,,,,Space,keypress(Space),,,,,-- --- ---- --- ------ ----- ------- ---- -- --- ------- --<br>------- ---------- ------ -- ----- -- ----- -- ---- ------<br>--- ----- --- --- ------ -------- ----- --- ------ ----- --<br>----- ----- ---------- --- --- ------ ------ ---- -- ------<br>------- --- ------ ----- --- ---- ------- -- ---- --- --<br>------- money.,142788.69999998808,142787.89999999106,142461.48,142461,142478.151,142794.921,,55,money.
Item 100,flow.Loop,0_2_1_1,2021-11-05T13:01:56.232Z,,,,,,,,,,,,,,,,,,,,,,,,,,,,,,29434.044999991063,,completion,,,,D,,,,,,,,,,silence,,142789.19999998808,142787.89999999106,113337.185,113338.89999999106,113353.855,142794.921,,,
Question 1,html.Screen,0_2_1_2,2021-11-05T13:01:59.660Z,,,,,,,,,,,,,,,,,,,,,,,,,,,true,TRUE,,3421.1789999940374,,response,,,100,D,,,,,TRUE,click #choice-1,,,,silence,,146217.39999999106,146216.09999999404,142778.25,142789.39999999106,142794.921,146229.109,,,
Question 2,html.Screen,0_2_1_3,2021-11-05T13:02:02.164Z,,,,,,,,,,,,,,,,,,,,,,,,,,,true,FALSE,,2490.990999994043,,response,,,100,D,,,,,FALSE,click #choice-2,,,,silence,,148721.19999998808,148720.09999999404,146212.438,146217.69999998808,146229.109,148729.779,,,
Item 100,flow.Sequence,0_2_1,2021-11-05T13:02:02.164Z,,,,,,,,,,,,,,,,,,,,,,,,,,,,,,45368.680999994045,,completion,,,,,,,,,,,,,,,,148721.69999998808,148720.09999999404,103334.748,103336.5,103351.419,148729.779,,,
End of Practice,html.Page,0_2_2,2021-11-05T13:02:09.462Z,,,,,,,,,,,,,,,,,,,,,,,,,,,,,,7288.82099999403,,form submission,,,,,,,,,,,,,,,,156019.19999998808,156018.59999999404,148713.108,148721.89999999106,148729.779,156031.169,,,
Practice,flow.Sequence,0_2,2021-11-05T13:02:09.462Z,,,,,,,,,,,,,,,,,,,,,,,,,,,,,,102630.27499999404,,completion,,,,,,,,,,,,,,,,156019.69999998808,156018.59999999404,53371.655,53381.39999999106,53388.325,156031.169,,,
Trap_instruction,html.Page,0_3_0,2021-11-05T13:02:09.647Z,,,,,,,,,,,,,,,,,,,,,,,,,,,,,,172.3310000000056,,form submission,,,,,,,,,,,,,,,,156204,156203.5,156014.5,156020.09999999404,156031.169,156231.597,,,
trap_trial,html.Screen,0_3_1,2021-11-05T13:02:16.118Z,,,,,,,,,,,,,,,,,,,,,,,,,,,true,1,,6442.202999997011,,response,,,,,,,,,1,click #choice-1,,,,,,162675.09999999404,162673.79999999702,156198.257,156204.39999999106,156231.597,162680.992,,,
end of trap trial,html.Page,0_3_2,2021-11-05T13:02:19.074Z,,,,,,,,,,,,,,,,,,,,,,,,,,,,,,2950.407999991061,,form submission,,,,,,,,,,,,,,,,165631.89999999106,165631.39999999106,162664.327,162675.29999999702,162680.992,165633.999,,,
Trap 1,flow.Sequence,0_3,2021-11-05T13:02:19.075Z,,,,,,,,,,,,,,,,,,,,,,,,,,,,,,9600.230999991065,,completion,,,,,,,,,,,,,,,,165632.29999999702,165631.39999999106,156014.5,156020,156031.169,165633.999,,,
Standby,html.Page,0_4_0,2021-11-05T13:02:27.063Z,,,,,,,,,,,,,,,,,,,,,,,,,,,,,,8002.172999999981,,timeout,,,,,,,,,,,,,,,,173620.79999999702,173619.501,165617.329,165632.59999999404,165633.999,173636.172,,,
Holding screen,html.Screen,0_4_1_0_0,2021-11-05T13:02:34.065Z,,,,,,,,,,,,,,,,,,,,,,,,,,,,,,7001.728000000003,,timeout,,,,,,,,,,,,,,,,180622.79999999702,180621.23,173619.501,173621.19999998808,173636.172,180637.9,,,
screen,html.Screen,0_4_1_0_1_0,2021-11-05T13:02:35.609Z,,,,,,,,,,,,,,,,15,,,,,,,,,,,,,,1524.299999988085,,response,,,7,D,,,,,Space,keypress(Space),,,,silence,Greg --------- ---------- - --- ------- -- --- ------------<br>----- -- -------- ------- ---- ------ - -------- ---- -----<br>--- ------- ---- -- --- -------- --- - ----- ------ ---- --<br>-------- --- -------- -------- --- -------- ---- -- ----- -<br>-------- ---- --- ---------- --------- -- ------- ------ -<br>--------- ----- -----,182163.29999999702,182162.19999998808,180621.23,180623.19999998808,180637.9,182171.54,,0,Greg
screen,html.Screen,0_4_1_0_1_1,2021-11-05T13:02:36.288Z,,,,,,,,,,,,,,,,15,,,,,,,,,,,,,,670.0599999940314,,response,,,7,D,,,,,Space,keypress(Space),,,,silence,"---- Anderson, ---------- - --- ------- -- --- ------------<br>----- -- -------- ------- ---- ------ - -------- ---- -----<br>--- ------- ---- -- --- -------- --- - ----- ------ ---- --<br>-------- --- -------- -------- --- -------- ---- -- ----- -<br>-------- ---- --- ---------- --------- -- ------- ------ -<br>--------- ----- -----",182842.5,182841.59999999404,182154.87,182163.59999999404,182171.54,182854.965,,1,"Anderson,"
screen,html.Screen,0_4_1_0_1_2,2021-11-05T13:02:36.848Z,,,,,,,,,,,,,,,,15,,,,,,,,,,,,,,546.7349999880826,,response,,,7,D,,,,,Space,keypress(Space),,,,silence,---- --------- considered - --- ------- -- --- ------------<br>----- -- -------- ------- ---- ------ - -------- ---- -----<br>--- ------- ---- -- --- -------- --- - ----- ------ ---- --<br>-------- --- -------- -------- --- -------- ---- -- ----- -<br>-------- ---- --- ---------- --------- -- ------- ------ -<br>--------- ----- -----,183402.5,183401.69999998808,182838.296,182842.69999998808,182854.965,183405.35,,2,considered
screen,html.Screen,0_4_1_0_1_3,2021-11-05T13:02:37.288Z,,,,,,,,,,,,,,,,15,,,,,,,,,,,,,,436.1499999999942,,response,,,7,D,,,,,Space,keypress(Space),,,,silence,---- --------- ---------- a --- ------- -- --- ------------<br>----- -- -------- ------- ---- ------ - -------- ---- -----<br>--- ------- ---- -- --- -------- --- - ----- ------ ---- --<br>-------- --- -------- -------- --- -------- ---- -- ----- -<br>-------- ---- --- ---------- --------- -- ------- ------ -<br>--------- ----- -----,183842.39999999106,183841.5,183388.679,183402.69999998808,183405.35,183855.468,,3,a
screen,html.Screen,0_4_1_0_1_4,2021-11-05T13:02:37.752Z,,,,,,,,,,,,,,,,15,,,,,,,,,,,,,,450.2319999880856,,response,,,7,D,,,,,Space,keypress(Space),,,,silence,---- --------- ---------- - key ------- -- --- ------------<br>----- -- -------- ------- ---- ------ - -------- ---- -----<br>--- ------- ---- -- --- -------- --- - ----- ------ ---- --<br>-------- --- -------- -------- --- -------- ---- -- ----- -<br>-------- ---- --- ---------- --------- -- ------- ------ -<br>--------- ----- -----,184306.5,184305.69999998808,183838.797,183842.69999998808,183855.468,184322.218,,4,key
screen,html.Screen,0_4_1_0_1_5,2021-11-05T13:02:38.240Z,,,,,,,,,,,,,,,,15,,,,,,,,,,,,,,471.2820000000065,,response,,,7,D,,,,,Space,keypress(Space),,,,silence,---- --------- ---------- - --- witness -- --- ------------<br>----- -- -------- ------- ---- ------ - -------- ---- -----<br>--- ------- ---- -- --- -------- --- - ----- ------ ---- --<br>-------- --- -------- -------- --- -------- ---- -- ----- -<br>-------- ---- --- ---------- --------- -- ------- ------ -<br>--------- ----- -----,184794.39999999106,184793.5,184305.548,184306.69999998808,184322.218,184805.602,,5,witness
screen,html.Screen,0_4_1_0_1_6,2021-11-05T13:02:38.664Z,,,,,,,,,,,,,,,,15,,,,,,,,,,,,,,411.99799999402603,,response,,,7,D,,,,,Space,keypress(Space),,,,silence,---- --------- ---------- - --- ------- by --- ------------<br>----- -- -------- ------- ---- ------ - -------- ---- -----<br>--- ------- ---- -- --- -------- --- - ----- ------ ---- --<br>-------- --- -------- -------- --- -------- ---- -- ----- -<br>-------- ---- --- ---------- --------- -- ------- ------ -<br>--------- ----- -----,185218.29999999702,185217.59999999404,184788.933,184794.59999999404,184805.602,185222.49,,6,by
screen,html.Screen,0_4_1_0_1_7,2021-11-05T13:02:39.192Z,,,,,,,,,,,,,,,,15,,,,,,,,,,,,,,523.0100000000093,,response,,,7,D,,,,,Space,keypress(Space),,,,silence,---- --------- ---------- - --- ------- -- the ------------<br>----- -- -------- ------- ---- ------ - -------- ---- -----<br>--- ------- ---- -- --- -------- --- - ----- ------ ---- --<br>-------- --- -------- -------- --- -------- ---- -- ----- -<br>-------- ---- --- ---------- --------- -- ------- ------ -<br>--------- ----- -----,185746.39999999106,185745.5,185205.819,185218.59999999404,185222.49,185755.917,,7,the
screen,html.Screen,0_4_1_0_1_8,2021-11-05T13:02:40.080Z,,,,,,,,,,,,,,,,15,,,,,,,,,,,,,,877.5830000000133,,response,,,7,D,,,,,Space,keypress(Space),,,,silence,"---- --------- ---------- - --- ------- -- --- prosecution,<br>----- -- -------- ------- ---- ------ - -------- ---- -----<br>--- ------- ---- -- --- -------- --- - ----- ------ ---- --<br>-------- --- -------- -------- --- -------- ---- -- ----- -<br>-------- ---- --- ---------- --------- -- ------- ------ -<br>--------- ----- -----",186634.29999999702,186633.5,185739.247,185746.59999999404,185755.917,186639.24,,8,"prosecution,"
screen,html.Screen,0_4_1_0_1_9,2021-11-05T13:02:42.624Z,,,,,,,,,,,,,,,,15,,,,,,,,,,,,,,2538.1599999910686,,response,,,7,D,,,,,Space,keypress(Space),,,,silence,---- --------- ---------- - --- ------- -- --- ------------<br>vowed -- -------- ------- ---- ------ - -------- ---- -----<br>--- ------- ---- -- --- -------- --- - ----- ------ ---- --<br>-------- --- -------- -------- --- -------- ---- -- ----- -<br>-------- ---- --- ---------- --------- -- ------- ------ -<br>--------- ----- -----,189178.19999998808,189177.39999999106,186622.572,186634.5,186639.24,189190.364,,9,vowed
screen,html.Screen,0_4_1_0_1_10,2021-11-05T13:02:43.056Z,,,,,,,,,,,,,,,,15,,,,,,,,,,,,,,419.43599999701837,,response,,,7,D,,,,,Space,keypress(Space),,,,silence,---- --------- ---------- - --- ------- -- --- ------------<br>----- he -------- ------- ---- ------ - -------- ---- -----<br>--- ------- ---- -- --- -------- --- - ----- ------ ---- --<br>-------- --- -------- -------- --- -------- ---- -- ----- -<br>-------- ---- --- ---------- --------- -- ------- ------ -<br>--------- ----- -----,189610.59999999404,189609.79999999702,189173.692,189178.39999999106,189190.364,189623.629,,10,he
screen,html.Screen,0_4_1_0_1_11,2021-11-05T13:02:43.392Z,,,,,,,,,,,,,,,,15,,,,,,,,,,,,,,321.6709999970335,,response,,,7,D,,,,,Space,keypress(Space),,,,silence,---- --------- ---------- - --- ------- -- --- ------------<br>----- -- wouldn't ------- ---- ------ - -------- ---- -----<br>--- ------- ---- -- --- -------- --- - ----- ------ ---- --<br>-------- --- -------- -------- --- -------- ---- -- ----- -<br>-------- ---- --- ---------- --------- -- ------- ------ -<br>--------- ----- -----,189946.09999999404,189945.29999999702,189606.958,189610.79999999702,189623.629,189956.93,,11,wouldn't
screen,html.Screen,0_4_1_0_1_12,2021-11-05T13:02:43.800Z,,,,,,,,,,,,,,,,15,,,,,,,,,,,,,,396.36999999702675,,response,,,7,D,,,,,Space,keypress(Space),,,,silence,---- --------- ---------- - --- ------- -- --- ------------<br>----- -- -------- testify ---- ------ - -------- ---- -----<br>--- ------- ---- -- --- -------- --- - ----- ------ ---- --<br>-------- --- -------- -------- --- -------- ---- -- ----- -<br>-------- ---- --- ---------- --------- -- ------- ------ -<br>--------- ----- -----,190354.09999999404,190353.29999999702,189940.26,189946.39999999106,189956.93,190357.1,,12,testify
screen,html.Screen,0_4_1_0_1_13,2021-11-05T13:02:44.192Z,,,,,,,,,,,,,,,,15,,,,,,,,,,,,,,388.09999998807325,,response,,,7,D,,,,,Space,keypress(Space),,,,silence,---- --------- ---------- - --- ------- -- --- ------------<br>----- -- -------- ------- when ------ - -------- ---- -----<br>--- ------- ---- -- --- -------- --- - ----- ------ ---- --<br>-------- --- -------- -------- --- -------- ---- -- ----- -<br>-------- ---- --- ---------- --------- -- ------- ------ -<br>--------- ----- -----,190746.09999999404,190745.19999998808,190340.429,190354.39999999106,190357.1,190757.301,,13,when
screen,html.Screen,0_4_1_0_1_14,2021-11-05T13:02:44.568Z,,,,,,,,,,,,,,,,15,,,,,,,,,,,,,,363.998999997013,,response,,,7,D,,,,,Space,keypress(Space),,,,silence,---- --------- ---------- - --- ------- -- --- ------------<br>----- -- -------- ------- ---- served - -------- ---- -----<br>--- ------- ---- -- --- -------- --- - ----- ------ ---- --<br>-------- --- -------- -------- --- -------- ---- -- ----- -<br>-------- ---- --- ---------- --------- -- ------- ------ -<br>--------- ----- -----,191122.09999999404,191121.29999999702,190740.629,190746.29999999702,190757.301,191124.002,,14,served
screen,html.Screen,0_4_1_0_1_15,2021-11-05T13:02:44.976Z,,,,,,,,,,,,,,,,15,,,,,,,,,,,,,,405.1979999880714,,response,,,7,D,,,,,Space,keypress(Space),,,,silence,---- --------- ---------- - --- ------- -- --- ------------<br>----- -- -------- ------- ---- ------ a -------- ---- -----<br>--- ------- ---- -- --- -------- --- - ----- ------ ---- --<br>-------- --- -------- -------- --- -------- ---- -- ----- -<br>-------- ---- --- ---------- --------- -- ------- ------ -<br>--------- ----- -----,191530,191529.19999998808,191107.331,191122.29999999702,191124.002,191540.744,,15,a
screen,html.Screen,0_4_1_0_1_16,2021-11-05T13:02:46.376Z,,,,,,,,,,,,,,,,15,,,,,,,,,,,,,,1388.8559999940335,,response,,,7,D,,,,,Space,keypress(Space),,,,silence,---- --------- ---------- - --- ------- -- --- ------------<br>----- -- -------- ------- ---- ------ - subpoena ---- -----<br>--- ------- ---- -- --- -------- --- - ----- ------ ---- --<br>-------- --- -------- -------- --- -------- ---- -- ----- -<br>-------- ---- --- ---------- --------- -- ------- ------ -<br>--------- ----- -----,192930.39999999106,192929.59999999404,191524.074,191530.29999999702,191540.744,192940.924,,16,subpoena
screen,html.Screen,0_4_1_0_1_17,2021-11-05T13:02:46.800Z,,,,,,,,,,,,,,,,15,,,,,,,,,,,,,,412.17599999404047,,response,,,7,D,,,,,Space,keypress(Space),,,,silence,---- --------- ---------- - --- ------- -- --- ------------<br>----- -- -------- ------- ---- ------ - -------- last -----<br>--- ------- ---- -- --- -------- --- - ----- ------ ---- --<br>-------- --- -------- -------- --- -------- ---- -- ----- -<br>-------- ---- --- ---------- --------- -- ------- ------ -<br>--------- ----- -----,193353.89999999106,193353.09999999404,192924.255,192930.59999999404,192940.924,193357.701,,17,last
screen,html.Screen,0_4_1_0_1_18,2021-11-05T13:02:47.472Z,,,,,,,,,,,,,,,,15,,,,,,,,,,,,,,667.3989999940386,,response,,,7,D,,,,,Space,keypress(Space),,,,silence,---- --------- ---------- - --- ------- -- --- ------------<br>----- -- -------- ------- ---- ------ - -------- ---- week.<br>--- ------- ---- -- --- -------- --- - ----- ------ ---- --<br>-------- --- -------- -------- --- -------- ---- -- ----- -<br>-------- ---- --- ---------- --------- -- ------- ------ -<br>--------- ----- -----,194025.89999999106,194025.09999999404,193341.032,193354.09999999404,193357.701,194041.427,,18,week.
screen,html.Screen,0_4_1_0_1_19,2021-11-05T13:02:47.952Z,,,,,,,,,,,,,,,,15,,,,,,,,,,,,,,463.57300000000396,,response,,,7,D,,,,,Space,keypress(Space),,,,silence,---- --------- ---------- - --- ------- -- --- ------------<br>----- -- -------- ------- ---- ------ - -------- ---- -----<br>His ------- ---- -- --- -------- --- - ----- ------ ---- --<br>-------- --- -------- -------- --- -------- ---- -- ----- -<br>-------- ---- --- ---------- --------- -- ------- ------ -<br>--------- ----- -----,194505.89999999106,194505,194024.756,194026.19999998808,194041.427,194508.151,,19,His
screen,html.Screen,0_4_1_0_1_20,2021-11-05T13:02:48.408Z,,,,,,,,,,,,,,,,15,,,,,,,,,,,,,,452.94899999402696,,response,,,7,D,,,,,Space,keypress(Space),,,,silence,---- --------- ---------- - --- ------- -- --- ------------<br>----- -- -------- ------- ---- ------ - -------- ---- -----<br>--- lawyers ---- -- --- -------- --- - ----- ------ ---- --<br>-------- --- -------- -------- --- -------- ---- -- ----- -<br>-------- ---- --- ---------- --------- -- ------- ------ -<br>--------- ----- -----,194961.79999999702,194961.09999999404,194491.481,194506.09999999404,194508.151,194974.916,,20,lawyers
screen,html.Screen,0_4_1_0_1_21,2021-11-05T13:02:48.832Z,,,,,,,,,,,,,,,,15,,,,,,,,,,,,,,410.08400000000256,,response,,,7,D,,,,,Space,keypress(Space),,,,silence,---- --------- ---------- - --- ------- -- --- ------------<br>----- -- -------- ------- ---- ------ - -------- ---- -----<br>--- ------- said -- --- -------- --- - ----- ------ ---- --<br>-------- --- -------- -------- --- -------- ---- -- ----- -<br>-------- ---- --- ---------- --------- -- ------- ------ -<br>--------- ----- -----,195385.89999999106,195385,194958.246,194962,194974.916,195391.779,,21,said
screen,html.Screen,0_4_1_0_1_22,2021-11-05T13:02:49.223Z,,,,,,,,,,,,,,,,15,,,,,,,,,,,,,,385.22099999999045,,response,,,7,D,,,,,Space,keypress(Space),,,,silence,---- --------- ---------- - --- ------- -- --- ------------<br>----- -- -------- ------- ---- ------ - -------- ---- -----<br>--- ------- ---- he --- -------- --- - ----- ------ ---- --<br>-------- --- -------- -------- --- -------- ---- -- ----- -<br>-------- ---- --- ---------- --------- -- ------- ------ -<br>--------- ----- -----,195777.79999999702,195777,195375.108,195386.09999999404,195391.779,195791.834,,22,he
screen,html.Screen,0_4_1_0_1_23,2021-11-05T13:02:49.616Z,,,,,,,,,,,,,,,,15,,,,,,,,,,,,,,377.16599999999744,,response,,,7,D,,,,,Space,keypress(Space),,,,silence,---- --------- ---------- - --- ------- -- --- ------------<br>----- -- -------- ------- ---- ------ - -------- ---- -----<br>--- ------- ---- -- was -------- --- - ----- ------ ---- --<br>-------- --- -------- -------- --- -------- ---- -- ----- -<br>-------- ---- --- ---------- --------- -- ------- ------ -<br>--------- ----- -----,196169.79999999702,196169,195775.164,195778.09999999404,195791.834,196175.189,,23,was
screen,html.Screen,0_4_1_0_1_24,2021-11-05T13:02:50.111Z,,,,,,,,,,,,,,,,15,,,,,,,,,,,,,,489.71099999104626,,response,,,7,D,,,,,Space,keypress(Space),,,,silence,---- --------- ---------- - --- ------- -- --- ------------<br>----- -- -------- ------- ---- ------ - -------- ---- -----<br>--- ------- ---- -- --- prepared --- - ----- ------ ---- --<br>-------- --- -------- -------- --- -------- ---- -- ----- -<br>-------- ---- --- ---------- --------- -- ------- ------ -<br>--------- ----- -----,196665.79999999702,196664.89999999106,196158.52,196170.09999999404,196175.189,196675.476,,24,prepared
screen,html.Screen,0_4_1_0_1_25,2021-11-05T13:02:50.527Z,,,,,,,,,,,,,,,,15,,,,,,,,,,,,,,405.4239999910642,,response,,,7,D,,,,,Space,keypress(Space),,,,silence,---- --------- ---------- - --- ------- -- --- ------------<br>----- -- -------- ------- ---- ------ - -------- ---- -----<br>--- ------- ---- -- --- -------- for - ----- ------ ---- --<br>-------- --- -------- -------- --- -------- ---- -- ----- -<br>-------- ---- --- ---------- --------- -- ------- ------ -<br>--------- ----- -----,197081.69999998808,197080.89999999106,196658.804,196666.09999999404,196675.476,197092.207,,25,for
screen,html.Screen,0_4_1_0_1_26,2021-11-05T13:02:50.919Z,,,,,,,,,,,,,,,,15,,,,,,,,,,,,,,380.6929999910644,,response,,,7,D,,,,,Space,keypress(Space),,,,silence,---- --------- ---------- - --- ------- -- --- ------------<br>----- -- -------- ------- ---- ------ - -------- ---- -----<br>--- ------- ---- -- --- -------- --- a ----- ------ ---- --<br>-------- --- -------- -------- --- -------- ---- -- ----- -<br>-------- ---- --- ---------- --------- -- ------- ------ -<br>--------- ----- -----,197473.69999998808,197472.89999999106,197075.536,197081.89999999106,197092.207,197475.537,,26,a
screen,html.Screen,0_4_1_0_1_27,2021-11-05T13:02:51.359Z,,,,,,,,,,,,,,,,15,,,,,,,,,,,,,,437.3629999910481,,response,,,7,D,,,,,Space,keypress(Space),,,,silence,---- --------- ---------- - --- ------- -- --- ------------<br>----- -- -------- ------- ---- ------ - -------- ---- -----<br>--- ------- ---- -- --- -------- --- - third ------ ---- --<br>-------- --- -------- -------- --- -------- ---- -- ----- -<br>-------- ---- --- ---------- --------- -- ------- ------ -<br>--------- ----- -----,197913.69999998808,197912.89999999106,197458.868,197473.89999999106,197475.537,197925.806,,27,third
screen,html.Screen,0_4_1_0_1_28,2021-11-05T13:02:51.783Z,,,,,,,,,,,,,,,,15,,,,,,,,,,,,,,410.99399999700836,,response,,,7,D,,,,,Space,keypress(Space),,,,silence,---- --------- ---------- - --- ------- -- --- ------------<br>----- -- -------- ------- ---- ------ - -------- ---- -----<br>--- ------- ---- -- --- -------- --- - ----- prison ---- --<br>-------- --- -------- -------- --- -------- ---- -- ----- -<br>-------- ---- --- ---------- --------- -- ------- ------ -<br>--------- ----- -----,198337.69999998808,198336.79999999702,197909.134,197913.89999999106,197925.806,198342.538,,28,prison
screen,html.Screen,0_4_1_0_1_29,2021-11-05T13:02:52.223Z,,,,,,,,,,,,,,,,15,,,,,,,,,,,,,,434.1619999880786,,response,,,7,D,,,,,Space,keypress(Space),,,,silence,---- --------- ---------- - --- ------- -- --- ------------<br>----- -- -------- ------- ---- ------ - -------- ---- -----<br>--- ------- ---- -- --- -------- --- - ----- ------ stay --<br>-------- --- -------- -------- --- -------- ---- -- ----- -<br>-------- ---- --- ---------- --------- -- ------- ------ -<br>--------- ----- -----,198777.59999999404,198776.69999998808,198325.867,198337.89999999106,198342.538,198792.59,,29,stay
screen,html.Screen,0_4_1_0_1_30,2021-11-05T13:02:52.663Z,,,,,,,,,,,,,,,,15,,,,,,,,,,,,,,424.20999999702326,,response,,,7,D,,,,,Space,keypress(Space),,,,silence,---- --------- ---------- - --- ------- -- --- ------------<br>----- -- -------- ------- ---- ------ - -------- ---- -----<br>--- ------- ---- -- --- -------- --- - ----- ------ ---- to<br>-------- --- -------- -------- --- -------- ---- -- ----- -<br>-------- ---- --- ---------- --------- -- ------- ------ -<br>--------- ----- -----,199217.59999999404,199216.79999999702,198775.92,198777.89999999106,198792.59,199226.092,,30,to
screen,html.Screen,0_4_1_0_1_31,2021-11-05T13:02:53.199Z,,,,,,,,,,,,,,,,15,,,,,,,,,,,,,,526.7079999970156,,response,,,7,D,,,,,Space,keypress(Space),,,,silence,---- --------- ---------- - --- ------- -- --- ------------<br>----- -- -------- ------- ---- ------ - -------- ---- -----<br>--- ------- ---- -- --- -------- --- - ----- ------ ---- --<br>maintain --- -------- -------- --- -------- ---- -- ----- -<br>-------- ---- --- ---------- --------- -- ------- ------ -<br>--------- ----- -----,199753.59999999404,199752.79999999702,199209.421,199217.79999999702,199226.092,199759.513,,31,maintain
screen,html.Screen,0_4_1_0_1_32,2021-11-05T13:02:53.639Z,,,,,,,,,,,,,,,,15,,,,,,,,,,,,,,433.1869999880728,,response,,,7,D,,,,,Space,keypress(Space),,,,silence,---- --------- ---------- - --- ------- -- --- ------------<br>----- -- -------- ------- ---- ------ - -------- ---- -----<br>--- ------- ---- -- --- -------- --- - ----- ------ ---- --<br>-------- his -------- -------- --- -------- ---- -- ----- -<br>-------- ---- --- ---------- --------- -- ------- ------ -<br>--------- ----- -----,200193.5,200192.69999998808,199742.843,199753.89999999106,199759.513,200209.625,,32,his
screen,html.Screen,0_4_1_0_1_33,2021-11-05T13:02:55.103Z,,,,,,,,,,,,,,,,15,,,,,,,,,,,,,,1446.9749999940395,,response,,,7,D,,,,,Space,keypress(Space),,,,silence,---- --------- ---------- - --- ------- -- --- ------------<br>----- -- -------- ------- ---- ------ - -------- ---- -----<br>--- ------- ---- -- --- -------- --- - ----- ------ ---- --<br>-------- --- silence. -------- --- -------- ---- -- ----- -<br>-------- ---- --- ---------- --------- -- ------- ------ -<br>--------- ----- -----,201657.5,201656.59999999404,200192.955,200193.69999998808,200209.625,201660.052,,33,silence.
screen,html.Screen,0_4_1_0_1_34,2021-11-05T13:02:55.687Z,,,,,,,,,,,,,,,,15,,,,,,,,,,,,,,580.647999988083,,response,,,7,D,,,,,Space,keypress(Space),,,,silence,---- --------- ---------- - --- ------- -- --- ------------<br>----- -- -------- ------- ---- ------ - -------- ---- -----<br>--- ------- ---- -- --- -------- --- - ----- ------ ---- --<br>-------- --- -------- Anderson --- -------- ---- -- ----- -<br>-------- ---- --- ---------- --------- -- ------- ------ -<br>--------- ----- -----,202241.39999999106,202240.69999998808,201643.381,201657.69999998808,201660.052,202243.426,,34,Anderson
screen,html.Screen,0_4_1_0_1_35,2021-11-05T13:02:56.103Z,,,,,,,,,,,,,,,,15,,,,,,,,,,,,,,413.1739999940328,,response,,,7,D,,,,,Space,keypress(Space),,,,silence,---- --------- ---------- - --- ------- -- --- ------------<br>----- -- -------- ------- ---- ------ - -------- ---- -----<br>--- ------- ---- -- --- -------- --- - ----- ------ ---- --<br>-------- --- -------- -------- was -------- ---- -- ----- -<br>-------- ---- --- ---------- --------- -- ------- ------ -<br>--------- ----- -----,202657.5,202656.59999999404,202226.756,202241.59999999404,202243.426,202660.197,,35,was
screen,html.Screen,0_4_1_0_1_36,2021-11-05T13:02:56.496Z,,,,,,,,,,,,,,,,15,,,,,,,,,,,,,,388.80300000001444,,response,,,7,D,,,,,Space,keypress(Space),,,,silence,---- --------- ---------- - --- ------- -- --- ------------<br>----- -- -------- ------- ---- ------ - -------- ---- -----<br>--- ------- ---- -- --- -------- --- - ----- ------ ---- --<br>-------- --- -------- -------- --- released ---- -- ----- -<br>-------- ---- --- ---------- --------- -- ------- ------ -<br>--------- ----- -----,203049.79999999702,203049,202643.527,202657.69999998808,202660.197,203060.464,,36,released
screen,html.Screen,0_4_1_0_1_37,2021-11-05T13:02:56.847Z,,,,,,,,,,,,,,,,15,,,,,,,,,,,,,,340.1359999940323,,response,,,7,D,,,,,Space,keypress(Space),,,,silence,---- --------- ---------- - --- ------- -- --- ------------<br>----- -- -------- ------- ---- ------ - -------- ---- -----<br>--- ------- ---- -- --- -------- --- - ----- ------ ---- --<br>-------- --- -------- -------- --- -------- July -- ----- -<br>-------- ---- --- ---------- --------- -- ------- ------ -<br>--------- ----- -----,203401.39999999106,203400.59999999404,203043.792,203050.09999999404,203060.464,203410.473,,37,July
screen,html.Screen,0_4_1_0_1_38,2021-11-05T13:02:57.247Z,,,,,,,,,,,,,,,,15,,,,,,,,,,,,,,390.02700000000186,,response,,,7,D,,,,,Space,keypress(Space),,,,silence,---- --------- ---------- - --- ------- -- --- ------------<br>----- -- -------- ------- ---- ------ - -------- ---- -----<br>--- ------- ---- -- --- -------- --- - ----- ------ ---- --<br>-------- --- -------- -------- --- -------- ---- 20 ----- -<br>-------- ---- --- ---------- --------- -- ------- ------ -<br>--------- ----- -----,203801.39999999106,203800.5,203393.803,203401.69999998808,203410.473,203810.472,,38,20
screen,html.Screen,0_4_1_0_1_39,2021-11-05T13:02:57.687Z,,,,,,,,,,,,,,,,15,,,,,,,,,,,,,,430.02799999999115,,response,,,7,D,,,,,Space,keypress(Space),,,,silence,---- --------- ---------- - --- ------- -- --- ------------<br>----- -- -------- ------- ---- ------ - -------- ---- -----<br>--- ------- ---- -- --- -------- --- - ----- ------ ---- --<br>-------- --- -------- -------- --- -------- ---- -- after -<br>-------- ---- --- ---------- --------- -- ------- ------ -<br>--------- ----- -----,204241.29999999702,204240.5,203793.803,203801.59999999404,203810.472,204244.09,,39,after
screen,html.Screen,0_4_1_0_1_40,2021-11-05T13:02:58.151Z,,,,,,,,,,,,,,,,15,,,,,,,,,,,,,,460.509999994043,,response,,,7,D,,,,,Space,keypress(Space),,,,silence,---- --------- ---------- - --- ------- -- --- ------------<br>----- -- -------- ------- ---- ------ - -------- ---- -----<br>--- ------- ---- -- --- -------- --- - ----- ------ ---- --<br>-------- --- -------- -------- --- -------- ---- -- ----- a<br>-------- ---- --- ---------- --------- -- ------- ------ -<br>--------- ----- -----,204705.29999999702,204704.59999999404,204227.418,204241.5,204244.09,204710.833,,40,a
screen,html.Screen,0_4_1_0_1_41,2021-11-05T13:02:58.575Z,,,,,,,,,,,,,,,,15,,,,,,,,,,,,,,417.66699999998673,,response,,,7,D,,,,,Space,keypress(Space),,,,silence,---- --------- ---------- - --- ------- -- --- ------------<br>----- -- -------- ------- ---- ------ - -------- ---- -----<br>--- ------- ---- -- --- -------- --- - ----- ------ ---- --<br>-------- --- -------- -------- --- -------- ---- -- ----- -<br>two-week ---- --- ---------- --------- -- ------- ------ -<br>--------- ----- -----,205129.19999998808,205128.5,204694.162,204705.5,204710.833,205144.176,,41,two-week
screen,html.Screen,0_4_1_0_1_42,2021-11-05T13:02:58.975Z,,,,,,,,,,,,,,,,15,,,,,,,,,,,,,,384.123999997013,,response,,,7,D,,,,,Space,keypress(Space),,,,silence,---- --------- ---------- - --- ------- -- --- ------------<br>----- -- -------- ------- ---- ------ - -------- ---- -----<br>--- ------- ---- -- --- -------- --- - ----- ------ ---- --<br>-------- --- -------- -------- --- -------- ---- -- ----- -<br>-------- stay --- ---------- --------- -- ------- ------ -<br>--------- ----- -----,205529.09999999404,205528.29999999702,205127.507,205129.39999999106,205144.176,205544.329,,42,stay
screen,html.Screen,0_4_1_0_1_43,2021-11-05T13:02:59.375Z,,,,,,,,,,,,,,,,15,,,,,,,,,,,,,,384.0709999910614,,response,,,7,D,,,,,Space,keypress(Space),,,,silence,---- --------- ---------- - --- ------- -- --- ------------<br>----- -- -------- ------- ---- ------ - -------- ---- -----<br>--- ------- ---- -- --- -------- --- - ----- ------ ---- --<br>-------- --- -------- -------- --- -------- ---- -- ----- -<br>-------- ---- for ---------- --------- -- ------- ------ -<br>--------- ----- -----,205929.19999998808,205928.39999999106,205527.659,205529.39999999106,205544.329,205944.484,,43,for
screen,html.Screen,0_4_1_0_1_44,2021-11-05T13:02:59.911Z,,,,,,,,,,,,,,,,15,,,,,,,,,,,,,,519.815999997023,,response,,,7,D,,,,,Space,keypress(Space),,,,silence,---- --------- ---------- - --- ------- -- --- ------------<br>----- -- -------- ------- ---- ------ - -------- ---- -----<br>--- ------- ---- -- --- -------- --- - ----- ------ ---- --<br>-------- --- -------- -------- --- -------- ---- -- ----- -<br>-------- ---- --- previously --------- -- ------- ------ -<br>--------- ----- -----,206465.19999998808,206464.29999999702,205927.813,205929.39999999106,205944.484,206477.956,,44,previously
screen,html.Screen,0_4_1_0_1_45,2021-11-05T13:03:00.863Z,,,,,,,,,,,,,,,,15,,,,,,,,,,,,,,938.3439999970142,,response,,,7,D,,,,,Space,keypress(Space),,,,silence,---- --------- ---------- - --- ------- -- --- ------------<br>----- -- -------- ------- ---- ------ - -------- ---- -----<br>--- ------- ---- -- --- -------- --- - ----- ------ ---- --<br>-------- --- -------- -------- --- -------- ---- -- ----- -<br>-------- ---- --- ---------- declining -- ------- ------ -<br>--------- ----- -----,207417.19999998808,207416.29999999702,206461.285,206465.5,206477.956,207427.986,,45,declining
screen,html.Screen,0_4_1_0_1_46,2021-11-05T13:03:01.247Z,,,,,,,,,,,,,,,,15,,,,,,,,,,,,,,372.31399999701534,,response,,,7,D,,,,,Space,keypress(Space),,,,silence,---- --------- ---------- - --- ------- -- --- ------------<br>----- -- -------- ------- ---- ------ - -------- ---- -----<br>--- ------- ---- -- --- -------- --- - ----- ------ ---- --<br>-------- --- -------- -------- --- -------- ---- -- ----- -<br>-------- ---- --- ---------- --------- to ------- ------ -<br>--------- ----- -----,207801.09999999404,207800.29999999702,207411.317,207417.5,207427.986,207811.661,,46,to
screen,html.Screen,0_4_1_0_1_47,2021-11-05T13:03:01.815Z,,,,,,,,,,,,,,,,15,,,,,,,,,,,,,,556.5389999880863,,response,,,7,D,,,,,Space,keypress(Space),,,,silence,---- --------- ---------- - --- ------- -- --- ------------<br>----- -- -------- ------- ---- ------ - -------- ---- -----<br>--- ------- ---- -- --- -------- --- - ----- ------ ---- --<br>-------- --- -------- -------- --- -------- ---- -- ----- -<br>-------- ---- --- ---------- --------- -- testify ------ -<br>--------- ----- -----,208369.09999999404,208368.19999998808,207794.99,207801.39999999106,207811.661,208378.446,,47,testify
screen,html.Screen,0_4_1_0_1_48,2021-11-05T13:03:02.335Z,,,,,,,,,,,,,,,,15,,,,,,,,,,,,,,509.7539999880828,,response,,,7,D,,,,,Space,keypress(Space),,,,silence,---- --------- ---------- - --- ------- -- --- ------------<br>----- -- -------- ------- ---- ------ - -------- ---- -----<br>--- ------- ---- -- --- -------- --- - ----- ------ ---- --<br>-------- --- -------- -------- --- -------- ---- -- ----- -<br>-------- ---- --- ---------- --------- -- ------- before -<br>--------- ----- -----,208889,208888.19999998808,208361.775,208369.29999999702,208378.446,208895.194,,48,before
screen,html.Screen,0_4_1_0_1_49,2021-11-05T13:03:02.871Z,,,,,,,,,,,,,,,,15,,,,,,,,,,,,,,529.0059999880905,,response,,,7,D,,,,,Space,keypress(Space),,,,silence,---- --------- ---------- - --- ------- -- --- ------------<br>----- -- -------- ------- ---- ------ - -------- ---- -----<br>--- ------- ---- -- --- -------- --- - ----- ------ ---- --<br>-------- --- -------- -------- --- -------- ---- -- ----- -<br>-------- ---- --- ---------- --------- -- ------- ------ a<br>--------- ----- -----,209425,209424.19999998808,208878.524,208889.29999999702,208895.194,209428.662,,49,a
screen,html.Screen,0_4_1_0_1_50,2021-11-05T13:03:03.479Z,,,,,,,,,,,,,,,,15,,,,,,,,,,,,,,603.5379999880679,,response,,,7,D,,,,,Space,keypress(Space),,,,silence,---- --------- ---------- - --- ------- -- --- ------------<br>----- -- -------- ------- ---- ------ - -------- ---- -----<br>--- ------- ---- -- --- -------- --- - ----- ------ ---- --<br>-------- --- -------- -------- --- -------- ---- -- ----- -<br>-------- ---- --- ---------- --------- -- ------- ------ -<br>different ----- -----,210033,210032.19999998808,209411.992,209425.29999999702,209428.662,210045.548,,50,different
screen,html.Screen,0_4_1_0_1_51,2021-11-05T13:03:03.943Z,,,,,,,,,,,,,,,,15,,,,,,,,,,,,,,450.6519999880693,,response,,,7,D,,,,,Space,keypress(Space),,,,silence,---- --------- ---------- - --- ------- -- --- ------------<br>----- -- -------- ------- ---- ------ - -------- ---- -----<br>--- ------- ---- -- --- -------- --- - ----- ------ ---- --<br>-------- --- -------- -------- --- -------- ---- -- ----- -<br>-------- ---- --- ---------- --------- -- ------- ------ -<br>--------- grand -----,210497,210496.19999998808,210028.877,210033.29999999702,210045.548,210512.277,,51,grand
screen,html.Screen,0_4_1_0_1_52,2021-11-05T13:03:04.391Z,,,,,,,,,,,,,,,,15,,,,,,,,,,,,,,431.9229999880772,,response,,,7,D,,,,,Space,keypress(Space),,,,silence,---- --------- ---------- - --- ------- -- --- ------------<br>----- -- -------- ------- ---- ------ - -------- ---- -----<br>--- ------- ---- -- --- -------- --- - ----- ------ ---- --<br>-------- --- -------- -------- --- -------- ---- -- ----- -<br>-------- ---- --- ---------- --------- -- ------- ------ -<br>--------- ----- jury.,210944.89999999106,210944.19999998808,210495.607,210497.29999999702,210512.277,210962.407,,52,jury.
Item 7,flow.Loop,0_4_1_0_1,2021-11-05T13:03:04.391Z,,,,,,,,,,,,,,,,,,,,,,,,,,,,,,30306.299999988085,,completion,,,,,,,,,,,,,,,,210945.29999999702,210944.19999998808,180621.23,180623.09999999404,180637.9,210962.407,,,
