sender,sender_type,sender_id,timestamp,meta,,Blues,Classical,Country,Dance,Electronic,Folk,Gospel,Hip-Hop,Jazz,Latin,Musical/Film,New-age,Pop,Provo_ID,R&B,Rap,Reggae,Religious,Rock,Soul,Swing,Traditional,age,artist_name,correct,correctResponse,distraction,duration,education,ended_on,familiarity,gender,item,list,music_frequency,offensiveness,pleasantness,preference,response,response_action,snippet_file,song_name,song_rating,sound,text,time_commit,time_end,time_render,time_run,time_show,time_switch,url,word,word_ID
Instructions,html.Page,0_0,2021-11-19T10:37:22.475Z,"{""labjs_version"":""20.2.3"",""labjs_build"":{""flavor"":""production"",""commit"":""7ea907d66ca8aeef8054924ca5d82ffbe11e34e5""},""location"":""https://run.pavlovia.org/mvasilev/lab_music_a/"",""userAgent"":""Mozilla/5.0 (Windows NT 6.1; Win64; x64) AppleWebKit/537.36 (KHTML, like Gecko) Chrome/96.0.4664.45 Safari/537.36"",""platform"":""Win32"",""language"":""en-US"",""locale"":""en-US"",""timeZone"":""Europe/London"",""timezoneOffset"":0,""screen_width"":1920,""screen_height"":1080,""scroll_width"":1920,""scroll_height"":959,""window_innerWidth"":1920,""window_innerHeight"":1007,""devicePixelRatio"":1}",,,,,,,,,,,,,,,,,,,,,,,,,,,,,14091.045,,form submission,,,,,,,,,,,,,,,,21567.299999952316,21566,7408.279,7424.399999976158,7474.955,21563.198,{},,
Headphones,html.Page,0_1,2021-11-19T10:37:24.724Z,,,,,,,,,,,,,,,,,,,,,,,,,,,,,,2253.0020000476834,,form submission,,,,,,,,,,,,,,,,23816.700000047684,23816.200000047684,21546.489,21567.899999976158,21563.198,23829.285,,,
Holding screen,html.Screen,0_2_0_0,2021-11-19T10:37:34.729Z,,,,,,,,,,,,,,,,,,,,,,,,,,,,,,10019.051000000003,,timeout,,,,,,,,,,,,,,,,33820.799999952316,33814.998,23812.616,23817.200000047684,23829.285,33848.336,,,
screen,html.Screen,0_2_0_1_0,2021-11-19T10:37:35.860Z,,,,,,,,,,,,,,,,53,,,,,,,,,,,,,,1102.264000023839,,response,,,99,,,,,,Space,keypress(Space),,,,,When -- ----- -- ------ - ------- --- ----------<br>------------- ------ ------ ---- ---- ------- ----- -- ----<br>-------- ------- -- ---------- --- - --- ----- ----- ----<br>---- --- --- ----- --- ---- ---- ------- ----- ---- -------<br>--- --- -- ----- -- --- ---- -- --- ---- -- ------ ------<br>--- ----- -- ----,34952.10000002384,34950.60000002384,33814.998,33821.299999952316,33848.336,34965.515,,0,When
screen,html.Screen,0_2_0_1_1,2021-11-19T10:37:36.723Z,,,,,,,,,,,,,,,,53,,,,,,,,,,,,,,848.6850000476843,,response,,,99,,,,,,Space,keypress(Space),,,,,---- it ----- -- ------ - ------- --- ----------<br>------------- ------ ------ ---- ---- ------- ----- -- ----<br>-------- ------- -- ---------- --- - --- ----- ----- ----<br>---- --- --- ----- --- ---- ---- ------- ----- ---- -------<br>--- --- -- ----- -- --- ---- -- --- ---- -- ------ ------<br>--- ----- -- ----,35815.10000002384,35814.200000047684,34948.844,34952.5,34965.515,35832.33,,1,it
screen,html.Screen,0_2_0_1_2,2021-11-19T10:37:37.843Z,,,,,,,,,,,,,,,,53,,,,,,,,,,,,,,1101.77000002384,,response,,,99,,,,,,Space,keypress(Space),,,,,---- -- comes -- ------ - ------- --- ----------<br>------------- ------ ------ ---- ---- ------- ----- -- ----<br>-------- ------- -- ---------- --- - --- ----- ----- ----<br>---- --- --- ----- --- ---- ---- ------- ----- ---- -------<br>--- --- -- ----- -- --- ---- -- --- ---- -- ------ ------<br>--- ----- -- ----,36934.89999997616,36934.10000002384,35815.66,35815.39999997616,35832.33,36949.306,,2,comes
screen,html.Screen,0_2_0_1_3,2021-11-19T10:37:38.659Z,,,,,,,,,,,,,,,,53,,,,,,,,,,,,,,800.6940000000031,,response,,,99,,,,,,Space,keypress(Space),,,,,---- -- ----- to ------ - ------- --- ----------<br>------------- ------ ------ ---- ---- ------- ----- -- ----<br>-------- ------- -- ---------- --- - --- ----- ----- ----<br>---- --- --- ----- --- ---- ---- ------- ----- ---- -------<br>--- --- -- ----- -- --- ---- -- --- ---- -- ------ ------<br>--- ----- -- ----,37751,37750,36932.636,36935.299999952316,36949.306,37766.164,,3,to
screen,html.Screen,0_2_0_1_4,2021-11-19T10:37:39.251Z,,,,,,,,,,,,,,,,53,,,,,,,,,,,,,,575.7359999761611,,response,,,99,,,,,,Space,keypress(Space),,,,,---- -- ----- -- having - ------- --- ----------<br>------------- ------ ------ ---- ---- ------- ----- -- ----<br>-------- ------- -- ---------- --- - --- ----- ----- ----<br>---- --- --- ----- --- ---- ---- ------- ----- ---- -------<br>--- --- -- ----- -- --- ---- -- --- ---- -- ------ ------<br>--- ----- -- ----,38343.10000002384,38341.89999997616,37749.494,37751.5,37766.164,38349.628,,4,having
screen,html.Screen,0_2_0_1_5,2021-11-19T10:37:39.779Z,,,,,,,,,,,,,,,,53,,,,,,,,,,,,,,520.2719999761612,,response,,,99,,,,,,Space,keypress(Space),,,,,---- -- ----- -- ------ a ------- --- ----------<br>------------- ------ ------ ---- ---- ------- ----- -- ----<br>-------- ------- -- ---------- --- - --- ----- ----- ----<br>---- --- --- ----- --- ---- ---- ------- ----- ---- -------<br>--- --- -- ----- -- --- ---- -- --- ---- -- ------ ------<br>--- ----- -- ----,38870.89999997616,38869.89999997616,38332.958,38343.39999997616,38349.628,38883.117,,5,a
screen,html.Screen,0_2_0_1_6,2021-11-19T10:37:40.563Z,,,,,,,,,,,,,,,,53,,,,,,,,,,,,,,770.7829999761598,,response,,,99,,,,,,Space,keypress(Space),,,,,---- -- ----- -- ------ - lasting --- ----------<br>------------- ------ ------ ---- ---- ------- ----- -- ----<br>-------- ------- -- ---------- --- - --- ----- ----- ----<br>---- --- --- ----- --- ---- ---- ------- ----- ---- -------<br>--- --- -- ----- -- --- ---- -- --- ---- -- ------ ------<br>--- ----- -- ----,39654.799999952316,39653.89999997616,38866.447,38871.39999997616,38883.117,39666.613,,6,lasting
screen,html.Screen,0_2_0_1_7,2021-11-19T10:37:41.043Z,,,,,,,,,,,,,,,,53,,,,,,,,,,,,,,467.38700000000244,,response,,,99,,,,,,Space,keypress(Space),,,,,---- -- ----- -- ------ - ------- and ----------<br>------------- ------ ------ ---- ---- ------- ----- -- ----<br>-------- ------- -- ---------- --- - --- ----- ----- ----<br>---- --- --- ----- --- ---- ---- ------- ----- ---- -------<br>--- --- -- ----- -- --- ---- -- --- ---- -- ------ ------<br>--- ----- -- ----,40134.799999952316,40134,39649.943,39655.200000047684,39666.613,40150.084,,7,and
screen,html.Screen,0_2_0_1_8,2021-11-19T10:37:41.747Z,,,,,,,,,,,,,,,,53,,,,,,,,,,,,,,687.8159999761556,,response,,,99,,,,,,Space,keypress(Space),,,,,---- -- ----- -- ------ - ------- --- fulfilling<br>------------- ------ ------ ---- ---- ------- ----- -- ----<br>-------- ------- -- ---------- --- - --- ----- ----- ----<br>---- --- --- ----- --- ---- ---- ------- ----- ---- -------<br>--- --- -- ----- -- --- ---- -- --- ---- -- ------ ------<br>--- ----- -- ----,40839,40837.89999997616,40133.414,40135.10000002384,40150.084,40850.267,,8,fulfilling
screen,html.Screen,0_2_0_1_9,2021-11-19T10:37:42.594Z,,,,,,,,,,,,,,,,53,,,,,,,,,,,,,,835.5329999523165,,response,,,99,,,,,,Space,keypress(Space),,,,,"---- -- ----- -- ------ - ------- --- ----------<br>relationship, ------ ------ ---- ---- ------- ----- -- ----<br>-------- ------- -- ---------- --- - --- ----- ----- ----<br>---- --- --- ----- --- ---- ---- ------- ----- ---- -------<br>--- --- -- ----- -- --- ---- -- --- ---- -- ------ ------<br>--- ----- -- ----",41686.700000047684,41685.799999952316,40833.597,40839.200000047684,40850.267,41700.421,,9,"relationship,"
screen,html.Screen,0_2_0_1_10,2021-11-19T10:37:43.130Z,,,,,,,,,,,,,,,,53,,,,,,,,,,,,,,521.3789999523142,,response,,,99,,,,,,Space,keypress(Space),,,,,---- -- ----- -- ------ - ------- --- ----------<br>------------- common ------ ---- ---- ------- ----- -- ----<br>-------- ------- -- ---------- --- - --- ----- ----- ----<br>---- --- --- ----- --- ---- ---- ------- ----- ---- -------<br>--- --- -- ----- -- --- ---- -- --- ---- -- ------ ------<br>--- ----- -- ----,42222.60000002384,42221.799999952316,41683.751,41687,41700.421,42233.944,,10,common
screen,html.Screen,0_2_0_1_11,2021-11-19T10:37:43.882Z,,,,,,,,,,,,,,,,53,,,,,,,,,,,,,,739.8559999523131,,response,,,99,,,,,,Space,keypress(Space),,,,,---- -- ----- -- ------ - ------- --- ----------<br>------------- ------ wisdom ---- ---- ------- ----- -- ----<br>-------- ------- -- ---------- --- - --- ----- ----- ----<br>---- --- --- ----- --- ---- ---- ------- ----- ---- -------<br>--- --- -- ----- -- --- ---- -- --- ---- -- ------ ------<br>--- ----- -- ----,42974.60000002384,42973.799999952316,42217.274,42222.89999997616,42233.944,42984.104,,11,wisdom
screen,html.Screen,0_2_0_1_12,2021-11-19T10:37:44.298Z,,,,,,,,,,,,,,,,53,,,,,,,,,,,,,,405.4960000238425,,response,,,99,,,,,,Space,keypress(Space),,,,,---- -- ----- -- ------ - ------- --- ----------<br>------------- ------ ------ says ---- ------- ----- -- ----<br>-------- ------- -- ---------- --- - --- ----- ----- ----<br>---- --- --- ----- --- ---- ---- ------- ----- ---- -------<br>--- --- -- ----- -- --- ---- -- --- ---- -- ------ ------<br>--- ----- -- ----,43390.5,43389.60000002384,42967.434,42974.89999997616,42984.104,43400.867,,12,says
screen,html.Screen,0_2_0_1_13,2021-11-19T10:37:44.730Z,,,,,,,,,,,,,,,,53,,,,,,,,,,,,,,420.83300004768535,,response,,,99,,,,,,Space,keypress(Space),,,,,---- -- ----- -- ------ - ------- --- ----------<br>------------- ------ ------ ---- that ------- ----- -- ----<br>-------- ------- -- ---------- --- - --- ----- ----- ----<br>---- --- --- ----- --- ---- ---- ------- ----- ---- -------<br>--- --- -- ----- -- --- ---- -- --- ---- -- ------ ------<br>--- ----- -- ----,43822.5,43821.700000047684,43384.197,43390.700000047684,43400.867,43834.318,,13,that
screen,html.Screen,0_2_0_1_14,2021-11-19T10:37:45.434Z,,,,,,,,,,,,,,,,53,,,,,,,,,,,,,,691.2820000238426,,response,,,99,,,,,,Space,keypress(Space),,,,,---- -- ----- -- ------ - ------- --- ----------<br>------------- ------ ------ ---- ---- feeling ----- -- ----<br>-------- ------- -- ---------- --- - --- ----- ----- ----<br>---- --- --- ----- --- ---- ---- ------- ----- ---- -------<br>--- --- -- ----- -- --- ---- -- --- ---- -- ------ ------<br>--- ----- -- ----,44526.39999997616,44525.60000002384,43817.648,43822.700000047684,43834.318,44534.475,,14,feeling
screen,html.Screen,0_2_0_1_15,2021-11-19T10:37:46.050Z,,,,,,,,,,,,,,,,53,,,,,,,,,,,,,,607.4249999761596,,response,,,99,,,,,,Space,keypress(Space),,,,,---- -- ----- -- ------ - ------- --- ----------<br>------------- ------ ------ ---- ---- ------- close -- ----<br>-------- ------- -- ---------- --- - --- ----- ----- ----<br>---- --- --- ----- --- ---- ---- ------- ----- ---- -------<br>--- --- -- ----- -- --- ---- -- --- ---- -- ------ ------<br>--- ----- -- ----,45142.799999952316,45141.89999997616,44517.805,44526.60000002384,44534.475,45151.297,,15,close
screen,html.Screen,0_2_0_1_16,2021-11-19T10:37:46.418Z,,,,,,,,,,,,,,,,53,,,,,,,,,,,,,,358.20300000000134,,response,,,99,,,,,,Space,keypress(Space),,,,,---- -- ----- -- ------ - ------- --- ----------<br>------------- ------ ------ ---- ---- ------- ----- to ----<br>-------- ------- -- ---------- --- - --- ----- ----- ----<br>---- --- --- ----- --- ---- ---- ------- ----- ---- -------<br>--- --- -- ----- -- --- ---- -- --- ---- -- ------ ------<br>--- ----- -- ----,45510.299999952316,45509.5,45134.627,45143,45151.297,45518.068,,16,to
screen,html.Screen,0_2_0_1_17,2021-11-19T10:37:46.922Z,,,,,,,,,,,,,,,,53,,,,,,,,,,,,,,495.4320000000007,,response,,,99,,,,,,Space,keypress(Space),,,,,---- -- ----- -- ------ - ------- --- ----------<br>------------- ------ ------ ---- ---- ------- ----- -- your<br>-------- ------- -- ---------- --- - --- ----- ----- ----<br>---- --- --- ----- --- ---- ---- ------- ----- ---- -------<br>--- --- -- ----- -- --- ---- -- --- ---- -- ------ ------<br>--- ----- -- ----,46014.299999952316,46013.5,45501.398,45510.60000002384,45518.068,46018.19,,17,your
screen,html.Screen,0_2_0_1_18,2021-11-19T10:37:47.442Z,,,,,,,,,,,,,,,,53,,,,,,,,,,,,,,515.2099999761558,,response,,,99,,,,,,Space,keypress(Space),,,,,---- -- ----- -- ------ - ------- --- ----------<br>------------- ------ ------ ---- ---- ------- ----- -- ----<br>romantic ------- -- ---------- --- - --- ----- ----- ----<br>---- --- --- ----- --- ---- ---- ------- ----- ---- -------<br>--- --- -- ----- -- --- ---- -- --- ---- -- ------ ------<br>--- ----- -- ----,46534.299999952316,46533.39999997616,46001.52,46014.5,46018.19,46551.573,,18,romantic
screen,html.Screen,0_2_0_1_19,2021-11-19T10:37:48.050Z,,,,,,,,,,,,,,,,53,,,,,,,,,,,,,,589.9270000000033,,response,,,99,,,,,,Space,keypress(Space),,,,,---- -- ----- -- ------ - ------- --- ----------<br>------------- ------ ------ ---- ---- ------- ----- -- ----<br>-------- partner -- ---------- --- - --- ----- ----- ----<br>---- --- --- ----- --- ---- ---- ------- ----- ---- -------<br>--- --- -- ----- -- --- ---- -- --- ---- -- ------ ------<br>--- ----- -- ----,47142.200000047684,47141.5,46534.904,46534.5,46551.573,47151.79,,19,partner
screen,html.Screen,0_2_0_1_20,2021-11-19T10:37:48.578Z,,,,,,,,,,,,,,,,53,,,,,,,,,,,,,,517.5099999523154,,response,,,99,,,,,,Space,keypress(Space),,,,,---- -- ----- -- ------ - ------- --- ----------<br>------------- ------ ------ ---- ---- ------- ----- -- ----<br>-------- ------- is ---------- --- - --- ----- ----- ----<br>---- --- --- ----- --- ---- ---- ------- ----- ---- -------<br>--- --- -- ----- -- --- ---- -- --- ---- -- ------ ------<br>--- ----- -- ----,47670.10000002384,47669.299999952316,47135.12,47142.5,47151.79,47685.226,,20,is
screen,html.Screen,0_2_0_1_21,2021-11-19T10:37:49.530Z,,,,,,,,,,,,,,,,53,,,,,,,,,,,,,,936.0739999523139,,response,,,99,,,,,,Space,keypress(Space),,,,,---- -- ----- -- ------ - ------- --- ----------<br>------------- ------ ------ ---- ---- ------- ----- -- ----<br>-------- ------- -- paramount. --- - --- ----- ----- ----<br>---- --- --- ----- --- ---- ---- ------- ----- ---- -------<br>--- --- -- ----- -- --- ---- -- --- ---- -- ------ ------<br>--- ----- -- ----,48622.39999997616,48621.299999952316,47668.556,47670.39999997616,47685.226,48635.415,,21,paramount.
screen,html.Screen,0_2_0_1_22,2021-11-19T10:37:49.962Z,,,,,,,,,,,,,,,,53,,,,,,,,,,,,,,417.8849999523154,,response,,,99,,,,,,Space,keypress(Space),,,,,---- -- ----- -- ------ - ------- --- ----------<br>------------- ------ ------ ---- ---- ------- ----- -- ----<br>-------- ------- -- ---------- But - --- ----- ----- ----<br>---- --- --- ----- --- ---- ---- ------- ----- ---- -------<br>--- --- -- ----- -- --- ---- -- --- ---- -- ------ ------<br>--- ----- -- ----,49054,49053.299999952316,48618.745,48622.799999952316,48635.415,49068.994,,22,But
screen,html.Screen,0_2_0_1_23,2021-11-19T10:37:50.386Z,,,,,,,,,,,,,,,,53,,,,,,,,,,,,,,408.3059999523175,,response,,,99,,,,,,Space,keypress(Space),,,,,---- -- ----- -- ------ - ------- --- ----------<br>------------- ------ ------ ---- ---- ------- ----- -- ----<br>-------- ------- -- ---------- --- a --- ----- ----- ----<br>---- --- --- ----- --- ---- ---- ------- ----- ---- -------<br>--- --- -- ----- -- --- ---- -- --- ---- -- ------ ------<br>--- ----- -- ----,49478,49477.299999952316,49052.323,49054.299999952316,49068.994,49485.713,,23,a
screen,html.Screen,0_2_0_1_24,2021-11-19T10:37:50.762Z,,,,,,,,,,,,,,,,53,,,,,,,,,,,,,,367.3870000238385,,response,,,99,,,,,,Space,keypress(Space),,,,,---- -- ----- -- ------ - ------- --- ----------<br>------------- ------ ------ ---- ---- ------- ----- -- ----<br>-------- ------- -- ---------- --- - new ----- ----- ----<br>---- --- --- ----- --- ---- ---- ------- ----- ---- -------<br>--- --- -- ----- -- --- ---- -- --- ---- -- ------ ------<br>--- ----- -- ----,49854,49853.10000002384,49469.043,49478.299999952316,49485.713,49869.106,,24,new
screen,html.Screen,0_2_0_1_25,2021-11-19T10:37:51.314Z,,,,,,,,,,,,,,,,53,,,,,,,,,,,,,,536.094000047684,,response,,,99,,,,,,Space,keypress(Space),,,,,---- -- ----- -- ------ - ------- --- ----------<br>------------- ------ ------ ---- ---- ------- ----- -- ----<br>-------- ------- -- ---------- --- - --- study ----- ----<br>---- --- --- ----- --- ---- ---- ------- ----- ---- -------<br>--- --- -- ----- -- --- ---- -- --- ---- -- ------ ------<br>--- ----- -- ----,50405.89999997616,50405.200000047684,49852.436,49854.200000047684,49869.106,50419.246,,25,study
screen,html.Screen,0_2_0_1_26,2021-11-19T10:37:51.706Z,,,,,,,,,,,,,,,,53,,,,,,,,,,,,,,377.8540000238427,,response,,,99,,,,,,Space,keypress(Space),,,,,---- -- ----- -- ------ - ------- --- ----------<br>------------- ------ ------ ---- ---- ------- ----- -- ----<br>-------- ------- -- ---------- --- - --- ----- finds ----<br>---- --- --- ----- --- ---- ---- ------- ----- ---- -------<br>--- --- -- ----- -- --- ---- -- --- ---- -- ------ ------<br>--- ----- -- ----,50798,50797.10000002384,50402.576,50406.299999952316,50419.246,50802.696,,26,finds
screen,html.Screen,0_2_0_1_27,2021-11-19T10:37:52.210Z,,,,,,,,,,,,,,,,53,,,,,,,,,,,,,,498.4040000238383,,response,,,99,,,,,,Space,keypress(Space),,,,,---- -- ----- -- ------ - ------- --- ----------<br>------------- ------ ------ ---- ---- ------- ----- -- ----<br>-------- ------- -- ---------- --- - --- ----- ----- that<br>---- --- --- ----- --- ---- ---- ------- ----- ---- -------<br>--- --- -- ----- -- --- ---- -- --- ---- -- ------ ------<br>--- ----- -- ----,51301.89999997616,51301.10000002384,50786.026,50798.200000047684,50802.696,51302.808,,27,that
screen,html.Screen,0_2_0_1_28,2021-11-19T10:37:52.770Z,,,,,,,,,,,,,,,,53,,,,,,,,,,,,,,558.2920000238446,,response,,,99,,,,,,Space,keypress(Space),,,,,---- -- ----- -- ------ - ------- --- ----------<br>------------- ------ ------ ---- ---- ------- ----- -- ----<br>-------- ------- -- ---------- --- - --- ----- ----- ----<br>it's --- --- ----- --- ---- ---- ------- ----- ---- -------<br>--- --- -- ----- -- --- ---- -- --- ---- -- ------ ------<br>--- ----- -- ----,51861.799999952316,51861.10000002384,51286.138,51302.10000002384,51302.808,51869.597,,28,it's
screen,html.Screen,0_2_0_1_29,2021-11-19T10:37:53.202Z,,,,,,,,,,,,,,,,53,,,,,,,,,,,,,,423.4029999999984,,response,,,99,,,,,,Space,keypress(Space),,,,,---- -- ----- -- ------ - ------- --- ----------<br>------------- ------ ------ ---- ---- ------- ----- -- ----<br>-------- ------- -- ---------- --- - --- ----- ----- ----<br>---- not --- ----- --- ---- ---- ------- ----- ---- -------<br>--- --- -- ----- -- --- ---- -- --- ---- -- ------ ------<br>--- ----- -- ----,52294,52293,51852.927,51862,51869.597,52303.068,,29,not
screen,html.Screen,0_2_0_1_30,2021-11-19T10:37:53.866Z,,,,,,,,,,,,,,,,53,,,,,,,,,,,,,,654.0320000238426,,response,,,99,,,,,,Space,keypress(Space),,,,,---- -- ----- -- ------ - ------- --- ----------<br>------------- ------ ------ ---- ---- ------- ----- -- ----<br>-------- ------- -- ---------- --- - --- ----- ----- ----<br>---- --- how ----- --- ---- ---- ------- ----- ---- -------<br>--- --- -- ----- -- --- ---- -- --- ---- -- ------ ------<br>--- ----- -- ----,52957.799999952316,52957.10000002384,52286.398,52294.299999952316,52303.068,52969.859,,30,how
screen,html.Screen,0_2_0_1_31,2021-11-19T10:37:54.274Z,,,,,,,,,,,,,,,,53,,,,,,,,,,,,,,395.14100000000326,,response,,,99,,,,,,Space,keypress(Space),,,,,---- -- ----- -- ------ - ------- --- ----------<br>------------- ------ ------ ---- ---- ------- ----- -- ----<br>-------- ------- -- ---------- --- - --- ----- ----- ----<br>---- --- --- close --- ---- ---- ------- ----- ---- -------<br>--- --- -- ----- -- --- ---- -- --- ---- -- ------ ------<br>--- ----- -- ----,53365.799999952316,53365,52953.189,52958,52969.859,53369.958,,31,close
screen,html.Screen,0_2_0_1_32,2021-11-19T10:37:54.641Z,,,,,,,,,,,,,,,,53,,,,,,,,,,,,,,363.0420000000013,,response,,,99,,,,,,Space,keypress(Space),,,,,---- -- ----- -- ------ - ------- --- ----------<br>------------- ------ ------ ---- ---- ------- ----- -- ----<br>-------- ------- -- ---------- --- - --- ----- ----- ----<br>---- --- --- ----- you ---- ---- ------- ----- ---- -------<br>--- --- -- ----- -- --- ---- -- --- ---- -- ------ ------<br>--- ----- -- ----,53733.700000047684,53733,53353.288,53366,53369.958,53736.736,,32,you
screen,html.Screen,0_2_0_1_33,2021-11-19T10:37:54.953Z,,,,,,,,,,,,,,,,53,,,,,,,,,,,,,,308.163999976161,,response,,,99,,,,,,Space,keypress(Space),,,,,---- -- ----- -- ------ - ------- --- ----------<br>------------- ------ ------ ---- ---- ------- ----- -- ----<br>-------- ------- -- ---------- --- - --- ----- ----- ----<br>---- --- --- ----- --- feel ---- ------- ----- ---- -------<br>--- --- -- ----- -- --- ---- -- --- ---- -- ------ ------<br>--- ----- -- ----,54045.700000047684,54044.89999997616,53720.066,53733.89999997616,53736.736,54053.458,,33,feel
screen,html.Screen,0_2_0_1_34,2021-11-19T10:37:55.769Z,,,,,,,,,,,,,,,,53,,,,,,,,,,,,,,807.4419999761594,,response,,,99,,,,,,Space,keypress(Space),,,,,---- -- ----- -- ------ - ------- --- ----------<br>------------- ------ ------ ---- ---- ------- ----- -- ----<br>-------- ------- -- ---------- --- - --- ----- ----- ----<br>---- --- --- ----- --- ---- that ------- ----- ---- -------<br>--- --- -- ----- -- --- ---- -- --- ---- -- ------ ------<br>--- ----- -- ----,54861.60000002384,54860.89999997616,54036.788,54045.89999997616,54053.458,54870.329,,34,that
screen,html.Screen,0_2_0_1_35,2021-11-19T10:37:56.258Z,,,,,,,,,,,,,,,,53,,,,,,,,,,,,,,479.27100002384395,,response,,,99,,,,,,Space,keypress(Space),,,,,---- -- ----- -- ------ - ------- --- ----------<br>------------- ------ ------ ---- ---- ------- ----- -- ----<br>-------- ------- -- ---------- --- - --- ----- ----- ----<br>---- --- --- ----- --- ---- ---- matters ----- ---- -------<br>--- --- -- ----- -- --- ---- -- --- ---- -- ------ ------<br>--- ----- -- ----,55350.299999952316,55349.60000002384,54853.659,54861.89999997616,54870.329,55353.767,,35,matters
screen,html.Screen,0_2_0_1_36,2021-11-19T10:37:56.961Z,,,,,,,,,,,,,,,,53,,,,,,,,,,,,,,698.9330000476839,,response,,,99,,,,,,Space,keypress(Space),,,,,"---- -- ----- -- ------ - ------- --- ----------<br>------------- ------ ------ ---- ---- ------- ----- -- ----<br>-------- ------- -- ---------- --- - --- ----- ----- ----<br>---- --- --- ----- --- ---- ---- ------- most, ---- -------<br>--- --- -- ----- -- --- ---- -- --- ---- -- ------ ------<br>--- ----- -- ----",56053.700000047684,56052.700000047684,55337.097,55350.60000002384,55353.767,56070.611,,36,"most,"
screen,html.Screen,0_2_0_1_37,2021-11-19T10:37:57.337Z,,,,,,,,,,,,,,,,53,,,,,,,,,,,,,,358.08900004768657,,response,,,99,,,,,,Space,keypress(Space),,,,,---- -- ----- -- ------ - ------- --- ----------<br>------------- ------ ------ ---- ---- ------- ----- -- ----<br>-------- ------- -- ---------- --- - --- ----- ----- ----<br>---- --- --- ----- --- ---- ---- ------- ----- it's -------<br>--- --- -- ----- -- --- ---- -- --- ---- -- ------ ------<br>--- ----- -- ----,56429.5,56428.700000047684,56053.941,56054,56070.611,56437.385,,37,it's
screen,html.Screen,0_2_0_1_38,2021-11-19T10:37:57.729Z,,,,,,,,,,,,,,,,53,,,,,,,,,,,,,,383.3150000476817,,response,,,99,,,,,,Space,keypress(Space),,,,,---- -- ----- -- ------ - ------- --- ----------<br>------------- ------ ------ ---- ---- ------- ----- -- ----<br>-------- ------- -- ---------- --- - --- ----- ----- ----<br>---- --- --- ----- --- ---- ---- ------- ----- ---- whether<br>--- --- -- ----- -- --- ---- -- --- ---- -- ------ ------<br>--- ----- -- ----,56821.5,56820.700000047684,56420.715,56429.700000047684,56437.385,56837.467,,38,whether
screen,html.Screen,0_2_0_1_39,2021-11-19T10:37:58.145Z,,,,,,,,,,,,,,,,53,,,,,,,,,,,,,,399.2330000476868,,response,,,99,,,,,,Space,keypress(Space),,,,,---- -- ----- -- ------ - ------- --- ----------<br>------------- ------ ------ ---- ---- ------- ----- -- ----<br>-------- ------- -- ---------- --- - --- ----- ----- ----<br>---- --- --- ----- --- ---- ---- ------- ----- ---- -------<br>you --- -- ----- -- --- ---- -- --- ---- -- ------ ------<br>--- ----- -- ----,57237.39999997616,57236.700000047684,56820.797,56821.700000047684,56837.467,57254.251,,39,you
screen,html.Screen,0_2_0_1_40,2021-11-19T10:37:58.537Z,,,,,,,,,,,,,,,,53,,,,,,,,,,,,,,374.44900004768715,,response,,,99,,,,,,Space,keypress(Space),,,,,---- -- ----- -- ------ - ------- --- ----------<br>------------- ------ ------ ---- ---- ------- ----- -- ----<br>-------- ------- -- ---------- --- - --- ----- ----- ----<br>---- --- --- ----- --- ---- ---- ------- ----- ---- -------<br>--- are -- ----- -- --- ---- -- --- ---- -- ------ ------<br>--- ----- -- ----,57629.39999997616,57628.700000047684,57237.581,57237.799999952316,57254.251,57637.582,,40,are
screen,html.Screen,0_2_0_1_41,2021-11-19T10:37:58.969Z,,,,,,,,,,,,,,,,53,,,,,,,,,,,,,,423.0180000238397,,response,,,99,,,,,,Space,keypress(Space),,,,,---- -- ----- -- ------ - ------- --- ----------<br>------------- ------ ------ ---- ---- ------- ----- -- ----<br>-------- ------- -- ---------- --- - --- ----- ----- ----<br>---- --- --- ----- --- ---- ---- ------- ----- ---- -------<br>--- --- as ----- -- --- ---- -- --- ---- -- ------ ------<br>--- ----- -- ----,58061.5,58060.60000002384,57620.913,57629.700000047684,57637.582,58071.199,,41,as
screen,html.Screen,0_2_0_1_42,2021-11-19T10:37:59.505Z,,,,,,,,,,,,,,,,53,,,,,,,,,,,,,,525.4010000238413,,response,,,99,,,,,,Space,keypress(Space),,,,,---- -- ----- -- ------ - ------- --- ----------<br>------------- ------ ------ ---- ---- ------- ----- -- ----<br>-------- ------- -- ---------- --- - --- ----- ----- ----<br>---- --- --- ----- --- ---- ---- ------- ----- ---- -------<br>--- --- -- close -- --- ---- -- --- ---- -- ------ ------<br>--- ----- -- ----,58597.39999997616,58596.60000002384,58054.527,58061.700000047684,58071.199,58604.56,,42,close
screen,html.Screen,0_2_0_1_43,2021-11-19T10:37:59.921Z,,,,,,,,,,,,,,,,53,,,,,,,,,,,,,,408.0400000238442,,response,,,99,,,,,,Space,keypress(Space),,,,,---- -- ----- -- ------ - ------- --- ----------<br>------------- ------ ------ ---- ---- ------- ----- -- ----<br>-------- ------- -- ---------- --- - --- ----- ----- ----<br>---- --- --- ----- --- ---- ---- ------- ----- ---- -------<br>--- --- -- ----- as --- ---- -- --- ---- -- ------ ------<br>--- ----- -- ----,59013.299999952316,59012.60000002384,58587.89,58597.60000002384,58604.56,59021.358,,43,as
screen,html.Screen,0_2_0_1_44,2021-11-19T10:38:00.409Z,,,,,,,,,,,,,,,,53,,,,,,,,,,,,,,479.1419999999998,,response,,,99,,,,,,Space,keypress(Space),,,,,---- -- ----- -- ------ - ------- --- ----------<br>------------- ------ ------ ---- ---- ------- ----- -- ----<br>-------- ------- -- ---------- --- - --- ----- ----- ----<br>---- --- --- ----- --- ---- ---- ------- ----- ---- -------<br>--- --- -- ----- -- you ---- -- --- ---- -- ------ ------<br>--- ----- -- ----,59501.299999952316,59500.5,59004.688,59013.60000002384,59021.358,59504.802,,44,you
screen,html.Screen,0_2_0_1_45,2021-11-19T10:38:00.950Z,,,,,,,,,,,,,,,,53,,,,,,,,,,,,,,531.6979999999967,,response,,,99,,,,,,Space,keypress(Space),,,,,---- -- ----- -- ------ - ------- --- ----------<br>------------- ------ ------ ---- ---- ------- ----- -- ----<br>-------- ------- -- ---------- --- - --- ----- ----- ----<br>---- --- --- ----- --- ---- ---- ------- ----- ---- -------<br>--- --- -- ----- -- --- want -- --- ---- -- ------ ------<br>--- ----- -- ----,60037.299999952316,60036.5,59488.132,59501.5,59504.802,60038.247,,45,want
screen,html.Screen,0_2_0_1_46,2021-11-19T10:38:01.302Z,,,,,,,,,,,,,,,,53,,,,,,,,,,,,,,350.35300002383883,,response,,,99,,,,,,Space,keypress(Space),,,,,---- -- ----- -- ------ - ------- --- ----------<br>------------- ------ ------ ---- ---- ------- ----- -- ----<br>-------- ------- -- ---------- --- - --- ----- ----- ----<br>---- --- --- ----- --- ---- ---- ------- ----- ---- -------<br>--- --- -- ----- -- --- ---- to --- ---- -- ------ ------<br>--- ----- -- ----,60389.299999952316,60388.60000002384,60021.577,60037.5,60038.247,60404.914,,46,to
screen,html.Screen,0_2_0_1_47,2021-11-19T10:38:02.013Z,,,,,,,,,,,,,,,,53,,,,,,,,,,,,,,695.4859999761611,,response,,,99,,,,,,Space,keypress(Space),,,,,"---- -- ----- -- ------ - ------- --- ----------<br>------------- ------ ------ ---- ---- ------- ----- -- ----<br>-------- ------- -- ---------- --- - --- ----- ----- ----<br>---- --- --- ----- --- ---- ---- ------- ----- ---- -------<br>--- --- -- ----- -- --- ---- -- be, ---- -- ------ ------<br>--- ----- -- ----",61101.200000047684,61100.39999997616,60388.245,60389.5,60404.914,61105.228,,47,"be,"
screen,html.Screen,0_2_0_1_48,2021-11-19T10:38:02.357Z,,,,,,,,,,,,,,,,53,,,,,,,,,,,,,,339.17199997615535,,response,,,99,,,,,,Space,keypress(Space),,,,,---- -- ----- -- ------ - ------- --- ----------<br>------------- ------ ------ ---- ---- ------- ----- -- ----<br>-------- ------- -- ---------- --- - --- ----- ----- ----<br>---- --- --- ----- --- ---- ---- ------- ----- ---- -------<br>--- --- -- ----- -- --- ---- -- --- even -- ------ ------<br>--- ----- -- ----,61445.10000002384,61444.39999997616,61088.557,61101.39999997616,61105.228,61455.288,,48,even
screen,html.Screen,0_2_0_1_49,2021-11-19T10:38:02.693Z,,,,,,,,,,,,,,,,53,,,,,,,,,,,,,,325.1119999761577,,response,,,99,,,,,,Space,keypress(Space),,,,,---- -- ----- -- ------ - ------- --- ----------<br>------------- ------ ------ ---- ---- ------- ----- -- ----<br>-------- ------- -- ---------- --- - --- ----- ----- ----<br>---- --- --- ----- --- ---- ---- ------- ----- ---- -------<br>--- --- -- ----- -- --- ---- -- --- ---- if ------ ------<br>--- ----- -- ----,61781.10000002384,61780.39999997616,61438.618,61445.39999997616,61455.288,61788.693,,49,if
screen,html.Screen,0_2_0_1_50,2021-11-19T10:38:03.077Z,,,,,,,,,,,,,,,,53,,,,,,,,,,,,,,375.606999952317,,response,,,99,,,,,,Space,keypress(Space),,,,,---- -- ----- -- ------ - ------- --- ----------<br>------------- ------ ------ ---- ---- ------- ----- -- ----<br>-------- ------- -- ---------- --- - --- ----- ----- ----<br>---- --- --- ----- --- ---- ---- ------- ----- ---- -------<br>--- --- -- ----- -- --- ---- -- --- ---- -- that's ------<br>--- ----- -- ----,62165.10000002384,62164.299999952316,61772.023,61781.39999997616,61788.693,62172.096,,50,that's
screen,html.Screen,0_2_0_1_51,2021-11-19T10:38:03.485Z,,,,,,,,,,,,,,,,53,,,,,,,,,,,,,,400.3039999761604,,response,,,99,,,,,,Space,keypress(Space),,,,,---- -- ----- -- ------ - ------- --- ----------<br>------------- ------ ------ ---- ---- ------- ----- -- ----<br>-------- ------- -- ---------- --- - --- ----- ----- ----<br>---- --- --- ----- --- ---- ---- ------- ----- ---- -------<br>--- --- -- ----- -- --- ---- -- --- ---- -- ------ really<br>--- ----- -- ----,62573.200000047684,62572.39999997616,62155.426,62165.39999997616,62172.096,62588.923,,51,really
screen,html.Screen,0_2_0_1_52,2021-11-19T10:38:03.901Z,,,,,,,,,,,,,,,,53,,,,,,,,,,,,,,399.3769999523138,,response,,,99,,,,,,Space,keypress(Space),,,,,---- -- ----- -- ------ - ------- --- ----------<br>------------- ------ ------ ---- ---- ------- ----- -- ----<br>-------- ------- -- ---------- --- - --- ----- ----- ----<br>---- --- --- ----- --- ---- ---- ------- ----- ---- -------<br>--- --- -- ----- -- --- ---- -- --- ---- -- ------ ------<br>not ----- -- ----,62989.200000047684,62988.299999952316,62572.252,62573.39999997616,62588.923,63005.644,,52,not
screen,html.Screen,0_2_0_1_53,2021-11-19T10:38:04.285Z,,,,,,,,,,,,,,,,53,,,,,,,,,,,,,,366.65599995231605,,response,,,99,,,,,,Space,keypress(Space),,,,,---- -- ----- -- ------ - ------- --- ----------<br>------------- ------ ------ ---- ---- ------- ----- -- ----<br>-------- ------- -- ---------- --- - --- ----- ----- ----<br>---- --- --- ----- --- ---- ---- ------- ----- ---- -------<br>--- --- -- ----- -- --- ---- -- --- ---- -- ------ ------<br>--- close -- ----,63373.10000002384,63372.299999952316,62988.974,62989.39999997616,63005.644,63389.067,,53,close
screen,html.Screen,0_2_0_1_54,2021-11-19T10:38:04.653Z,,,,,,,,,,,,,,,,53,,,,,,,,,,,,,,351.133000047681,,response,,,99,,,,,,Space,keypress(Space),,,,,---- -- ----- -- ------ - ------- --- ----------<br>------------- ------ ------ ---- ---- ------- ----- -- ----<br>-------- ------- -- ---------- --- - --- ----- ----- ----<br>---- --- --- ----- --- ---- ---- ------- ----- ---- -------<br>--- --- -- ----- -- --- ---- -- --- ---- -- ------ ------<br>--- ----- at ----,63741.10000002384,63740.200000047684,63372.397,63373.299999952316,63389.067,63755.842,,54,at
screen,html.Screen,0_2_0_1_55,2021-11-19T10:38:05.693Z,,,,,,,,,,,,,,,,53,,,,,,,,,,,,,,1024.3580000476868,,response,,,99,,,,,,Space,keypress(Space),,,,,---- -- ----- -- ------ - ------- --- ----------<br>------------- ------ ------ ---- ---- ------- ----- -- ----<br>-------- ------- -- ---------- --- - --- ----- ----- ----<br>---- --- --- ----- --- ---- ---- ------- ----- ---- -------<br>--- --- -- ----- -- --- ---- -- --- ---- -- ------ ------<br>--- ----- -- all.,64780.89999997616,64780.200000047684,63739.172,63741.299999952316,63755.842,64789.395,,55,all.
Item 99,flow.Loop,0_2_0_1,2021-11-19T10:38:05.698Z,,,,,,,,,,,,,,,,,,,,,,,,,,,,,,30931.86400004768,,completion,,,,A,,,,,,,,,,silence,,64785.299999952316,64780.200000047684,33814.998,33821.200000047684,33848.336,64789.395,,,
Question 1,html.Screen,0_2_0_2,2021-11-19T10:38:11.669Z,,,,,,,,,,,,,,,,,,,,,,,,,,,true,FALSE,,5966.205000023845,,response,,,99,A,,,,,FALSE,click #choice-2,,,,silence,,70757,70755.60000002384,64772.725,64785.5,64789.395,70757.478,,,
Question 2,html.Screen,0_2_0_3,2021-11-19T10:38:17.061Z,,,,,,,,,,,,,,,,,,,,,,,,,,,true,TRUE,,5389.722000047681,,response,,,99,A,,,,,TRUE,click #choice-1,,,,silence,,76148.39999997616,76147.20000004768,70740.808,70757.20000004768,70757.478,76158.849,,,
Item 99,flow.Sequence,0_2_0,2021-11-19T10:38:17.061Z,,,,,,,,,,,,,,,,,,,,,,,,,,,,,,52317.91500004768,,completion,,,,,,,,,,,,,,,,76148.79999995232,76147.20000004768,23812.616,23817.200000047684,23829.285,76158.849,,,
Holding screen,html.Screen,0_2_1_0,2021-11-19T10:38:27.058Z,,,,,,,,,,,,,,,,,,,,,,,,,,,,,,10002.342999999993,,timeout,,,,,,,,,,,,,,,,86145.60000002384,86144.522,76142.179,76149.10000002384,76158.849,86161.192,,,
screen,html.Screen,0_2_1_1_0,2021-11-19T10:38:27.900Z,,,,,,,,,,,,,,,,54,,,,,,,,,,,,,,825.9080000238464,,response,,,100,,,,,,Space,keypress(Space),,,,,At --- ---- --- ------ ----- ------- ---- -- --- ------- --<br>------- ---------- ------ -- ----- -- ----- -- ---- ------<br>--- ----- --- --- ------ -------- ----- --- ------ ----- --<br>----- ----- ---------- --- --- ------ ------ ---- -- ------<br>------- --- ------ ----- --- ---- ------- -- ---- --- --<br>------- ------,86987.79999995232,86987.10000002384,86144.522,86146,86161.192,86994.863,,0,At
screen,html.Screen,0_2_1_1_1,2021-11-19T10:38:28.436Z,,,,,,,,,,,,,,,,54,,,,,,,,,,,,,,527.7370000238443,,response,,,100,,,,,,Space,keypress(Space),,,,,-- the ---- --- ------ ----- ------- ---- -- --- ------- --<br>------- ---------- ------ -- ----- -- ----- -- ---- ------<br>--- ----- --- --- ------ -------- ----- --- ------ ----- --<br>----- ----- ---------- --- --- ------ ------ ---- -- ------<br>------- --- ------ ----- --- ---- ------- -- ---- --- --<br>------- ------,87523.39999997616,87522.60000002384,86978.192,86988.10000002384,86994.863,87528.251,,1,the
screen,html.Screen,0_2_1_1_2,2021-11-19T10:38:29.012Z,,,,,,,,,,,,,,,,54,,,,,,,,,,,,,,570.2489999999962,,response,,,100,,,,,,Space,keypress(Space),,,,,-- --- time --- ------ ----- ------- ---- -- --- ------- --<br>------- ---------- ------ -- ----- -- ----- -- ---- ------<br>--- ----- --- --- ------ -------- ----- --- ------ ----- --<br>----- ----- ---------- --- --- ------ ------ ---- -- ------<br>------- --- ------ ----- --- ---- ------- -- ---- --- --<br>------- ------,88099.29999995232,88098.5,87511.581,87523.70000004768,87528.251,88111.74,,2,time
screen,html.Screen,0_2_1_1_3,2021-11-19T10:38:29.652Z,,,,,,,,,,,,,,,,54,,,,,,,,,,,,,,626.7599999999948,,response,,,100,,,,,,Space,keypress(Space),,,,,-- --- ---- the ------ ----- ------- ---- -- --- ------- --<br>------- ---------- ------ -- ----- -- ----- -- ---- ------<br>--- ----- --- --- ------ -------- ----- --- ------ ----- --<br>----- ----- ---------- --- --- ------ ------ ---- -- ------<br>------- --- ------ ----- --- ---- ------- -- ---- --- --<br>------- ------,88739.29999995232,88738.5,88095.07,88099.5,88111.74,88745.223,,3,the
screen,html.Screen,0_2_1_1_4,2021-11-19T10:38:30.851Z,,,,,,,,,,,,,,,,54,,,,,,,,,,,,,,1193.17699997616,,response,,,100,,,,,,Space,keypress(Space),,,,,-- --- ---- --- French ----- ------- ---- -- --- ------- --<br>------- ---------- ------ -- ----- -- ----- -- ---- ------<br>--- ----- --- --- ------ -------- ----- --- ------ ----- --<br>----- ----- ---------- --- --- ------ ------ ---- -- ------<br>------- --- ------ ----- --- ---- ------- -- ---- --- --<br>------- ------,89939.20000004768,89938.39999997616,88728.553,88739.5,88745.223,89945.509,,4,French
screen,html.Screen,0_2_1_1_5,2021-11-19T10:38:31.348Z,,,,,,,,,,,,,,,,54,,,,,,,,,,,,,,488.7909999523108,,response,,,100,,,,,,Space,keypress(Space),,,,,-- --- ---- --- ------ crown ------- ---- -- --- ------- --<br>------- ---------- ------ -- ----- -- ----- -- ---- ------<br>--- ----- --- --- ------ -------- ----- --- ------ ----- --<br>----- ----- ---------- --- --- ------ ------ ---- -- ------<br>------- --- ------ ----- --- ---- ------- -- ---- --- --<br>------- ------,90435.29999995232,90434.29999995232,89928.839,89939.5,89945.509,90445.616,,5,crown
screen,html.Screen,0_2_1_1_6,2021-11-19T10:38:31.939Z,,,,,,,,,,,,,,,,54,,,,,,,,,,,,,,580.6839999523218,,response,,,100,,,,,,Space,keypress(Space),,,,,-- --- ---- --- ------ ----- secured ---- -- --- ------- --<br>------- ---------- ------ -- ----- -- ----- -- ---- ------<br>--- ----- --- --- ------ -------- ----- --- ------ ----- --<br>----- ----- ---------- --- --- ------ ------ ---- -- ------<br>------- --- ------ ----- --- ---- ------- -- ---- --- --<br>------- ------,91027,91026.29999995232,90428.946,90435.5,90445.616,91029.052,,6,secured
screen,html.Screen,0_2_1_1_7,2021-11-19T10:38:32.395Z,,,,,,,,,,,,,,,,54,,,,,,,,,,,,,,453.3479999761621,,response,,,100,,,,,,Space,keypress(Space),,,,,-- --- ---- --- ------ ----- ------- much -- --- ------- --<br>------- ---------- ------ -- ----- -- ----- -- ---- ------<br>--- ----- --- --- ------ -------- ----- --- ------ ----- --<br>----- ----- ---------- --- --- ------ ------ ---- -- ------<br>------- --- ------ ----- --- ---- ------- -- ---- --- --<br>------- ------,91483.10000002384,91482.39999997616,91012.382,91027.29999995232,91029.052,91495.985,,7,much
screen,html.Screen,0_2_1_1_8,2021-11-19T10:38:32.731Z,,,,,,,,,,,,,,,,54,,,,,,,,,,,,,,322.21500004768313,,response,,,100,,,,,,Space,keypress(Space),,,,,-- --- ---- --- ------ ----- ------- ---- of --- ------- --<br>------- ---------- ------ -- ----- -- ----- -- ---- ------<br>--- ----- --- --- ------ -------- ----- --- ------ ----- --<br>----- ----- ---------- --- --- ------ ------ ---- -- ------<br>------- --- ------ ----- --- ---- ------- -- ---- --- --<br>------- ------,91819,91818.20000004768,91479.313,91483.29999995232,91495.985,91829.326,,8,of
screen,html.Screen,0_2_1_1_9,2021-11-19T10:38:33.051Z,,,,,,,,,,,,,,,,54,,,,,,,,,,,,,,308.8740000476828,,response,,,100,,,,,,Space,keypress(Space),,,,,-- --- ---- --- ------ ----- ------- ---- -- its ------- --<br>------- ---------- ------ -- ----- -- ----- -- ---- ------<br>--- ----- --- --- ------ -------- ----- --- ------ ----- --<br>----- ----- ---------- --- --- ------ ------ ---- -- ------<br>------- --- ------ ----- --- ---- ------- -- ---- --- --<br>------- ------,92139,92138.20000004768,91812.656,91819.20000004768,91829.326,92146.073,,9,its
screen,html.Screen,0_2_1_1_10,2021-11-19T10:38:33.555Z,,,,,,,,,,,,,,,,54,,,,,,,,,,,,,,496.12700004767976,,response,,,100,,,,,,Space,keypress(Space),,,,,-- --- ---- --- ------ ----- ------- ---- -- --- revenue --<br>------- ---------- ------ -- ----- -- ----- -- ---- ------<br>--- ----- --- --- ------ -------- ----- --- ------ ----- --<br>----- ----- ---------- --- --- ------ ------ ---- -- ------<br>------- --- ------ ----- --- ---- ------- -- ---- --- --<br>------- ------,92642.89999997616,92642.20000004768,92129.403,92139.20000004768,92146.073,92646.126,,10,revenue
screen,html.Screen,0_2_1_1_11,2021-11-19T10:38:34.483Z,,,,,,,,,,,,,,,,54,,,,,,,,,,,,,,924.0740000476799,,response,,,100,,,,,,Space,keypress(Space),,,,,-- --- ---- --- ------ ----- ------- ---- -- --- ------- by<br>------- ---------- ------ -- ----- -- ----- -- ---- ------<br>--- ----- --- --- ------ -------- ----- --- ------ ----- --<br>----- ----- ---------- --- --- ------ ------ ---- -- ------<br>------- --- ------ ----- --- ---- ------- -- ---- --- --<br>------- ------,93571,93570.20000004768,92629.457,92643.20000004768,92646.126,93579.798,,11,by
screen,html.Screen,0_2_1_1_12,2021-11-19T10:38:35.035Z,,,,,,,,,,,,,,,,54,,,,,,,,,,,,,,542.3020000238466,,response,,,100,,,,,,Space,keypress(Space),,,,,-- --- ---- --- ------ ----- ------- ---- -- --- ------- --<br>issuing ---------- ------ -- ----- -- ----- -- ---- ------<br>--- ----- --- --- ------ -------- ----- --- ------ ----- --<br>----- ----- ---------- --- --- ------ ------ ---- -- ------<br>------- --- ------ ----- --- ---- ------- -- ---- --- --<br>------- ------,94122.89999997616,94122.10000002384,93563.127,93571.29999995232,93579.798,94129.873,,12,issuing
screen,html.Screen,0_2_1_1_13,2021-11-19T10:38:35.587Z,,,,,,,,,,,,,,,,54,,,,,,,,,,,,,,544.227000023835,,response,,,100,,,,,,Space,keypress(Space),,,,,-- --- ---- --- ------ ----- ------- ---- -- --- ------- --<br>------- government ------ -- ----- -- ----- -- ---- ------<br>--- ----- --- --- ------ -------- ----- --- ------ ----- --<br>----- ----- ---------- --- --- ------ ------ ---- -- ------<br>------- --- ------ ----- --- ---- ------- -- ---- --- --<br>------- ------,94674.89999997616,94674.10000002384,94113.203,94123.20000004768,94129.873,94679.989,,13,government
screen,html.Screen,0_2_1_1_14,2021-11-19T10:38:36.803Z,,,,,,,,,,,,,,,,54,,,,,,,,,,,,,,1210.0109999999986,,response,,,100,,,,,,Space,keypress(Space),,,,,-- --- ---- --- ------ ----- ------- ---- -- --- ------- --<br>------- ---------- bonds. -- ----- -- ----- -- ---- ------<br>--- ----- --- --- ------ -------- ----- --- ------ ----- --<br>----- ----- ---------- --- --- ------ ------ ---- -- ------<br>------- --- ------ ----- --- ---- ------- -- ---- --- --<br>------- ------,95890.79999995232,95890,94663.319,94675.10000002384,94679.989,95896.949,,14,bonds.
screen,html.Screen,0_2_1_1_15,2021-11-19T10:38:37.243Z,,,,,,,,,,,,,,,,54,,,,,,,,,,,,,,433.05100000000675,,response,,,100,,,,,,Space,keypress(Space),,,,,-- --- ---- --- ------ ----- ------- ---- -- --- ------- --<br>------- ---------- ------ In ----- -- ----- -- ---- ------<br>--- ----- --- --- ------ -------- ----- --- ------ ----- --<br>----- ----- ---------- --- --- ------ ------ ---- -- ------<br>------- --- ------ ----- --- ---- ------- -- ---- --- --<br>------- ------,96330.89999997616,96330,95880.279,95891,95896.949,96347.078,,15,In
screen,html.Screen,0_2_1_1_16,2021-11-19T10:38:37.643Z,,,,,,,,,,,,,,,,54,,,,,,,,,,,,,,382.92200000000594,,response,,,100,,,,,,Space,keypress(Space),,,,,"-- --- ---- --- ------ ----- ------- ---- -- --- ------- --<br>------- ---------- ------ -- 1727, -- ----- -- ---- ------<br>--- ----- --- --- ------ -------- ----- --- ------ ----- --<br>----- ----- ---------- --- --- ------ ------ ---- -- ------<br>------- --- ------ ----- --- ---- ------- -- ---- --- --<br>------- ------",96730.79999995232,96730,96330.408,96331.10000002384,96347.078,96747.165,,16,"1727,"
screen,html.Screen,0_2_1_1_17,2021-11-19T10:38:38.411Z,,,,,,,,,,,,,,,,54,,,,,,,,,,,,,,751.1349999523227,,response,,,100,,,,,,Space,keypress(Space),,,,,-- --- ---- --- ------ ----- ------- ---- -- --- ------- --<br>------- ---------- ------ -- ----- in ----- -- ---- ------<br>--- ----- --- --- ------ -------- ----- --- ------ ----- --<br>----- ----- ---------- --- --- ------ ------ ---- -- ------<br>------- --- ------ ----- --- ---- ------- -- ---- --- --<br>------- ------,97499,97498.29999995232,96730.495,96731.10000002384,96747.165,97514.008,,17,in
screen,html.Screen,0_2_1_1_18,2021-11-19T10:38:39.267Z,,,,,,,,,,,,,,,,54,,,,,,,,,,,,,,839.8919999761565,,response,,,100,,,,,,Space,keypress(Space),,,,,-- --- ---- --- ------ ----- ------- ---- -- --- ------- --<br>------- ---------- ------ -- ----- -- order -- ---- ------<br>--- ----- --- --- ------ -------- ----- --- ------ ----- --<br>----- ----- ---------- --- --- ------ ------ ---- -- ------<br>------- --- ------ ----- --- ---- ------- -- ---- --- --<br>------- ------,98354.70000004768,98353.89999997616,97497.338,97499.29999995232,97514.008,98364.055,,18,order
screen,html.Screen,0_2_1_1_19,2021-11-19T10:38:39.667Z,,,,,,,,,,,,,,,,54,,,,,,,,,,,,,,389.74499995232327,,response,,,100,,,,,,Space,keypress(Space),,,,,-- --- ---- --- ------ ----- ------- ---- -- --- ------- --<br>------- ---------- ------ -- ----- -- ----- to ---- ------<br>--- ----- --- --- ------ -------- ----- --- ------ ----- --<br>----- ----- ---------- --- --- ------ ------ ---- -- ------<br>------- --- ------ ----- --- ---- ------- -- ---- --- --<br>------- ------,98754.70000004768,98753.79999995232,98347.386,98354.89999997616,98364.055,98764.313,,19,to
screen,html.Screen,0_2_1_1_20,2021-11-19T10:38:40.043Z,,,,,,,,,,,,,,,,54,,,,,,,,,,,,,,365.48699995232164,,response,,,100,,,,,,Space,keypress(Space),,,,,-- --- ---- --- ------ ----- ------- ---- -- --- ------- --<br>------- ---------- ------ -- ----- -- ----- -- save ------<br>--- ----- --- --- ------ -------- ----- --- ------ ----- --<br>----- ----- ---------- --- --- ------ ------ ---- -- ------<br>------- --- ------ ----- --- ---- ------- -- ---- --- --<br>------- ------,99130.60000002384,99129.79999995232,98747.643,98754.89999997616,98764.313,99147.801,,20,save
screen,html.Screen,0_2_1_1_21,2021-11-19T10:38:40.539Z,,,,,,,,,,,,,,,,54,,,,,,,,,,,,,,477.99899995230953,,response,,,100,,,,,,Space,keypress(Space),,,,,"-- --- ---- --- ------ ----- ------- ---- -- --- ------- --<br>------- ---------- ------ -- ----- -- ----- -- ---- money,<br>--- ----- --- --- ------ -------- ----- --- ------ ----- --<br>----- ----- ---------- --- --- ------ ------ ---- -- ------<br>------- --- ------ ----- --- ---- ------- -- ---- --- --<br>------- ------",99626.60000002384,99625.79999995232,99131.13,99130.79999995232,99147.801,99631.202,,21,"money,"
screen,html.Screen,0_2_1_1_22,2021-11-19T10:38:41.011Z,,,,,,,,,,,,,,,,54,,,,,,,,,,,,,,466.49800004767894,,response,,,100,,,,,,Space,keypress(Space),,,,,-- --- ---- --- ------ ----- ------- ---- -- --- ------- --<br>------- ---------- ------ -- ----- -- ----- -- ---- ------<br>the ----- --- --- ------ -------- ----- --- ------ ----- --<br>----- ----- ---------- --- --- ------ ------ ---- -- ------<br>------- --- ------ ----- --- ---- ------- -- ---- --- --<br>------- ------,100098.5,100097.70000004768,99614.532,99626.89999997616,99631.202,100114.646,,22,the
screen,html.Screen,0_2_1_1_23,2021-11-19T10:38:41.379Z,,,,,,,,,,,,,,,,54,,,,,,,,,,,,,,351.05400004769035,,response,,,100,,,,,,Space,keypress(Space),,,,,-- --- ---- --- ------ ----- ------- ---- -- --- ------- --<br>------- ---------- ------ -- ----- -- ----- -- ---- ------<br>--- state --- --- ------ -------- ----- --- ------ ----- --<br>----- ----- ---------- --- --- ------ ------ ---- -- ------<br>------- --- ------ ----- --- ---- ------- -- ---- --- --<br>------- ------,100466.39999997616,100465.70000004768,100097.976,100098.79999995232,100114.646,100481.43,,23,state
screen,html.Screen,0_2_1_1_24,2021-11-19T10:38:41.835Z,,,,,,,,,,,,,,,,54,,,,,,,,,,,,,,440.2700000476907,,response,,,100,,,,,,Space,keypress(Space),,,,,-- --- ---- --- ------ ----- ------- ---- -- --- ------- --<br>------- ---------- ------ -- ----- -- ----- -- ---- ------<br>--- ----- cut --- ------ -------- ----- --- ------ ----- --<br>----- ----- ---------- --- --- ------ ------ ---- -- ------<br>------- --- ------ ----- --- ---- ------- -- ---- --- --<br>------- ------,100922.39999997616,100921.70000004768,100464.76,100466.70000004768,100481.43,100931.531,,24,cut
screen,html.Screen,0_2_1_1_25,2021-11-19T10:38:42.323Z,,,,,,,,,,,,,,,,54,,,,,,,,,,,,,,478.16900004768104,,response,,,100,,,,,,Space,keypress(Space),,,,,-- --- ---- --- ------ ----- ------- ---- -- --- ------- --<br>------- ---------- ------ -- ----- -- ----- -- ---- ------<br>--- ----- --- the ------ -------- ----- --- ------ ----- --<br>----- ----- ---------- --- --- ------ ------ ---- -- ------<br>------- --- ------ ----- --- ---- ------- -- ---- --- --<br>------- ------,101410.5,101409.70000004768,100914.861,100922.70000004768,100931.531,101414.98,,25,the
screen,html.Screen,0_2_1_1_26,2021-11-19T10:38:43.131Z,,,,,,,,,,,,,,,,54,,,,,,,,,,,,,,802.6200000238459,,response,,,100,,,,,,Space,keypress(Space),,,,,-- --- ---- --- ------ ----- ------- ---- -- --- ------- --<br>------- ---------- ------ -- ----- -- ----- -- ---- ------<br>--- ----- --- --- bonds' -------- ----- --- ------ ----- --<br>----- ----- ---------- --- --- ------ ------ ---- -- ------<br>------- --- ------ ----- --- ---- ------- -- ---- --- --<br>------- ------,102218.39999997616,102217.60000002384,101398.31,101410.70000004768,101414.98,102231.83,,26,bonds'
screen,html.Screen,0_2_1_1_27,2021-11-19T10:38:43.587Z,,,,,,,,,,,,,,,,54,,,,,,,,,,,,,,441.7700000238401,,response,,,100,,,,,,Space,keypress(Space),,,,,-- --- ---- --- ------ ----- ------- ---- -- --- ------- --<br>------- ---------- ------ -- ----- -- ----- -- ---- ------<br>--- ----- --- --- ------ interest ----- --- ------ ----- --<br>----- ----- ---------- --- --- ------ ------ ---- -- ------<br>------- --- ------ ----- --- ---- ------- -- ---- --- --<br>------- ------,102674.39999997616,102673.60000002384,102215.16,102218.60000002384,102231.83,102681.951,,27,interest
screen,html.Screen,0_2_1_1_28,2021-11-19T10:38:44.227Z,,,,,,,,,,,,,,,,54,,,,,,,,,,,,,,631.5489999999991,,response,,,100,,,,,,Space,keypress(Space),,,,,-- --- ---- --- ------ ----- ------- ---- -- --- ------- --<br>------- ---------- ------ -- ----- -- ----- -- ---- ------<br>--- ----- --- --- ------ -------- rate. --- ------ ----- --<br>----- ----- ---------- --- --- ------ ------ ---- -- ------<br>------- --- ------ ----- --- ---- ------- -- ---- --- --<br>------- ------,103314.29999995232,103313.5,102665.281,102674.60000002384,102681.951,103315.435,,28,rate.
screen,html.Screen,0_2_1_1_29,2021-11-19T10:38:44.715Z,,,,,,,,,,,,,,,,54,,,,,,,,,,,,,,486.0650000000023,,response,,,100,,,,,,Space,keypress(Space),,,,,-- --- ---- --- ------ ----- ------- ---- -- --- ------- --<br>------- ---------- ------ -- ----- -- ----- -- ---- ------<br>--- ----- --- --- ------ -------- ----- The ------ ----- --<br>----- ----- ---------- --- --- ------ ------ ---- -- ------<br>------- --- ------ ----- --- ---- ------- -- ---- --- --<br>------- ------,103802.20000004768,103801.5,103298.765,103314.60000002384,103315.435,103815.542,,29,The
screen,html.Screen,0_2_1_1_30,2021-11-19T10:38:45.114Z,,,,,,,,,,,,,,,,54,,,,,,,,,,,,,,385.85799997615686,,response,,,100,,,,,,Space,keypress(Space),,,,,-- --- ---- --- ------ ----- ------- ---- -- --- ------- --<br>------- ---------- ------ -- ----- -- ----- -- ---- ------<br>--- ----- --- --- ------ -------- ----- --- market ----- --<br>----- ----- ---------- --- --- ------ ------ ---- -- ------<br>------- --- ------ ----- --- ---- ------- -- ---- --- --<br>------- ------,104202.29999995232,104201.39999997616,103798.872,103802.5,103815.542,104215.572,,30,market
screen,html.Screen,0_2_1_1_31,2021-11-19T10:38:45.490Z,,,,,,,,,,,,,,,,54,,,,,,,,,,,,,,361.9279999999999,,response,,,100,,,,,,Space,keypress(Space),,,,,-- --- ---- --- ------ ----- ------- ---- -- --- ------- --<br>------- ---------- ------ -- ----- -- ----- -- ---- ------<br>--- ----- --- --- ------ -------- ----- --- ------ value --<br>----- ----- ---------- --- --- ------ ------ ---- -- ------<br>------- --- ------ ----- --- ---- ------- -- ---- --- --<br>------- ------,104578.20000004768,104577.5,104198.903,104202.39999997616,104215.572,104582.463,,31,value
screen,html.Screen,0_2_1_1_32,2021-11-19T10:38:45.914Z,,,,,,,,,,,,,,,,54,,,,,,,,,,,,,,418.93699997615477,,response,,,100,,,,,,Space,keypress(Space),,,,,-- --- ---- --- ------ ----- ------- ---- -- --- ------- --<br>------- ---------- ------ -- ----- -- ----- -- ---- ------<br>--- ----- --- --- ------ -------- ----- --- ------ ----- of<br>----- ----- ---------- --- --- ------ ------ ---- -- ------<br>------- --- ------ ----- --- ---- ------- -- ---- --- --<br>------- ------,105002.10000002384,105001.39999997616,104565.792,104578.39999997616,104582.463,105015.901,,32,of
screen,html.Screen,0_2_1_1_33,2021-11-19T10:38:46.346Z,,,,,,,,,,,,,,,,54,,,,,,,,,,,,,,417.39899995231826,,response,,,100,,,,,,Space,keypress(Space),,,,,-- --- ---- --- ------ ----- ------- ---- -- --- ------- --<br>------- ---------- ------ -- ----- -- ----- -- ---- ------<br>--- ----- --- --- ------ -------- ----- --- ------ ----- --<br>these ----- ---------- --- --- ------ ------ ---- -- ------<br>------- --- ------ ----- --- ---- ------- -- ---- --- --<br>------- ------,105434.10000002384,105433.29999995232,104999.23,105002.39999997616,105015.901,105449.289,,33,these
screen,html.Screen,0_2_1_1_34,2021-11-19T10:38:46.778Z,,,,,,,,,,,,,,,,54,,,,,,,,,,,,,,416.11099997615383,,response,,,100,,,,,,Space,keypress(Space),,,,,-- --- ---- --- ------ ----- ------- ---- -- --- ------- --<br>------- ---------- ------ -- ----- -- ----- -- ---- ------<br>--- ----- --- --- ------ -------- ----- --- ------ ----- --<br>----- bonds ---------- --- --- ------ ------ ---- -- ------<br>------- --- ------ ----- --- ---- ------- -- ---- --- --<br>------- ------,105866.20000004768,105865.39999997616,105432.619,105434.29999995232,105449.289,105882.598,,34,bonds
screen,html.Screen,0_2_1_1_35,2021-11-19T10:38:47.442Z,,,,,,,,,,,,,,,,54,,,,,,,,,,,,,,646.6020000476856,,response,,,100,,,,,,Space,keypress(Space),,,,,"-- --- ---- --- ------ ----- ------- ---- -- --- ------- --<br>------- ---------- ------ -- ----- -- ----- -- ---- ------<br>--- ----- --- --- ------ -------- ----- --- ------ ----- --<br>----- ----- plummeted, --- --- ------ ------ ---- -- ------<br>------- --- ------ ----- --- ---- ------- -- ---- --- --<br>------- ------",106529.89999997616,106529.20000004768,105865.93,105866.39999997616,105882.598,106532.94,,35,"plummeted,"
screen,html.Screen,0_2_1_1_36,2021-11-19T10:38:47.850Z,,,,,,,,,,,,,,,,54,,,,,,,,,,,,,,404.35999995231396,,response,,,100,,,,,,Space,keypress(Space),,,,,-- --- ---- --- ------ ----- ------- ---- -- --- ------- --<br>------- ---------- ------ -- ----- -- ----- -- ---- ------<br>--- ----- --- --- ------ -------- ----- --- ------ ----- --<br>----- ----- ---------- and --- ------ ------ ---- -- ------<br>------- --- ------ ----- --- ---- ------- -- ---- --- --<br>------- ------,106938.10000002384,106937.29999995232,106516.269,106530.20000004768,106532.94,106949.713,,36,and
screen,html.Screen,0_2_1_1_37,2021-11-19T10:38:48.242Z,,,,,,,,,,,,,,,,54,,,,,,,,,,,,,,379.48700004768034,,response,,,100,,,,,,Space,keypress(Space),,,,,-- --- ---- --- ------ ----- ------- ---- -- --- ------- --<br>------- ---------- ------ -- ----- -- ----- -- ---- ------<br>--- ----- --- --- ------ -------- ----- --- ------ ----- --<br>----- ----- ---------- --- the ------ ------ ---- -- ------<br>------- --- ------ ----- --- ---- ------- -- ---- --- --<br>------- ------,107329.89999997616,107329.20000004768,106933.042,106938.29999995232,106949.713,107333.08,,37,the
screen,html.Screen,0_2_1_1_38,2021-11-19T10:38:48.755Z,,,,,,,,,,,,,,,,54,,,,,,,,,,,,,,508.41999999999825,,response,,,100,,,,,,Space,keypress(Space),,,,,-- --- ---- --- ------ ----- ------- ---- -- --- ------- --<br>------- ---------- ------ -- ----- -- ----- -- ---- ------<br>--- ----- --- --- ------ -------- ----- --- ------ ----- --<br>----- ----- ---------- --- --- market ------ ---- -- ------<br>------- --- ------ ----- --- ---- ------- -- ---- --- --<br>------- ------,107842.29999995232,107841.5,107316.41,107330.10000002384,107333.08,107849.874,,38,market
screen,html.Screen,0_2_1_1_39,2021-11-19T10:38:49.202Z,,,,,,,,,,,,,,,,54,,,,,,,,,,,,,,439.2260000238457,,response,,,100,,,,,,Space,keypress(Space),,,,,-- --- ---- --- ------ ----- ------- ---- -- --- ------- --<br>------- ---------- ------ -- ----- -- ----- -- ---- ------<br>--- ----- --- --- ------ -------- ----- --- ------ ----- --<br>----- ----- ---------- --- --- ------ became ---- -- ------<br>------- --- ------ ----- --- ---- ------- -- ---- --- --<br>------- ------,108290,108289.10000002384,107833.204,107842.5,107849.874,108300.041,,39,became
screen,html.Screen,0_2_1_1_40,2021-11-19T10:38:49.618Z,,,,,,,,,,,,,,,,54,,,,,,,,,,,,,,405.0590000238444,,response,,,100,,,,,,Space,keypress(Space),,,,,-- --- ---- --- ------ ----- ------- ---- -- --- ------- --<br>------- ---------- ------ -- ----- -- ----- -- ---- ------<br>--- ----- --- --- ------ -------- ----- --- ------ ----- --<br>----- ----- ---------- --- --- ------ ------ wary -- ------<br>------- --- ------ ----- --- ---- ------- -- ---- --- --<br>------- ------,108705.89999997616,108705.10000002384,108283.37,108290.20000004768,108300.041,108716.75,,40,wary
screen,html.Screen,0_2_1_1_41,2021-11-19T10:38:50.002Z,,,,,,,,,,,,,,,,54,,,,,,,,,,,,,,372.25,,response,,,100,,,,,,Space,keypress(Space),,,,,-- --- ---- --- ------ ----- ------- ---- -- --- ------- --<br>------- ---------- ------ -- ----- -- ----- -- ---- ------<br>--- ----- --- --- ------ -------- ----- --- ------ ----- --<br>----- ----- ---------- --- --- ------ ------ ---- of ------<br>------- --- ------ ----- --- ---- ------- -- ---- --- --<br>------- ------,109089.79999995232,109089,108700.08,108706.10000002384,108716.75,109100.173,,41,of
screen,html.Screen,0_2_1_1_42,2021-11-19T10:38:50.602Z,,,,,,,,,,,,,,,,54,,,,,,,,,,,,,,588.8270000000048,,response,,,100,,,,,,Space,keypress(Space),,,,,-- --- ---- --- ------ ----- ------- ---- -- --- ------- --<br>------- ---------- ------ -- ----- -- ----- -- ---- ------<br>--- ----- --- --- ------ -------- ----- --- ------ ----- --<br>----- ----- ---------- --- --- ------ ------ ---- -- French<br>------- --- ------ ----- --- ---- ------- -- ---- --- --<br>------- ------,109689.70000004768,109689,109083.503,109090,109100.173,109700.321,,42,French
screen,html.Screen,0_2_1_1_43,2021-11-19T10:38:51.154Z,,,,,,,,,,,,,,,,54,,,,,,,,,,,,,,540.7790000238456,,response,,,100,,,,,,Space,keypress(Space),,,,,-- --- ---- --- ------ ----- ------- ---- -- --- ------- --<br>------- ---------- ------ -- ----- -- ----- -- ---- ------<br>--- ----- --- --- ------ -------- ----- --- ------ ----- --<br>----- ----- ---------- --- --- ------ ------ ---- -- ------<br>credit. --- ------ ----- --- ---- ------- -- ---- --- --<br>------- ------,110241.79999995232,110241.10000002384,109683.651,109690,109700.321,110250.457,,43,credit.
screen,html.Screen,0_2_1_1_44,2021-11-19T10:38:51.474Z,,,,,,,,,,,,,,,,54,,,,,,,,,,,,,,310.44299997616326,,response,,,100,,,,,,Space,keypress(Space),,,,,-- --- ---- --- ------ ----- ------- ---- -- --- ------- --<br>------- ---------- ------ -- ----- -- ----- -- ---- ------<br>--- ----- --- --- ------ -------- ----- --- ------ ----- --<br>----- ----- ---------- --- --- ------ ------ ---- -- ------<br>------- The ------ ----- --- ---- ------- -- ---- --- --<br>------- ------,110561.70000004768,110560.89999997616,110233.787,110242,110250.457,110567.213,,44,The
screen,html.Screen,0_2_1_1_45,2021-11-19T10:38:51.802Z,,,,,,,,,,,,,,,,54,,,,,,,,,,,,,,321.7869999999966,,response,,,100,,,,,,Space,keypress(Space),,,,,-- --- ---- --- ------ ----- ------- ---- -- --- ------- --<br>------- ---------- ------ -- ----- -- ----- -- ---- ------<br>--- ----- --- --- ------ -------- ----- --- ------ ----- --<br>----- ----- ---------- --- --- ------ ------ ---- -- ------<br>------- --- French ----- --- ---- ------- -- ---- --- --<br>------- ------,110889.79999995232,110889,110550.543,110561.89999997616,110567.213,110900.626,,45,French
screen,html.Screen,0_2_1_1_46,2021-11-19T10:38:52.210Z,,,,,,,,,,,,,,,,54,,,,,,,,,,,,,,396.2739999761543,,response,,,100,,,,,,Space,keypress(Space),,,,,-- --- ---- --- ------ ----- ------- ---- -- --- ------- --<br>------- ---------- ------ -- ----- -- ----- -- ---- ------<br>--- ----- --- --- ------ -------- ----- --- ------ ----- --<br>----- ----- ---------- --- --- ------ ------ ---- -- ------<br>------- --- ------ state --- ---- ------- -- ---- --- --<br>------- ------,111297.79999995232,111296.89999997616,110883.956,110890,110900.626,111300.665,,46,state
screen,html.Screen,0_2_1_1_47,2021-11-19T10:38:52.642Z,,,,,,,,,,,,,,,,54,,,,,,,,,,,,,,428.23499997616454,,response,,,100,,,,,,Space,keypress(Space),,,,,-- --- ---- --- ------ ----- ------- ---- -- --- ------- --<br>------- ---------- ------ -- ----- -- ----- -- ---- ------<br>--- ----- --- --- ------ -------- ----- --- ------ ----- --<br>----- ----- ---------- --- --- ------ ------ ---- -- ------<br>------- --- ------ ----- was ---- ------- -- ---- --- --<br>------- ------,111729.70000004768,111728.89999997616,111283.996,111297.89999997616,111300.665,111734.154,,47,was
screen,html.Screen,0_2_1_1_48,2021-11-19T10:38:53.082Z,,,,,,,,,,,,,,,,54,,,,,,,,,,,,,,434.74599997616315,,response,,,100,,,,,,Space,keypress(Space),,,,,-- --- ---- --- ------ ----- ------- ---- -- --- ------- --<br>------- ---------- ------ -- ----- -- ----- -- ---- ------<br>--- ----- --- --- ------ -------- ----- --- ------ ----- --<br>----- ----- ---------- --- --- ------ ------ ---- -- ------<br>------- --- ------ ----- --- left ------- -- ---- --- --<br>------- ------,112169.70000004768,112168.89999997616,111717.484,111729.89999997616,111734.154,112184.255,,48,left
screen,html.Screen,0_2_1_1_49,2021-11-19T10:38:53.570Z,,,,,,,,,,,,,,,,54,,,,,,,,,,,,,,472.6449999761535,,response,,,100,,,,,,Space,keypress(Space),,,,,-- --- ---- --- ------ ----- ------- ---- -- --- ------- --<br>------- ---------- ------ -- ----- -- ----- -- ---- ------<br>--- ----- --- --- ------ -------- ----- --- ------ ----- --<br>----- ----- ---------- --- --- ------ ------ ---- -- ------<br>------- --- ------ ----- --- ---- without -- ---- --- --<br>------- ------,112657.70000004768,112656.89999997616,112167.585,112169.89999997616,112184.255,112667.561,,49,without
screen,html.Screen,0_2_1_1_50,2021-11-19T10:38:53.946Z,,,,,,,,,,,,,,,,54,,,,,,,,,,,,,,365.23899995231477,,response,,,100,,,,,,Space,keypress(Space),,,,,-- --- ---- --- ------ ----- ------- ---- -- --- ------- --<br>------- ---------- ------ -- ----- -- ----- -- ---- ------<br>--- ----- --- --- ------ -------- ----- --- ------ ----- --<br>----- ----- ---------- --- --- ------ ------ ---- -- ------<br>------- --- ------ ----- --- ---- ------- an ---- --- --<br>------- ------,113033.60000002384,113032.79999995232,112650.893,112657.89999997616,112667.561,113051.221,,50,an
screen,html.Screen,0_2_1_1_51,2021-11-19T10:38:54.370Z,,,,,,,,,,,,,,,,54,,,,,,,,,,,,,,405.5789999523113,,response,,,100,,,,,,Space,keypress(Space),,,,,-- --- ---- --- ------ ----- ------- ---- -- --- ------- --<br>------- ---------- ------ -- ----- -- ----- -- ---- ------<br>--- ----- --- --- ------ -------- ----- --- ------ ----- --<br>----- ----- ---------- --- --- ------ ------ ---- -- ------<br>------- --- ------ ----- --- ---- ------- -- easy --- --<br>------- ------,113457.60000002384,113456.79999995232,113034.549,113033.89999997616,113051.221,113467.915,,51,easy
screen,html.Screen,0_2_1_1_52,2021-11-19T10:38:54.706Z,,,,,,,,,,,,,,,,54,,,,,,,,,,,,,,324.8849999523227,,response,,,100,,,,,,Space,keypress(Space),,,,,-- --- ---- --- ------ ----- ------- ---- -- --- ------- --<br>------- ---------- ------ -- ----- -- ----- -- ---- ------<br>--- ----- --- --- ------ -------- ----- --- ------ ----- --<br>----- ----- ---------- --- --- ------ ------ ---- -- ------<br>------- --- ------ ----- --- ---- ------- -- ---- way --<br>------- ------,113793.60000002384,113792.79999995232,113451.245,113457.79999995232,113467.915,113801.325,,52,way
screen,html.Screen,0_2_1_1_53,2021-11-19T10:38:55.130Z,,,,,,,,,,,,,,,,54,,,,,,,,,,,,,,415.4749999523192,,response,,,100,,,,,,Space,keypress(Space),,,,,-- --- ---- --- ------ ----- ------- ---- -- --- ------- --<br>------- ---------- ------ -- ----- -- ----- -- ---- ------<br>--- ----- --- --- ------ -------- ----- --- ------ ----- --<br>----- ----- ---------- --- --- ------ ------ ---- -- ------<br>------- --- ------ ----- --- ---- ------- -- ---- --- of<br>------- ------,114217.60000002384,114216.79999995232,113784.655,113793.79999995232,113801.325,114234.745,,53,of
screen,html.Screen,0_2_1_1_54,2021-11-19T10:38:55.562Z,,,,,,,,,,,,,,,,54,,,,,,,,,,,,,,413.9550000476884,,response,,,100,,,,,,Space,keypress(Space),,,,,-- --- ---- --- ------ ----- ------- ---- -- --- ------- --<br>------- ---------- ------ -- ----- -- ----- -- ---- ------<br>--- ----- --- --- ------ -------- ----- --- ------ ----- --<br>----- ----- ---------- --- --- ------ ------ ---- -- ------<br>------- --- ------ ----- --- ---- ------- -- ---- --- --<br>raising ------,114649.5,114648.70000004768,114218.075,114217.79999995232,114234.745,114651.57,,54,raising
screen,html.Screen,0_2_1_1_55,2021-11-19T10:38:56.546Z,,,,,,,,,,,,,,,,54,,,,,,,,,,,,,,981.1300000476767,,response,,,100,,,,,,Space,keypress(Space),,,,,-- --- ---- --- ------ ----- ------- ---- -- --- ------- --<br>------- ---------- ------ -- ----- -- ----- -- ---- ------<br>--- ----- --- --- ------ -------- ----- --- ------ ----- --<br>----- ----- ---------- --- --- ------ ------ ---- -- ------<br>------- --- ------ ----- --- ---- ------- -- ---- --- --<br>------- money.,115633.39999997616,115632.70000004768,114634.899,114649.79999995232,114651.57,115635.047,,55,money.
Item 100,flow.Loop,0_2_1_1,2021-11-19T10:38:56.546Z,,,,,,,,,,,,,,,,,,,,,,,,,,,,,,29471.50800004769,,completion,,,,A,,,,,,,,,,silence,,115633.79999995232,115632.70000004768,86144.522,86145.89999997616,86161.192,115635.047,,,
Question 1,html.Screen,0_2_1_2,2021-11-19T10:38:58.618Z,,,,,,,,,,,,,,,,,,,,,,,,,,,true,TRUE,,2069.2529999523103,,response,,,100,A,,,,,TRUE,click #choice-1,,,,silence,,117705.5,117704.29999995232,115618.377,115634,115635.047,117718.943,,,
Question 2,html.Screen,0_2_1_3,2021-11-19T10:39:01.158Z,,,,,,,,,,,,,,,,,,,,,,,,,,,true,FALSE,,2521.1570000238426,,response,,,100,A,,,,,FALSE,click #choice-2,,,,silence,,120241.29999995232,120240.10000002384,117702.273,117705.70000004768,117718.943,120252.881,,,
Item 100,flow.Sequence,0_2_1,2021-11-19T10:39:01.158Z,,,,,,,,,,,,,,,,,,,,,,,,,,,,,,44081.25100002384,,completion,,,,,,,,,,,,,,,,120241.60000002384,120240.10000002384,76142.179,76149,76158.849,120252.881,,,
End of Practice,html.Page,0_2_2,2021-11-19T10:39:05.110Z,,,,,,,,,,,,,,,,,,,,,,,,,,,,,,3940.4189999523223,,form submission,,,,,,,,,,,,,,,,124193.79999995232,124193.29999995232,120236.211,120241.79999995232,120252.881,124203.829,,,
Practice,flow.Sequence,0_2,2021-11-19T10:39:05.111Z,,,,,,,,,,,,,,,,,,,,,,,,,,,,,,100364.01499995231,,completion,,,,,,,,,,,,,,,,124194.20000004768,124193.29999995232,23812.616,23817,23829.285,124203.829,,,
Trap_instruction,html.Page,0_3_0,2021-11-19T10:39:08.102Z,,,,,,,,,,,,,,,,,,,,,,,,,,,,,,2981.171000000002,,form submission,,,,,,,,,,,,,,,,127185.5,127185,124187.158,124194.60000002384,124203.829,127204.389,,,
trap_trial,html.Screen,0_3_1,2021-11-19T10:39:11.437Z,,,,,,,,,,,,,,,,,,,,,,,,,,,true,1,,3315.1110000000044,,response,,,,,,,,,1,click #choice-1,,,,,,130520.60000002384,130519.5,127171.049,127185.70000004768,127204.389,130521.874,,,
end of trap trial,html.Page,0_3_2,2021-11-19T10:39:13.108Z,,,,,,,,,,,,,,,,,,,,,,,,,,,,,,1669.8260000476876,,form submission,,,,,,,,,,,,,,,,132192,132191.70000004768,130505.204,130520.79999995232,130521.874,132205.771,,,
Trap 1,flow.Sequence,0_3,2021-11-19T10:39:13.109Z,,,,,,,,,,,,,,,,,,,,,,,,,,,,,,7987.871000047686,,completion,,,,,,,,,,,,,,,,132192.10000002384,132191.70000004768,124187.158,124194.5,124203.829,132205.771,,,
Standby,html.Page,0_4_0,2021-11-19T10:39:21.109Z,,,,,,,,,,,,,,,,,,,,,,,,,,,,,,8001.573999999993,,timeout,,,,,,,,,,,,,,,,140192.20000004768,140190.675,132189.101,132192.20000004768,132205.771,140207.345,,,
Holding screen,html.Screen,0_4_1_0_0,2021-11-19T10:39:28.110Z,,,,,,,,,,,,,,,,,,,,,,,,,,,,,,7002.040000000008,,timeout,,,,,,,,,,,,,,,,147193.79999995232,147192.715,140190.675,140192.5,140207.345,147209.385,,,
screen,html.Screen,0_4_1_0_1_0,2021-11-19T10:39:29.732Z,,,,,,,,,,,,,,,,15,,,,,,,,,,,,,,1605.3150000476744,,response,,,7,A,,,,,Space,keypress(Space),,,,silence,Greg --------- ---------- - --- ------- -- --- ------------<br>----- -- -------- ------- ---- ------ - -------- ---- -----<br>--- ------- ---- -- --- -------- --- - ----- ------ ---- --<br>-------- --- -------- -------- --- -------- ---- -- ----- -<br>-------- ---- --- ---------- --------- -- ------- ------ -<br>--------- ----- -----,148815.79999995232,148814.70000004768,147192.715,147194.29999995232,147209.385,148826.445,,0,Greg
screen,html.Screen,0_4_1_0_1_1,2021-11-19T10:39:30.748Z,,,,,,,,,,,,,,,,15,,,,,,,,,,,,,,1003.8549999523093,,response,,,7,A,,,,,Space,keypress(Space),,,,silence,"---- Anderson, ---------- - --- ------- -- --- ------------<br>----- -- -------- ------- ---- ------ - -------- ---- -----<br>--- ------- ---- -- --- -------- --- - ----- ------ ---- --<br>-------- --- -------- -------- --- -------- ---- -- ----- -<br>-------- ---- --- ---------- --------- -- ------- ------ -<br>--------- ----- -----",149831.10000002384,149830.29999995232,148809.775,148816.10000002384,148826.445,149843.338,,1,"Anderson,"
screen,html.Screen,0_4_1_0_1_2,2021-11-19T10:39:31.396Z,,,,,,,,,,,,,,,,15,,,,,,,,,,,,,,634.8620000476949,,response,,,7,A,,,,,Space,keypress(Space),,,,silence,---- --------- considered - --- ------- -- --- ------------<br>----- -- -------- ------- ---- ------ - -------- ---- -----<br>--- ------- ---- -- --- -------- --- - ----- ------ ---- --<br>-------- --- -------- -------- --- -------- ---- -- ----- -<br>-------- ---- --- ---------- --------- -- ------- ------ -<br>--------- ----- -----,150479,150478.20000004768,149826.668,149831.5,149843.338,150493.466,,2,considered
screen,html.Screen,0_4_1_0_1_3,2021-11-19T10:39:31.820Z,,,,,,,,,,,,,,,,15,,,,,,,,,,,,,,408.7340000476979,,response,,,7,A,,,,,Space,keypress(Space),,,,silence,---- --------- ---------- a --- ------- -- --- ------------<br>----- -- -------- ------- ---- ------ - -------- ---- -----<br>--- ------- ---- -- --- -------- --- - ----- ------ ---- --<br>-------- --- -------- -------- --- -------- ---- -- ----- -<br>-------- ---- --- ---------- --------- -- ------- ------ -<br>--------- ----- -----,150903.10000002384,150902.20000004768,150476.796,150479.29999995232,150493.466,150910.386,,3,a
screen,html.Screen,0_4_1_0_1_4,2021-11-19T10:39:32.179Z,,,,,,,,,,,,,,,,15,,,,,,,,,,,,,,351.8140000476851,,response,,,7,A,,,,,Space,keypress(Space),,,,silence,---- --------- ---------- - key ------- -- --- ------------<br>----- -- -------- ------- ---- ------ - -------- ---- -----<br>--- ------- ---- -- --- -------- --- - ----- ------ ---- --<br>-------- --- -------- -------- --- -------- ---- -- ----- -<br>-------- ---- --- ---------- --------- -- ------- ------ -<br>--------- ----- -----,151263,151262.20000004768,150893.715,150903.29999995232,150910.386,151277.089,,4,key
screen,html.Screen,0_4_1_0_1_5,2021-11-19T10:39:33.003Z,,,,,,,,,,,,,,,,15,,,,,,,,,,,,,,808.9109999999928,,response,,,7,A,,,,,Space,keypress(Space),,,,silence,---- --------- ---------- - --- witness -- --- ------------<br>----- -- -------- ------- ---- ------ - -------- ---- -----<br>--- ------- ---- -- --- -------- --- - ----- ------ ---- --<br>-------- --- -------- -------- --- -------- ---- -- ----- -<br>-------- ---- --- ---------- --------- -- ------- ------ -<br>--------- ----- -----,152086.79999995232,152086,151260.419,151263.20000004768,151277.089,152093.951,,5,witness
screen,html.Screen,0_4_1_0_1_6,2021-11-19T10:39:33.347Z,,,,,,,,,,,,,,,,15,,,,,,,,,,,,,,336.1490000238409,,response,,,7,A,,,,,Space,keypress(Space),,,,silence,---- --------- ---------- - --- ------- by --- ------------<br>----- -- -------- ------- ---- ------ - -------- ---- -----<br>--- ------- ---- -- --- -------- --- - ----- ------ ---- --<br>-------- --- -------- -------- --- -------- ---- -- ----- -<br>-------- ---- --- ---------- --------- -- ------- ------ -<br>--------- ----- -----,152430.89999997616,152430.10000002384,152077.281,152087,152093.951,152444.026,,6,by
screen,html.Screen,0_4_1_0_1_7,2021-11-19T10:39:33.691Z,,,,,,,,,,,,,,,,15,,,,,,,,,,,,,,330.0740000238293,,response,,,7,A,,,,,Space,keypress(Space),,,,silence,---- --------- ---------- - --- ------- -- the ------------<br>----- -- -------- ------- ---- ------ - -------- ---- -----<br>--- ------- ---- -- --- -------- --- - ----- ------ ---- --<br>-------- --- -------- -------- --- -------- ---- -- ----- -<br>-------- ---- --- ---------- --------- -- ------- ------ -<br>--------- ----- -----,152774.79999995232,152774.10000002384,152427.356,152431.20000004768,152444.026,152777.456,,7,the
screen,html.Screen,0_4_1_0_1_8,2021-11-19T10:39:34.684Z,,,,,,,,,,,,,,,,15,,,,,,,,,,,,,,988.5439999999944,,response,,,7,A,,,,,Space,keypress(Space),,,,silence,"---- --------- ---------- - --- ------- -- --- prosecution,<br>----- -- -------- ------- ---- ------ - -------- ---- -----<br>--- ------- ---- -- --- -------- --- - ----- ------ ---- --<br>-------- --- -------- -------- --- -------- ---- -- ----- -<br>-------- ---- --- ---------- --------- -- ------- ------ -<br>--------- ----- -----",153767.10000002384,153766,152760.786,152775.10000002384,152777.456,153777.752,,8,"prosecution,"
screen,html.Screen,0_4_1_0_1_9,2021-11-19T10:39:35.211Z,,,,,,,,,,,,,,,,15,,,,,,,,,,,,,,516.2479999999923,,response,,,7,A,,,,,Space,keypress(Space),,,,silence,---- --------- ---------- - --- ------- -- --- ------------<br>vowed -- -------- ------- ---- ------ - -------- ---- -----<br>--- ------- ---- -- --- -------- --- - ----- ------ ---- --<br>-------- --- -------- -------- --- -------- ---- -- ----- -<br>-------- ---- --- ---------- --------- -- ------- ------ -<br>--------- ----- -----,154294.79999995232,154294,153761.081,153767.39999997616,153777.752,154311.183,,9,vowed
screen,html.Screen,0_4_1_0_1_10,2021-11-19T10:39:35.587Z,,,,,,,,,,,,,,,,15,,,,,,,,,,,,,,358.81700000001,,response,,,7,A,,,,,Space,keypress(Space),,,,silence,---- --------- ---------- - --- ------- -- --- ------------<br>----- he -------- ------- ---- ------ - -------- ---- -----<br>--- ------- ---- -- --- -------- --- - ----- ------ ---- --<br>-------- --- -------- -------- --- -------- ---- -- ----- -<br>-------- ---- --- ---------- --------- -- ------- ------ -<br>--------- ----- -----,154670.70000004768,154670,154294.513,154295,154311.183,154677.928,,10,he
screen,html.Screen,0_4_1_0_1_11,2021-11-19T10:39:36.155Z,,,,,,,,,,,,,,,,15,,,,,,,,,,,,,,559.9719999761437,,response,,,7,A,,,,,Space,keypress(Space),,,,silence,---- --------- ---------- - --- ------- -- --- ------------<br>----- -- wouldn't ------- ---- ------ - -------- ---- -----<br>--- ------- ---- -- --- -------- --- - ----- ------ ---- --<br>-------- --- -------- -------- --- -------- ---- -- ----- -<br>-------- ---- --- ---------- --------- -- ------- ------ -<br>--------- ----- -----,155238.60000002384,155237.89999997616,154661.258,154671,154677.928,155244.712,,11,wouldn't
screen,html.Screen,0_4_1_0_1_12,2021-11-19T10:39:36.603Z,,,,,,,,,,,,,,,,15,,,,,,,,,,,,,,441.1879999761586,,response,,,7,A,,,,,Space,keypress(Space),,,,silence,---- --------- ---------- - --- ------- -- --- ------------<br>----- -- -------- testify ---- ------ - -------- ---- -----<br>--- ------- ---- -- --- -------- --- - ----- ------ ---- --<br>-------- --- -------- -------- --- -------- ---- -- ----- -<br>-------- ---- --- ---------- --------- -- ------- ------ -<br>--------- ----- -----,155686.60000002384,155685.89999997616,155228.042,155238.89999997616,155244.712,155694.816,,12,testify
screen,html.Screen,0_4_1_0_1_13,2021-11-19T10:39:37.307Z,,,,,,,,,,,,,,,,15,,,,,,,,,,,,,,694.9839999523247,,response,,,7,A,,,,,Space,keypress(Space),,,,silence,---- --------- ---------- - --- ------- -- --- ------------<br>----- -- -------- ------- when ------ - -------- ---- -----<br>--- ------- ---- -- --- -------- --- - ----- ------ ---- --<br>-------- --- -------- -------- --- -------- ---- -- ----- -<br>-------- ---- --- ---------- --------- -- ------- ------ -<br>--------- ----- -----,156390.60000002384,156389.79999995232,155678.146,155686.89999997616,155694.816,156394.987,,13,when
screen,html.Screen,0_4_1_0_1_14,2021-11-19T10:39:37.763Z,,,,,,,,,,,,,,,,15,,,,,,,,,,,,,,450.81299995232257,,response,,,7,A,,,,,Space,keypress(Space),,,,silence,---- --------- ---------- - --- ------- -- --- ------------<br>----- -- -------- ------- ---- served - -------- ---- -----<br>--- ------- ---- -- --- -------- --- - ----- ------ ---- --<br>-------- --- -------- -------- --- -------- ---- -- ----- -<br>-------- ---- --- ---------- --------- -- ------- ------ -<br>--------- ----- -----,156846.60000002384,156845.79999995232,156378.317,156390.79999995232,156394.987,156861.777,,14,served
screen,html.Screen,0_4_1_0_1_15,2021-11-19T10:39:38.219Z,,,,,,,,,,,,,,,,15,,,,,,,,,,,,,,440.0229999523144,,response,,,7,A,,,,,Space,keypress(Space),,,,silence,---- --------- ---------- - --- ------- -- --- ------------<br>----- -- -------- ------- ---- ------ a -------- ---- -----<br>--- ------- ---- -- --- -------- --- - ----- ------ ---- --<br>-------- --- -------- -------- --- -------- ---- -- ----- -<br>-------- ---- --- ---------- --------- -- ------- ------ -<br>--------- ----- -----,157302.5,157301.79999995232,156845.107,156846.89999997616,156861.777,157311.893,,15,a
screen,html.Screen,0_4_1_0_1_16,2021-11-19T10:39:39.219Z,,,,,,,,,,,,,,,,15,,,,,,,,,,,,,,989.8070000476728,,response,,,7,A,,,,,Space,keypress(Space),,,,silence,---- --------- ---------- - --- ------- -- --- ------------<br>----- -- -------- ------- ---- ------ - subpoena ---- -----<br>--- ------- ---- -- --- -------- --- - ----- ------ ---- --<br>-------- --- -------- -------- --- -------- ---- -- ----- -<br>-------- ---- --- ---------- --------- -- ------- ------ -<br>--------- ----- -----,158302.5,158301.70000004768,157295.223,157302.79999995232,157311.893,158312.1,,16,subpoena
screen,html.Screen,0_4_1_0_1_17,2021-11-19T10:39:39.587Z,,,,,,,,,,,,,,,,15,,,,,,,,,,,,,,357.50000002383604,,response,,,7,A,,,,,Space,keypress(Space),,,,silence,---- --------- ---------- - --- ------- -- --- ------------<br>----- -- -------- ------- ---- ------ - -------- last -----<br>--- ------- ---- -- --- -------- --- - ----- ------ ---- --<br>-------- --- -------- -------- --- -------- ---- -- ----- -<br>-------- ---- --- ---------- --------- -- ------- ------ -<br>--------- ----- -----,158670.39999997616,158669.60000002384,158295.43,158302.70000004768,158312.1,158678.911,,17,last
screen,html.Screen,0_4_1_0_1_18,2021-11-19T10:39:39.963Z,,,,,,,,,,,,,,,,15,,,,,,,,,,,,,,367.0890000000072,,response,,,7,A,,,,,Space,keypress(Space),,,,silence,---- --------- ---------- - --- ------- -- --- ------------<br>----- -- -------- ------- ---- ------ - -------- ---- week.<br>--- ------- ---- -- --- -------- --- - ----- ------ ---- --<br>-------- --- -------- -------- --- -------- ---- -- ----- -<br>-------- ---- --- ---------- --------- -- ------- ------ -<br>--------- ----- -----,159046.79999995232,159046,158662.241,158670.60000002384,158678.911,159062.28,,18,week.
screen,html.Screen,0_4_1_0_1_19,2021-11-19T10:39:40.587Z,,,,,,,,,,,,,,,,15,,,,,,,,,,,,,,607.2200000000012,,response,,,7,A,,,,,Space,keypress(Space),,,,silence,---- --------- ---------- - --- ------- -- --- ------------<br>----- -- -------- ------- ---- ------ - -------- ---- -----<br>His ------- ---- -- --- -------- --- - ----- ------ ---- --<br>-------- --- -------- -------- --- -------- ---- -- ----- -<br>-------- ---- --- ---------- --------- -- ------- ------ -<br>--------- ----- -----,159670.29999995232,159669.5,159045.61,159047,159062.28,159679.189,,19,His
screen,html.Screen,0_4_1_0_1_20,2021-11-19T10:39:41.027Z,,,,,,,,,,,,,,,,15,,,,,,,,,,,,,,430.31099999998696,,response,,,7,A,,,,,Space,keypress(Space),,,,silence,---- --------- ---------- - --- ------- -- --- ------------<br>----- -- -------- ------- ---- ------ - -------- ---- -----<br>--- lawyers ---- -- --- -------- --- - ----- ------ ---- --<br>-------- --- -------- -------- --- -------- ---- -- ----- -<br>-------- ---- --- ---------- --------- -- ------- ------ -<br>--------- ----- -----,160110.29999995232,160109.5,159662.518,159670.5,159679.189,160112.399,,20,lawyers
screen,html.Screen,0_4_1_0_1_21,2021-11-19T10:39:41.363Z,,,,,,,,,,,,,,,,15,,,,,,,,,,,,,,333.20100002383697,,response,,,7,A,,,,,Space,keypress(Space),,,,silence,---- --------- ---------- - --- ------- -- --- ------------<br>----- -- -------- ------- ---- ------ - -------- ---- -----<br>--- ------- said -- --- -------- --- - ----- ------ ---- --<br>-------- --- -------- -------- --- -------- ---- -- ----- -<br>-------- ---- --- ---------- --------- -- ------- ------ -<br>--------- ----- -----,160446.29999995232,160445.60000002384,160095.731,160110.5,160112.399,160462.631,,21,said
screen,html.Screen,0_4_1_0_1_22,2021-11-19T10:39:41.691Z,,,,,,,,,,,,,,,,15,,,,,,,,,,,,,,310.86900000000605,,response,,,7,A,,,,,Space,keypress(Space),,,,silence,---- --------- ---------- - --- ------- -- --- ------------<br>----- -- -------- ------- ---- ------ - -------- ---- -----<br>--- ------- ---- he --- -------- --- - ----- ------ ---- --<br>-------- --- -------- -------- --- -------- ---- -- ----- -<br>-------- ---- --- ---------- --------- -- ------- ------ -<br>--------- ----- -----,160774.29999995232,160773.5,160445.961,160446.60000002384,160462.631,160779.354,,22,he
screen,html.Screen,0_4_1_0_1_23,2021-11-19T10:39:42.107Z,,,,,,,,,,,,,,,,15,,,,,,,,,,,,,,410.04599997616606,,response,,,7,A,,,,,Space,keypress(Space),,,,silence,---- --------- ---------- - --- ------- -- --- ------------<br>----- -- -------- ------- ---- ------ - -------- ---- -----<br>--- ------- ---- -- was -------- --- - ----- ------ ---- --<br>-------- --- -------- -------- --- -------- ---- -- ----- -<br>-------- ---- --- ---------- --------- -- ------- ------ -<br>--------- ----- -----,161190.20000004768,161189.39999997616,160762.684,160774.5,160779.354,161196.265,,23,was
screen,html.Screen,0_4_1_0_1_24,2021-11-19T10:39:42.683Z,,,,,,,,,,,,,,,,15,,,,,,,,,,,,,,569.234999999986,,response,,,7,A,,,,,Space,keypress(Space),,,,silence,---- --------- ---------- - --- ------- -- --- ------------<br>----- -- -------- ------- ---- ------ - -------- ---- -----<br>--- ------- ---- -- --- prepared --- - ----- ------ ---- --<br>-------- --- -------- -------- --- -------- ---- -- ----- -<br>-------- ---- --- ---------- --------- -- ------- ------ -<br>--------- ----- -----,161766.20000004768,161765.5,161179.593,161190.60000002384,161196.265,161779.639,,24,prepared
screen,html.Screen,0_4_1_0_1_25,2021-11-19T10:39:43.035Z,,,,,,,,,,,,,,,,15,,,,,,,,,,,,,,337.76099997616257,,response,,,7,A,,,,,Space,keypress(Space),,,,silence,---- --------- ---------- - --- ------- -- --- ------------<br>----- -- -------- ------- ---- ------ - -------- ---- -----<br>--- ------- ---- -- --- -------- for - ----- ------ ---- --<br>-------- --- -------- -------- --- -------- ---- -- ----- -<br>-------- ---- --- ---------- --------- -- ------- ------ -<br>--------- ----- -----,162118.10000002384,162117.39999997616,161762.969,161766.39999997616,161779.639,162129.714,,25,for
screen,html.Screen,0_4_1_0_1_26,2021-11-19T10:39:43.379Z,,,,,,,,,,,,,,,,15,,,,,,,,,,,,,,331.58599995230907,,response,,,7,A,,,,,Space,keypress(Space),,,,silence,---- --------- ---------- - --- ------- -- --- ------------<br>----- -- -------- ------- ---- ------ - -------- ---- -----<br>--- ------- ---- -- --- -------- --- a ----- ------ ---- --<br>-------- --- -------- -------- --- -------- ---- -- ----- -<br>-------- ---- --- ---------- --------- -- ------- ------ -<br>--------- ----- -----,162462.10000002384,162461.29999995232,162113.044,162118.29999995232,162129.714,162463.142,,26,a
screen,html.Screen,0_4_1_0_1_27,2021-11-19T10:39:43.971Z,,,,,,,,,,,,,,,,15,,,,,,,,,,,,,,590.2579999761656,,response,,,7,A,,,,,Space,keypress(Space),,,,silence,---- --------- ---------- - --- ------- -- --- ------------<br>----- -- -------- ------- ---- ------ - -------- ---- -----<br>--- ------- ---- -- --- -------- --- - third ------ ---- --<br>-------- --- -------- -------- --- -------- ---- -- ----- -<br>-------- ---- --- ---------- --------- -- ------- ------ -<br>--------- ----- -----,163054.20000004768,163053.39999997616,162446.472,162462.29999995232,162463.142,163063.335,,27,third
screen,html.Screen,0_4_1_0_1_28,2021-11-19T10:39:44.355Z,,,,,,,,,,,,,,,,15,,,,,,,,,,,,,,374.0649999761663,,response,,,7,A,,,,,Space,keypress(Space),,,,silence,---- --------- ---------- - --- ------- -- --- ------------<br>----- -- -------- ------- ---- ------ - -------- ---- -----<br>--- ------- ---- -- --- -------- --- - ----- prison ---- --<br>-------- --- -------- -------- --- -------- ---- -- ----- -<br>-------- ---- --- ---------- --------- -- ------- ------ -<br>--------- ----- -----,163438.10000002384,163437.39999997616,163046.664,163054.39999997616,163063.335,163446.723,,28,prison
screen,html.Screen,0_4_1_0_1_29,2021-11-19T10:39:44.787Z,,,,,,,,,,,,,,,,15,,,,,,,,,,,,,,422.67699997616,,response,,,7,A,,,,,Space,keypress(Space),,,,silence,---- --------- ---------- - --- ------- -- --- ------------<br>----- -- -------- ------- ---- ------ - -------- ---- -----<br>--- ------- ---- -- --- -------- --- - ----- ------ stay --<br>-------- --- -------- -------- --- -------- ---- -- ----- -<br>-------- ---- --- ---------- --------- -- ------- ------ -<br>--------- ----- -----,163870.10000002384,163869.39999997616,163430.053,163438.39999997616,163446.723,163880.134,,29,stay
screen,html.Screen,0_4_1_0_1_30,2021-11-19T10:39:45.307Z,,,,,,,,,,,,,,,,15,,,,,,,,,,,,,,509.16599995232536,,response,,,7,A,,,,,Space,keypress(Space),,,,silence,---- --------- ---------- - --- ------- -- --- ------------<br>----- -- -------- ------- ---- ------ - -------- ---- -----<br>--- ------- ---- -- --- -------- --- - ----- ------ ---- to<br>-------- --- -------- -------- --- -------- ---- -- ----- -<br>-------- ---- --- ---------- --------- -- ------- ------ -<br>--------- ----- -----,164390,164389.29999995232,163863.464,163870.39999997616,163880.134,164396.951,,30,to
screen,html.Screen,0_4_1_0_1_31,2021-11-19T10:39:45.858Z,,,,,,,,,,,,,,,,15,,,,,,,,,,,,,,544.2490000476828,,response,,,7,A,,,,,Space,keypress(Space),,,,silence,---- --------- ---------- - --- ------- -- --- ------------<br>----- -- -------- ------- ---- ------ - -------- ---- -----<br>--- ------- ---- -- --- -------- --- - ----- ------ ---- --<br>maintain --- -------- -------- --- -------- ---- -- ----- -<br>-------- ---- --- ---------- --------- -- ------- ------ -<br>--------- ----- -----,164942,164941.20000004768,164380.281,164390.29999995232,164396.951,164946.909,,31,maintain
screen,html.Screen,0_4_1_0_1_32,2021-11-19T10:39:46.202Z,,,,,,,,,,,,,,,,15,,,,,,,,,,,,,,338.3909999523021,,response,,,7,A,,,,,Space,keypress(Space),,,,silence,---- --------- ---------- - --- ------- -- --- ------------<br>----- -- -------- ------- ---- ------ - -------- ---- -----<br>--- ------- ---- -- --- -------- --- - ----- ------ ---- --<br>-------- his -------- -------- --- -------- ---- -- ----- -<br>-------- ---- --- ---------- --------- -- ------- ------ -<br>--------- ----- -----,165285.89999997616,165285.29999995232,164930.241,164942.29999995232,164946.909,165297.255,,32,his
screen,html.Screen,0_4_1_0_1_33,2021-11-19T10:39:47.114Z,,,,,,,,,,,,,,,,15,,,,,,,,,,,,,,899.9450000476791,,response,,,7,A,,,,,Space,keypress(Space),,,,silence,---- --------- ---------- - --- ------- -- --- ------------<br>----- -- -------- ------- ---- ------ - -------- ---- -----<br>--- ------- ---- -- --- -------- --- - ----- ------ ---- --<br>-------- --- silence. -------- --- -------- ---- -- ----- -<br>-------- ---- --- ---------- --------- -- ------- ------ -<br>--------- ----- -----,166197.89999997616,166197.20000004768,165280.583,165286.20000004768,165297.255,166214.023,,33,silence.
screen,html.Screen,0_4_1_0_1_34,2021-11-19T10:39:47.570Z,,,,,,,,,,,,,,,,15,,,,,,,,,,,,,,439.07700002385536,,response,,,7,A,,,,,Space,keypress(Space),,,,silence,---- --------- ---------- - --- ------- -- --- ------------<br>----- -- -------- ------- ---- ------ - -------- ---- -----<br>--- ------- ---- -- --- -------- --- - ----- ------ ---- --<br>-------- --- -------- Anderson --- -------- ---- -- ----- -<br>-------- ---- --- ---------- --------- -- ------- ------ -<br>--------- ----- -----,166653.89999997616,166653.10000002384,166197.353,166198.20000004768,166214.023,166664.041,,34,Anderson
screen,html.Screen,0_4_1_0_1_35,2021-11-19T10:39:48.018Z,,,,,,,,,,,,,,,,15,,,,,,,,,,,,,,437.0590000238444,,response,,,7,A,,,,,Space,keypress(Space),,,,silence,---- --------- ---------- - --- ------- -- --- ------------<br>----- -- -------- ------- ---- ------ - -------- ---- -----<br>--- ------- ---- -- --- -------- --- - ----- ------ ---- --<br>-------- --- -------- -------- was -------- ---- -- ----- -<br>-------- ---- --- ---------- --------- -- ------- ------ -<br>--------- ----- -----,167101.79999995232,167101.10000002384,166647.372,166654.10000002384,166664.041,167114.227,,35,was
screen,html.Screen,0_4_1_0_1_36,2021-11-19T10:39:48.514Z,,,,,,,,,,,,,,,,15,,,,,,,,,,,,,,482.7729999999865,,response,,,7,A,,,,,Space,keypress(Space),,,,silence,---- --------- ---------- - --- ------- -- --- ------------<br>----- -- -------- ------- ---- ------ - -------- ---- -----<br>--- ------- ---- -- --- -------- --- - ----- ------ ---- --<br>-------- --- -------- -------- --- released ---- -- ----- -<br>-------- ---- --- ---------- --------- -- ------- ------ -<br>--------- ----- -----,167597.89999997616,167597,167097.557,167102.10000002384,167114.227,167614.337,,36,released
screen,html.Screen,0_4_1_0_1_37,2021-11-19T10:39:48.906Z,,,,,,,,,,,,,,,,15,,,,,,,,,,,,,,374.66300000000047,,response,,,7,A,,,,,Space,keypress(Space),,,,silence,---- --------- ---------- - --- ------- -- --- ------------<br>----- -- -------- ------- ---- ------ - -------- ---- -----<br>--- ------- ---- -- --- -------- --- - ----- ------ ---- --<br>-------- --- -------- -------- --- -------- July -- ----- -<br>-------- ---- --- ---------- --------- -- ------- ------ -<br>--------- ----- -----,167989.79999995232,167989,167597.667,167598.10000002384,167614.337,167997.908,,37,July
screen,html.Screen,0_4_1_0_1_38,2021-11-19T10:39:49.434Z,,,,,,,,,,,,,,,,15,,,,,,,,,,,,,,519.0920000000042,,response,,,7,A,,,,,Space,keypress(Space),,,,silence,---- --------- ---------- - --- ------- -- --- ------------<br>----- -- -------- ------- ---- ------ - -------- ---- -----<br>--- ------- ---- -- --- -------- --- - ----- ------ ---- --<br>-------- --- -------- -------- --- -------- ---- 20 ----- -<br>-------- ---- --- ---------- --------- -- ------- ------ -<br>--------- ----- -----,168517.79999995232,168517,167981.236,167990.10000002384,167997.908,168531.277,,38,20
screen,html.Screen,0_4_1_0_1_39,2021-11-19T10:39:50.107Z,,,,,,,,,,,,,,,,15,,,,,,,,,,,,,,658.0229999523144,,response,,,7,A,,,,,Space,keypress(Space),,,,silence,---- --------- ---------- - --- ------- -- --- ------------<br>----- -- -------- ------- ---- ------ - -------- ---- -----<br>--- ------- ---- -- --- -------- --- - ----- ------ ---- --<br>-------- --- -------- -------- --- -------- ---- -- after -<br>-------- ---- --- ---------- --------- -- ------- ------ -<br>--------- ----- -----,169190.10000002384,169189.29999995232,168514.607,168518.10000002384,168531.277,169198.103,,39,after
screen,html.Screen,0_4_1_0_1_40,2021-11-19T10:39:50.610Z,,,,,,,,,,,,,,,,15,,,,,,,,,,,,,,494.79699997615535,,response,,,7,A,,,,,Space,keypress(Space),,,,silence,---- --------- ---------- - --- ------- -- --- ------------<br>----- -- -------- ------- ---- ------ - -------- ---- -----<br>--- ------- ---- -- --- -------- --- - ----- ------ ---- --<br>-------- --- -------- -------- --- -------- ---- -- ----- a<br>-------- ---- --- ---------- --------- -- ------- ------ -<br>--------- ----- -----,169693.60000002384,169692.89999997616,169181.433,169190.20000004768,169198.103,169698.233,,40,a
screen,html.Screen,0_4_1_0_1_41,2021-11-19T10:39:51.114Z,,,,,,,,,,,,,,,,15,,,,,,,,,,,,,,498.56699995230883,,response,,,7,A,,,,,Space,keypress(Space),,,,silence,---- --------- ---------- - --- ------- -- --- ------------<br>----- -- -------- ------- ---- ------ - -------- ---- -----<br>--- ------- ---- -- --- -------- --- - ----- ------ ---- --<br>-------- --- -------- -------- --- -------- ---- -- ----- -<br>two-week ---- --- ---------- --------- -- ------- ------ -<br>--------- ----- -----,170197.60000002384,170196.79999995232,169681.563,169693.79999995232,169698.233,170215.022,,41,two-week
screen,html.Screen,0_4_1_0_1_42,2021-11-19T10:39:51.530Z,,,,,,,,,,,,,,,,15,,,,,,,,,,,,,,397.7779999523191,,response,,,7,A,,,,,Space,keypress(Space),,,,silence,---- --------- ---------- - --- ------- -- --- ------------<br>----- -- -------- ------- ---- ------ - -------- ---- -----<br>--- ------- ---- -- --- -------- --- - ----- ------ ---- --<br>-------- --- -------- -------- --- -------- ---- -- ----- -<br>-------- stay --- ---------- --------- -- ------- ------ -<br>--------- ----- -----,170613.5,170612.79999995232,170198.352,170197.79999995232,170215.022,170615.127,,42,stay
screen,html.Screen,0_4_1_0_1_43,2021-11-19T10:39:51.858Z,,,,,,,,,,,,,,,,15,,,,,,,,,,,,,,325.6729999523086,,response,,,7,A,,,,,Space,keypress(Space),,,,silence,---- --------- ---------- - --- ------- -- --- ------------<br>----- -- -------- ------- ---- ------ - -------- ---- -----<br>--- ------- ---- -- --- -------- --- - ----- ------ ---- --<br>-------- --- -------- -------- --- -------- ---- -- ----- -<br>-------- ---- for ---------- --------- -- ------- ------ -<br>--------- ----- -----,170941.70000004768,170940.79999995232,170598.457,170613.89999997616,170615.127,170948.528,,43,for
screen,html.Screen,0_4_1_0_1_44,2021-11-19T10:39:52.282Z,,,,,,,,,,,,,,,,15,,,,,,,,,,,,,,416.27199995232513,,response,,,7,A,,,,,Space,keypress(Space),,,,silence,---- --------- ---------- - --- ------- -- --- ------------<br>----- -- -------- ------- ---- ------ - -------- ---- -----<br>--- ------- ---- -- --- -------- --- - ----- ------ ---- --<br>-------- --- -------- -------- --- -------- ---- -- ----- -<br>-------- ---- --- previously --------- -- ------- ------ -<br>--------- ----- -----,171365.60000002384,171364.79999995232,170931.858,170941.79999995232,170948.528,171381.896,,44,previously
screen,html.Screen,0_4_1_0_1_45,2021-11-19T10:39:52.802Z,,,,,,,,,,,,,,,,15,,,,,,,,,,,,,,502.8040000476758,,response,,,7,A,,,,,Space,keypress(Space),,,,silence,---- --------- ---------- - --- ------- -- --- ------------<br>----- -- -------- ------- ---- ------ - -------- ---- -----<br>--- ------- ---- -- --- -------- --- - ----- ------ ---- --<br>-------- --- -------- -------- --- -------- ---- -- ----- -<br>-------- ---- --- ---------- declining -- ------- ------ -<br>--------- ----- -----,171885.60000002384,171884.70000004768,171365.227,171365.89999997616,171381.896,171898.858,,45,declining
screen,html.Screen,0_4_1_0_1_46,2021-11-19T10:39:53.178Z,,,,,,,,,,,,,,,,15,,,,,,,,,,,,,,361.84200004767627,,response,,,7,A,,,,,Space,keypress(Space),,,,silence,---- --------- ---------- - --- ------- -- --- ------------<br>----- -- -------- ------- ---- ------ - -------- ---- -----<br>--- ------- ---- -- --- -------- --- - ----- ------ ---- --<br>-------- --- -------- -------- --- -------- ---- -- ----- -<br>-------- ---- --- ---------- --------- to ------- ------ -<br>--------- ----- -----,172261.5,172260.70000004768,171882.186,171885.70000004768,171898.858,172265.521,,46,to
screen,html.Screen,0_4_1_0_1_47,2021-11-19T10:39:53.466Z,,,,,,,,,,,,,,,,15,,,,,,,,,,,,,,283.1790000476758,,response,,,7,A,,,,,Space,keypress(Space),,,,silence,---- --------- ---------- - --- ------- -- --- ------------<br>----- -- -------- ------- ---- ------ - -------- ---- -----<br>--- ------- ---- -- --- -------- --- - ----- ------ ---- --<br>-------- --- -------- -------- --- -------- ---- -- ----- -<br>-------- ---- --- ---------- --------- -- testify ------ -<br>--------- ----- -----,172549.60000002384,172548.70000004768,172248.851,172261.79999995232,172265.521,172565.603,,47,testify
screen,html.Screen,0_4_1_0_1_48,2021-11-19T10:39:54.074Z,,,,,,,,,,,,,,,,15,,,,,,,,,,,,,,591.0970000476809,,response,,,7,A,,,,,Space,keypress(Space),,,,silence,---- --------- ---------- - --- ------- -- --- ------------<br>----- -- -------- ------- ---- ------ - -------- ---- -----<br>--- ------- ---- -- --- -------- --- - ----- ------ ---- --<br>-------- --- -------- -------- --- -------- ---- -- ----- -<br>-------- ---- --- ---------- --------- -- ------- before -<br>--------- ----- -----,173157.39999997616,173156.70000004768,172548.933,172549.89999997616,172565.603,173165.572,,48,before
screen,html.Screen,0_4_1_0_1_49,2021-11-19T10:39:54.570Z,,,,,,,,,,,,,,,,15,,,,,,,,,,,,,,487.12800004769815,,response,,,7,A,,,,,Space,keypress(Space),,,,silence,---- --------- ---------- - --- ------- -- --- ------------<br>----- -- -------- ------- ---- ------ - -------- ---- -----<br>--- ------- ---- -- --- -------- --- - ----- ------ ---- --<br>-------- --- -------- -------- --- -------- ---- -- ----- -<br>-------- ---- --- ---------- --------- -- ------- ------ a<br>--------- ----- -----,173653.39999997616,173652.70000004768,173148.904,173157.60000002384,173165.572,173665.865,,49,a
screen,html.Screen,0_4_1_0_1_50,2021-11-19T10:39:55.298Z,,,,,,,,,,,,,,,,15,,,,,,,,,,,,,,714.7350000238512,,response,,,7,A,,,,,Space,keypress(Space),,,,silence,---- --------- ---------- - --- ------- -- --- ------------<br>----- -- -------- ------- ---- ------ - -------- ---- -----<br>--- ------- ---- -- --- -------- --- - ----- ------ ---- --<br>-------- --- -------- -------- --- -------- ---- -- ----- -<br>-------- ---- --- ---------- --------- -- ------- ------ -<br>different ----- -----,174381.29999995232,174380.60000002384,173649.194,173653.70000004768,173665.865,174382.771,,50,different
screen,html.Screen,0_4_1_0_1_51,2021-11-19T10:39:55.714Z,,,,,,,,,,,,,,,,15,,,,,,,,,,,,,,413.82900002383394,,response,,,7,A,,,,,Space,keypress(Space),,,,silence,---- --------- ---------- - --- ------- -- --- ------------<br>----- -- -------- ------- ---- ------ - -------- ---- -----<br>--- ------- ---- -- --- -------- --- - ----- ------ ---- --<br>-------- --- -------- -------- --- -------- ---- -- ----- -<br>-------- ---- --- ---------- --------- -- ------- ------ -<br>--------- grand -----,174797.29999995232,174796.60000002384,174366.1,174381.60000002384,174382.771,174799.453,,51,grand
screen,html.Screen,0_4_1_0_1_52,2021-11-19T10:39:56.290Z,,,,,,,,,,,,,,,,15,,,,,,,,,,,,,,573.0469999999914,,response,,,7,A,,,,,Space,keypress(Space),,,,silence,---- --------- ---------- - --- ------- -- --- ------------<br>----- -- -------- ------- ---- ------ - -------- ---- -----<br>--- ------- ---- -- --- -------- --- - ----- ------ ---- --<br>-------- --- -------- -------- --- -------- ---- -- ----- -<br>-------- ---- --- ---------- --------- -- ------- ------ -<br>--------- ----- jury.,175373.29999995232,175372.5,174782.783,174797.60000002384,174799.453,175382.943,,52,jury.
Item 7,flow.Loop,0_4_1_0_1,2021-11-19T10:39:56.290Z,,,,,,,,,,,,,,,,,,,,,,,,,,,,,,28163.11499999999,,completion,,,,,,,,,,,,,,,,175373.70000004768,175372.5,147192.715,147194.10000002384,147209.385,175382.943,,,
