sender,sender_type,sender_id,timestamp,meta,,Blues,Classical,Country,Dance,Electronic,Folk,Gospel,Hip-Hop,Jazz,Latin,Musical/Film,New-age,Pop,Provo_ID,R&B,Rap,Reggae,Religious,Rock,Soul,Swing,Traditional,age,artist_name,correct,correctResponse,distraction,duration,education,ended_on,familiarity,gender,item,list,music_frequency,offensiveness,pleasantness,preference,response,response_action,snippet_file,song_name,song_rating,sound,text,time_commit,time_end,time_render,time_run,time_show,time_switch,url,word,word_ID
Instructions,html.Page,0_0,2021-12-02T11:24:29.382Z,"{""labjs_version"":""20.2.3"",""labjs_build"":{""flavor"":""production"",""commit"":""7ea907d66ca8aeef8054924ca5d82ffbe11e34e5""},""location"":""https://run.pavlovia.org/mvasilev/lab_music_c/"",""userAgent"":""Mozilla/5.0 (Windows NT 6.1; Win64; x64) AppleWebKit/537.36 (KHTML, like Gecko) Chrome/96.0.4664.45 Safari/537.36"",""platform"":""Win32"",""language"":""en-US"",""locale"":""en-US"",""timeZone"":""Europe/London"",""timezoneOffset"":0,""screen_width"":1920,""screen_height"":1080,""scroll_width"":1920,""scroll_height"":959,""window_innerWidth"":1920,""window_innerHeight"":1007,""devicePixelRatio"":1}",,,,,,,,,,,,,,,,,,,,,,,,,,,,,25872.608999998884,,form submission,,,,,,,,,,,,,,,,35163,35161.79999999888,9055.811,9078.400000000373,9289.191,35165.377,{},,
Headphones,html.Page,0_1,2021-12-02T11:24:32.676Z,,,,,,,,,,,,,,,,,,,,,,,,,,,,,,3291.3229999992545,,form submission,,,,,,,,,,,,,,,,38457.09999999963,38456.699999999255,35148.649,35163.79999999888,35165.377,38466.833,,,
Holding screen,html.Screen,0_2_0_0,2021-12-02T11:24:42.675Z,,,,,,,,,,,,,,,,,,,,,,,,,,,,,,9999.166000000005,,timeout,,,,,,,,,,,,,,,,48456.09999999963,48449.33,38450.149,38457.699999999255,38466.833,48465.999,,,
screen,html.Screen,0_2_0_1_0,2021-12-02T11:24:44.814Z,,,,,,,,,,,,,,,,53,,,,,,,,,,,,,,2128.2009999992515,,response,,,99,,,,,,Space,keypress(Space),,,,,When -- ----- -- ------ - ------- --- ----------<br>------------- ------ ------ ---- ---- ------- ----- -- ----<br>-------- ------- -- ---------- --- - --- ----- ----- ----<br>---- --- --- ----- --- ---- ---- ------- ----- ---- -------<br>--- --- -- ----- -- --- ---- -- --- ---- -- ------ ------<br>--- ----- -- ----,50595.59999999963,50594.199999999255,48449.33,48456.699999999255,48465.999,50600.218,,0,When
screen,html.Screen,0_2_0_1_1,2021-12-02T11:24:46.622Z,,,,,,,,,,,,,,,,53,,,,,,,,,,,,,,1801.7819999999992,,response,,,99,,,,,,Space,keypress(Space),,,,,---- it ----- -- ------ - ------- --- ----------<br>------------- ------ ------ ---- ---- ------- ----- -- ----<br>-------- ------- -- ---------- --- - --- ----- ----- ----<br>---- --- --- ----- --- ---- ---- ------- ----- ---- -------<br>--- --- -- ----- -- --- ---- -- --- ---- -- ------ ------<br>--- ----- -- ----,52403,52402,50583.547,50595.90000000037,50600.218,52417.155,,1,it
screen,html.Screen,0_2_0_1_2,2021-12-02T11:24:47.758Z,,,,,,,,,,,,,,,,53,,,,,,,,,,,,,,1120.7450000003737,,response,,,99,,,,,,Space,keypress(Space),,,,,---- -- comes -- ------ - ------- --- ----------<br>------------- ------ ------ ---- ---- ------- ----- -- ----<br>-------- ------- -- ---------- --- - --- ----- ----- ----<br>---- --- --- ----- --- ---- ---- ------- ----- ---- -------<br>--- --- -- ----- -- --- ---- -- --- ---- -- ------ ------<br>--- ----- -- ----,53539,53537.90000000037,52400.485,52403.29999999888,52417.155,53550.77,,2,comes
screen,html.Screen,0_2_0_1_3,2021-12-02T11:24:48.374Z,,,,,,,,,,,,,,,,53,,,,,,,,,,,,,,603.1300000003757,,response,,,99,,,,,,Space,keypress(Space),,,,,---- -- ----- to ------ - ------- --- ----------<br>------------- ------ ------ ---- ---- ------- ----- -- ----<br>-------- ------- -- ---------- --- - --- ----- ----- ----<br>---- --- --- ----- --- ---- ---- ------- ----- ---- -------<br>--- --- -- ----- -- --- ---- -- --- ---- -- ------ ------<br>--- ----- -- ----,54154.90000000037,54153.90000000037,53534.1,53539.29999999888,53550.77,54167.8,,3,to
screen,html.Screen,0_2_0_1_4,2021-12-02T11:24:49.142Z,,,,,,,,,,,,,,,,53,,,,,,,,,,,,,,753.9999999988795,,response,,,99,,,,,,Space,keypress(Space),,,,,---- -- ----- -- having - ------- --- ----------<br>------------- ------ ------ ---- ---- ------- ----- -- ----<br>-------- ------- -- ---------- --- - --- ----- ----- ----<br>---- --- --- ----- --- ---- ---- ------- ----- ---- -------<br>--- --- -- ----- -- --- ---- -- --- ---- -- ------ ------<br>--- ----- -- ----,54923.199999999255,54921.79999999888,54151.129,54155.5,54167.8,54934.556,,4,having
screen,html.Screen,0_2_0_1_5,2021-12-02T11:24:49.614Z,,,,,,,,,,,,,,,,53,,,,,,,,,,,,,,459.3440000003757,,response,,,99,,,,,,Space,keypress(Space),,,,,---- -- ----- -- ------ a ------- --- ----------<br>------------- ------ ------ ---- ---- ------- ----- -- ----<br>-------- ------- -- ---------- --- - --- ----- ----- ----<br>---- --- --- ----- --- ---- ---- ------- ----- ---- -------<br>--- --- -- ----- -- --- ---- -- --- ---- -- ------ ------<br>--- ----- -- ----,55394.79999999888,55393.90000000037,54917.886,54923.5,54934.556,55401.37,,5,a
screen,html.Screen,0_2_0_1_6,2021-12-02T11:24:50.390Z,,,,,,,,,,,,,,,,53,,,,,,,,,,,,,,768.8299999992523,,response,,,99,,,,,,Space,keypress(Space),,,,,---- -- ----- -- ------ - lasting --- ----------<br>------------- ------ ------ ---- ---- ------- ----- -- ----<br>-------- ------- -- ---------- --- - --- ----- ----- ----<br>---- --- --- ----- --- ---- ---- ------- ----- ---- -------<br>--- --- -- ----- -- --- ---- -- --- ---- -- ------ ------<br>--- ----- -- ----,56171.09999999963,56170.199999999255,55384.7,55395.5,55401.37,56184.844,,6,lasting
screen,html.Screen,0_2_0_1_7,2021-12-02T11:24:51.510Z,,,,,,,,,,,,,,,,53,,,,,,,,,,,,,,1104.955999998885,,response,,,99,,,,,,Space,keypress(Space),,,,,---- -- ----- -- ------ - ------- and ----------<br>------------- ------ ------ ---- ---- ------- ----- -- ----<br>-------- ------- -- ---------- --- - --- ----- ----- ----<br>---- --- --- ----- --- ---- ---- ------- ----- ---- -------<br>--- --- -- ----- -- --- ---- -- --- ---- -- ------ ------<br>--- ----- -- ----,57290.59999999963,57289.79999999888,56168.174,56171.40000000037,56184.844,57302.014,,7,and
screen,html.Screen,0_2_0_1_8,2021-12-02T11:24:52.366Z,,,,,,,,,,,,,,,,53,,,,,,,,,,,,,,843.6859999992521,,response,,,99,,,,,,Space,keypress(Space),,,,,---- -- ----- -- ------ - ------- --- fulfilling<br>------------- ------ ------ ---- ---- ------- ----- -- ----<br>-------- ------- -- ---------- --- - --- ----- ----- ----<br>---- --- --- ----- --- ---- ---- ------- ----- ---- -------<br>--- --- -- ----- -- --- ---- -- --- ---- -- ------ ------<br>--- ----- -- ----,58147,58145.699999999255,57285.342,57291,57302.014,58152.058,,8,fulfilling
screen,html.Screen,0_2_0_1_9,2021-12-02T11:24:53.446Z,,,,,,,,,,,,,,,,53,,,,,,,,,,,,,,1073.6419999992577,,response,,,99,,,,,,Space,keypress(Space),,,,,"---- -- ----- -- ------ - ------- --- ----------<br>relationship, ------ ------ ---- ---- ------- ----- -- ----<br>-------- ------- -- ---------- --- - --- ----- ----- ----<br>---- --- --- ----- --- ---- ---- ------- ----- ---- -------<br>--- --- -- ----- -- --- ---- -- --- ---- -- ------ ------<br>--- ----- -- ----",59226.699999999255,59225.699999999255,58135.388,58147.40000000037,58152.058,59235.664,,9,"relationship,"
screen,html.Screen,0_2_0_1_10,2021-12-02T11:24:53.998Z,,,,,,,,,,,,,,,,53,,,,,,,,,,,,,,541.9359999996304,,response,,,99,,,,,,Space,keypress(Space),,,,,---- -- ----- -- ------ - ------- --- ----------<br>------------- common ------ ---- ---- ------- ----- -- ----<br>-------- ------- -- ---------- --- - --- ----- ----- ----<br>---- --- --- ----- --- ---- ---- ------- ----- ---- -------<br>--- --- -- ----- -- --- ---- -- --- ---- -- ------ ------<br>--- ----- -- ----,59778.699999999255,59777.59999999963,59218.994,59227,59235.664,59785.773,,10,common
screen,html.Screen,0_2_0_1_11,2021-12-02T11:24:54.416Z,,,,,,,,,,,,,,,,53,,,,,,,,,,,,,,407.8269999996264,,response,,,99,,,,,,Space,keypress(Space),,,,,---- -- ----- -- ------ - ------- --- ----------<br>------------- ------ wisdom ---- ---- ------- ----- -- ----<br>-------- ------- -- ---------- --- - --- ----- ----- ----<br>---- --- --- ----- --- ---- ---- ------- ----- ---- -------<br>--- --- -- ----- -- --- ---- -- --- ---- -- ------ ------<br>--- ----- -- ----,60194.59999999963,60193.59999999963,59769.103,59779,59785.773,60202.567,,11,wisdom
screen,html.Screen,0_2_0_1_12,2021-12-02T11:24:55.032Z,,,,,,,,,,,,,,,,53,,,,,,,,,,,,,,606.9329999999973,,response,,,99,,,,,,Space,keypress(Space),,,,,---- -- ----- -- ------ - ------- --- ----------<br>------------- ------ ------ says ---- ------- ----- -- ----<br>-------- ------- -- ---------- --- - --- ----- ----- ----<br>---- --- --- ----- --- ---- ---- ------- ----- ---- -------<br>--- --- -- ----- -- --- ---- -- --- ---- -- ------ ------<br>--- ----- -- ----,60810.40000000037,60809.5,60185.897,60194.90000000037,60202.567,60819.469,,12,says
screen,html.Screen,0_2_0_1_13,2021-12-02T11:24:55.520Z,,,,,,,,,,,,,,,,53,,,,,,,,,,,,,,478.0310000000027,,response,,,99,,,,,,Space,keypress(Space),,,,,---- -- ----- -- ------ - ------- --- ----------<br>------------- ------ ------ ---- that ------- ----- -- ----<br>-------- ------- -- ---------- --- - --- ----- ----- ----<br>---- --- --- ----- --- ---- ---- ------- ----- ---- -------<br>--- --- -- ----- -- --- ---- -- --- ---- -- ------ ------<br>--- ----- -- ----,61298.40000000037,61297.5,60802.798,60810.699999999255,60819.469,61302.933,,13,that
screen,html.Screen,0_2_0_1_14,2021-12-02T11:24:56.024Z,,,,,,,,,,,,,,,,53,,,,,,,,,,,,,,498.56700000000274,,response,,,99,,,,,,Space,keypress(Space),,,,,---- -- ----- -- ------ - ------- --- ----------<br>------------- ------ ------ ---- ---- feeling ----- -- ----<br>-------- ------- -- ---------- --- - --- ----- ----- ----<br>---- --- --- ----- --- ---- ---- ------- ----- ---- -------<br>--- --- -- ----- -- --- ---- -- --- ---- -- ------ ------<br>--- ----- -- ----,61802.40000000037,61801.5,61286.262,61298.699999999255,61302.933,61819.686,,14,feeling
screen,html.Screen,0_2_0_1_15,2021-12-02T11:24:56.904Z,,,,,,,,,,,,,,,,53,,,,,,,,,,,,,,861.8139999999985,,response,,,99,,,,,,Space,keypress(Space),,,,,---- -- ----- -- ------ - ------- --- ----------<br>------------- ------ ------ ---- ---- ------- close -- ----<br>-------- ------- -- ---------- --- - --- ----- ----- ----<br>---- --- --- ----- --- ---- ---- ------- ----- ---- -------<br>--- --- -- ----- -- --- ---- -- --- ---- -- ------ ------<br>--- ----- -- ----,62682.40000000037,62681.5,61803.016,61802.699999999255,61819.686,62686.547,,15,close
screen,html.Screen,0_2_0_1_16,2021-12-02T11:24:57.264Z,,,,,,,,,,,,,,,,53,,,,,,,,,,,,,,354.85300000037387,,response,,,99,,,,,,Space,keypress(Space),,,,,---- -- ----- -- ------ - ------- --- ----------<br>------------- ------ ------ ---- ---- ------- ----- to ----<br>-------- ------- -- ---------- --- - --- ----- ----- ----<br>---- --- --- ----- --- ---- ---- ------- ----- ---- -------<br>--- --- -- ----- -- --- ---- -- --- ---- -- ------ ------<br>--- ----- -- ----,63042.29999999888,63041.40000000037,62669.877,62682.699999999255,62686.547,63053.347,,16,to
screen,html.Screen,0_2_0_1_17,2021-12-02T11:24:57.688Z,,,,,,,,,,,,,,,,53,,,,,,,,,,,,,,412.1529999999984,,response,,,99,,,,,,Space,keypress(Space),,,,,---- -- ----- -- ------ - ------- --- ----------<br>------------- ------ ------ ---- ---- ------- ----- -- your<br>-------- ------- -- ---------- --- - --- ----- ----- ----<br>---- --- --- ----- --- ---- ---- ------- ----- ---- -------<br>--- --- -- ----- -- --- ---- -- --- ---- -- ------ ------<br>--- ----- -- ----,63466.5,63465.5,63036.677,63042.59999999963,63053.347,63470.124,,17,your
screen,html.Screen,0_2_0_1_18,2021-12-02T11:24:58.112Z,,,,,,,,,,,,,,,,53,,,,,,,,,,,,,,419.175999998879,,response,,,99,,,,,,Space,keypress(Space),,,,,---- -- ----- -- ------ - ------- --- ----------<br>------------- ------ ------ ---- ---- ------- ----- -- ----<br>romantic ------- -- ---------- --- - --- ----- ----- ----<br>---- --- --- ----- --- ---- ---- ------- ----- ---- -------<br>--- --- -- ----- -- --- ---- -- --- ---- -- ------ ------<br>--- ----- -- ----,63890.09999999963,63889.29999999888,63453.454,63466.90000000037,63470.124,63903.571,,18,romantic
screen,html.Screen,0_2_0_1_19,2021-12-02T11:24:58.608Z,,,,,,,,,,,,,,,,53,,,,,,,,,,,,,,481.829000000369,,response,,,99,,,,,,Space,keypress(Space),,,,,---- -- ----- -- ------ - ------- --- ----------<br>------------- ------ ------ ---- ---- ------- ----- -- ----<br>-------- partner -- ---------- --- - --- ----- ----- ----<br>---- --- --- ----- --- ---- ---- ------- ----- ---- -------<br>--- --- -- ----- -- --- ---- -- --- ---- -- ------ ------<br>--- ----- -- ----,64386.199999999255,64385.40000000037,63886.901,63890.5,63903.571,64403.68,,19,partner
screen,html.Screen,0_2_0_1_20,2021-12-02T11:24:59.048Z,,,,,,,,,,,,,,,,53,,,,,,,,,,,,,,421.72000000037224,,response,,,99,,,,,,Space,keypress(Space),,,,,---- -- ----- -- ------ - ------- --- ----------<br>------------- ------ ------ ---- ---- ------- ----- -- ----<br>-------- ------- is ---------- --- - --- ----- ----- ----<br>---- --- --- ----- --- ---- ---- ------- ----- ---- -------<br>--- --- -- ----- -- --- ---- -- --- ---- -- ------ ------<br>--- ----- -- ----,64826.29999999888,64825.40000000037,64387.01,64386.5,64403.68,64837.134,,20,is
screen,html.Screen,0_2_0_1_21,2021-12-02T11:25:00.376Z,,,,,,,,,,,,,,,,53,,,,,,,,,,,,,,1316.1659999988842,,response,,,99,,,,,,Space,keypress(Space),,,,,---- -- ----- -- ------ - ------- --- ----------<br>------------- ------ ------ ---- ---- ------- ----- -- ----<br>-------- ------- -- paramount. --- - --- ----- ----- ----<br>---- --- --- ----- --- ---- ---- ------- ----- ---- -------<br>--- --- -- ----- -- --- ---- -- --- ---- -- ------ ------<br>--- ----- -- ----,66154.59999999963,66153.29999999888,64820.464,64826.59999999963,64837.134,66170.76,,21,paramount.
screen,html.Screen,0_2_0_1_22,2021-12-02T11:25:00.864Z,,,,,,,,,,,,,,,,53,,,,,,,,,,,,,,470.9399999992602,,response,,,99,,,,,,Space,keypress(Space),,,,,---- -- ----- -- ------ - ------- --- ----------<br>------------- ------ ------ ---- ---- ------- ----- -- ----<br>-------- ------- -- ---------- But - --- ----- ----- ----<br>---- --- --- ----- --- ---- ---- ------- ----- ---- -------<br>--- --- -- ----- -- --- ---- -- --- ---- -- ------ ------<br>--- ----- -- ----,66642.59999999963,66641.69999999925,66154.09,66155.09999999963,66170.76,66654.263,,22,But
screen,html.Screen,0_2_0_1_23,2021-12-02T11:25:01.272Z,,,,,,,,,,,,,,,,53,,,,,,,,,,,,,,394.93699999924866,,response,,,99,,,,,,Space,keypress(Space),,,,,---- -- ----- -- ------ - ------- --- ----------<br>------------- ------ ------ ---- ---- ------- ----- -- ----<br>-------- ------- -- ---------- --- a --- ----- ----- ----<br>---- --- --- ----- --- ---- ---- ------- ----- ---- -------<br>--- --- -- ----- -- --- ---- -- --- ---- -- ------ ------<br>--- ----- -- ----,67050.09999999963,67049.19999999925,66637.593,66643,66654.263,67054.38,,23,a
screen,html.Screen,0_2_0_1_24,2021-12-02T11:25:01.712Z,,,,,,,,,,,,,,,,53,,,,,,,,,,,,,,434.91999999887776,,response,,,99,,,,,,Space,keypress(Space),,,,,---- -- ----- -- ------ - ------- --- ----------<br>------------- ------ ------ ---- ---- ------- ----- -- ----<br>-------- ------- -- ---------- --- - new ----- ----- ----<br>---- --- --- ----- --- ---- ---- ------- ----- ---- -------<br>--- --- -- ----- -- --- ---- -- --- ---- -- ------ ------<br>--- ----- -- ----,67490.09999999963,67489.29999999888,67037.71,67050.40000000037,67054.38,67504.475,,24,new
screen,html.Screen,0_2_0_1_25,2021-12-02T11:25:02.120Z,,,,,,,,,,,,,,,,53,,,,,,,,,,,,,,392.62499999962165,,response,,,99,,,,,,Space,keypress(Space),,,,,---- -- ----- -- ------ - ------- --- ----------<br>------------- ------ ------ ---- ---- ------- ----- -- ----<br>-------- ------- -- ---------- --- - --- study ----- ----<br>---- --- --- ----- --- ---- ---- ------- ----- ---- -------<br>--- --- -- ----- -- --- ---- -- --- ---- -- ------ ------<br>--- ----- -- ----,67898,67897.09999999963,67487.805,67490.5,67504.475,67904.602,,25,study
screen,html.Screen,0_2_0_1_26,2021-12-02T11:25:02.560Z,,,,,,,,,,,,,,,,53,,,,,,,,,,,,,,432.4979999996285,,response,,,99,,,,,,Space,keypress(Space),,,,,---- -- ----- -- ------ - ------- --- ----------<br>------------- ------ ------ ---- ---- ------- ----- -- ----<br>-------- ------- -- ---------- --- - --- ----- finds ----<br>---- --- --- ----- --- ---- ---- ------- ----- ---- -------<br>--- --- -- ----- -- --- ---- -- --- ---- -- ------ ------<br>--- ----- -- ----,68338,68337.09999999963,67887.932,67898.19999999925,67904.602,68354.566,,26,finds
screen,html.Screen,0_2_0_1_27,2021-12-02T11:25:02.992Z,,,,,,,,,,,,,,,,53,,,,,,,,,,,,,,414.6339999992488,,response,,,99,,,,,,Space,keypress(Space),,,,,---- -- ----- -- ------ - ------- --- ----------<br>------------- ------ ------ ---- ---- ------- ----- -- ----<br>-------- ------- -- ---------- --- - --- ----- ----- that<br>---- --- --- ----- --- ---- ---- ------- ----- ---- -------<br>--- --- -- ----- -- --- ---- -- --- ---- -- ------ ------<br>--- ----- -- ----,68770.29999999888,68769.19999999925,68337.898,68338.29999999888,68354.566,68771.579,,27,that
screen,html.Screen,0_2_0_1_28,2021-12-02T11:25:03.376Z,,,,,,,,,,,,,,,,53,,,,,,,,,,,,,,381.52099999962957,,response,,,99,,,,,,Space,keypress(Space),,,,,---- -- ----- -- ------ - ------- --- ----------<br>------------- ------ ------ ---- ---- ------- ----- -- ----<br>-------- ------- -- ---------- --- - --- ----- ----- ----<br>it's --- --- ----- --- ---- ---- ------- ----- ---- -------<br>--- --- -- ----- -- --- ---- -- --- ---- -- ------ ------<br>--- ----- -- ----,69154.29999999888,69153.09999999963,68754.907,68770.5,68771.579,69171.579,,28,it's
screen,html.Screen,0_2_0_1_29,2021-12-02T11:25:03.720Z,,,,,,,,,,,,,,,,53,,,,,,,,,,,,,,325.52099999962957,,response,,,99,,,,,,Space,keypress(Space),,,,,---- -- ----- -- ------ - ------- --- ----------<br>------------- ------ ------ ---- ---- ------- ----- -- ----<br>-------- ------- -- ---------- --- - --- ----- ----- ----<br>---- not --- ----- --- ---- ---- ------- ----- ---- -------<br>--- --- -- ----- -- --- ---- -- --- ---- -- ------ ------<br>--- ----- -- ----,69498,69497.09999999963,69154.909,69154.5,69171.579,69505.013,,29,not
screen,html.Screen,0_2_0_1_30,2021-12-02T11:25:04.112Z,,,,,,,,,,,,,,,,53,,,,,,,,,,,,,,384.0869999996212,,response,,,99,,,,,,Space,keypress(Space),,,,,---- -- ----- -- ------ - ------- --- ----------<br>------------- ------ ------ ---- ---- ------- ----- -- ----<br>-------- ------- -- ---------- --- - --- ----- ----- ----<br>---- --- how ----- --- ---- ---- ------- ----- ---- -------<br>--- --- -- ----- -- --- ---- -- --- ---- -- ------ ------<br>--- ----- -- ----,69889.79999999888,69889.09999999963,69488.343,69498.40000000037,69505.013,69905.114,,30,how
screen,html.Screen,0_2_0_1_31,2021-12-02T11:25:04.704Z,,,,,,,,,,,,,,,,53,,,,,,,,,,,,,,575.9859999996261,,response,,,99,,,,,,Space,keypress(Space),,,,,---- -- ----- -- ------ - ------- --- ----------<br>------------- ------ ------ ---- ---- ------- ----- -- ----<br>-------- ------- -- ---------- --- - --- ----- ----- ----<br>---- --- --- close --- ---- ---- ------- ----- ---- -------<br>--- --- -- ----- -- --- ---- -- --- ---- -- ------ ------<br>--- ----- -- ----,70481.90000000037,70481.09999999963,69888.444,69890.09999999963,69905.114,70488.584,,31,close
screen,html.Screen,0_2_0_1_32,2021-12-02T11:25:05.111Z,,,,,,,,,,,,,,,,53,,,,,,,,,,,,,,400.5159999996249,,response,,,99,,,,,,Space,keypress(Space),,,,,---- -- ----- -- ------ - ------- --- ----------<br>------------- ------ ------ ---- ---- ------- ----- -- ----<br>-------- ------- -- ---------- --- - --- ----- ----- ----<br>---- --- --- ----- you ---- ---- ------- ----- ---- -------<br>--- --- -- ----- -- --- ---- -- --- ---- -- ------ ------<br>--- ----- -- ----,70889.90000000037,70889.09999999963,70471.914,70482.09999999963,70488.584,70905.354,,32,you
screen,html.Screen,0_2_0_1_33,2021-12-02T11:25:05.376Z,,,,,,,,,,,,,,,,53,,,,,,,,,,,,,,247.64599999999336,,response,,,99,,,,,,Space,keypress(Space),,,,,---- -- ----- -- ------ - ------- --- ----------<br>------------- ------ ------ ---- ---- ------- ----- -- ----<br>-------- ------- -- ---------- --- - --- ----- ----- ----<br>---- --- --- ----- --- feel ---- ------- ----- ---- -------<br>--- --- -- ----- -- --- ---- -- --- ---- -- ------ ------<br>--- ----- -- ----,71153.90000000037,71153,70888.684,70890.09999999963,70905.354,71155.442,,33,feel
screen,html.Screen,0_2_0_1_34,2021-12-02T11:25:05.807Z,,,,,,,,,,,,,,,,53,,,,,,,,,,,,,,429.45800000037707,,response,,,99,,,,,,Space,keypress(Space),,,,,---- -- ----- -- ------ - ------- --- ----------<br>------------- ------ ------ ---- ---- ------- ----- -- ----<br>-------- ------- -- ---------- --- - --- ----- ----- ----<br>---- --- --- ----- --- ---- that ------- ----- ---- -------<br>--- --- -- ----- -- --- ---- -- --- ---- -- ------ ------<br>--- ----- -- ----,71585.79999999888,71584.90000000037,71138.772,71154.09999999963,71155.442,71588.866,,34,that
screen,html.Screen,0_2_0_1_35,2021-12-02T11:25:06.375Z,,,,,,,,,,,,,,,,53,,,,,,,,,,,,,,564.1340000000055,,response,,,99,,,,,,Space,keypress(Space),,,,,---- -- ----- -- ------ - ------- --- ----------<br>------------- ------ ------ ---- ---- ------- ----- -- ----<br>-------- ------- -- ---------- --- - --- ----- ----- ----<br>---- --- --- ----- --- ---- ---- matters ----- ---- -------<br>--- --- -- ----- -- --- ---- -- --- ---- -- ------ ------<br>--- ----- -- ----,72153.79999999888,72153,71572.196,71586,71588.866,72155.718,,35,matters
screen,html.Screen,0_2_0_1_36,2021-12-02T11:25:06.784Z,,,,,,,,,,,,,,,,53,,,,,,,,,,,,,,405.18200000037905,,response,,,99,,,,,,Space,keypress(Space),,,,,"---- -- ----- -- ------ - ------- --- ----------<br>------------- ------ ------ ---- ---- ------- ----- -- ----<br>-------- ------- -- ---------- --- - --- ----- ----- ----<br>---- --- --- ----- --- ---- ---- ------- most, ---- -------<br>--- --- -- ----- -- --- ---- -- --- ---- -- ------ ------<br>--- ----- -- ----",72561.90000000037,72560.90000000037,72139.047,72154.09999999963,72155.718,72572.458,,36,"most,"
screen,html.Screen,0_2_0_1_37,2021-12-02T11:25:07.359Z,,,,,,,,,,,,,,,,53,,,,,,,,,,,,,,564.4420000003738,,response,,,99,,,,,,Space,keypress(Space),,,,,---- -- ----- -- ------ - ------- --- ----------<br>------------- ------ ------ ---- ---- ------- ----- -- ----<br>-------- ------- -- ---------- --- - --- ----- ----- ----<br>---- --- --- ----- --- ---- ---- ------- ----- it's -------<br>--- --- -- ----- -- --- ---- -- --- ---- -- ------ ------<br>--- ----- -- ----,73137.69999999925,73136.90000000037,72555.788,72562.19999999925,72572.458,73139.15,,37,it's
screen,html.Screen,0_2_0_1_38,2021-12-02T11:25:07.863Z,,,,,,,,,,,,,,,,53,,,,,,,,,,,,,,501.64999999888823,,response,,,99,,,,,,Space,keypress(Space),,,,,---- -- ----- -- ------ - ------- --- ----------<br>------------- ------ ------ ---- ---- ------- ----- -- ----<br>-------- ------- -- ---------- --- - --- ----- ----- ----<br>---- --- --- ----- --- ---- ---- ------- ----- ---- whether<br>--- --- -- ----- -- --- ---- -- --- ---- -- ------ ------<br>--- ----- -- ----,73641.59999999963,73640.79999999888,73122.481,73137.90000000037,73139.15,73656.163,,38,whether
screen,html.Screen,0_2_0_1_39,2021-12-02T11:25:08.183Z,,,,,,,,,,,,,,,,53,,,,,,,,,,,,,,304.5369999992545,,response,,,99,,,,,,Space,keypress(Space),,,,,---- -- ----- -- ------ - ------- --- ----------<br>------------- ------ ------ ---- ---- ------- ----- -- ----<br>-------- ------- -- ---------- --- - --- ----- ----- ----<br>---- --- --- ----- --- ---- ---- ------- ----- ---- -------<br>you --- -- ----- -- --- ---- -- --- ---- -- ------ ------<br>--- ----- -- ----,73961.69999999925,73960.69999999925,73639.491,73641.79999999888,73656.163,73972.873,,39,you
screen,html.Screen,0_2_0_1_40,2021-12-02T11:25:08.623Z,,,,,,,,,,,,,,,,53,,,,,,,,,,,,,,427.8269999992481,,response,,,99,,,,,,Space,keypress(Space),,,,,---- -- ----- -- ------ - ------- --- ----------<br>------------- ------ ------ ---- ---- ------- ----- -- ----<br>-------- ------- -- ---------- --- - --- ----- ----- ----<br>---- --- --- ----- --- ---- ---- ------- ----- ---- -------<br>--- are -- ----- -- --- ---- -- --- ---- -- ------ ------<br>--- ----- -- ----,74401.5,74400.69999999925,73956.202,73961.90000000037,73972.873,74406.266,,40,are
screen,html.Screen,0_2_0_1_41,2021-12-02T11:25:09.063Z,,,,,,,,,,,,,,,,53,,,,,,,,,,,,,,434.53399999887915,,response,,,99,,,,,,Space,keypress(Space),,,,,---- -- ----- -- ------ - ------- --- ----------<br>------------- ------ ------ ---- ---- ------- ----- -- ----<br>-------- ------- -- ---------- --- - --- ----- ----- ----<br>---- --- --- ----- --- ---- ---- ------- ----- ---- -------<br>--- --- as ----- -- --- ---- -- --- ---- -- ------ ------<br>--- ----- -- ----,74841.5,74840.79999999888,74389.596,74401.69999999925,74406.266,74856.374,,41,as
screen,html.Screen,0_2_0_1_42,2021-12-02T11:25:09.479Z,,,,,,,,,,,,,,,,53,,,,,,,,,,,,,,400.3259999992588,,response,,,99,,,,,,Space,keypress(Space),,,,,---- -- ----- -- ------ - ------- --- ----------<br>------------- ------ ------ ---- ---- ------- ----- -- ----<br>-------- ------- -- ---------- --- - --- ----- ----- ----<br>---- --- --- ----- --- ---- ---- ------- ----- ---- -------<br>--- --- -- close -- --- ---- -- --- ---- -- ------ ------<br>--- ----- -- ----,75257.59999999963,75256.69999999925,74839.704,74841.69999999925,74856.374,75273.16,,42,close
screen,html.Screen,0_2_0_1_43,2021-12-02T11:25:09.943Z,,,,,,,,,,,,,,,,53,,,,,,,,,,,,,,447.6399999988789,,response,,,99,,,,,,Space,keypress(Space),,,,,---- -- ----- -- ------ - ------- --- ----------<br>------------- ------ ------ ---- ---- ------- ----- -- ----<br>-------- ------- -- ---------- --- - --- ----- ----- ----<br>---- --- --- ----- --- ---- ---- ------- ----- ---- -------<br>--- --- -- ----- as --- ---- -- --- ---- -- ------ ------<br>--- ----- -- ----,75721.59999999963,75720.79999999888,75256.49,75257.69999999925,75273.16,75723.202,,43,as
screen,html.Screen,0_2_0_1_44,2021-12-02T11:25:10.407Z,,,,,,,,,,,,,,,,53,,,,,,,,,,,,,,461.49799999925017,,response,,,99,,,,,,Space,keypress(Space),,,,,---- -- ----- -- ------ - ------- --- ----------<br>------------- ------ ------ ---- ---- ------- ----- -- ----<br>-------- ------- -- ---------- --- - --- ----- ----- ----<br>---- --- --- ----- --- ---- ---- ------- ----- ---- -------<br>--- --- -- ----- -- you ---- -- --- ---- -- ------ ------<br>--- ----- -- ----,76185.5,76184.69999999925,75706.533,75721.79999999888,75723.202,76190.109,,44,you
screen,html.Screen,0_2_0_1_45,2021-12-02T11:25:10.839Z,,,,,,,,,,,,,,,,53,,,,,,,,,,,,,,426.5909999992582,,response,,,99,,,,,,Space,keypress(Space),,,,,---- -- ----- -- ------ - ------- --- ----------<br>------------- ------ ------ ---- ---- ------- ----- -- ----<br>-------- ------- -- ---------- --- - --- ----- ----- ----<br>---- --- --- ----- --- ---- ---- ------- ----- ---- -------<br>--- --- -- ----- -- --- want -- --- ---- -- ------ ------<br>--- ----- -- ----,76617.5,76616.69999999925,76173.438,76185.79999999888,76190.109,76623.507,,45,want
screen,html.Screen,0_2_0_1_46,2021-12-02T11:25:11.232Z,,,,,,,,,,,,,,,,53,,,,,,,,,,,,,,385.69299999925715,,response,,,99,,,,,,Space,keypress(Space),,,,,---- -- ----- -- ------ - ------- --- ----------<br>------------- ------ ------ ---- ---- ------- ----- -- ----<br>-------- ------- -- ---------- --- - --- ----- ----- ----<br>---- --- --- ----- --- ---- ---- ------- ----- ---- -------<br>--- --- -- ----- -- --- ---- to --- ---- -- ------ ------<br>--- ----- -- ----,77009.90000000037,77009.19999999925,76606.837,76617.79999999888,76623.507,77023.609,,46,to
screen,html.Screen,0_2_0_1_47,2021-12-02T11:25:11.615Z,,,,,,,,,,,,,,,,53,,,,,,,,,,,,,,369.0909999992582,,response,,,99,,,,,,Space,keypress(Space),,,,,"---- -- ----- -- ------ - ------- --- ----------<br>------------- ------ ------ ---- ---- ------- ----- -- ----<br>-------- ------- -- ---------- --- - --- ----- ----- ----<br>---- --- --- ----- --- ---- ---- ------- ----- ---- -------<br>--- --- -- ----- -- --- ---- -- be, ---- -- ------ ------<br>--- ----- -- ----",77393.5,77392.69999999925,77006.939,77010.19999999925,77023.609,77407.083,,47,"be,"
screen,html.Screen,0_2_0_1_48,2021-12-02T11:25:12.079Z,,,,,,,,,,,,,,,,53,,,,,,,,,,,,,,449.51699999962875,,response,,,99,,,,,,Space,keypress(Space),,,,,---- -- ----- -- ------ - ------- --- ----------<br>------------- ------ ------ ---- ---- ------- ----- -- ----<br>-------- ------- -- ---------- --- - --- ----- ----- ----<br>---- --- --- ----- --- ---- ---- ------- ----- ---- -------<br>--- --- -- ----- -- --- ---- -- --- even -- ------ ------<br>--- ----- -- ----,77857.5,77856.59999999963,77390.412,77393.69999999925,77407.083,77873.808,,48,even
screen,html.Screen,0_2_0_1_49,2021-12-02T11:25:12.447Z,,,,,,,,,,,,,,,,53,,,,,,,,,,,,,,350.79199999962293,,response,,,99,,,,,,Space,keypress(Space),,,,,---- -- ----- -- ------ - ------- --- ----------<br>------------- ------ ------ ---- ---- ------- ----- -- ----<br>-------- ------- -- ---------- --- - --- ----- ----- ----<br>---- --- --- ----- --- ---- ---- ------- ----- ---- -------<br>--- --- -- ----- -- --- ---- -- --- ---- if ------ ------<br>--- ----- -- ----,78225.5,78224.59999999963,77857.138,77857.69999999925,77873.808,78240.587,,49,if
screen,html.Screen,0_2_0_1_50,2021-12-02T11:25:13.023Z,,,,,,,,,,,,,,,,53,,,,,,,,,,,,,,560.0129999996279,,response,,,99,,,,,,Space,keypress(Space),,,,,---- -- ----- -- ------ - ------- --- ----------<br>------------- ------ ------ ---- ---- ------- ----- -- ----<br>-------- ------- -- ---------- --- - --- ----- ----- ----<br>---- --- --- ----- --- ---- ---- ------- ----- ---- -------<br>--- --- -- ----- -- --- ---- -- --- ---- -- that's ------<br>--- ----- -- ----,78801.5,78800.59999999963,78223.917,78225.69999999925,78240.587,78807.388,,50,that's
screen,html.Screen,0_2_0_1_51,2021-12-02T11:25:13.431Z,,,,,,,,,,,,,,,,53,,,,,,,,,,,,,,401.2119999996212,,response,,,99,,,,,,Space,keypress(Space),,,,,---- -- ----- -- ------ - ------- --- ----------<br>------------- ------ ------ ---- ---- ------- ----- -- ----<br>-------- ------- -- ---------- --- - --- ----- ----- ----<br>---- --- --- ----- --- ---- ---- ------- ----- ---- -------<br>--- --- -- ----- -- --- ---- -- --- ---- -- ------ really<br>--- ----- -- ----,79209.40000000037,79208.59999999963,78790.718,78801.69999999925,78807.388,79224.173,,51,really
screen,html.Screen,0_2_0_1_52,2021-12-02T11:25:13.839Z,,,,,,,,,,,,,,,,53,,,,,,,,,,,,,,392.42699999963224,,response,,,99,,,,,,Space,keypress(Space),,,,,---- -- ----- -- ------ - ------- --- ----------<br>------------- ------ ------ ---- ---- ------- ----- -- ----<br>-------- ------- -- ---------- --- - --- ----- ----- ----<br>---- --- --- ----- --- ---- ---- ------- ----- ---- -------<br>--- --- -- ----- -- --- ---- -- --- ---- -- ------ ------<br>not ----- -- ----,79617.40000000037,79616.59999999963,79207.503,79209.59999999963,79224.173,79624.275,,52,not
screen,html.Screen,0_2_0_1_53,2021-12-02T11:25:14.247Z,,,,,,,,,,,,,,,,53,,,,,,,,,,,,,,400.2250000000058,,response,,,99,,,,,,Space,keypress(Space),,,,,---- -- ----- -- ------ - ------- --- ----------<br>------------- ------ ------ ---- ---- ------- ----- -- ----<br>-------- ------- -- ---------- --- - --- ----- ----- ----<br>---- --- --- ----- --- ---- ---- ------- ----- ---- -------<br>--- --- -- ----- -- --- ---- -- --- ---- -- ------ ------<br>--- close -- ----,80025.40000000037,80024.5,79607.605,79617.59999999963,79624.275,80041.091,,53,close
screen,html.Screen,0_2_0_1_54,2021-12-02T11:25:14.687Z,,,,,,,,,,,,,,,,53,,,,,,,,,,,,,,423.5089999996271,,response,,,99,,,,,,Space,keypress(Space),,,,,---- -- ----- -- ------ - ------- --- ----------<br>------------- ------ ------ ---- ---- ------- ----- -- ----<br>-------- ------- -- ---------- --- - --- ----- ----- ----<br>---- --- --- ----- --- ---- ---- ------- ----- ---- -------<br>--- --- -- ----- -- --- ---- -- --- ---- -- ------ ------<br>--- ----- at ----,80465.5,80464.59999999963,80024.42,80025.59999999963,80041.091,80474.479,,54,at
screen,html.Screen,0_2_0_1_55,2021-12-02T11:25:15.455Z,,,,,,,,,,,,,,,,53,,,,,,,,,,,,,,758.0209999999934,,response,,,99,,,,,,Space,keypress(Space),,,,,---- -- ----- -- ------ - ------- --- ----------<br>------------- ------ ------ ---- ---- ------- ----- -- ----<br>-------- ------- -- ---------- --- - --- ----- ----- ----<br>---- --- --- ----- --- ---- ---- ------- ----- ---- -------<br>--- --- -- ----- -- --- ---- -- --- ---- -- ------ ------<br>--- ----- -- all.,81233.19999999925,81232.5,80457.809,80465.90000000037,80474.479,81257.989,,55,all.
Item 99,flow.Loop,0_2_0_1,2021-12-02T11:25:15.460Z,,,,,,,,,,,,,,,,,,,,,,,,,,,,,,32766.500999999997,,completion,,,,C,,,,,,,,,,silence,,81238.5,81232.5,48449.33,48456.5,48465.999,81257.989,,,
Question 1,html.Screen,0_2_0_2,2021-12-02T11:25:21.362Z,,,,,,,,,,,,,,,,,,,,,,,,,,,true,FALSE,,5880.810999998881,,response,,,99,C,,,,,FALSE,click #choice-2,,,,silence,,87140.19999999925,87138.79999999888,81224.649,81238.79999999888,81257.989,87142.853,,,
Question 2,html.Screen,0_2_0_3,2021-12-02T11:25:33.608Z,,,,,,,,,,,,,,,,,,,,,,,,,,,true,TRUE,,12241.94699999888,,response,,,99,C,,,,,TRUE,click #choice-1,,,,silence,,99386.19999999925,99384.79999999888,87126.183,87140.5,87142.853,99396.048,,,
Item 99,flow.Sequence,0_2_0,2021-12-02T11:25:33.608Z,,,,,,,,,,,,,,,,,,,,,,,,,,,,,,60917.966999998884,,completion,,,,,,,,,,,,,,,,99386.69999999925,99384.79999999888,38450.149,38457.59999999963,38466.833,99396.048,,,
Holding screen,html.Screen,0_2_1_0,2021-12-02T11:25:43.605Z,,,,,,,,,,,,,,,,,,,,,,,,,,,,,,10002.413,,timeout,,,,,,,,,,,,,,,,109383,109381.791,99379.378,99387.19999999925,99396.048,109398.461,,,
screen,html.Screen,0_2_1_1_0,2021-12-02T11:25:46.726Z,,,,,,,,,,,,,,,,54,,,,,,,,,,,,,,3105.0390000000043,,response,,,100,,,,,,Space,keypress(Space),,,,,At --- ---- --- ------ ----- ------- ---- -- --- ------- --<br>------- ---------- ------ -- ----- -- ----- -- ---- ------<br>--- ----- --- --- ------ -------- ----- --- ------ ----- --<br>----- ----- ---------- --- --- ------ ------ ---- -- ------<br>------- --- ------ ----- --- ---- ------- -- ---- --- --<br>------- ------,112504.40000000037,112503.5,109381.791,109383.40000000037,109398.461,112516.108,,0,At
screen,html.Screen,0_2_1_1_1,2021-12-02T11:25:47.605Z,,,,,,,,,,,,,,,,54,,,,,,,,,,,,,,866.591999999262,,response,,,100,,,,,,Space,keypress(Space),,,,,-- the ---- --- ------ ----- ------- ---- -- --- ------- --<br>------- ---------- ------ -- ----- -- ----- -- ---- ------<br>--- ----- --- --- ------ -------- ----- --- ------ ----- --<br>----- ----- ---------- --- --- ------ ------ ---- -- ------<br>------- --- ------ ----- --- ---- ------- -- ---- --- --<br>------- ------,113383.40000000037,113382.69999999925,112499.437,112504.59999999963,112516.108,113399.144,,1,the
screen,html.Screen,0_2_1_1_2,2021-12-02T11:25:48.349Z,,,,,,,,,,,,,,,,54,,,,,,,,,,,,,,727.4559999996272,,response,,,100,,,,,,Space,keypress(Space),,,,,-- --- time --- ------ ----- ------- ---- -- --- ------- --<br>------- ---------- ------ -- ----- -- ----- -- ---- ------<br>--- ----- --- --- ------ -------- ----- --- ------ ----- --<br>----- ----- ---------- --- --- ------ ------ ---- -- ------<br>------- --- ------ ----- --- ---- ------- -- ---- --- --<br>------- ------,114127.40000000037,114126.59999999963,113382.475,113383.69999999925,113399.144,114133.067,,2,time
screen,html.Screen,0_2_1_1_3,2021-12-02T11:25:48.861Z,,,,,,,,,,,,,,,,54,,,,,,,,,,,,,,505.6329999992595,,response,,,100,,,,,,Space,keypress(Space),,,,,-- --- ---- the ------ ----- ------- ---- -- --- ------- --<br>------- ---------- ------ -- ----- -- ----- -- ---- ------<br>--- ----- --- --- ------ -------- ----- --- ------ ----- --<br>----- ----- ---------- --- --- ------ ------ ---- -- ------<br>------- --- ------ ----- --- ---- ------- -- ---- --- --<br>------- ------,114639.5,114638.69999999925,114116.397,114127.59999999963,114133.067,114649.969,,3,the
screen,html.Screen,0_2_1_1_4,2021-12-02T11:25:49.375Z,,,,,,,,,,,,,,,,54,,,,,,,,,,,,,,500.5310000000027,,response,,,100,,,,,,Space,keypress(Space),,,,,-- --- ---- --- French ----- ------- ---- -- --- ------- --<br>------- ---------- ------ -- ----- -- ----- -- ---- ------<br>--- ----- --- --- ------ -------- ----- --- ------ ----- --<br>----- ----- ---------- --- --- ------ ------ ---- -- ------<br>------- --- ------ ----- --- ---- ------- -- ---- --- --<br>------- ------,115153.09999999963,115150.5,114633.298,114639.69999999925,114649.969,115166.807,,4,French
screen,html.Screen,0_2_1_1_5,2021-12-02T11:25:49.829Z,,,,,,,,,,,,,,,,54,,,,,,,,,,,,,,439.6929999999993,,response,,,100,,,,,,Space,keypress(Space),,,,,-- --- ---- --- ------ crown ------- ---- -- --- ------- --<br>------- ---------- ------ -- ----- -- ----- -- ---- ------<br>--- ----- --- --- ------ -------- ----- --- ------ ----- --<br>----- ----- ---------- --- --- ------ ------ ---- -- ------<br>------- --- ------ ----- --- ---- ------- -- ---- --- --<br>------- ------,115607.40000000037,115606.5,115150.136,115153.59999999963,115166.807,115616.869,,5,crown
screen,html.Screen,0_2_1_1_6,2021-12-02T11:25:50.829Z,,,,,,,,,,,,,,,,54,,,,,,,,,,,,,,989.630999999994,,response,,,100,,,,,,Space,keypress(Space),,,,,-- --- ---- --- ------ ----- secured ---- -- --- ------- --<br>------- ---------- ------ -- ----- -- ----- -- ---- ------<br>--- ----- --- --- ------ -------- ----- --- ------ ----- --<br>----- ----- ---------- --- --- ------ ------ ---- -- ------<br>------- --- ------ ----- --- ---- ------- -- ---- --- --<br>------- ------,116607.29999999888,116606.5,115600.199,115607.59999999963,115616.869,116617.17,,6,secured
screen,html.Screen,0_2_1_1_7,2021-12-02T11:25:51.293Z,,,,,,,,,,,,,,,,54,,,,,,,,,,,,,,453.33000000000175,,response,,,100,,,,,,Space,keypress(Space),,,,,-- --- ---- --- ------ ----- ------- much -- --- ------- --<br>------- ---------- ------ -- ----- -- ----- -- ---- ------<br>--- ----- --- --- ------ -------- ----- --- ------ ----- --<br>----- ----- ---------- --- --- ------ ------ ---- -- ------<br>------- --- ------ ----- --- ---- ------- -- ---- --- --<br>------- ------,117071.29999999888,117070.5,116600.499,116607.5,116617.17,117083.856,,7,much
screen,html.Screen,0_2_1_1_8,2021-12-02T11:25:51.781Z,,,,,,,,,,,,,,,,54,,,,,,,,,,,,,,474.54400000037276,,response,,,100,,,,,,Space,keypress(Space),,,,,-- --- ---- --- ------ ----- ------- ---- of --- ------- --<br>------- ---------- ------ -- ----- -- ----- -- ---- ------<br>--- ----- --- --- ------ -------- ----- --- ------ ----- --<br>----- ----- ---------- --- --- ------ ------ ---- -- ------<br>------- --- ------ ----- --- ---- ------- -- ---- --- --<br>------- ------,117559.19999999925,117558.40000000037,117067.186,117071.5,117083.856,117567.367,,8,of
screen,html.Screen,0_2_1_1_9,2021-12-02T11:25:52.148Z,,,,,,,,,,,,,,,,54,,,,,,,,,,,,,,358.7329999996291,,response,,,100,,,,,,Space,keypress(Space),,,,,-- --- ---- --- ------ ----- ------- ---- -- its ------- --<br>------- ---------- ------ -- ----- -- ----- -- ---- ------<br>--- ----- --- --- ------ -------- ----- --- ------ ----- --<br>----- ----- ---------- --- --- ------ ------ ---- -- ------<br>------- --- ------ ----- --- ---- ------- -- ---- --- --<br>------- ------,117926.40000000037,117926.09999999963,117550.697,117559.5,117567.367,117934.115,,9,its
screen,html.Screen,0_2_1_1_10,2021-12-02T11:25:53.429Z,,,,,,,,,,,,,,,,54,,,,,,,,,,,,,,1272.2850000003673,,response,,,100,,,,,,Space,keypress(Space),,,,,-- --- ---- --- ------ ----- ------- ---- -- --- revenue --<br>------- ---------- ------ -- ----- -- ----- -- ---- ------<br>--- ----- --- --- ------ -------- ----- --- ------ ----- --<br>----- ----- ---------- --- --- ------ ------ ---- -- ------<br>------- --- ------ ----- --- ---- ------- -- ---- --- --<br>------- ------,119207.19999999925,119206.40000000037,117917.445,117926.5,117934.115,119217.491,,10,revenue
screen,html.Screen,0_2_1_1_11,2021-12-02T11:25:54.189Z,,,,,,,,,,,,,,,,54,,,,,,,,,,,,,,748.8089999988879,,response,,,100,,,,,,Space,keypress(Space),,,,,-- --- ---- --- ------ ----- ------- ---- -- --- ------- by<br>------- ---------- ------ -- ----- -- ----- -- ---- ------<br>--- ----- --- --- ------ -------- ----- --- ------ ----- --<br>----- ----- ---------- --- --- ------ ------ ---- -- ------<br>------- --- ------ ----- --- ---- ------- -- ---- --- --<br>------- ------,119967.09999999963,119966.29999999888,119200.823,119207.5,119217.491,119968.174,,11,by
screen,html.Screen,0_2_1_1_12,2021-12-02T11:25:54.600Z,,,,,,,,,,,,,,,,54,,,,,,,,,,,,,,406.12599999888334,,response,,,100,,,,,,Space,keypress(Space),,,,,-- --- ---- --- ------ ----- ------- ---- -- --- ------- --<br>issuing ---------- ------ -- ----- -- ----- -- ---- ------<br>--- ----- --- --- ------ -------- ----- --- ------ ----- --<br>----- ----- ---------- --- --- ------ ------ ---- -- ------<br>------- --- ------ ----- --- ---- ------- -- ---- --- --<br>------- ------,120375.09999999963,120374.29999999888,119951.501,119967.40000000037,119968.174,120384.761,,12,issuing
screen,html.Screen,0_2_1_1_13,2021-12-02T11:25:55.168Z,,,,,,,,,,,,,,,,54,,,,,,,,,,,,,,557.5389999988838,,response,,,100,,,,,,Space,keypress(Space),,,,,-- --- ---- --- ------ ----- ------- ---- -- --- ------- --<br>------- government ------ -- ----- -- ----- -- ---- ------<br>--- ----- --- --- ------ -------- ----- --- ------ ----- --<br>----- ----- ---------- --- --- ------ ------ ---- -- ------<br>------- --- ------ ----- --- ---- ------- -- ---- --- --<br>------- ------,120943.09999999963,120942.29999999888,120368.091,120375.29999999888,120384.761,120951.471,,13,government
screen,html.Screen,0_2_1_1_14,2021-12-02T11:25:57.200Z,,,,,,,,,,,,,,,,54,,,,,,,,,,,,,,2023.028999999995,,response,,,100,,,,,,Space,keypress(Space),,,,,-- --- ---- --- ------ ----- ------- ---- -- --- ------- --<br>------- ---------- bonds. -- ----- -- ----- -- ---- ------<br>--- ----- --- --- ------ -------- ----- --- ------ ----- --<br>----- ----- ---------- --- --- ------ ------ ---- -- ------<br>------- --- ------ ----- --- ---- ------- -- ---- --- --<br>------- ------,122975.29999999888,122974.5,120934.802,120943.29999999888,120951.471,122985.618,,14,bonds.
screen,html.Screen,0_2_1_1_15,2021-12-02T11:25:57.632Z,,,,,,,,,,,,,,,,54,,,,,,,,,,,,,,420.58199999925273,,response,,,100,,,,,,Space,keypress(Space),,,,,-- --- ---- --- ------ ----- ------- ---- -- --- ------- --<br>------- ---------- ------ In ----- -- ----- -- ---- ------<br>--- ----- --- --- ------ -------- ----- --- ------ ----- --<br>----- ----- ---------- --- --- ------ ------ ---- -- ------<br>------- --- ------ ----- --- ---- ------- -- ---- --- --<br>------- ------,123407,123406.19999999925,122968.946,122975.5,122985.618,123418.767,,15,In
screen,html.Screen,0_2_1_1_16,2021-12-02T11:25:59.167Z,,,,,,,,,,,,,,,,54,,,,,,,,,,,,,,1523.232999999993,,response,,,100,,,,,,Space,keypress(Space),,,,,"-- --- ---- --- ------ ----- ------- ---- -- --- ------- --<br>------- ---------- ------ -- 1727, -- ----- -- ---- ------<br>--- ----- --- --- ------ -------- ----- --- ------ ----- --<br>----- ----- ---------- --- --- ------ ------ ---- -- ------<br>------- --- ------ ----- --- ---- ------- -- ---- --- --<br>------- ------",124942.79999999888,124942,123402.097,123407.29999999888,123418.767,124952.546,,16,"1727,"
screen,html.Screen,0_2_1_1_17,2021-12-02T11:25:59.856Z,,,,,,,,,,,,,,,,54,,,,,,,,,,,,,,677.4539999999979,,response,,,100,,,,,,Space,keypress(Space),,,,,-- --- ---- --- ------ ----- ------- ---- -- --- ------- --<br>------- ---------- ------ -- ----- in ----- -- ---- ------<br>--- ----- --- --- ------ -------- ----- --- ------ ----- --<br>----- ----- ---------- --- --- ------ ------ ---- -- ------<br>------- --- ------ ----- --- ---- ------- -- ---- --- --<br>------- ------,125630.79999999888,125630,124935.876,124943,124952.546,125636.055,,17,in
screen,html.Screen,0_2_1_1_18,2021-12-02T11:26:00.367Z,,,,,,,,,,,,,,,,54,,,,,,,,,,,,,,505.8450000003795,,response,,,100,,,,,,Space,keypress(Space),,,,,-- --- ---- --- ------ ----- ------- ---- -- --- ------- --<br>------- ---------- ------ -- ----- -- order -- ---- ------<br>--- ----- --- --- ------ -------- ----- --- ------ ----- --<br>----- ----- ---------- --- --- ------ ------ ---- -- ------<br>------- --- ------ ----- --- ---- ------- -- ---- --- --<br>------- ------,126142.69999999925,126141.90000000037,125619.385,125631.09999999963,125636.055,126152.835,,18,order
screen,html.Screen,0_2_1_1_19,2021-12-02T11:26:00.751Z,,,,,,,,,,,,,,,,54,,,,,,,,,,,,,,373.0650000003661,,response,,,100,,,,,,Space,keypress(Space),,,,,-- --- ---- --- ------ ----- ------- ---- -- --- ------- --<br>------- ---------- ------ -- ----- -- ----- to ---- ------<br>--- ----- --- --- ------ -------- ----- --- ------ ----- --<br>----- ----- ---------- --- --- ------ ------ ---- -- ------<br>------- --- ------ ----- --- ---- ------- -- ---- --- --<br>------- ------,126526.69999999925,126525.90000000037,126136.165,126143.09999999963,126152.835,126536.443,,19,to
screen,html.Screen,0_2_1_1_20,2021-12-02T11:26:01.175Z,,,,,,,,,,,,,,,,54,,,,,,,,,,,,,,413.4570000003732,,response,,,100,,,,,,Space,keypress(Space),,,,,-- --- ---- --- ------ ----- ------- ---- -- --- ------- --<br>------- ---------- ------ -- ----- -- ----- -- save ------<br>--- ----- --- --- ------ -------- ----- --- ------ ----- --<br>----- ----- ---------- --- --- ------ ------ ---- -- ------<br>------- --- ------ ----- --- ---- ------- -- ---- --- --<br>------- ------,126950.69999999925,126949.90000000037,126519.771,126526.90000000037,126536.443,126953.117,,20,save
screen,html.Screen,0_2_1_1_21,2021-12-02T11:26:01.911Z,,,,,,,,,,,,,,,,54,,,,,,,,,,,,,,732.7830000003742,,response,,,100,,,,,,Space,keypress(Space),,,,,"-- --- ---- --- ------ ----- ------- ---- -- --- ------- --<br>------- ---------- ------ -- ----- -- ----- -- ---- money,<br>--- ----- --- --- ------ -------- ----- --- ------ ----- --<br>----- ----- ---------- --- --- ------ ------ ---- -- ------<br>------- --- ------ ----- --- ---- ------- -- ---- --- --<br>------- ------",127686.69999999925,127685.90000000037,126936.447,126950.90000000037,126953.117,127703.3,,21,"money,"
screen,html.Screen,0_2_1_1_22,2021-12-02T11:26:02.295Z,,,,,,,,,,,,,,,,54,,,,,,,,,,,,,,366.6000000003696,,response,,,100,,,,,,Space,keypress(Space),,,,,-- --- ---- --- ------ ----- ------- ---- -- --- ------- --<br>------- ---------- ------ -- ----- -- ----- -- ---- ------<br>the ----- --- --- ------ -------- ----- --- ------ ----- --<br>----- ----- ---------- --- --- ------ ------ ---- -- ------<br>------- --- ------ ----- --- ---- ------- -- ---- --- --<br>------- ------,128070.69999999925,128069.90000000037,127686.63,127686.90000000037,127703.3,128086.729,,22,the
screen,html.Screen,0_2_1_1_23,2021-12-02T11:26:02.727Z,,,,,,,,,,,,,,,,54,,,,,,,,,,,,,,415.0709999988758,,response,,,100,,,,,,Space,keypress(Space),,,,,-- --- ---- --- ------ ----- ------- ---- -- --- ------- --<br>------- ---------- ------ -- ----- -- ----- -- ---- ------<br>--- state --- --- ------ -------- ----- --- ------ ----- --<br>----- ----- ---------- --- --- ------ ------ ---- -- ------<br>------- --- ------ ----- --- ---- ------- -- ---- --- --<br>------- ------,128502.59999999963,128501.79999999888,128070.059,128070.79999999888,128086.729,128503.558,,23,state
screen,html.Screen,0_2_1_1_24,2021-12-02T11:26:03.151Z,,,,,,,,,,,,,,,,54,,,,,,,,,,,,,,422.2419999988779,,response,,,100,,,,,,Space,keypress(Space),,,,,-- --- ---- --- ------ ----- ------- ---- -- --- ------- --<br>------- ---------- ------ -- ----- -- ----- -- ---- ------<br>--- ----- cut --- ------ -------- ----- --- ------ ----- --<br>----- ----- ---------- --- --- ------ ------ ---- -- ------<br>------- --- ------ ----- --- ---- ------- -- ---- --- --<br>------- ------,128926.59999999963,128925.79999999888,128486.887,128502.90000000037,128503.558,128936.956,,24,cut
screen,html.Screen,0_2_1_1_25,2021-12-02T11:26:03.559Z,,,,,,,,,,,,,,,,54,,,,,,,,,,,,,,396.8439999988768,,response,,,100,,,,,,Space,keypress(Space),,,,,-- --- ---- --- ------ ----- ------- ---- -- --- ------- --<br>------- ---------- ------ -- ----- -- ----- -- ---- ------<br>--- ----- --- the ------ -------- ----- --- ------ ----- --<br>----- ----- ---------- --- --- ------ ------ ---- -- ------<br>------- --- ------ ----- --- ---- ------- -- ---- --- --<br>------- ------,129334.59999999963,129333.79999999888,128920.286,128926.90000000037,128936.956,129337.067,,25,the
screen,html.Screen,0_2_1_1_26,2021-12-02T11:26:04.031Z,,,,,,,,,,,,,,,,54,,,,,,,,,,,,,,468.6329999992595,,response,,,100,,,,,,Space,keypress(Space),,,,,-- --- ---- --- ------ ----- ------- ---- -- --- ------- --<br>------- ---------- ------ -- ----- -- ----- -- ---- ------<br>--- ----- --- --- bonds' -------- ----- --- ------ ----- --<br>----- ----- ---------- --- --- ------ ------ ---- -- ------<br>------- --- ------ ----- --- ---- ------- -- ---- --- --<br>------- ------,129806.59999999963,129805.69999999925,129320.397,129334.79999999888,129337.067,129820.566,,26,bonds'
screen,html.Screen,0_2_1_1_27,2021-12-02T11:26:04.479Z,,,,,,,,,,,,,,,,54,,,,,,,,,,,,,,433.1339999992488,,response,,,100,,,,,,Space,keypress(Space),,,,,-- --- ---- --- ------ ----- ------- ---- -- --- ------- --<br>------- ---------- ------ -- ----- -- ----- -- ---- ------<br>--- ----- --- --- ------ interest ----- --- ------ ----- --<br>----- ----- ---------- --- --- ------ ------ ---- -- ------<br>------- --- ------ ----- --- ---- ------- -- ---- --- --<br>------- ------,130254.5,130253.69999999925,129803.895,129806.79999999888,129820.566,130270.647,,27,interest
screen,html.Screen,0_2_1_1_28,2021-12-02T11:26:04.935Z,,,,,,,,,,,,,,,,54,,,,,,,,,,,,,,439.1529999988852,,response,,,100,,,,,,Space,keypress(Space),,,,,-- --- ---- --- ------ ----- ------- ---- -- --- ------- --<br>------- ---------- ------ -- ----- -- ----- -- ---- ------<br>--- ----- --- --- ------ -------- rate. --- ------ ----- --<br>----- ----- ---------- --- --- ------ ------ ---- -- ------<br>------- --- ------ ----- --- ---- ------- -- ---- --- --<br>------- ------,130710.59999999963,130709.79999999888,130253.977,130254.79999999888,130270.647,130720.657,,28,rate.
screen,html.Screen,0_2_1_1_29,2021-12-02T11:26:05.967Z,,,,,,,,,,,,,,,,54,,,,,,,,,,,,,,1020.942999999621,,response,,,100,,,,,,Space,keypress(Space),,,,,-- --- ---- --- ------ ----- ------- ---- -- --- ------- --<br>------- ---------- ------ -- ----- -- ----- -- ---- ------<br>--- ----- --- --- ------ -------- ----- The ------ ----- --<br>----- ----- ---------- --- --- ------ ------ ---- -- ------<br>------- --- ------ ----- --- ---- ------- -- ---- --- --<br>------- ------,131742.59999999963,131741.59999999963,130703.988,130710.79999999888,130720.657,131754.467,,29,The
screen,html.Screen,0_2_1_1_30,2021-12-02T11:26:06.671Z,,,,,,,,,,,,,,,,54,,,,,,,,,,,,,,691.1329999996233,,response,,,100,,,,,,Space,keypress(Space),,,,,-- --- ---- --- ------ ----- ------- ---- -- --- ------- --<br>------- ---------- ------ -- ----- -- ----- -- ---- ------<br>--- ----- --- --- ------ -------- ----- --- market ----- --<br>----- ----- ---------- --- --- ------ ------ ---- -- ------<br>------- --- ------ ----- --- ---- ------- -- ---- --- --<br>------- ------,132446.40000000037,132445.59999999963,131737.795,131742.69999999925,131754.467,132454.516,,30,market
screen,html.Screen,0_2_1_1_31,2021-12-02T11:26:07.728Z,,,,,,,,,,,,,,,,54,,,,,,,,,,,,,,1047.5839999996242,,response,,,100,,,,,,Space,keypress(Space),,,,,-- --- ---- --- ------ ----- ------- ---- -- --- ------- --<br>------- ---------- ------ -- ----- -- ----- -- ---- ------<br>--- ----- --- --- ------ -------- ----- --- ------ value --<br>----- ----- ---------- --- --- ------ ------ ---- -- ------<br>------- --- ------ ----- --- ---- ------- -- ---- --- --<br>------- ------,133503,133502.09999999963,132437.846,132446.69999999925,132454.516,133504.854,,31,value
screen,html.Screen,0_2_1_1_32,2021-12-02T11:26:08.487Z,,,,,,,,,,,,,,,,54,,,,,,,,,,,,,,756.6460000000079,,response,,,100,,,,,,Space,keypress(Space),,,,,-- --- ---- --- ------ ----- ------- ---- -- --- ------- --<br>------- ---------- ------ -- ----- -- ----- -- ---- ------<br>--- ----- --- --- ------ -------- ----- --- ------ ----- of<br>----- ----- ---------- --- --- ------ ------ ---- -- ------<br>------- --- ------ ----- --- ---- ------- -- ---- --- --<br>------- ------,134262.29999999888,134261.5,133488.183,133503.29999999888,133504.854,134271.634,,32,of
screen,html.Screen,0_2_1_1_33,2021-12-02T11:26:09.303Z,,,,,,,,,,,,,,,,54,,,,,,,,,,,,,,805.8660000000091,,response,,,100,,,,,,Space,keypress(Space),,,,,-- --- ---- --- ------ ----- ------- ---- -- --- ------- --<br>------- ---------- ------ -- ----- -- ----- -- ---- ------<br>--- ----- --- --- ------ -------- ----- --- ------ ----- --<br>these ----- ---------- --- --- ------ ------ ---- -- ------<br>------- --- ------ ----- --- ---- ------- -- ---- --- --<br>------- ------,135078.29999999888,135077.5,134254.964,134262.59999999963,134271.634,135088.468,,33,these
screen,html.Screen,0_2_1_1_34,2021-12-02T11:26:10.071Z,,,,,,,,,,,,,,,,54,,,,,,,,,,,,,,757.0320000000065,,response,,,100,,,,,,Space,keypress(Space),,,,,-- --- ---- --- ------ ----- ------- ---- -- --- ------- --<br>------- ---------- ------ -- ----- -- ----- -- ---- ------<br>--- ----- --- --- ------ -------- ----- --- ------ ----- --<br>----- bonds ---------- --- --- ------ ------ ---- -- ------<br>------- --- ------ ----- --- ---- ------- -- ---- --- --<br>------- ------,135846.40000000037,135845.5,135071.798,135078.59999999963,135088.468,135855.461,,34,bonds
screen,html.Screen,0_2_1_1_35,2021-12-02T11:26:10.951Z,,,,,,,,,,,,,,,,54,,,,,,,,,,,,,,870.0389999999898,,response,,,100,,,,,,Space,keypress(Space),,,,,"-- --- ---- --- ------ ----- ------- ---- -- --- ------- --<br>------- ---------- ------ -- ----- -- ----- -- ---- ------<br>--- ----- --- --- ------ -------- ----- --- ------ ----- --<br>----- ----- plummeted, --- --- ------ ------ ---- -- ------<br>------- --- ------ ----- --- ---- ------- -- ---- --- --<br>------- ------",136726.29999999888,136725.5,135838.79,135846.59999999963,135855.461,136738.871,,35,"plummeted,"
screen,html.Screen,0_2_1_1_36,2021-12-02T11:26:11.367Z,,,,,,,,,,,,,,,,54,,,,,,,,,,,,,,402.5290000003588,,response,,,100,,,,,,Space,keypress(Space),,,,,-- --- ---- --- ------ ----- ------- ---- -- --- ------- --<br>------- ---------- ------ -- ----- -- ----- -- ---- ------<br>--- ----- --- --- ------ -------- ----- --- ------ ----- --<br>----- ----- ---------- and --- ------ ------ ---- -- ------<br>------- --- ------ ----- --- ---- ------- -- ---- --- --<br>------- ------,137142.19999999925,137141.40000000037,136722.201,136726.5,136738.871,137155.796,,36,and
screen,html.Screen,0_2_1_1_37,2021-12-02T11:26:11.767Z,,,,,,,,,,,,,,,,54,,,,,,,,,,,,,,385.5039999988803,,response,,,100,,,,,,Space,keypress(Space),,,,,-- --- ---- --- ------ ----- ------- ---- -- --- ------- --<br>------- ---------- ------ -- ----- -- ----- -- ---- ------<br>--- ----- --- --- ------ -------- ----- --- ------ ----- --<br>----- ----- ---------- --- the ------ ------ ---- -- ------<br>------- --- ------ ----- --- ---- ------- -- ---- --- --<br>------- ------,137542.19999999925,137541.29999999888,137139.125,137142.40000000037,137155.796,137555.85,,37,the
screen,html.Screen,0_2_1_1_38,2021-12-02T11:26:12.183Z,,,,,,,,,,,,,,,,54,,,,,,,,,,,,,,401.5500000003667,,response,,,100,,,,,,Space,keypress(Space),,,,,-- --- ---- --- ------ ----- ------- ---- -- --- ------- --<br>------- ---------- ------ -- ----- -- ----- -- ---- ------<br>--- ----- --- --- ------ -------- ----- --- ------ ----- --<br>----- ----- ---------- --- --- market ------ ---- -- ------<br>------- --- ------ ----- --- ---- ------- -- ---- --- --<br>------- ------,137958.09999999963,137957.40000000037,137539.18,137542.40000000037,137555.85,137972.614,,38,market
screen,html.Screen,0_2_1_1_39,2021-12-02T11:26:12.607Z,,,,,,,,,,,,,,,,54,,,,,,,,,,,,,,408.78600000037113,,response,,,100,,,,,,Space,keypress(Space),,,,,-- --- ---- --- ------ ----- ------- ---- -- --- ------- --<br>------- ---------- ------ -- ----- -- ----- -- ---- ------<br>--- ----- --- --- ------ -------- ----- --- ------ ----- --<br>----- ----- ---------- --- --- ------ became ---- -- ------<br>------- --- ------ ----- --- ---- ------- -- ---- --- --<br>------- ------,138382.19999999925,138381.40000000037,137955.944,137958.29999999888,137972.614,138389.435,,39,became
screen,html.Screen,0_2_1_1_40,2021-12-02T11:26:13.023Z,,,,,,,,,,,,,,,,54,,,,,,,,,,,,,,407.86499999888474,,response,,,100,,,,,,Space,keypress(Space),,,,,-- --- ---- --- ------ ----- ------- ---- -- --- ------- --<br>------- ---------- ------ -- ----- -- ----- -- ---- ------<br>--- ----- --- --- ------ -------- ----- --- ------ ----- --<br>----- ----- ---------- --- --- ------ ------ wary -- ------<br>------- --- ------ ----- --- ---- ------- -- ---- --- --<br>------- ------,138798.09999999963,138797.29999999888,138372.764,138382.40000000037,138389.435,138806.144,,40,wary
screen,html.Screen,0_2_1_1_41,2021-12-02T11:26:13.447Z,,,,,,,,,,,,,,,,54,,,,,,,,,,,,,,415.0559999992547,,response,,,100,,,,,,Space,keypress(Space),,,,,-- --- ---- --- ------ ----- ------- ---- -- --- ------- --<br>------- ---------- ------ -- ----- -- ----- -- ---- ------<br>--- ----- --- --- ------ -------- ----- --- ------ ----- --<br>----- ----- ---------- --- --- ------ ------ ---- of ------<br>------- --- ------ ----- --- ---- ------- -- ---- --- --<br>------- ------,139222,139221.19999999925,138789.474,138798.29999999888,138806.144,139222.975,,41,of
screen,html.Screen,0_2_1_1_42,2021-12-02T11:26:13.879Z,,,,,,,,,,,,,,,,54,,,,,,,,,,,,,,430.2249999992491,,response,,,100,,,,,,Space,keypress(Space),,,,,-- --- ---- --- ------ ----- ------- ---- -- --- ------- --<br>------- ---------- ------ -- ----- -- ----- -- ---- ------<br>--- ----- --- --- ------ -------- ----- --- ------ ----- --<br>----- ----- ---------- --- --- ------ ------ ---- -- French<br>------- --- ------ ----- --- ---- ------- -- ---- --- --<br>------- ------,139654.09999999963,139653.19999999925,139206.304,139222.29999999888,139222.975,139656.428,,42,French
screen,html.Screen,0_2_1_1_43,2021-12-02T11:26:14.711Z,,,,,,,,,,,,,,,,54,,,,,,,,,,,,,,828.7719999992405,,response,,,100,,,,,,Space,keypress(Space),,,,,-- --- ---- --- ------ ----- ------- ---- -- --- ------- --<br>------- ---------- ------ -- ----- -- ----- -- ---- ------<br>--- ----- --- --- ------ -------- ----- --- ------ ----- --<br>----- ----- ---------- --- --- ------ ------ ---- -- ------<br>credit. --- ------ ----- --- ---- ------- -- ---- --- --<br>------- ------,140486,140485.19999999925,139639.757,139654.29999999888,139656.428,140489.895,,43,credit.
screen,html.Screen,0_2_1_1_44,2021-12-02T11:26:15.183Z,,,,,,,,,,,,,,,,54,,,,,,,,,,,,,,467.20499999963795,,response,,,100,,,,,,Space,keypress(Space),,,,,-- --- ---- --- ------ ----- ------- ---- -- --- ------- --<br>------- ---------- ------ -- ----- -- ----- -- ---- ------<br>--- ----- --- --- ------ -------- ----- --- ------ ----- --<br>----- ----- ---------- --- --- ------ ------ ---- -- ------<br>------- The ------ ----- --- ---- ------- -- ---- --- --<br>------- ------,140958.09999999963,140957.09999999963,140473.225,140486.29999999888,140489.895,140973.39,,44,The
screen,html.Screen,0_2_1_1_45,2021-12-02T11:26:15.623Z,,,,,,,,,,,,,,,,54,,,,,,,,,,,,,,423.7099999996135,,response,,,100,,,,,,Space,keypress(Space),,,,,-- --- ---- --- ------ ----- ------- ---- -- --- ------- --<br>------- ---------- ------ -- ----- -- ----- -- ---- ------<br>--- ----- --- --- ------ -------- ----- --- ------ ----- --<br>----- ----- ---------- --- --- ------ ------ ---- -- ------<br>------- --- French ----- --- ---- ------- -- ---- --- --<br>------- ------,141398,141397.09999999963,140956.72,140958.29999999888,140973.39,141406.815,,45,French
screen,html.Screen,0_2_1_1_46,2021-12-02T11:26:16.055Z,,,,,,,,,,,,,,,,54,,,,,,,,,,,,,,422.28499999962514,,response,,,100,,,,,,Space,keypress(Space),,,,,-- --- ---- --- ------ ----- ------- ---- -- --- ------- --<br>------- ---------- ------ -- ----- -- ----- -- ---- ------<br>--- ----- --- --- ------ -------- ----- --- ------ ----- --<br>----- ----- ---------- --- --- ------ ------ ---- -- ------<br>------- --- ------ state --- ---- ------- -- ---- --- --<br>------- ------,141829.90000000037,141829.09999999963,141390.145,141398.19999999925,141406.815,141840.322,,46,state
screen,html.Screen,0_2_1_1_47,2021-12-02T11:26:16.471Z,,,,,,,,,,,,,,,,54,,,,,,,,,,,,,,404.7779999996419,,response,,,100,,,,,,Space,keypress(Space),,,,,-- --- ---- --- ------ ----- ------- ---- -- --- ------- --<br>------- ---------- ------ -- ----- -- ----- -- ---- ------<br>--- ----- --- --- ------ -------- ----- --- ------ ----- --<br>----- ----- ---------- --- --- ------ ------ ---- -- ------<br>------- --- ------ ----- was ---- ------- -- ---- --- --<br>------- ------,142246,142245.09999999963,141823.651,141830.29999999888,141840.322,142256.917,,47,was
screen,html.Screen,0_2_1_1_48,2021-12-02T11:26:16.911Z,,,,,,,,,,,,,,,,54,,,,,,,,,,,,,,428.18299999964074,,response,,,100,,,,,,Space,keypress(Space),,,,,-- --- ---- --- ------ ----- ------- ---- -- --- ------- --<br>------- ---------- ------ -- ----- -- ----- -- ---- ------<br>--- ----- --- --- ------ -------- ----- --- ------ ----- --<br>----- ----- ---------- --- --- ------ ------ ---- -- ------<br>------- --- ------ ----- --- left ------- -- ---- --- --<br>------- ------,142685.90000000037,142685.09999999963,142240.249,142246.19999999925,142256.917,142690.601,,48,left
screen,html.Screen,0_2_1_1_49,2021-12-02T11:26:17.319Z,,,,,,,,,,,,,,,,54,,,,,,,,,,,,,,402.3990000000049,,response,,,100,,,,,,Space,keypress(Space),,,,,-- --- ---- --- ------ ----- ------- ---- -- --- ------- --<br>------- ---------- ------ -- ----- -- ----- -- ---- ------<br>--- ----- --- --- ------ -------- ----- --- ------ ----- --<br>----- ----- ---------- --- --- ------ ------ ---- -- ------<br>------- --- ------ ----- --- ---- without -- ---- --- --<br>------- ------,143093.90000000037,143093,142673.929,142686.19999999925,142690.601,143107.286,,49,without
screen,html.Screen,0_2_1_1_50,2021-12-02T11:26:17.703Z,,,,,,,,,,,,,,,,54,,,,,,,,,,,,,,369.8139999996347,,response,,,100,,,,,,Space,keypress(Space),,,,,-- --- ---- --- ------ ----- ------- ---- -- --- ------- --<br>------- ---------- ------ -- ----- -- ----- -- ---- ------<br>--- ----- --- --- ------ -------- ----- --- ------ ----- --<br>----- ----- ---------- --- --- ------ ------ ---- -- ------<br>------- --- ------ ----- --- ---- ------- an ---- --- --<br>------- ------,143478,143477.09999999963,143090.616,143094,143107.286,143490.709,,50,an
screen,html.Screen,0_2_1_1_51,2021-12-02T11:26:18.103Z,,,,,,,,,,,,,,,,54,,,,,,,,,,,,,,386.69100000036997,,response,,,100,,,,,,Space,keypress(Space),,,,,-- --- ---- --- ------ ----- ------- ---- -- --- ------- --<br>------- ---------- ------ -- ----- -- ----- -- ---- ------<br>--- ----- --- --- ------ -------- ----- --- ------ ----- --<br>----- ----- ---------- --- --- ------ ------ ---- -- ------<br>------- --- ------ ----- --- ---- ------- -- easy --- --<br>------- ------,143878.09999999963,143877.40000000037,143474.039,143478.09999999963,143490.709,143890.807,,51,easy
screen,html.Screen,0_2_1_1_52,2021-12-02T11:26:18.478Z,,,,,,,,,,,,,,,,54,,,,,,,,,,,,,,362.09300000037183,,response,,,100,,,,,,Space,keypress(Space),,,,,-- --- ---- --- ------ ----- ------- ---- -- --- ------- --<br>------- ---------- ------ -- ----- -- ----- -- ---- ------<br>--- ----- --- --- ------ -------- ----- --- ------ ----- --<br>----- ----- ---------- --- --- ------ ------ ---- -- ------<br>------- --- ------ ----- --- ---- ------- -- ---- way --<br>------- ------,144253.79999999888,144252.90000000037,143874.137,143878.40000000037,143890.807,144257.61,,52,way
screen,html.Screen,0_2_1_1_53,2021-12-02T11:26:18.878Z,,,,,,,,,,,,,,,,54,,,,,,,,,,,,,,395.2900000003865,,response,,,100,,,,,,Space,keypress(Space),,,,,-- --- ---- --- ------ ----- ------- ---- -- --- ------- --<br>------- ---------- ------ -- ----- -- ----- -- ---- ------<br>--- ----- --- --- ------ -------- ----- --- ------ ----- --<br>----- ----- ---------- --- --- ------ ------ ---- -- ------<br>------- --- ------ ----- --- ---- ------- -- ---- --- of<br>------- ------,144653.69999999925,144652.90000000037,144240.939,144254,144257.61,144657.672,,53,of
screen,html.Screen,0_2_1_1_54,2021-12-02T11:26:19.294Z,,,,,,,,,,,,,,,,54,,,,,,,,,,,,,,411.22800000038114,,response,,,100,,,,,,Space,keypress(Space),,,,,-- --- ---- --- ------ ----- ------- ---- -- --- ------- --<br>------- ---------- ------ -- ----- -- ----- -- ---- ------<br>--- ----- --- --- ------ -------- ----- --- ------ ----- --<br>----- ----- ---------- --- --- ------ ------ ---- -- ------<br>------- --- ------ ----- --- ---- ------- -- ---- --- --<br>raising ------,145069.69999999925,145068.90000000037,144641.002,144654,144657.672,145074.5,,54,raising
screen,html.Screen,0_2_1_1_55,2021-12-02T11:26:19.774Z,,,,,,,,,,,,,,,,54,,,,,,,,,,,,,,474.2999999988824,,response,,,100,,,,,,Space,keypress(Space),,,,,-- --- ---- --- ------ ----- ------- ---- -- --- ------- --<br>------- ---------- ------ -- ----- -- ----- -- ---- ------<br>--- ----- --- --- ------ -------- ----- --- ------ ----- --<br>----- ----- ---------- --- --- ------ ------ ---- -- ------<br>------- --- ------ ----- --- ---- ------- -- ---- --- --<br>------- money.,145549.59999999963,145548.79999999888,145057.829,145070,145074.5,145557.902,,55,money.
Item 100,flow.Loop,0_2_1_1,2021-12-02T11:26:19.775Z,,,,,,,,,,,,,,,,,,,,,,,,,,,,,,36150.33899999889,,completion,,,,C,,,,,,,,,,silence,,145550.19999999925,145548.79999999888,109381.791,109383.19999999925,109398.461,145557.902,,,
Question 1,html.Screen,0_2_1_2,2021-12-02T11:26:24.027Z,,,,,,,,,,,,,,,,,,,,,,,,,,,true,TRUE,,4242.797999999253,,response,,,100,C,,,,,TRUE,click #choice-1,,,,silence,,149801.90000000037,149800.69999999925,145541.232,145550.29999999888,145557.902,149808.937,,,
Question 2,html.Screen,0_2_1_3,2021-12-02T11:26:28.275Z,,,,,,,,,,,,,,,,,,,,,,,,,,,true,FALSE,,4240.26299999925,,response,,,100,C,,,,,FALSE,click #choice-2,,,,silence,,154050.5,154049.19999999925,149792.268,149802.09999999963,149808.937,154060.057,,,
Item 100,flow.Sequence,0_2_1,2021-12-02T11:26:28.276Z,,,,,,,,,,,,,,,,,,,,,,,,,,,,,,54653.15199999926,,completion,,,,,,,,,,,,,,,,154050.79999999888,154049.19999999925,99379.378,99387,99396.048,154060.057,,,
End of Practice,html.Page,0_2_2,2021-12-02T11:26:31.341Z,,,,,,,,,,,,,,,,,,,,,,,,,,,,,,3055.843000000372,,form submission,,,,,,,,,,,,,,,,157116.40000000037,157115.90000000037,154043.387,154051,154060.057,157126.815,,,
Practice,flow.Sequence,0_2,2021-12-02T11:26:31.341Z,,,,,,,,,,,,,,,,,,,,,,,,,,,,,,118649.06700000037,,completion,,,,,,,,,,,,,,,,157116.79999999888,157115.90000000037,38450.149,38457.5,38466.833,157126.815,,,
Trap_instruction,html.Page,0_3_0,2021-12-02T11:26:32.799Z,,,,,,,,,,,,,,,,,,,,,,,,,,,,,,1446.8849999992526,,form submission,,,,,,,,,,,,,,,,158574.29999999888,158573.69999999925,157110.148,157117,157126.815,158594.478,,,
trap_trial,html.Screen,0_3_1,2021-12-02T11:26:35.084Z,,,,,,,,,,,,,,,,,,,,,,,,,,,true,1,,2263.8219999988796,,response,,,,,,,,,1,click #choice-1,,,,,,160859.09999999963,160858.29999999888,158561.138,158574.5,158594.478,160865.012,,,
end of trap trial,html.Page,0_3_2,2021-12-02T11:26:37.705Z,,,,,,,,,,,,,,,,,,,,,,,,,,,,,,2615.0879999996396,,form submission,,,,,,,,,,,,,,,,163480.69999999925,163480.09999999963,160848.317,160859.19999999925,160865.012,163479.172,,,
Trap 1,flow.Sequence,0_3,2021-12-02T11:26:37.706Z,,,,,,,,,,,,,,,,,,,,,,,,,,,,,,6353.284999999625,,completion,,,,,,,,,,,,,,,,163481.19999999925,163480.09999999963,157110.148,157116.90000000037,157126.815,163479.172,,,
Standby,html.Page,0_4_0,2021-12-02T11:26:45.691Z,,,,,,,,,,,,,,,,,,,,,,,,,,,,,,8001.572000000015,,timeout,,,,,,,,,,,,,,,,171465.90000000037,171464.074,163462.501,163481.59999999963,163479.172,171480.744,,,
Holding screen,html.Screen,0_4_1_0_0,2021-12-02T11:26:52.692Z,,,,,,,,,,,,,,,,,,,,,,,,,,,,,,7002.051999999996,,timeout,,,,,,,,,,,,,,,,178467.40000000037,178466.127,171464.074,171466.29999999888,171480.744,178482.796,,,
screen,html.Screen,0_4_1_0_1_0,2021-12-02T11:26:53.133Z,,,,,,,,,,,,,,,,48,,,,,,,,,,,,,,424.8039999996254,,response,,,10,C,,,,,Space,keypress(Space),,,,instrumental,As -- --- ------ ------- --------- ----------- --------<br>--------- -------- --- ------- -- ------- ---- -- ------<br>-- --- -------- -------- ---------- ---- ---- ---- ------<br>-- --------- -- ---- -- --- -- --- ------- -- - -----<br>---------- -- -- -- ---- ----- -- ------ -- --- ------<br>-------,178908.59999999963,178907.59999999963,178466.127,178467.69999999925,178482.796,178916.543,,0,As
screen,html.Screen,0_4_1_0_1_1,2021-12-02T11:26:55.680Z,,,,,,,,,,,,,,,,48,,,,,,,,,,,,,,2534.456999999995,,response,,,10,C,,,,,Space,keypress(Space),,,,instrumental,-- in --- ------ ------- --------- ----------- --------<br>--------- -------- --- ------- -- ------- ---- -- ------<br>-- --- -------- -------- ---------- ---- ---- ---- ------<br>-- --------- -- ---- -- --- -- --- ------- -- - -----<br>---------- -- -- -- ---- ----- -- ------ -- --- ------<br>-------,181451.90000000037,181451,178899.872,178908.90000000037,178916.543,181466.997,,1,in
screen,html.Screen,0_4_1_0_1_2,2021-12-02T11:26:56.336Z,,,,,,,,,,,,,,,,48,,,,,,,,,,,,,,639.9030000003695,,response,,,10,C,,,,,Space,keypress(Space),,,,instrumental,-- -- the ------ ------- --------- ----------- --------<br>--------- -------- --- ------- -- ------- ---- -- ------<br>-- --- -------- -------- ---------- ---- ---- ---- ------<br>-- --------- -- ---- -- --- -- --- ------- -- - -----<br>---------- -- -- -- ---- ----- -- ------ -- --- ------<br>-------,182107.79999999888,182106.90000000037,181450.327,181452.09999999963,181466.997,182117.424,,2,the
screen,html.Screen,0_4_1_0_1_3,2021-12-02T11:26:57.040Z,,,,,,,,,,,,,,,,48,,,,,,,,,,,,,,693.3759999988833,,response,,,10,C,,,,,Space,keypress(Space),,,,instrumental,-- -- --- United ------- --------- ----------- --------<br>--------- -------- --- ------- -- ------- ---- -- ------<br>-- --- -------- -------- ---------- ---- ---- ---- ------<br>-- --------- -- ---- -- --- -- --- ------- -- - -----<br>---------- -- -- -- ---- ----- -- ------ -- --- ------<br>-------,182811.79999999888,182810.79999999888,182100.753,182108,182117.424,182817.444,,3,United
screen,html.Screen,0_4_1_0_1_4,2021-12-02T11:26:58.041Z,,,,,,,,,,,,,,,,48,,,,,,,,,,,,,,993.7559999992664,,response,,,10,C,,,,,Space,keypress(Space),,,,instrumental,"-- -- --- ------ States, --------- ----------- --------<br>--------- -------- --- ------- -- ------- ---- -- ------<br>-- --- -------- -------- ---------- ---- ---- ---- ------<br>-- --------- -- ---- -- --- -- --- ------- -- - -----<br>---------- -- -- -- ---- ----- -- ------ -- --- ------<br>-------",183812,183811.19999999925,182800.774,182812.09999999963,182817.444,183817.716,,4,"States,"
screen,html.Screen,0_4_1_0_1_5,2021-12-02T11:27:03.265Z,,,,,,,,,,,,,,,,48,,,,,,,,,,,,,,5217.284000000014,,response,,,10,C,,,,,Space,keypress(Space),,,,instrumental,-- -- --- ------ ------- Colombian ----------- --------<br>--------- -------- --- ------- -- ------- ---- -- ------<br>-- --- -------- -------- ---------- ---- ---- ---- ------<br>-- --------- -- ---- -- --- -- --- ------- -- - -----<br>---------- -- -- -- ---- ----- -- ------ -- --- ------<br>-------,189036.09999999963,189035,183801.046,183812.19999999925,183817.716,189052.158,,5,Colombian
screen,html.Screen,0_4_1_0_1_6,2021-12-02T11:27:04.832Z,,,,,,,,,,,,,,,,48,,,,,,,,,,,,,,1550.3420000000042,,response,,,10,C,,,,,Space,keypress(Space),,,,instrumental,-- -- --- ------ ------- --------- legislation --------<br>--------- -------- --- ------- -- ------- ---- -- ------<br>-- --- -------- -------- ---------- ---- ---- ---- ------<br>-- --------- -- ---- -- --- -- --- ------- -- - -----<br>---------- -- -- -- ---- ----- -- ------ -- --- ------<br>-------,190603.29999999888,190602.5,189035.488,189036.40000000037,189052.158,190619.412,,6,legislation
screen,html.Screen,0_4_1_0_1_7,2021-12-02T11:27:05.640Z,,,,,,,,,,,,,,,,48,,,,,,,,,,,,,,790.9880000003614,,response,,,10,C,,,,,Space,keypress(Space),,,,instrumental,-- -- --- ------ ------- --------- ----------- requires<br>--------- -------- --- ------- -- ------- ---- -- ------<br>-- --- -------- -------- ---------- ---- ---- ---- ------<br>-- --------- -- ---- -- --- -- --- ------- -- - -----<br>---------- -- -- -- ---- ----- -- ------ -- --- ------<br>-------,191411.29999999888,191410.40000000037,190602.742,190603.69999999925,190619.412,191419.588,,7,requires
screen,html.Screen,0_4_1_0_1_8,2021-12-02T11:27:06.136Z,,,,,,,,,,,,,,,,48,,,,,,,,,,,,,,486.8120000003837,,response,,,10,C,,,,,Space,keypress(Space),,,,instrumental,-- -- --- ------ ------- --------- ----------- --------<br>travelers -------- --- ------- -- ------- ---- -- ------<br>-- --- -------- -------- ---------- ---- ---- ---- ------<br>-- --------- -- ---- -- --- -- --- ------- -- - -----<br>---------- -- -- -- ---- ----- -- ------ -- --- ------<br>-------,191907.09999999963,191906.40000000037,191402.918,191411.59999999963,191419.588,191919.872,,8,travelers
screen,html.Screen,0_4_1_0_1_9,2021-12-02T11:27:06.640Z,,,,,,,,,,,,,,,,48,,,,,,,,,,,,,,490.4279999988794,,response,,,10,C,,,,,Space,keypress(Space),,,,instrumental,-- -- --- ------ ------- --------- ----------- --------<br>--------- entering --- ------- -- ------- ---- -- ------<br>-- --- -------- -------- ---------- ---- ---- ---- ------<br>-- --------- -- ---- -- --- -- --- ------- -- - -----<br>---------- -- -- -- ---- ----- -- ------ -- --- ------<br>-------,192411.09999999963,192410.29999999888,191903.201,191907.40000000037,191919.872,192419.949,,9,entering
screen,html.Screen,0_4_1_0_1_10,2021-12-02T11:27:07.168Z,,,,,,,,,,,,,,,,48,,,,,,,,,,,,,,518.2509999992617,,response,,,10,C,,,,,Space,keypress(Space),,,,instrumental,-- -- --- ------ ------- --------- ----------- --------<br>--------- -------- the ------- -- ------- ---- -- ------<br>-- --- -------- -------- ---------- ---- ---- ---- ------<br>-- --------- -- ---- -- --- -- --- ------- -- - -----<br>---------- -- -- -- ---- ----- -- ------ -- --- ------<br>-------,192939,192938.19999999925,192403.279,192411.40000000037,192419.949,192953.467,,10,the
screen,html.Screen,0_4_1_0_1_11,2021-12-02T11:27:07.968Z,,,,,,,,,,,,,,,,48,,,,,,,,,,,,,,784.7329999992508,,response,,,10,C,,,,,Space,keypress(Space),,,,instrumental,-- -- --- ------ ------- --------- ----------- --------<br>--------- -------- --- country -- ------- ---- -- ------<br>-- --- -------- -------- ---------- ---- ---- ---- ------<br>-- --------- -- ---- -- --- -- --- ------- -- - -----<br>---------- -- -- -- ---- ----- -- ------ -- --- ------<br>-------,193739,193738.19999999925,192936.796,192939.19999999925,192953.467,193753.643,,11,country
screen,html.Screen,0_4_1_0_1_12,2021-12-02T11:27:08.448Z,,,,,,,,,,,,,,,,48,,,,,,,,,,,,,,464.4569999996165,,response,,,10,C,,,,,Space,keypress(Space),,,,instrumental,-- -- --- ------ ------- --------- ----------- --------<br>--------- -------- --- ------- to ------- ---- -- ------<br>-- --- -------- -------- ---------- ---- ---- ---- ------<br>-- --------- -- ---- -- --- -- --- ------- -- - -----<br>---------- -- -- -- ---- ----- -- ------ -- --- ------<br>-------,194219.09999999963,194218.09999999963,193736.972,193739.29999999888,193753.643,194220.552,,12,to
screen,html.Screen,0_4_1_0_1_13,2021-12-02T11:27:09.912Z,,,,,,,,,,,,,,,,48,,,,,,,,,,,,,,1461.647999999259,,response,,,10,C,,,,,Space,keypress(Space),,,,instrumental,-- -- --- ------ ------- --------- ----------- --------<br>--------- -------- --- ------- -- declare ---- -- ------<br>-- --- -------- -------- ---------- ---- ---- ---- ------<br>-- --------- -- ---- -- --- -- --- ------- -- - -----<br>---------- -- -- -- ---- ----- -- ------ -- --- ------<br>-------,195682.90000000037,195682.19999999925,194203.88,194219.19999999925,194220.552,195687.261,,13,declare
screen,html.Screen,0_4_1_0_1_14,2021-12-02T11:27:10.720Z,,,,,,,,,,,,,,,,48,,,,,,,,,,,,,,802.8389999996289,,response,,,10,C,,,,,Space,keypress(Space),,,,instrumental,-- -- --- ------ ------- --------- ----------- --------<br>--------- -------- --- ------- -- ------- cash -- ------<br>-- --- -------- -------- ---------- ---- ---- ---- ------<br>-- --------- -- ---- -- --- -- --- ------- -- - -----<br>---------- -- -- -- ---- ----- -- ------ -- --- ------<br>-------,196490.90000000037,196490.09999999963,195670.592,195683.19999999925,195687.261,196504.368,,14,cash
screen,html.Screen,0_4_1_0_1_15,2021-12-02T11:27:11.127Z,,,,,,,,,,,,,,,,48,,,,,,,,,,,,,,393.63200000001234,,response,,,10,C,,,,,Space,keypress(Space),,,,instrumental,-- -- --- ------ ------- --------- ----------- --------<br>--------- -------- --- ------- -- ------- ---- in ------<br>-- --- -------- -------- ---------- ---- ---- ---- ------<br>-- --------- -- ---- -- --- -- --- ------- -- - -----<br>---------- -- -- -- ---- ----- -- ------ -- --- ------<br>-------,196898.79999999888,196898,196487.697,196491.09999999963,196504.368,196904.395,,15,in
screen,html.Screen,0_4_1_0_1_16,2021-12-02T11:27:11.927Z,,,,,,,,,,,,,,,,48,,,,,,,,,,,,,,793.6050000000105,,response,,,10,C,,,,,Space,keypress(Space),,,,instrumental,-- -- --- ------ ------- --------- ----------- --------<br>--------- -------- --- ------- -- ------- ---- -- excess<br>-- --- -------- -------- ---------- ---- ---- ---- ------<br>-- --------- -- ---- -- --- -- --- ------- -- - -----<br>---------- -- -- -- ---- ----- -- ------ -- --- ------<br>-------,197698.69999999925,197698,196887.725,196899.09999999963,196904.395,197704.704,,16,excess
screen,html.Screen,0_4_1_0_1_17,2021-12-02T11:27:12.456Z,,,,,,,,,,,,,,,,48,,,,,,,,,,,,,,521.2960000000021,,response,,,10,C,,,,,Space,keypress(Space),,,,instrumental,-- -- --- ------ ------- --------- ----------- --------<br>--------- -------- --- ------- -- ------- ---- -- ------<br>of --- -------- -------- ---------- ---- ---- ---- ------<br>-- --------- -- ---- -- --- -- --- ------- -- - -----<br>---------- -- -- -- ---- ----- -- ------ -- --- ------<br>-------,198226.79999999888,198226,197688.033,197699,197704.704,198237.961,,17,of
screen,html.Screen,0_4_1_0_1_18,2021-12-02T11:27:12.943Z,,,,,,,,,,,,,,,,48,,,,,,,,,,,,,,476.03899999998976,,response,,,10,C,,,,,Space,keypress(Space),,,,instrumental,-- -- --- ------ ------- --------- ----------- --------<br>--------- -------- --- ------- -- ------- ---- -- ------<br>-- ten -------- -------- ---------- ---- ---- ---- ------<br>-- --------- -- ---- -- --- -- --- ------- -- - -----<br>---------- -- -- -- ---- ----- -- ------ -- --- ------<br>-------,198714.79999999888,198714,198221.292,198227.09999999963,198237.961,198721.54,,18,ten
screen,html.Screen,0_4_1_0_1_19,2021-12-02T11:27:13.392Z,,,,,,,,,,,,,,,,48,,,,,,,,,,,,,,440.95999999999185,,response,,,10,C,,,,,Space,keypress(Space),,,,instrumental,-- -- --- ------ ------- --------- ----------- --------<br>--------- -------- --- ------- -- ------- ---- -- ------<br>-- --- thousand -------- ---------- ---- ---- ---- ------<br>-- --------- -- ---- -- --- -- --- ------- -- - -----<br>---------- -- -- -- ---- ----- -- ------ -- --- ------<br>-------,199163.19999999925,199162.5,198704.87,198715,198721.54,199171.795,,19,thousand
screen,html.Screen,0_4_1_0_1_20,2021-12-02T11:27:13.879Z,,,,,,,,,,,,,,,,48,,,,,,,,,,,,,,478.1050000003597,,response,,,10,C,,,,,Space,keypress(Space),,,,instrumental,-- -- --- ------ ------- --------- ----------- --------<br>--------- -------- --- ------- -- ------- ---- -- ------<br>-- --- -------- dollars. ---------- ---- ---- ---- ------<br>-- --------- -- ---- -- --- -- --- ------- -- - -----<br>---------- -- -- -- ---- ----- -- ------ -- --- ------<br>-------,199650.79999999888,199649.90000000037,199155.123,199163.40000000037,199171.795,199655.137,,20,dollars.
screen,html.Screen,0_4_1_0_1_21,2021-12-02T11:27:14.575Z,,,,,,,,,,,,,,,,48,,,,,,,,,,,,,,690.7630000003846,,response,,,10,C,,,,,Space,keypress(Space),,,,instrumental,-- -- --- ------ ------- --------- ----------- --------<br>--------- -------- --- ------- -- ------- ---- -- ------<br>-- --- -------- -------- Concealing ---- ---- ---- ------<br>-- --------- -- ---- -- --- -- --- ------- -- - -----<br>---------- -- -- -- ---- ----- -- ------ -- --- ------<br>-------,200346.69999999925,200345.90000000037,199638.467,199650.90000000037,199655.137,200355.326,,21,Concealing
screen,html.Screen,0_4_1_0_1_22,2021-12-02T11:27:14.983Z,,,,,,,,,,,,,,,,48,,,,,,,,,,,,,,398.5740000003716,,response,,,10,C,,,,,Space,keypress(Space),,,,instrumental,-- -- --- ------ ------- --------- ----------- --------<br>--------- -------- --- ------- -- ------- ---- -- ------<br>-- --- -------- -------- ---------- more ---- ---- ------<br>-- --------- -- ---- -- --- -- --- ------- -- - -----<br>---------- -- -- -- ---- ----- -- ------ -- --- ------<br>-------,200754.90000000037,200753.90000000037,200338.656,200347,200355.326,200771.982,,22,more
screen,html.Screen,0_4_1_0_1_23,2021-12-02T11:27:15.391Z,,,,,,,,,,,,,,,,48,,,,,,,,,,,,,,389.81799999889336,,response,,,10,C,,,,,Space,keypress(Space),,,,instrumental,-- -- --- ------ ------- --------- ----------- --------<br>--------- -------- --- ------- -- ------- ---- -- ------<br>-- --- -------- -------- ---------- ---- than ---- ------<br>-- --------- -- ---- -- --- -- --- ------- -- - -----<br>---------- -- -- -- ---- ----- -- ------ -- --- ------<br>-------,201162.59999999963,201161.79999999888,200755.313,200755.09999999963,200771.982,201172.253,,23,than
screen,html.Screen,0_4_1_0_1_24,2021-12-02T11:27:15.727Z,,,,,,,,,,,,,,,,48,,,,,,,,,,,,,,325.44699999925797,,response,,,10,C,,,,,Space,keypress(Space),,,,instrumental,-- -- --- ------ ------- --------- ----------- --------<br>--------- -------- --- ------- -- ------- ---- -- ------<br>-- --- -------- -------- ---------- ---- ---- that ------<br>-- --------- -- ---- -- --- -- --- ------- -- - -----<br>---------- -- -- -- ---- ----- -- ------ -- --- ------<br>-------,201498.59999999963,201497.69999999925,201155.582,201162.90000000037,201172.253,201505.639,,24,that
screen,html.Screen,0_4_1_0_1_25,2021-12-02T11:27:16.279Z,,,,,,,,,,,,,,,,48,,,,,,,,,,,,,,544.1609999988868,,response,,,10,C,,,,,Space,keypress(Space),,,,instrumental,-- -- --- ------ ------- --------- ----------- --------<br>--------- -------- --- ------- -- ------- ---- -- ------<br>-- --- -------- -------- ---------- ---- ---- ---- amount<br>-- --------- -- ---- -- --- -- --- ------- -- - -----<br>---------- -- -- -- ---- ----- -- ------ -- --- ------<br>-------,202050.59999999963,202049.79999999888,201488.969,201498.79999999888,201505.639,202055.753,,25,amount
screen,html.Screen,0_4_1_0_1_26,2021-12-02T11:27:16.751Z,,,,,,,,,,,,,,,,48,,,,,,,,,,,,,,466.04699999888544,,response,,,10,C,,,,,Space,keypress(Space),,,,instrumental,-- -- --- ------ ------- --------- ----------- --------<br>--------- -------- --- ------- -- ------- ---- -- ------<br>-- --- -------- -------- ---------- ---- ---- ---- ------<br>to --------- -- ---- -- --- -- --- ------- -- - -----<br>---------- -- -- -- ---- ----- -- ------ -- --- ------<br>-------,202522.59999999963,202521.79999999888,202039.083,202050.90000000037,202055.753,202539.23,,26,to
screen,html.Screen,0_4_1_0_1_27,2021-12-02T11:27:17.239Z,,,,,,,,,,,,,,,,48,,,,,,,,,,,,,,470.46999999924446,,response,,,10,C,,,,,Space,keypress(Space),,,,instrumental,-- -- --- ------ ------- --------- ----------- --------<br>--------- -------- --- ------- -- ------- ---- -- ------<br>-- --- -------- -------- ---------- ---- ---- ---- ------<br>-- transport -- ---- -- --- -- --- ------- -- - -----<br>---------- -- -- -- ---- ----- -- ------ -- --- ------<br>-------,203010.59999999963,203009.69999999925,202522.56,202522.79999999888,202539.23,203022.69,,27,transport
screen,html.Screen,0_4_1_0_1_28,2021-12-02T11:27:17.615Z,,,,,,,,,,,,,,,,48,,,,,,,,,,,,,,363.0099999992526,,response,,,10,C,,,,,Space,keypress(Space),,,,instrumental,-- -- --- ------ ------- --------- ----------- --------<br>--------- -------- --- ------- -- ------- ---- -- ------<br>-- --- -------- -------- ---------- ---- ---- ---- ------<br>-- --------- it ---- -- --- -- --- ------- -- - -----<br>---------- -- -- -- ---- ----- -- ------ -- --- ------<br>-------,203386.59999999963,203385.69999999925,203006.02,203010.69999999925,203022.69,203389.455,,28,it
screen,html.Screen,0_4_1_0_1_29,2021-12-02T11:27:18.007Z,,,,,,,,,,,,,,,,48,,,,,,,,,,,,,,388.1449999996403,,response,,,10,C,,,,,Space,keypress(Space),,,,instrumental,-- -- --- ------ ------- --------- ----------- --------<br>--------- -------- --- ------- -- ------- ---- -- ------<br>-- --- -------- -------- ---------- ---- ---- ---- ------<br>-- --------- -- into -- --- -- --- ------- -- - -----<br>---------- -- -- -- ---- ----- -- ------ -- --- ------<br>-------,203778.5,203777.59999999963,203372.785,203386.79999999888,203389.455,203789.462,,29,into
screen,html.Screen,0_4_1_0_1_30,2021-12-02T11:27:18.447Z,,,,,,,,,,,,,,,,48,,,,,,,,,,,,,,428.13799999962794,,response,,,10,C,,,,,Space,keypress(Space),,,,instrumental,-- -- --- ------ ------- --------- ----------- --------<br>--------- -------- --- ------- -- ------- ---- -- ------<br>-- --- -------- -------- ---------- ---- ---- ---- ------<br>-- --------- -- ---- or --- -- --- ------- -- - -----<br>---------- -- -- -- ---- ----- -- ------ -- --- ------<br>-------,204218.40000000037,204217.59999999963,203772.793,203778.79999999888,203789.462,204223.105,,30,or
screen,html.Screen,0_4_1_0_1_31,2021-12-02T11:27:18.871Z,,,,,,,,,,,,,,,,48,,,,,,,,,,,,,,418.59499999924446,,response,,,10,C,,,,,Space,keypress(Space),,,,instrumental,-- -- --- ------ ------- --------- ----------- --------<br>--------- -------- --- ------- -- ------- ---- -- ------<br>-- --- -------- -------- ---------- ---- ---- ---- ------<br>-- --------- -- ---- -- out -- --- ------- -- - -----<br>---------- -- -- -- ---- ----- -- ------ -- --- ------<br>-------,204642.5,204641.69999999925,204206.433,204218.59999999963,204223.105,204656.491,,31,out
screen,html.Screen,0_4_1_0_1_32,2021-12-02T11:27:19.255Z,,,,,,,,,,,,,,,,48,,,,,,,,,,,,,,369.1089999996184,,response,,,10,C,,,,,Space,keypress(Space),,,,instrumental,-- -- --- ------ ------- --------- ----------- --------<br>--------- -------- --- ------- -- ------- ---- -- ------<br>-- --- -------- -------- ---------- ---- ---- ---- ------<br>-- --------- -- ---- -- --- of --- ------- -- - -----<br>---------- -- -- -- ---- ----- -- ------ -- --- ------<br>-------,205026.40000000037,205025.59999999963,204639.82,204642.69999999925,204656.491,205039.74,,32,of
screen,html.Screen,0_4_1_0_1_33,2021-12-02T11:27:19.599Z,,,,,,,,,,,,,,,,48,,,,,,,,,,,,,,329.8599999996368,,response,,,10,C,,,,,Space,keypress(Space),,,,instrumental,-- -- --- ------ ------- --------- ----------- --------<br>--------- -------- --- ------- -- ------- ---- -- ------<br>-- --- -------- -------- ---------- ---- ---- ---- ------<br>-- --------- -- ---- -- --- -- the ------- -- - -----<br>---------- -- -- -- ---- ----- -- ------ -- --- ------<br>-------,205370.40000000037,205369.59999999963,205023.072,205026.59999999963,205039.74,205373.381,,33,the
screen,html.Screen,0_4_1_0_1_34,2021-12-02T11:27:19.975Z,,,,,,,,,,,,,,,,48,,,,,,,,,,,,,,372.2189999996335,,response,,,10,C,,,,,Space,keypress(Space),,,,instrumental,-- -- --- ------ ------- --------- ----------- --------<br>--------- -------- --- ------- -- ------- ---- -- ------<br>-- --- -------- -------- ---------- ---- ---- ---- ------<br>-- --------- -- ---- -- --- -- --- country -- - -----<br>---------- -- -- -- ---- ----- -- ------ -- --- ------<br>-------,205746.5,205745.59999999963,205356.709,205370.59999999963,205373.381,205756.647,,34,country
screen,html.Screen,0_4_1_0_1_35,2021-12-02T11:27:20.431Z,,,,,,,,,,,,,,,,48,,,,,,,,,,,,,,444.8530000000028,,response,,,10,C,,,,,Space,keypress(Space),,,,instrumental,-- -- --- ------ ------- --------- ----------- --------<br>--------- -------- --- ------- -- ------- ---- -- ------<br>-- --- -------- -------- ---------- ---- ---- ---- ------<br>-- --------- -- ---- -- --- -- --- ------- is - -----<br>---------- -- -- -- ---- ----- -- ------ -- --- ------<br>-------,206202.40000000037,206201.5,205739.978,205746.69999999925,205756.647,206206.797,,35,is
screen,html.Screen,0_4_1_0_1_36,2021-12-02T11:27:20.759Z,,,,,,,,,,,,,,,,48,,,,,,,,,,,,,,322.7030000000086,,response,,,10,C,,,,,Space,keypress(Space),,,,instrumental,-- -- --- ------ ------- --------- ----------- --------<br>--------- -------- --- ------- -- ------- ---- -- ------<br>-- --- -------- -------- ---------- ---- ---- ---- ------<br>-- --------- -- ---- -- --- -- --- ------- -- a -----<br>---------- -- -- -- ---- ----- -- ------ -- --- ------<br>-------,206530.29999999888,206529.5,206190.127,206202.59999999963,206206.797,206540.228,,36,a
screen,html.Screen,0_4_1_0_1_37,2021-12-02T11:27:21.239Z,,,,,,,,,,,,,,,,48,,,,,,,,,,,,,,469.2719999999972,,response,,,10,C,,,,,Space,keypress(Space),,,,instrumental,-- -- --- ------ ------- --------- ----------- --------<br>--------- -------- --- ------- -- ------- ---- -- ------<br>-- --- -------- -------- ---------- ---- ---- ---- ------<br>-- --------- -- ---- -- --- -- --- ------- -- - crime<br>---------- -- -- -- ---- ----- -- ------ -- --- ------<br>-------,207010.29999999888,207009.5,206523.558,206530.59999999963,206540.228,207023.719,,37,crime
screen,html.Screen,0_4_1_0_1_38,2021-12-02T11:27:21.687Z,,,,,,,,,,,,,,,,48,,,,,,,,,,,,,,433.68100000036065,,response,,,10,C,,,,,Space,keypress(Space),,,,instrumental,-- -- --- ------ ------- --------- ----------- --------<br>--------- -------- --- ------- -- ------- ---- -- ------<br>-- --- -------- -------- ---------- ---- ---- ---- ------<br>-- --------- -- ---- -- --- -- --- ------- -- - -----<br>punishable -- -- -- ---- ----- -- ------ -- --- ------<br>-------,207458.29999999888,207457.40000000037,207007.048,207010.5,207023.719,207473.801,,38,punishable
screen,html.Screen,0_4_1_0_1_39,2021-12-02T11:27:22.039Z,,,,,,,,,,,,,,,,48,,,,,,,,,,,,,,335.69899999999325,,response,,,10,C,,,,,Space,keypress(Space),,,,instrumental,-- -- --- ------ ------- --------- ----------- --------<br>--------- -------- --- ------- -- ------- ---- -- ------<br>-- --- -------- -------- ---------- ---- ---- ---- ------<br>-- --------- -- ---- -- --- -- --- ------- -- - -----<br>---------- by -- -- ---- ----- -- ------ -- --- ------<br>-------,207810.29999999888,207809.5,207457.131,207458.5,207473.801,207824.004,,39,by
screen,html.Screen,0_4_1_0_1_40,2021-12-02T11:27:22.279Z,,,,,,,,,,,,,,,,48,,,,,,,,,,,,,,225.39600000038627,,response,,,10,C,,,,,Space,keypress(Space),,,,instrumental,-- -- --- ------ ------- --------- ----------- --------<br>--------- -------- --- ------- -- ------- ---- -- ------<br>-- --- -------- -------- ---------- ---- ---- ---- ------<br>-- --------- -- ---- -- --- -- --- ------- -- - -----<br>---------- -- up -- ---- ----- -- ------ -- --- ------<br>-------,208050.29999999888,208049.40000000037,207807.332,207810.5,207824.004,208057.359,,40,up
screen,html.Screen,0_4_1_0_1_41,2021-12-02T11:27:22.535Z,,,,,,,,,,,,,,,,48,,,,,,,,,,,,,,248.14100000000326,,response,,,10,C,,,,,Space,keypress(Space),,,,instrumental,-- -- --- ------ ------- --------- ----------- --------<br>--------- -------- --- ------- -- ------- ---- -- ------<br>-- --- -------- -------- ---------- ---- ---- ---- ------<br>-- --------- -- ---- -- --- -- --- ------- -- - -----<br>---------- -- -- to ---- ----- -- ------ -- --- ------<br>-------,208306.29999999888,208305.5,208040.688,208050.5,208057.359,208307.385,,41,to
screen,html.Screen,0_4_1_0_1_42,2021-12-02T11:27:22.839Z,,,,,,,,,,,,,,,,48,,,,,,,,,,,,,,302.0150000003632,,response,,,10,C,,,,,Space,keypress(Space),,,,instrumental,-- -- --- ------ ------- --------- ----------- --------<br>--------- -------- --- ------- -- ------- ---- -- ------<br>-- --- -------- -------- ---------- ---- ---- ---- ------<br>-- --------- -- ---- -- --- -- --- ------- -- - -----<br>---------- -- -- -- five ----- -- ------ -- --- ------<br>-------,208610.29999999888,208609.40000000037,208290.715,208306.59999999963,208307.385,208624.167,,42,five
screen,html.Screen,0_4_1_0_1_43,2021-12-02T11:27:23.263Z,,,,,,,,,,,,,,,,48,,,,,,,,,,,,,,409.2330000003858,,response,,,10,C,,,,,Space,keypress(Space),,,,instrumental,-- -- --- ------ ------- --------- ----------- --------<br>--------- -------- --- ------- -- ------- ---- -- ------<br>-- --- -------- -------- ---------- ---- ---- ---- ------<br>-- --------- -- ---- -- --- -- --- ------- -- - -----<br>---------- -- -- -- ---- years -- ------ -- --- ------<br>-------,209034.19999999925,209033.40000000037,208607.496,208610.40000000037,208624.167,209040.905,,43,years
screen,html.Screen,0_4_1_0_1_44,2021-12-02T11:27:23.559Z,,,,,,,,,,,,,,,,48,,,,,,,,,,,,,,288.9950000003737,,response,,,10,C,,,,,Space,keypress(Space),,,,instrumental,-- -- --- ------ ------- --------- ----------- --------<br>--------- -------- --- ------- -- ------- ---- -- ------<br>-- --- -------- -------- ---------- ---- ---- ---- ------<br>-- --------- -- ---- -- --- -- --- ------- -- - -----<br>---------- -- -- -- ---- ----- in ------ -- --- ------<br>-------,209330.69999999925,209329.90000000037,209024.235,209034.40000000037,209040.905,209341.021,,44,in
screen,html.Screen,0_4_1_0_1_45,2021-12-02T11:27:23.831Z,,,,,,,,,,,,,,,,48,,,,,,,,,,,,,,260.3790000003646,,response,,,10,C,,,,,Space,keypress(Space),,,,instrumental,-- -- --- ------ ------- --------- ----------- --------<br>--------- -------- --- ------- -- ------- ---- -- ------<br>-- --- -------- -------- ---------- ---- ---- ---- ------<br>-- --------- -- ---- -- --- -- --- ------- -- - -----<br>---------- -- -- -- ---- ----- -- prison -- --- ------<br>-------,209602.09999999963,209601.40000000037,209324.35,209330.90000000037,209341.021,209607.724,,45,prison
screen,html.Screen,0_4_1_0_1_46,2021-12-02T11:27:24.191Z,,,,,,,,,,,,,,,,48,,,,,,,,,,,,,,353.4759999992675,,response,,,10,C,,,,,Space,keypress(Space),,,,instrumental,-- -- --- ------ ------- --------- ----------- --------<br>--------- -------- --- ------- -- ------- ---- -- ------<br>-- --- -------- -------- ---------- ---- ---- ---- ------<br>-- --------- -- ---- -- --- -- --- ------- -- - -----<br>---------- -- -- -- ---- ----- -- ------ in --- ------<br>-------,209962.09999999963,209961.19999999925,209591.054,209602.40000000037,209607.724,209974.366,,46,in
screen,html.Screen,0_4_1_0_1_47,2021-12-02T11:27:24.535Z,,,,,,,,,,,,,,,,48,,,,,,,,,,,,,,330.93399999887333,,response,,,10,C,,,,,Space,keypress(Space),,,,instrumental,-- -- --- ------ ------- --------- ----------- --------<br>--------- -------- --- ------- -- ------- ---- -- ------<br>-- --- -------- -------- ---------- ---- ---- ---- ------<br>-- --------- -- ---- -- --- -- --- ------- -- - -----<br>---------- -- -- -- ---- ----- -- ------ -- the ------<br>-------,210306.19999999925,210305.29999999888,209957.698,209962.29999999888,209974.366,210307.962,,47,the
screen,html.Screen,0_4_1_0_1_48,2021-12-02T11:27:24.943Z,,,,,,,,,,,,,,,,48,,,,,,,,,,,,,,405.3379999988829,,response,,,10,C,,,,,Space,keypress(Space),,,,instrumental,-- -- --- ------ ------- --------- ----------- --------<br>--------- -------- --- ------- -- ------- ---- -- ------<br>-- --- -------- -------- ---------- ---- ---- ---- ------<br>-- --------- -- ---- -- --- -- --- ------- -- - -----<br>---------- -- -- -- ---- ----- -- ------ -- --- United<br>-------,210714.19999999925,210713.29999999888,210291.29,210306.40000000037,210307.962,210724.724,,48,United
screen,html.Screen,0_4_1_0_1_49,2021-12-02T11:27:25.335Z,,,,,,,,,,,,,,,,48,,,,,,,,,,,,,,380.575999998895,,response,,,10,C,,,,,Space,keypress(Space),,,,instrumental,-- -- --- ------ ------- --------- ----------- --------<br>--------- -------- --- ------- -- ------- ---- -- ------<br>-- --- -------- -------- ---------- ---- ---- ---- ------<br>-- --------- -- ---- -- --- -- --- ------- -- - -----<br>---------- -- -- -- ---- ----- -- ------ -- --- ------<br>States.,211106.09999999963,211105.29999999888,210708.053,210714.40000000037,210724.724,211108.115,,49,States.
Item 10,flow.Loop,0_4_1_0_1,2021-12-02T11:27:25.335Z,,,,,,,,,,,,,,,,,,,,,,,,,,,,,,32622.50399999888,,completion,,,,,,,,,,,,,,,,211106.59999999963,211105.29999999888,178466.127,178467.69999999925,178482.796,211108.115,,,
Question 1,html.Screen,0_4_1_0_2,2021-12-02T11:27:28.554Z,,,,,,,,,,,,,,,,,,,,,,,,,,,true,TRUE,,3216.3850000000093,,response,,,10,C,,,,,TRUE,click #choice-1,,,,instrumental,,214325.69999999925,214324.5,211091.445,211106.79999999888,211108.115,214325.616,,,
Question 2,html.Screen,0_4_1_0_3,2021-12-02T11:27:28.732Z,,,,,,,,,,,,,,,,,,,,,,,,,,,true,TRUE,,176.68399999887333,,response,,,10,C,,,,,TRUE,click #choice-1,,,,instrumental,,214503.29999999888,214502.29999999888,214308.946,214326,214325.616,214525.532,,,
Item 10,flow.Sequence,0_4_1_0,2021-12-02T11:27:28.732Z,,,,,,,,,,,,,,,,,,,,,,,,,,,,,,43021.555999998876,,completion,,,,,,,,,,,,,,,,214503.79999999888,214502.29999999888,171464.074,171466.29999999888,171480.744,214525.532,,,
Holding screen,html.Screen,0_4_1_1_0,2021-12-02T11:27:35.742Z,,,,,,,,,,,,,,,,,,,,,,,,,,,,,,7001.845000000001,,timeout,,,,,,,,,,,,,,,,221513.09999999963,221510.707,214508.867,214504.09999999963,214525.532,221527.377,,,
screen,html.Screen,0_4_1_1_1_0,2021-12-02T11:27:36.983Z,,,,,,,,,,,,,,,,51,,,,,,,,,,,,,,1225.8229999992473,,response,,,13,C,,,,,Space,keypress(Space),,,,instrumental,American -------- --- --- ---- --- --- ------ -- --------<br>---- --------- --- ------- ------------ ---------- ---------<br>--- ---------- ------- ---------- ------- -- -------- ----<br>---- --- ------ ----- ------ -- ---- --- ----- -- - -------<br>-------- -- --- --- -- ----- ----------- ----- -----------<br>---- --- ---------- --- ---- --- -- ----------,222754.09999999963,222753.19999999925,221510.707,221513.40000000037,221527.377,222761.037,,0,American
screen,html.Screen,0_4_1_1_1_1,2021-12-02T11:27:37.494Z,,,,,,,,,,,,,,,,51,,,,,,,,,,,,,,503.5629999996163,,response,,,13,C,,,,,Space,keypress(Space),,,,instrumental,-------- industry --- --- ---- --- --- ------ -- --------<br>---- --------- --- ------- ------------ ---------- ---------<br>--- ---------- ------- ---------- ------- -- -------- ----<br>---- --- ------ ----- ------ -- ---- --- ----- -- - -------<br>-------- -- --- --- -- ----- ----------- ----- -----------<br>---- --- ---------- --- ---- --- -- ----------,223265.5,223264.59999999963,222744.367,222754.29999999888,222761.037,223277.664,,1,industry
screen,html.Screen,0_4_1_1_1_2,2021-12-02T11:27:38.006Z,,,,,,,,,,,,,,,,51,,,,,,,,,,,,,,498.83600000001024,,response,,,13,C,,,,,Space,keypress(Space),,,,instrumental,-------- -------- may --- ---- --- --- ------ -- --------<br>---- --------- --- ------- ------------ ---------- ---------<br>--- ---------- ------- ---------- ------- -- -------- ----<br>---- --- ------ ----- ------ -- ---- --- ----- -- - -------<br>-------- -- --- --- -- ----- ----------- ----- -----------<br>---- --- ---------- --- ---- --- -- ----------,223777.29999999888,223776.5,223260.995,223265.79999999888,223277.664,223794.81,,2,may
