sender,sender_type,sender_id,timestamp,meta,,Blues,Classical,Country,Dance,Electronic,Folk,Gospel,Hip-Hop,Jazz,Latin,Musical/Film,New-age,Pop,Provo_ID,R&B,Rap,Reggae,Religious,Rock,Soul,Swing,Traditional,age,artist_name,correct,correctResponse,distraction,duration,education,ended_on,familiarity,gender,item,list,music_frequency,offensiveness,pleasantness,preference,response,response_action,snippet_file,song_name,song_rating,sound,text,time_commit,time_end,time_render,time_run,time_show,time_switch,url,word,word_ID
Instructions,html.Page,0_0,2021-11-19T11:16:53.722Z,"{""labjs_version"":""20.2.3"",""labjs_build"":{""flavor"":""production"",""commit"":""7ea907d66ca8aeef8054924ca5d82ffbe11e34e5""},""location"":""https://run.pavlovia.org/mvasilev/lab_music_d/"",""userAgent"":""Mozilla/5.0 (Windows NT 6.1; Win64; x64) AppleWebKit/537.36 (KHTML, like Gecko) Chrome/96.0.4664.45 Safari/537.36"",""platform"":""Win32"",""language"":""en-US"",""locale"":""en-US"",""timeZone"":""Europe/London"",""timezoneOffset"":0,""screen_width"":1920,""screen_height"":1080,""scroll_width"":1920,""scroll_height"":959,""window_innerWidth"":1920,""window_innerHeight"":1007,""devicePixelRatio"":1}",,,,,,,,,,,,,,,,,,,,,,,,,,,,,17428.003000047684,,form submission,,,,,,,,,,,,,,,,25417.5,25416.700000047684,7955.367,7968,7988.697,25421.189,{},,
Headphones,html.Page,0_1,2021-11-19T11:16:53.881Z,,,,,,,,,,,,,,,,,,,,,,,,,,,,,,155.01100004768523,,form submission,,,,,,,,,,,,,,,,25576.600000023842,25576.200000047684,25404.523,25418,25421.189,25587.761,,,
Holding screen,html.Screen,0_2_0_0,2021-11-19T11:17:03.878Z,,,,,,,,,,,,,,,,,,,,,,,,,,,,,,9999.355000000003,,timeout,,,,,,,,,,,,,,,,35574,35570.451,25571.096,25576.899999976158,25587.761,35587.116,,,
screen,html.Screen,0_2_0_1_0,2021-11-19T11:17:04.708Z,,,,,,,,,,,,,,,,53,,,,,,,,,,,,,,815.6839999523145,,response,,,99,,,,,,Space,keypress(Space),,,,,When -- ----- -- ------ - ------- --- ----------<br>------------- ------ ------ ---- ---- ------- ----- -- ----<br>-------- ------- -- ---------- --- - --- ----- ----- ----<br>---- --- --- ----- --- ---- ---- ------- ----- ---- -------<br>--- --- -- ----- -- --- ---- -- --- ---- -- ------ ------<br>--- ----- -- ----,36403.89999997616,36402.799999952316,35570.451,35574.299999952316,35587.116,36420.279,,0,When
screen,html.Screen,0_2_0_1_1,2021-11-19T11:17:05.171Z,,,,,,,,,,,,,,,,53,,,,,,,,,,,,,,446.3210000238396,,response,,,99,,,,,,Space,keypress(Space),,,,,---- it ----- -- ------ - ------- --- ----------<br>------------- ------ ------ ---- ---- ------- ----- -- ----<br>-------- ------- -- ---------- --- - --- ----- ----- ----<br>---- --- --- ----- --- ---- ---- ------- ----- ---- -------<br>--- --- -- ----- -- --- ---- -- --- ---- -- ------ ------<br>--- ----- -- ----,36867.200000047684,36866.60000002384,36403.615,36404.10000002384,36420.279,36870.39,,1,it
screen,html.Screen,0_2_0_1_2,2021-11-19T11:17:05.571Z,,,,,,,,,,,,,,,,53,,,,,,,,,,,,,,396.1100000000006,,response,,,99,,,,,,Space,keypress(Space),,,,,---- -- comes -- ------ - ------- --- ----------<br>------------- ------ ------ ---- ---- ------- ----- -- ----<br>-------- ------- -- ---------- --- - --- ----- ----- ----<br>---- --- --- ----- --- ---- ---- ------- ----- ---- -------<br>--- --- -- ----- -- --- ---- -- --- ---- -- ------ ------<br>--- ----- -- ----,37267.299999952316,37266.5,36853.725,36867.39999997616,36870.39,37270.417,,2,comes
screen,html.Screen,0_2_0_1_3,2021-11-19T11:17:05.843Z,,,,,,,,,,,,,,,,53,,,,,,,,,,,,,,268.0829999999987,,response,,,99,,,,,,Space,keypress(Space),,,,,---- -- ----- to ------ - ------- --- ----------<br>------------- ------ ------ ---- ---- ------- ----- -- ----<br>-------- ------- -- ---------- --- - --- ----- ----- ----<br>---- --- --- ----- --- ---- ---- ------- ----- ---- -------<br>--- --- -- ----- -- --- ---- -- --- ---- -- ------ ------<br>--- ----- -- ----,37539.10000002384,37538.5,37253.751,37267.39999997616,37270.417,37553.708,,3,to
screen,html.Screen,0_2_0_1_4,2021-11-19T11:17:06.107Z,,,,,,,,,,,,,,,,53,,,,,,,,,,,,,,248.69199997615942,,response,,,99,,,,,,Space,keypress(Space),,,,,---- -- ----- -- having - ------- --- ----------<br>------------- ------ ------ ---- ---- ------- ----- -- ----<br>-------- ------- -- ---------- --- - --- ----- ----- ----<br>---- --- --- ----- --- ---- ---- ------- ----- ---- -------<br>--- --- -- ----- -- --- ---- -- --- ---- -- ------ ------<br>--- ----- -- ----,37803.200000047684,37802.39999997616,37537.043,37539.39999997616,37553.708,37820.36,,4,having
screen,html.Screen,0_2_0_1_5,2021-11-19T11:17:06.651Z,,,,,,,,,,,,,,,,53,,,,,,,,,,,,,,526.1399999999994,,response,,,99,,,,,,Space,keypress(Space),,,,,---- -- ----- -- ------ a ------- --- ----------<br>------------- ------ ------ ---- ---- ------- ----- -- ----<br>-------- ------- -- ---------- --- - --- ----- ----- ----<br>---- --- --- ----- --- ---- ---- ------- ----- ---- -------<br>--- --- -- ----- -- --- ---- -- --- ---- -- ------ ------<br>--- ----- -- ----,38347.10000002384,38346.5,37803.695,37803.39999997616,37820.36,38353.643,,5,a
screen,html.Screen,0_2_0_1_6,2021-11-19T11:17:06.859Z,,,,,,,,,,,,,,,,53,,,,,,,,,,,,,,200.75699997616175,,response,,,99,,,,,,Space,keypress(Space),,,,,---- -- ----- -- ------ - lasting --- ----------<br>------------- ------ ------ ---- ---- ------- ----- -- ----<br>-------- ------- -- ---------- --- - --- ----- ----- ----<br>---- --- --- ----- --- ---- ---- ------- ----- ---- -------<br>--- --- -- ----- -- --- ---- -- --- ---- -- ------ ------<br>--- ----- -- ----,38555.10000002384,38554.39999997616,38336.978,38347.5,38353.643,38570.302,,6,lasting
screen,html.Screen,0_2_0_1_7,2021-11-19T11:17:07.363Z,,,,,,,,,,,,,,,,53,,,,,,,,,,,,,,487.99799995231297,,response,,,99,,,,,,Space,keypress(Space),,,,,---- -- ----- -- ------ - ------- and ----------<br>------------- ------ ------ ---- ---- ------- ----- -- ----<br>-------- ------- -- ---------- --- - --- ----- ----- ----<br>---- --- --- ----- --- ---- ---- ------- ----- ---- -------<br>--- --- -- ----- -- --- ---- -- --- ---- -- ------ ------<br>--- ----- -- ----,39059,39058.299999952316,38553.637,38555.200000047684,38570.302,39070.273,,7,and
screen,html.Screen,0_2_0_1_8,2021-11-19T11:17:07.683Z,,,,,,,,,,,,,,,,53,,,,,,,,,,,,,,308.1269999761571,,response,,,99,,,,,,Space,keypress(Space),,,,,---- -- ----- -- ------ - ------- --- fulfilling<br>------------- ------ ------ ---- ---- ------- ----- -- ----<br>-------- ------- -- ---------- --- - --- ----- ----- ----<br>---- --- --- ----- --- ---- ---- ------- ----- ---- -------<br>--- --- -- ----- -- --- ---- -- --- ---- -- ------ ------<br>--- ----- -- ----,39379.299999952316,39378.39999997616,39053.608,39059.200000047684,39070.273,39386.929,,8,fulfilling
screen,html.Screen,0_2_0_1_9,2021-11-19T11:17:08.107Z,,,,,,,,,,,,,,,,53,,,,,,,,,,,,,,415.37099995231983,,response,,,99,,,,,,Space,keypress(Space),,,,,"---- -- ----- -- ------ - ------- --- ----------<br>relationship, ------ ------ ---- ---- ------- ----- -- ----<br>-------- ------- -- ---------- --- - --- ----- ----- ----<br>---- --- --- ----- --- ---- ---- ------- ----- ---- -------<br>--- --- -- ----- -- --- ---- -- --- ---- -- ------ ------<br>--- ----- -- ----",39803,39802.299999952316,39370.264,39379.39999997616,39386.929,39820.224,,9,"relationship,"
screen,html.Screen,0_2_0_1_10,2021-11-19T11:17:08.499Z,,,,,,,,,,,,,,,,53,,,,,,,,,,,,,,373.97600004768174,,response,,,99,,,,,,Space,keypress(Space),,,,,---- -- ----- -- ------ - ------- --- ----------<br>------------- common ------ ---- ---- ------- ----- -- ----<br>-------- ------- -- ---------- --- - --- ----- ----- ----<br>---- --- --- ----- --- ---- ---- ------- ----- ---- -------<br>--- --- -- ----- -- --- ---- -- --- ---- -- ------ ------<br>--- ----- -- ----,40194.89999997616,40194.200000047684,39803.559,39803.200000047684,39820.224,40203.542,,10,common
screen,html.Screen,0_2_0_1_11,2021-11-19T11:17:08.859Z,,,,,,,,,,,,,,,,53,,,,,,,,,,,,,,350.757999952315,,response,,,99,,,,,,Space,keypress(Space),,,,,---- -- ----- -- ------ - ------- --- ----------<br>------------- ------ wisdom ---- ---- ------- ----- -- ----<br>-------- ------- -- ---------- --- - --- ----- ----- ----<br>---- --- --- ----- --- ---- ---- ------- ----- ---- -------<br>--- --- -- ----- -- --- ---- -- --- ---- -- ------ ------<br>--- ----- -- ----,40554.89999997616,40554.299999952316,40186.877,40195.10000002384,40203.542,40570.064,,11,wisdom
screen,html.Screen,0_2_0_1_12,2021-11-19T11:17:09.195Z,,,,,,,,,,,,,,,,53,,,,,,,,,,,,,,320.33599997615966,,response,,,99,,,,,,Space,keypress(Space),,,,,---- -- ----- -- ------ - ------- --- ----------<br>------------- ------ ------ says ---- ------- ----- -- ----<br>-------- ------- -- ---------- --- - --- ----- ----- ----<br>---- --- --- ----- --- ---- ---- ------- ----- ---- -------<br>--- --- -- ----- -- --- ---- -- --- ---- -- ------ ------<br>--- ----- -- ----,40890.89999997616,40890.39999997616,40553.401,40555.10000002384,40570.064,40903.443,,12,says
screen,html.Screen,0_2_0_1_13,2021-11-19T11:17:09.523Z,,,,,,,,,,,,,,,,53,,,,,,,,,,,,,,314.7570000476844,,response,,,99,,,,,,Space,keypress(Space),,,,,---- -- ----- -- ------ - ------- --- ----------<br>------------- ------ ------ ---- that ------- ----- -- ----<br>-------- ------- -- ---------- --- - --- ----- ----- ----<br>---- --- --- ----- --- ---- ---- ------- ----- ---- -------<br>--- --- -- ----- -- --- ---- -- --- ---- -- ------ ------<br>--- ----- -- ----,41218.799999952316,41218.200000047684,40886.778,40891.10000002384,40903.443,41220.22,,13,that
screen,html.Screen,0_2_0_1_14,2021-11-19T11:17:09.875Z,,,,,,,,,,,,,,,,53,,,,,,,,,,,,,,349.98000004768255,,response,,,99,,,,,,Space,keypress(Space),,,,,---- -- ----- -- ------ - ------- --- ----------<br>------------- ------ ------ ---- ---- feeling ----- -- ----<br>-------- ------- -- ---------- --- - --- ----- ----- ----<br>---- --- --- ----- --- ---- ---- ------- ----- ---- -------<br>--- --- -- ----- -- --- ---- -- --- ---- -- ------ ------<br>--- ----- -- ----,41570.700000047684,41570.200000047684,41203.553,41219,41220.22,41586.78,,14,feeling
screen,html.Screen,0_2_0_1_15,2021-11-19T11:17:10.179Z,,,,,,,,,,,,,,,,53,,,,,,,,,,,,,,287.4200000476849,,response,,,99,,,,,,Space,keypress(Space),,,,,---- -- ----- -- ------ - ------- --- ----------<br>------------- ------ ------ ---- ---- ------- close -- ----<br>-------- ------- -- ---------- --- - --- ----- ----- ----<br>---- --- --- ----- --- ---- ---- ------- ----- ---- -------<br>--- --- -- ----- -- --- ---- -- --- ---- -- ------ ------<br>--- ----- -- ----,41874.799999952316,41874.200000047684,41570.115,41571,41586.78,41886.764,,15,close
screen,html.Screen,0_2_0_1_16,2021-11-19T11:17:10.483Z,,,,,,,,,,,,,,,,53,,,,,,,,,,,,,,291.43600004768086,,response,,,99,,,,,,Space,keypress(Space),,,,,---- -- ----- -- ------ - ------- --- ----------<br>------------- ------ ------ ---- ---- ------- ----- to ----<br>-------- ------- -- ---------- --- - --- ----- ----- ----<br>---- --- --- ----- --- ---- ---- ------- ----- ---- -------<br>--- --- -- ----- -- --- ---- -- --- ---- -- ------ ------<br>--- ----- -- ----,42178.799999952316,42178.200000047684,41870.099,41875,41886.764,42186.758,,16,to
screen,html.Screen,0_2_0_1_17,2021-11-19T11:17:10.795Z,,,,,,,,,,,,,,,,53,,,,,,,,,,,,,,303.4420000476821,,response,,,99,,,,,,Space,keypress(Space),,,,,---- -- ----- -- ------ - ------- --- ----------<br>------------- ------ ------ ---- ---- ------- ----- -- your<br>-------- ------- -- ---------- --- - --- ----- ----- ----<br>---- --- --- ----- --- ---- ---- ------- ----- ---- -------<br>--- --- -- ----- -- --- ---- -- --- ---- -- ------ ------<br>--- ----- -- ----,42490.799999952316,42490.200000047684,42170.093,42178.89999997616,42186.758,42503.399,,17,your
screen,html.Screen,0_2_0_1_18,2021-11-19T11:17:11.147Z,,,,,,,,,,,,,,,,53,,,,,,,,,,,,,,338.8010000476861,,response,,,99,,,,,,Space,keypress(Space),,,,,---- -- ----- -- ------ - ------- --- ----------<br>------------- ------ ------ ---- ---- ------- ----- -- ----<br>romantic ------- -- ---------- --- - --- ----- ----- ----<br>---- --- --- ----- --- ---- ---- ------- ----- ---- -------<br>--- --- -- ----- -- --- ---- -- --- ---- -- ------ ------<br>--- ----- -- ----,42842.700000047684,42842.200000047684,42486.734,42490.89999997616,42503.399,42853.375,,18,romantic
screen,html.Screen,0_2_0_1_19,2021-11-19T11:17:11.475Z,,,,,,,,,,,,,,,,53,,,,,,,,,,,,,,316.625,,response,,,99,,,,,,Space,keypress(Space),,,,,---- -- ----- -- ------ - ------- --- ----------<br>------------- ------ ------ ---- ---- ------- ----- -- ----<br>-------- partner -- ---------- --- - --- ----- ----- ----<br>---- --- --- ----- --- ---- ---- ------- ----- ---- -------<br>--- --- -- ----- -- --- ---- -- --- ---- -- ------ ------<br>--- ----- -- ----,43170.60000002384,43170,42836.71,42842.89999997616,42853.375,43186.631,,19,partner
screen,html.Screen,0_2_0_1_20,2021-11-19T11:17:11.779Z,,,,,,,,,,,,,,,,53,,,,,,,,,,,,,,287.46900002384064,,response,,,99,,,,,,Space,keypress(Space),,,,,---- -- ----- -- ------ - ------- --- ----------<br>------------- ------ ------ ---- ---- ------- ----- -- ----<br>-------- ------- is ---------- --- - --- ----- ----- ----<br>---- --- --- ----- --- ---- ---- ------- ----- ---- -------<br>--- --- -- ----- -- --- ---- -- --- ---- -- ------ ------<br>--- ----- -- ----,43474.700000047684,43474.10000002384,43169.967,43170.799999952316,43186.631,43486.721,,20,is
screen,html.Screen,0_2_0_1_21,2021-11-19T11:17:12.083Z,,,,,,,,,,,,,,,,53,,,,,,,,,,,,,,291.3790000238441,,response,,,99,,,,,,Space,keypress(Space),,,,,---- -- ----- -- ------ - ------- --- ----------<br>------------- ------ ------ ---- ---- ------- ----- -- ----<br>-------- ------- -- paramount. --- - --- ----- ----- ----<br>---- --- --- ----- --- ---- ---- ------- ----- ---- -------<br>--- --- -- ----- -- --- ---- -- --- ---- -- ------ ------<br>--- ----- -- ----,43778.60000002384,43778.10000002384,43470.055,43474.89999997616,43486.721,43786.648,,21,paramount.
screen,html.Screen,0_2_0_1_22,2021-11-19T11:17:12.427Z,,,,,,,,,,,,,,,,53,,,,,,,,,,,,,,335.4520000238408,,response,,,99,,,,,,Space,keypress(Space),,,,,---- -- ----- -- ------ - ------- --- ----------<br>------------- ------ ------ ---- ---- ------- ----- -- ----<br>-------- ------- -- ---------- But - --- ----- ----- ----<br>---- --- --- ----- --- ---- ---- ------- ----- ---- -------<br>--- --- -- ----- -- --- ---- -- --- ---- -- ------ ------<br>--- ----- -- ----,44122.5,44122.10000002384,43769.983,43778.89999997616,43786.648,44136.63,,22,But
screen,html.Screen,0_2_0_1_23,2021-11-19T11:17:12.739Z,,,,,,,,,,,,,,,,53,,,,,,,,,,,,,,297.4700000238445,,response,,,99,,,,,,Space,keypress(Space),,,,,---- -- ----- -- ------ - ------- --- ----------<br>------------- ------ ------ ---- ---- ------- ----- -- ----<br>-------- ------- -- ---------- --- a --- ----- ----- ----<br>---- --- --- ----- --- ---- ---- ------- ----- ---- -------<br>--- --- -- ----- -- --- ---- -- --- ---- -- ------ ------<br>--- ----- -- ----,44434.60000002384,44434.10000002384,44119.965,44122.700000047684,44136.63,44436.612,,23,a
screen,html.Screen,0_2_0_1_24,2021-11-19T11:17:13.035Z,,,,,,,,,,,,,,,,53,,,,,,,,,,,,,,293.387999999999,,response,,,99,,,,,,Space,keypress(Space),,,,,---- -- ----- -- ------ - ------- --- ----------<br>------------- ------ ------ ---- ---- ------- ----- -- ----<br>-------- ------- -- ---------- --- - new ----- ----- ----<br>---- --- --- ----- --- ---- ---- ------- ----- ---- -------<br>--- --- -- ----- -- --- ---- -- --- ---- -- ------ ------<br>--- ----- -- ----,44730.60000002384,44730,44419.947,44434.799999952316,44436.612,44736.595,,24,new
screen,html.Screen,0_2_0_1_25,2021-11-19T11:17:13.459Z,,,,,,,,,,,,,,,,53,,,,,,,,,,,,,,417.40499999999884,,response,,,99,,,,,,Space,keypress(Space),,,,,---- -- ----- -- ------ - ------- --- ----------<br>------------- ------ ------ ---- ---- ------- ----- -- ----<br>-------- ------- -- ---------- --- - --- study ----- ----<br>---- --- --- ----- --- ---- ---- ------- ----- ---- -------<br>--- --- -- ----- -- --- ---- -- --- ---- -- ------ ------<br>--- ----- -- ----,45154.5,45154,44719.93,44730.799999952316,44736.595,45169.835,,25,study
screen,html.Screen,0_2_0_1_26,2021-11-19T11:17:13.771Z,,,,,,,,,,,,,,,,53,,,,,,,,,,,,,,296.1650000000009,,response,,,99,,,,,,Space,keypress(Space),,,,,---- -- ----- -- ------ - ------- --- ----------<br>------------- ------ ------ ---- ---- ------- ----- -- ----<br>-------- ------- -- ---------- --- - --- ----- finds ----<br>---- --- --- ----- --- ---- ---- ------- ----- ---- -------<br>--- --- -- ----- -- --- ---- -- --- ---- -- ------ ------<br>--- ----- -- ----,45466.60000002384,45466,45153.171,45154.700000047684,45169.835,45469.937,,26,finds
screen,html.Screen,0_2_0_1_27,2021-11-19T11:17:14.139Z,,,,,,,,,,,,,,,,53,,,,,,,,,,,,,,364.0630000000019,,response,,,99,,,,,,Space,keypress(Space),,,,,---- -- ----- -- ------ - ------- --- ----------<br>------------- ------ ------ ---- ---- ------- ----- -- ----<br>-------- ------- -- ---------- --- - --- ----- ----- that<br>---- --- --- ----- --- ---- ---- ------- ----- ---- -------<br>--- --- -- ----- -- --- ---- -- --- ---- -- ------ ------<br>--- ----- -- ----,45834.5,45834,45453.271,45466.799999952316,45469.937,45836.524,,27,that
screen,html.Screen,0_2_0_1_28,2021-11-19T11:17:14.459Z,,,,,,,,,,,,,,,,53,,,,,,,,,,,,,,317.37599997616053,,response,,,99,,,,,,Space,keypress(Space),,,,,---- -- ----- -- ------ - ------- --- ----------<br>------------- ------ ------ ---- ---- ------- ----- -- ----<br>-------- ------- -- ---------- --- - --- ----- ----- ----<br>it's --- --- ----- --- ---- ---- ------- ----- ---- -------<br>--- --- -- ----- -- --- ---- -- --- ---- -- ------ ------<br>--- ----- -- ----,46154.39999997616,46153.89999997616,45819.859,45834.60000002384,45836.524,46169.845,,28,it's
screen,html.Screen,0_2_0_1_29,2021-11-19T11:17:14.827Z,,,,,,,,,,,,,,,,53,,,,,,,,,,,,,,352.2550000238407,,response,,,99,,,,,,Space,keypress(Space),,,,,---- -- ----- -- ------ - ------- --- ----------<br>------------- ------ ------ ---- ---- ------- ----- -- ----<br>-------- ------- -- ---------- --- - --- ----- ----- ----<br>---- not --- ----- --- ---- ---- ------- ----- ---- -------<br>--- --- -- ----- -- --- ---- -- --- ---- -- ------ ------<br>--- ----- -- ----,46522.700000047684,46522.10000002384,46153.18,46154.60000002384,46169.845,46536.488,,29,not
screen,html.Screen,0_2_0_1_30,2021-11-19T11:17:15.131Z,,,,,,,,,,,,,,,,53,,,,,,,,,,,,,,289.4119999761606,,response,,,99,,,,,,Space,keypress(Space),,,,,---- -- ----- -- ------ - ------- --- ----------<br>------------- ------ ------ ---- ---- ------- ----- -- ----<br>-------- ------- -- ---------- --- - --- ----- ----- ----<br>---- --- how ----- --- ---- ---- ------- ----- ---- -------<br>--- --- -- ----- -- --- ---- -- --- ---- -- ------ ------<br>--- ----- -- ----,46826.39999997616,46825.89999997616,46519.823,46522.799999952316,46536.488,46836.465,,30,how
screen,html.Screen,0_2_0_1_31,2021-11-19T11:17:15.371Z,,,,,,,,,,,,,,,,53,,,,,,,,,,,,,,229.43499997616163,,response,,,99,,,,,,Space,keypress(Space),,,,,---- -- ----- -- ------ - ------- --- ----------<br>------------- ------ ------ ---- ---- ------- ----- -- ----<br>-------- ------- -- ---------- --- - --- ----- ----- ----<br>---- --- --- close --- ---- ---- ------- ----- ---- -------<br>--- --- -- ----- -- --- ---- -- --- ---- -- ------ ------<br>--- ----- -- ----,47066.5,47065.89999997616,46819.8,46826.60000002384,46836.465,47069.795,,31,close
screen,html.Screen,0_2_0_1_32,2021-11-19T11:17:15.747Z,,,,,,,,,,,,,,,,53,,,,,,,,,,,,,,372.00499995231803,,response,,,99,,,,,,Space,keypress(Space),,,,,---- -- ----- -- ------ - ------- --- ----------<br>------------- ------ ------ ---- ---- ------- ----- -- ----<br>-------- ------- -- ---------- --- - --- ----- ----- ----<br>---- --- --- ----- you ---- ---- ------- ----- ---- -------<br>--- --- -- ----- -- --- ---- -- --- ---- -- ------ ------<br>--- ----- -- ----,47442.5,47441.799999952316,47053.13,47066.60000002384,47069.795,47453.093,,32,you
screen,html.Screen,0_2_0_1_33,2021-11-19T11:17:15.931Z,,,,,,,,,,,,,,,,53,,,,,,,,,,,,,,172.60700004768296,,response,,,99,,,,,,Space,keypress(Space),,,,,---- -- ----- -- ------ - ------- --- ----------<br>------------- ------ ------ ---- ---- ------- ----- -- ----<br>-------- ------- -- ---------- --- - --- ----- ----- ----<br>---- --- --- ----- --- feel ---- ------- ----- ---- -------<br>--- --- -- ----- -- --- ---- -- --- ---- -- ------ ------<br>--- ----- -- ----,47626.39999997616,47625.700000047684,47436.428,47442.700000047684,47453.093,47636.385,,33,feel
screen,html.Screen,0_2_0_1_34,2021-11-19T11:17:16.259Z,,,,,,,,,,,,,,,,53,,,,,,,,,,,,,,317.41499995231425,,response,,,99,,,,,,Space,keypress(Space),,,,,---- -- ----- -- ------ - ------- --- ----------<br>------------- ------ ------ ---- ---- ------- ----- -- ----<br>-------- ------- -- ---------- --- - --- ----- ----- ----<br>---- --- --- ----- --- ---- that ------- ----- ---- -------<br>--- --- -- ----- -- --- ---- -- --- ---- -- ------ ------<br>--- ----- -- ----,47954.39999997616,47953.799999952316,47619.721,47626.60000002384,47636.385,47969.705,,34,that
screen,html.Screen,0_2_0_1_35,2021-11-19T11:17:16.571Z,,,,,,,,,,,,,,,,53,,,,,,,,,,,,,,295.99500004768197,,response,,,99,,,,,,Space,keypress(Space),,,,,---- -- ----- -- ------ - ------- --- ----------<br>------------- ------ ------ ---- ---- ------- ----- -- ----<br>-------- ------- -- ---------- --- - --- ----- ----- ----<br>---- --- --- ----- --- ---- ---- matters ----- ---- -------<br>--- --- -- ----- -- --- ---- -- --- ---- -- ------ ------<br>--- ----- -- ----,48266.39999997616,48265.700000047684,47953.04,47954.5,47969.705,48269.787,,35,matters
screen,html.Screen,0_2_0_1_36,2021-11-19T11:17:16.875Z,,,,,,,,,,,,,,,,53,,,,,,,,,,,,,,299.9130000476871,,response,,,99,,,,,,Space,keypress(Space),,,,,"---- -- ----- -- ------ - ------- --- ----------<br>------------- ------ ------ ---- ---- ------- ----- -- ----<br>-------- ------- -- ---------- --- - --- ----- ----- ----<br>---- --- --- ----- --- ---- ---- ------- most, ---- -------<br>--- --- -- ----- -- --- ---- -- --- ---- -- ------ ------<br>--- ----- -- ----",48570.60000002384,48569.700000047684,48253.12,48266.5,48269.787,48586.302,,36,"most,"
screen,html.Screen,0_2_0_1_37,2021-11-19T11:17:17.195Z,,,,,,,,,,,,,,,,53,,,,,,,,,,,,,,303.49799995231297,,response,,,99,,,,,,Space,keypress(Space),,,,,---- -- ----- -- ------ - ------- --- ----------<br>------------- ------ ------ ---- ---- ------- ----- -- ----<br>-------- ------- -- ---------- --- - --- ----- ----- ----<br>---- --- --- ----- --- ---- ---- ------- ----- it's -------<br>--- --- -- ----- -- --- ---- -- --- ---- -- ------ ------<br>--- ----- -- ----,48890.299999952316,48889.799999952316,48569.638,48570.700000047684,48586.302,48903.041,,37,it's
screen,html.Screen,0_2_0_1_38,2021-11-19T11:17:17.371Z,,,,,,,,,,,,,,,,53,,,,,,,,,,,,,,162.65900004768628,,response,,,99,,,,,,Space,keypress(Space),,,,,---- -- ----- -- ------ - ------- --- ----------<br>------------- ------ ------ ---- ---- ------- ----- -- ----<br>-------- ------- -- ---------- --- - --- ----- ----- ----<br>---- --- --- ----- --- ---- ---- ------- ----- ---- whether<br>--- --- -- ----- -- --- ---- -- --- ---- -- ------ ------<br>--- ----- -- ----,49066.299999952316,49065.700000047684,48886.375,48890.5,48903.041,49069.675,,38,whether
screen,html.Screen,0_2_0_1_39,2021-11-19T11:17:18.011Z,,,,,,,,,,,,,,,,53,,,,,,,,,,,,,,636.1249999523134,,response,,,99,,,,,,Space,keypress(Space),,,,,---- -- ----- -- ------ - ------- --- ----------<br>------------- ------ ------ ---- ---- ------- ----- -- ----<br>-------- ------- -- ---------- --- - --- ----- ----- ----<br>---- --- --- ----- --- ---- ---- ------- ----- ---- -------<br>you --- -- ----- -- --- ---- -- --- ---- -- ------ ------<br>--- ----- -- ----,49706.39999997616,49705.799999952316,49053.01,49066.39999997616,49069.675,49719.618,,39,you
screen,html.Screen,0_2_0_1_40,2021-11-19T11:17:18.226Z,,,,,,,,,,,,,,,,53,,,,,,,,,,,,,,201.98200002383965,,response,,,99,,,,,,Space,keypress(Space),,,,,---- -- ----- -- ------ - ------- --- ----------<br>------------- ------ ------ ---- ---- ------- ----- -- ----<br>-------- ------- -- ---------- --- - --- ----- ----- ----<br>---- --- --- ----- --- ---- ---- ------- ----- ---- -------<br>--- are -- ----- -- --- ---- -- --- ---- -- ------ ------<br>--- ----- -- ----,49922.200000047684,49921.60000002384,49702.953,49706.5,49719.618,49936.276,,40,are
screen,html.Screen,0_2_0_1_41,2021-11-19T11:17:18.530Z,,,,,,,,,,,,,,,,53,,,,,,,,,,,,,,289.4240000476857,,response,,,99,,,,,,Space,keypress(Space),,,,,---- -- ----- -- ------ - ------- --- ----------<br>------------- ------ ------ ---- ---- ------- ----- -- ----<br>-------- ------- -- ---------- --- - --- ----- ----- ----<br>---- --- --- ----- --- ---- ---- ------- ----- ---- -------<br>--- --- as ----- -- --- ---- -- --- ---- -- ------ ------<br>--- ----- -- ----,50226.200000047684,50225.700000047684,49919.611,49922.299999952316,49936.276,50236.257,,41,as
screen,html.Screen,0_2_0_1_42,2021-11-19T11:17:18.890Z,,,,,,,,,,,,,,,,53,,,,,,,,,,,,,,349.34300002384407,,response,,,99,,,,,,Space,keypress(Space),,,,,---- -- ----- -- ------ - ------- --- ----------<br>------------- ------ ------ ---- ---- ------- ----- -- ----<br>-------- ------- -- ---------- --- - --- ----- ----- ----<br>---- --- --- ----- --- ---- ---- ------- ----- ---- -------<br>--- --- -- close -- --- ---- -- --- ---- -- ------ ------<br>--- ----- -- ----,50586.200000047684,50585.60000002384,50219.592,50226.39999997616,50236.257,50602.905,,42,close
screen,html.Screen,0_2_0_1_43,2021-11-19T11:17:19.066Z,,,,,,,,,,,,,,,,53,,,,,,,,,,,,,,158.69500002384302,,response,,,99,,,,,,Space,keypress(Space),,,,,---- -- ----- -- ------ - ------- --- ----------<br>------------- ------ ------ ---- ---- ------- ----- -- ----<br>-------- ------- -- ---------- --- - --- ----- ----- ----<br>---- --- --- ----- --- ---- ---- ------- ----- ---- -------<br>--- --- -- ----- as --- ---- -- --- ---- -- ------ ------<br>--- ----- -- ----,50762.200000047684,50761.60000002384,50586.24,50586.39999997616,50602.905,50769.562,,43,as
screen,html.Screen,0_2_0_1_44,2021-11-19T11:17:19.330Z,,,,,,,,,,,,,,,,53,,,,,,,,,,,,,,256.0380000238438,,response,,,99,,,,,,Space,keypress(Space),,,,,---- -- ----- -- ------ - ------- --- ----------<br>------------- ------ ------ ---- ---- ------- ----- -- ----<br>-------- ------- -- ---------- --- - --- ----- ----- ----<br>---- --- --- ----- --- ---- ---- ------- ----- ---- -------<br>--- --- -- ----- -- you ---- -- --- ---- -- ------ ------<br>--- ----- -- ----,51026.10000002384,51025.60000002384,50752.897,50762.299999952316,50769.562,51036.212,,44,you
screen,html.Screen,0_2_0_1_45,2021-11-19T11:17:19.650Z,,,,,,,,,,,,,,,,53,,,,,,,,,,,,,,309.3880000238423,,response,,,99,,,,,,Space,keypress(Space),,,,,---- -- ----- -- ------ - ------- --- ----------<br>------------- ------ ------ ---- ---- ------- ----- -- ----<br>-------- ------- -- ---------- --- - --- ----- ----- ----<br>---- --- --- ----- --- ---- ---- ------- ----- ---- -------<br>--- --- -- ----- -- --- want -- --- ---- -- ------ ------<br>--- ----- -- ----,51346.10000002384,51345.60000002384,51019.547,51026.299999952316,51036.212,51352.855,,45,want
screen,html.Screen,0_2_0_1_46,2021-11-19T11:17:19.850Z,,,,,,,,,,,,,,,,53,,,,,,,,,,,,,,192.74500002383866,,response,,,99,,,,,,Space,keypress(Space),,,,,---- -- ----- -- ------ - ------- --- ----------<br>------------- ------ ------ ---- ---- ------- ----- -- ----<br>-------- ------- -- ---------- --- - --- ----- ----- ----<br>---- --- --- ----- --- ---- ---- ------- ----- ---- -------<br>--- --- -- ----- -- --- ---- to --- ---- -- ------ ------<br>--- ----- -- ----,51546.200000047684,51545.60000002384,51336.19,51346.39999997616,51352.855,51552.853,,46,to
screen,html.Screen,0_2_0_1_47,2021-11-19T11:17:20.130Z,,,,,,,,,,,,,,,,53,,,,,,,,,,,,,,272.6469999999972,,response,,,99,,,,,,Space,keypress(Space),,,,,"---- -- ----- -- ------ - ------- --- ----------<br>------------- ------ ------ ---- ---- ------- ----- -- ----<br>-------- ------- -- ---------- --- - --- ----- ----- ----<br>---- --- --- ----- --- ---- ---- ------- ----- ---- -------<br>--- --- -- ----- -- --- ---- -- be, ---- -- ------ ------<br>--- ----- -- ----",51826.10000002384,51825.5,51536.188,51546.299999952316,51552.853,51836.127,,47,"be,"
screen,html.Screen,0_2_0_1_48,2021-11-19T11:17:20.578Z,,,,,,,,,,,,,,,,53,,,,,,,,,,,,,,437.47300002384145,,response,,,99,,,,,,Space,keypress(Space),,,,,---- -- ----- -- ------ - ------- --- ----------<br>------------- ------ ------ ---- ---- ------- ----- -- ----<br>-------- ------- -- ---------- --- - --- ----- ----- ----<br>---- --- --- ----- --- ---- ---- ------- ----- ---- -------<br>--- --- -- ----- -- --- ---- -- --- even -- ------ ------<br>--- ----- -- ----,52274.10000002384,52273.60000002384,51819.463,51826.299999952316,51836.127,52286.144,,48,even
screen,html.Screen,0_2_0_1_49,2021-11-19T11:17:20.794Z,,,,,,,,,,,,,,,,53,,,,,,,,,,,,,,203.35599999999977,,response,,,99,,,,,,Space,keypress(Space),,,,,---- -- ----- -- ------ - ------- --- ----------<br>------------- ------ ------ ---- ---- ------- ----- -- ----<br>-------- ------- -- ---------- --- - --- ----- ----- ----<br>---- --- --- ----- --- ---- ---- ------- ----- ---- -------<br>--- --- -- ----- -- --- ---- -- --- ---- if ------ ------<br>--- ----- -- ----,52490.10000002384,52489.5,52269.478,52274.299999952316,52286.144,52502.696,,49,if
screen,html.Screen,0_2_0_1_50,2021-11-19T11:17:20.994Z,,,,,,,,,,,,,,,,53,,,,,,,,,,,,,,186.7039999761546,,response,,,99,,,,,,Space,keypress(Space),,,,,---- -- ----- -- ------ - ------- --- ----------<br>------------- ------ ------ ---- ---- ------- ----- -- ----<br>-------- ------- -- ---------- --- - --- ----- ----- ----<br>---- --- --- ----- --- ---- ---- ------- ----- ---- -------<br>--- --- -- ----- -- --- ---- -- --- ---- -- that's ------<br>--- ----- -- ----,52690,52689.39999997616,52486.033,52490.200000047684,52502.696,52702.804,,50,that's
screen,html.Screen,0_2_0_1_51,2021-11-19T11:17:21.370Z,,,,,,,,,,,,,,,,53,,,,,,,,,,,,,,362.5959999761617,,response,,,99,,,,,,Space,keypress(Space),,,,,---- -- ----- -- ------ - ------- --- ----------<br>------------- ------ ------ ---- ---- ------- ----- -- ----<br>-------- ------- -- ---------- --- - --- ----- ----- ----<br>---- --- --- ----- --- ---- ---- ------- ----- ---- -------<br>--- --- -- ----- -- --- ---- -- --- ---- -- ------ really<br>--- ----- -- ----,53066,53065.39999997616,52686.138,52690.200000047684,52702.804,53069.241,,51,really
screen,html.Screen,0_2_0_1_52,2021-11-19T11:17:21.666Z,,,,,,,,,,,,,,,,53,,,,,,,,,,,,,,292.2589999999982,,response,,,99,,,,,,Space,keypress(Space),,,,,---- -- ----- -- ------ - ------- --- ----------<br>------------- ------ ------ ---- ---- ------- ----- -- ----<br>-------- ------- -- ---------- --- - --- ----- ----- ----<br>---- --- --- ----- --- ---- ---- ------- ----- ---- -------<br>--- --- -- ----- -- --- ---- -- --- ---- -- ------ ------<br>not ----- -- ----,53362,53361.5,53052.58,53066.200000047684,53069.241,53369.358,,52,not
screen,html.Screen,0_2_0_1_53,2021-11-19T11:17:21.930Z,,,,,,,,,,,,,,,,53,,,,,,,,,,,,,,256.04199997615797,,response,,,99,,,,,,Space,keypress(Space),,,,,---- -- ----- -- ------ - ------- --- ----------<br>------------- ------ ------ ---- ---- ------- ----- -- ----<br>-------- ------- -- ---------- --- - --- ----- ----- ----<br>---- --- --- ----- --- ---- ---- ------- ----- ---- -------<br>--- --- -- ----- -- --- ---- -- --- ---- -- ------ ------<br>--- close -- ----,53626,53625.39999997616,53352.693,53362.10000002384,53369.358,53636.116,,53,close
screen,html.Screen,0_2_0_1_54,2021-11-19T11:17:22.234Z,,,,,,,,,,,,,,,,53,,,,,,,,,,,,,,293.28399997615634,,response,,,99,,,,,,Space,keypress(Space),,,,,---- -- ----- -- ------ - ------- --- ----------<br>------------- ------ ------ ---- ---- ------- ----- -- ----<br>-------- ------- -- ---------- --- - --- ----- ----- ----<br>---- --- --- ----- --- ---- ---- ------- ----- ---- -------<br>--- --- -- ----- -- --- ---- -- --- ---- -- ------ ------<br>--- ----- at ----,53930,53929.39999997616,53619.449,53626.10000002384,53636.116,53936.036,,54,at
screen,html.Screen,0_2_0_1_55,2021-11-19T11:17:22.634Z,,,,,,,,,,,,,,,,53,,,,,,,,,,,,,,393.3639999761581,,response,,,99,,,,,,Space,keypress(Space),,,,,---- -- ----- -- ------ - ------- --- ----------<br>------------- ------ ------ ---- ---- ------- ----- -- ----<br>-------- ------- -- ---------- --- - --- ----- ----- ----<br>---- --- --- ----- --- ---- ---- ------- ----- ---- -------<br>--- --- -- ----- -- --- ---- -- --- ---- -- ------ ------<br>--- ----- -- all.,54329.89999997616,54329.39999997616,53919.371,53930.10000002384,53936.036,54336.002,,55,all.
Item 99,flow.Loop,0_2_0_1,2021-11-19T11:17:22.637Z,,,,,,,,,,,,,,,,,,,,,,,,,,,,,,18742.283999976156,,completion,,,,D,,,,,,,,,,silence,,54332.799999952316,54329.39999997616,35570.451,35574.200000047684,35587.116,54336.002,,,
Question 1,html.Screen,0_2_0_2,2021-11-19T11:17:25.491Z,,,,,,,,,,,,,,,,,,,,,,,,,,,true,FALSE,,2850.0980000238415,,response,,,99,D,,,,,FALSE,click #choice-2,,,,silence,,57187.200000047684,57186.10000002384,54319.337,54333,54336.002,57202.486,,,
Question 2,html.Screen,0_2_0_3,2021-11-19T11:17:30.581Z,,,,,,,,,,,,,,,,,,,,,,,,,,,true,TRUE,,5070.114000023845,,response,,,99,D,,,,,TRUE,click #choice-1,,,,silence,,62273.39999997616,62272.60000002384,57185.821,57187.299999952316,57202.486,62302.194,,,
Item 99,flow.Sequence,0_2_0,2021-11-19T11:17:30.581Z,,,,,,,,,,,,,,,,,,,,,,,,,,,,,,36684.83900002384,,completion,,,,,,,,,,,,,,,,62273.700000047684,62272.60000002384,25571.096,25576.899999976158,25587.761,62302.194,,,
Holding screen,html.Screen,0_2_1_0,2021-11-19T11:17:40.593Z,,,,,,,,,,,,,,,,,,,,,,,,,,,,,,9999.337,,timeout,,,,,,,,,,,,,,,,72285.79999995232,72284.866,62285.528,62274,62302.194,72301.531,,,
screen,html.Screen,0_2_1_1_0,2021-11-19T11:17:41.245Z,,,,,,,,,,,,,,,,54,,,,,,,,,,,,,,634.8689999761555,,response,,,100,,,,,,Space,keypress(Space),,,,,At --- ---- --- ------ ----- ------- ---- -- --- ------- --<br>------- ---------- ------ -- ----- -- ----- -- ---- ------<br>--- ----- --- --- ------ -------- ----- --- ------ ----- --<br>----- ----- ---------- --- --- ------ ------ ---- -- ------<br>------- --- ------ ----- --- ---- ------- -- ---- --- --<br>------- ------,72937,72936.39999997616,72284.866,72285.89999997616,72301.531,72951.503,,0,At
screen,html.Screen,0_2_1_1_1,2021-11-19T11:17:41.572Z,,,,,,,,,,,,,,,,54,,,,,,,,,,,,,,312.69700004768674,,response,,,100,,,,,,Space,keypress(Space),,,,,-- the ---- --- ------ ----- ------- ---- -- --- ------- --<br>------- ---------- ------ -- ----- -- ----- -- ---- ------<br>--- ----- --- --- ------ -------- ----- --- ------ ----- --<br>----- ----- ---------- --- --- ------ ------ ---- -- ------<br>------- --- ------ ----- --- ---- ------- -- ---- --- --<br>------- ------,73264.79999995232,73264.20000004768,72934.838,72937.20000004768,72951.503,73268.133,,1,the
screen,html.Screen,0_2_1_1_2,2021-11-19T11:17:41.860Z,,,,,,,,,,,,,,,,54,,,,,,,,,,,,,,284.0670000476821,,response,,,100,,,,,,Space,keypress(Space),,,,,-- --- time --- ------ ----- ------- ---- -- --- ------- --<br>------- ---------- ------ -- ----- -- ----- -- ---- ------<br>--- ----- --- --- ------ -------- ----- --- ------ ----- --<br>----- ----- ---------- --- --- ------ ------ ---- -- ------<br>------- --- ------ ----- --- ---- ------- -- ---- --- --<br>------- ------,73552.79999995232,73552.20000004768,73251.468,73265,73268.133,73568.197,,2,time
screen,html.Screen,0_2_1_1_3,2021-11-19T11:17:42.276Z,,,,,,,,,,,,,,,,54,,,,,,,,,,,,,,400.0030000476836,,response,,,100,,,,,,Space,keypress(Space),,,,,-- --- ---- the ------ ----- ------- ---- -- --- ------- --<br>------- ---------- ------ -- ----- -- ----- -- ---- ------<br>--- ----- --- --- ------ -------- ----- --- ------ ----- --<br>----- ----- ---------- --- --- ------ ------ ---- -- ------<br>------- --- ------ ----- --- ---- ------- -- ---- --- --<br>------- ------,73968.79999995232,73968.20000004768,73551.531,73552.89999997616,73568.197,73984.795,,3,the
screen,html.Screen,0_2_1_1_4,2021-11-19T11:17:42.524Z,,,,,,,,,,,,,,,,54,,,,,,,,,,,,,,231.40500004768546,,response,,,100,,,,,,Space,keypress(Space),,,,,-- --- ---- --- French ----- ------- ---- -- --- ------- --<br>------- ---------- ------ -- ----- -- ----- -- ---- ------<br>--- ----- --- --- ------ -------- ----- --- ------ ----- --<br>----- ----- ---------- --- --- ------ ------ ---- -- ------<br>------- --- ------ ----- --- ---- ------- -- ---- --- --<br>------- ------,74216.79999995232,74216.20000004768,73968.13,73968.89999997616,73984.795,74218.12,,4,French
screen,html.Screen,0_2_1_1_5,2021-11-19T11:17:42.924Z,,,,,,,,,,,,,,,,54,,,,,,,,,,,,,,398.0800000476884,,response,,,100,,,,,,Space,keypress(Space),,,,,-- --- ---- --- ------ crown ------- ---- -- --- ------- --<br>------- ---------- ------ -- ----- -- ----- -- ---- ------<br>--- ----- --- --- ------ -------- ----- --- ------ ----- --<br>----- ----- ---------- --- --- ------ ------ ---- -- ------<br>------- --- ------ ----- --- ---- ------- -- ---- --- --<br>------- ------,74616.70000004768,74616.20000004768,74201.455,74216.89999997616,74218.12,74618.078,,5,crown
screen,html.Screen,0_2_1_1_6,2021-11-19T11:17:43.244Z,,,,,,,,,,,,,,,,54,,,,,,,,,,,,,,318.12200004768965,,response,,,100,,,,,,Space,keypress(Space),,,,,-- --- ---- --- ------ ----- secured ---- -- --- ------- --<br>------- ---------- ------ -- ----- -- ----- -- ---- ------<br>--- ----- --- --- ------ -------- ----- --- ------ ----- --<br>----- ----- ---------- --- --- ------ ------ ---- -- ------<br>------- --- ------ ----- --- ---- ------- -- ---- --- --<br>------- ------,74936.70000004768,74936.20000004768,74601.413,74616.89999997616,74618.078,74951.406,,6,secured
screen,html.Screen,0_2_1_1_7,2021-11-19T11:17:43.556Z,,,,,,,,,,,,,,,,54,,,,,,,,,,,,,,296.6940000238392,,response,,,100,,,,,,Space,keypress(Space),,,,,-- --- ---- --- ------ ----- ------- much -- --- ------- --<br>------- ---------- ------ -- ----- -- ----- -- ---- ------<br>--- ----- --- --- ------ -------- ----- --- ------ ----- --<br>----- ----- ---------- --- --- ------ ------ ---- -- ------<br>------- --- ------ ----- --- ---- ------- -- ---- --- --<br>------- ------,75248.79999995232,75248.10000002384,74934.741,74937.10000002384,74951.406,75251.394,,7,much
screen,html.Screen,0_2_1_1_8,2021-11-19T11:17:43.908Z,,,,,,,,,,,,,,,,54,,,,,,,,,,,,,,348.7060000238416,,response,,,100,,,,,,Space,keypress(Space),,,,,-- --- ---- --- ------ ----- ------- ---- of --- ------- --<br>------- ---------- ------ -- ----- -- ----- -- ---- ------<br>--- ----- --- --- ------ -------- ----- --- ------ ----- --<br>----- ----- ---------- --- --- ------ ------ ---- -- ------<br>------- --- ------ ----- --- ---- ------- -- ---- --- --<br>------- ------,75600.70000004768,75600.10000002384,75234.729,75249,75251.394,75618.065,,8,of
screen,html.Screen,0_2_1_1_9,2021-11-19T11:17:44.228Z,,,,,,,,,,,,,,,,54,,,,,,,,,,,,,,302.03500002383953,,response,,,100,,,,,,Space,keypress(Space),,,,,-- --- ---- --- ------ ----- ------- ---- -- its ------- --<br>------- ---------- ------ -- ----- -- ----- -- ---- ------<br>--- ----- --- --- ------ -------- ----- --- ------ ----- --<br>----- ----- ---------- --- --- ------ ------ ---- -- ------<br>------- --- ------ ----- --- ---- ------- -- ---- --- --<br>------- ------,75920.70000004768,75920.10000002384,75601.399,75600.89999997616,75618.065,75934.643,,9,its
screen,html.Screen,0_2_1_1_10,2021-11-19T11:17:44.500Z,,,,,,,,,,,,,,,,54,,,,,,,,,,,,,,257.5570000476873,,response,,,100,,,,,,Space,keypress(Space),,,,,-- --- ---- --- ------ ----- ------- ---- -- --- revenue --<br>------- ---------- ------ -- ----- -- ----- -- ---- ------<br>--- ----- --- --- ------ -------- ----- --- ------ ----- --<br>----- ----- ---------- --- --- ------ ------ ---- -- ------<br>------- --- ------ ----- --- ---- ------- -- ---- --- --<br>------- ------,76192.70000004768,76192.20000004768,75917.979,75921,75934.643,76201.282,,10,revenue
screen,html.Screen,0_2_1_1_11,2021-11-19T11:17:44.876Z,,,,,,,,,,,,,,,,54,,,,,,,,,,,,,,366.81800002383534,,response,,,100,,,,,,Space,keypress(Space),,,,,-- --- ---- --- ------ ----- ------- ---- -- --- ------- by<br>------- ---------- ------ -- ----- -- ----- -- ---- ------<br>--- ----- --- --- ------ -------- ----- --- ------ ----- --<br>----- ----- ---------- --- --- ------ ------ ---- -- ------<br>------- --- ------ ----- --- ---- ------- -- ---- --- --<br>------- ------,76568.70000004768,76568.10000002384,76184.618,76192.89999997616,76201.282,76584.681,,11,by
screen,html.Screen,0_2_1_1_12,2021-11-19T11:17:45.188Z,,,,,,,,,,,,,,,,54,,,,,,,,,,,,,,295.2189999761613,,response,,,100,,,,,,Space,keypress(Space),,,,,-- --- ---- --- ------ ----- ------- ---- -- --- ------- --<br>issuing ---------- ------ -- ----- -- ----- -- ---- ------<br>--- ----- --- --- ------ -------- ----- --- ------ ----- --<br>----- ----- ---------- --- --- ------ ------ ---- -- ------<br>------- --- ------ ----- --- ---- ------- -- ---- --- --<br>------- ------,76880.39999997616,76879.89999997616,76568.015,76568.89999997616,76584.681,76884.555,,12,issuing
screen,html.Screen,0_2_1_1_13,2021-11-19T11:17:45.380Z,,,,,,,,,,,,,,,,54,,,,,,,,,,,,,,187.44500000000698,,response,,,100,,,,,,Space,keypress(Space),,,,,-- --- ---- --- ------ ----- ------- ---- -- --- ------- --<br>------- government ------ -- ----- -- ----- -- ---- ------<br>--- ----- --- --- ------ -------- ----- --- ------ ----- --<br>----- ----- ---------- --- --- ------ ------ ---- -- ------<br>------- --- ------ ----- --- ---- ------- -- ---- --- --<br>------- ------,77072.60000002384,77072,76867.891,76880.60000002384,76884.555,77084.642,,13,government
screen,html.Screen,0_2_1_1_14,2021-11-19T11:17:45.852Z,,,,,,,,,,,,,,,,54,,,,,,,,,,,,,,459.45800002383476,,response,,,100,,,,,,Space,keypress(Space),,,,,-- --- ---- --- ------ ----- ------- ---- -- --- ------- --<br>------- ---------- bonds. -- ----- -- ----- -- ---- ------<br>--- ----- --- --- ------ -------- ----- --- ------ ----- --<br>----- ----- ---------- --- --- ------ ------ ---- -- ------<br>------- --- ------ ----- --- ---- ------- -- ---- --- --<br>------- ------,77544.70000004768,77544.10000002384,77067.976,77072.79999995232,77084.642,77551.198,,14,bonds.
screen,html.Screen,0_2_1_1_15,2021-11-19T11:17:46.268Z,,,,,,,,,,,,,,,,54,,,,,,,,,,,,,,408.80199999999604,,response,,,100,,,,,,Space,keypress(Space),,,,,-- --- ---- --- ------ ----- ------- ---- -- --- ------- --<br>------- ---------- ------ In ----- -- ----- -- ---- ------<br>--- ----- --- --- ------ -------- ----- --- ------ ----- --<br>----- ----- ---------- --- --- ------ ------ ---- -- ------<br>------- --- ------ ----- --- ---- ------- -- ---- --- --<br>------- ------,77960.60000002384,77960,77534.534,77544.79999995232,77551.198,77967.931,,15,In
screen,html.Screen,0_2_1_1_16,2021-11-19T11:17:46.588Z,,,,,,,,,,,,,,,,54,,,,,,,,,,,,,,312.06900000000314,,response,,,100,,,,,,Space,keypress(Space),,,,,"-- --- ---- --- ------ ----- ------- ---- -- --- ------- --<br>------- ---------- ------ -- 1727, -- ----- -- ---- ------<br>--- ----- --- --- ------ -------- ----- --- ------ ----- --<br>----- ----- ---------- --- --- ------ ------ ---- -- ------<br>------- --- ------ ----- --- ---- ------- -- ---- --- --<br>------- ------",78280.5,78280,77951.265,77960.79999995232,77967.931,78284.545,,16,"1727,"
screen,html.Screen,0_2_1_1_17,2021-11-19T11:17:47.204Z,,,,,,,,,,,,,,,,54,,,,,,,,,,,,,,611.4550000000017,,response,,,100,,,,,,Space,keypress(Space),,,,,-- --- ---- --- ------ ----- ------- ---- -- --- ------- --<br>------- ---------- ------ -- ----- in ----- -- ---- ------<br>--- ----- --- --- ------ -------- ----- --- ------ ----- --<br>----- ----- ---------- --- --- ------ ------ ---- -- ------<br>------- --- ------ ----- --- ---- ------- -- ---- --- --<br>------- ------,78896.60000002384,78896,78267.88,78280.70000004768,78284.545,78901.067,,17,in
screen,html.Screen,0_2_1_1_18,2021-11-19T11:17:47.516Z,,,,,,,,,,,,,,,,54,,,,,,,,,,,,,,306.8329999761627,,response,,,100,,,,,,Space,keypress(Space),,,,,-- --- ---- --- ------ ----- ------- ---- -- --- ------- --<br>------- ---------- ------ -- ----- -- order -- ---- ------<br>--- ----- --- --- ------ -------- ----- --- ------ ----- --<br>----- ----- ---------- --- --- ------ ------ ---- -- ------<br>------- --- ------ ----- --- ---- ------- -- ---- --- --<br>------- ------,79208.5,79207.89999997616,78884.403,78896.70000004768,78901.067,79217.881,,18,order
screen,html.Screen,0_2_1_1_19,2021-11-19T11:17:47.804Z,,,,,,,,,,,,,,,,54,,,,,,,,,,,,,,277.91899995232234,,response,,,100,,,,,,Space,keypress(Space),,,,,-- --- ---- --- ------ ----- ------- ---- -- --- ------- --<br>------- ---------- ------ -- ----- -- ----- to ---- ------<br>--- ----- --- --- ------ -------- ----- --- ------ ----- --<br>----- ----- ---------- --- --- ------ ------ ---- -- ------<br>------- --- ------ ----- --- ---- ------- -- ---- --- --<br>------- ------,79496.5,79495.79999995232,79201.215,79208.60000002384,79217.881,79501.079,,19,to
screen,html.Screen,0_2_1_1_20,2021-11-19T11:17:48.116Z,,,,,,,,,,,,,,,,54,,,,,,,,,,,,,,306.82099997616024,,response,,,100,,,,,,Space,keypress(Space),,,,,-- --- ---- --- ------ ----- ------- ---- -- --- ------- --<br>------- ---------- ------ -- ----- -- ----- -- save ------<br>--- ----- --- --- ------ -------- ----- --- ------ ----- --<br>----- ----- ---------- --- --- ------ ------ ---- -- ------<br>------- --- ------ ----- --- ---- ------- -- ---- --- --<br>------- ------,79808.5,79807.89999997616,79484.415,79496.60000002384,79501.079,79817.765,,20,save
screen,html.Screen,0_2_1_1_21,2021-11-19T11:17:48.396Z,,,,,,,,,,,,,,,,54,,,,,,,,,,,,,,270.03499995231687,,response,,,100,,,,,,Space,keypress(Space),,,,,"-- --- ---- --- ------ ----- ------- ---- -- --- ------- --<br>------- ---------- ------ -- ----- -- ----- -- ---- money,<br>--- ----- --- --- ------ -------- ----- --- ------ ----- --<br>----- ----- ---------- --- --- ------ ------ ---- -- ------<br>------- --- ------ ----- --- ---- ------- -- ---- --- --<br>------- ------",80088.39999997616,80087.79999995232,79801.1,79808.60000002384,79817.765,80101.066,,21,"money,"
screen,html.Screen,0_2_1_1_22,2021-11-19T11:17:48.700Z,,,,,,,,,,,,,,,,54,,,,,,,,,,,,,,290.7339999523101,,response,,,100,,,,,,Space,keypress(Space),,,,,-- --- ---- --- ------ ----- ------- ---- -- --- ------- --<br>------- ---------- ------ -- ----- -- ----- -- ---- ------<br>the ----- --- --- ------ -------- ----- --- ------ ----- --<br>----- ----- ---------- --- --- ------ ------ ---- -- ------<br>------- --- ------ ----- --- ---- ------- -- ---- --- --<br>------- ------,80392.39999997616,80391.79999995232,80084.401,80088.5,80101.066,80401.113,,22,the
screen,html.Screen,0_2_1_1_23,2021-11-19T11:17:48.996Z,,,,,,,,,,,,,,,,54,,,,,,,,,,,,,,286.9870000238443,,response,,,100,,,,,,Space,keypress(Space),,,,,-- --- ---- --- ------ ----- ------- ---- -- --- ------- --<br>------- ---------- ------ -- ----- -- ----- -- ---- ------<br>--- state --- --- ------ -------- ----- --- ------ ----- --<br>----- ----- ---------- --- --- ------ ------ ---- -- ------<br>------- --- ------ ----- --- ---- ------- -- ---- --- --<br>------- ------,80688.70000004768,80688.10000002384,80384.447,80392.60000002384,80401.113,80701.066,,23,state
screen,html.Screen,0_2_1_1_24,2021-11-19T11:17:49.220Z,,,,,,,,,,,,,,,,54,,,,,,,,,,,,,,210.63400004767755,,response,,,100,,,,,,Space,keypress(Space),,,,,-- --- ---- --- ------ ----- ------- ---- -- --- ------- --<br>------- ---------- ------ -- ----- -- ----- -- ---- ------<br>--- ----- cut --- ------ -------- ----- --- ------ ----- --<br>----- ----- ---------- --- --- ------ ------ ---- -- ------<br>------- --- ------ ----- --- ---- ------- -- ---- --- --<br>------- ------,80912.39999997616,80911.70000004768,80684.401,80688.79999995232,80701.066,80917.702,,24,cut
screen,html.Screen,0_2_1_1_25,2021-11-19T11:17:49.580Z,,,,,,,,,,,,,,,,54,,,,,,,,,,,,,,353.99800004767894,,response,,,100,,,,,,Space,keypress(Space),,,,,-- --- ---- --- ------ ----- ------- ---- -- --- ------- --<br>------- ---------- ------ -- ----- -- ----- -- ---- ------<br>--- ----- --- the ------ -------- ----- --- ------ ----- --<br>----- ----- ---------- --- --- ------ ------ ---- -- ------<br>------- --- ------ ----- --- ---- ------- -- ---- --- --<br>------- ------,81272.29999995232,81271.70000004768,80901.037,80912.60000002384,80917.702,81284.297,,25,the
screen,html.Screen,0_2_1_1_26,2021-11-19T11:17:49.828Z,,,,,,,,,,,,,,,,54,,,,,,,,,,,,,,235.40300004767778,,response,,,100,,,,,,Space,keypress(Space),,,,,-- --- ---- --- ------ ----- ------- ---- -- --- ------- --<br>------- ---------- ------ -- ----- -- ----- -- ---- ------<br>--- ----- --- --- bonds' -------- ----- --- ------ ----- --<br>----- ----- ---------- --- --- ------ ------ ---- -- ------<br>------- --- ------ ----- --- ---- ------- -- ---- --- --<br>------- ------,81520.20000004768,81519.70000004768,81267.633,81272.5,81284.297,81534.383,,26,bonds'
screen,html.Screen,0_2_1_1_27,2021-11-19T11:17:50.204Z,,,,,,,,,,,,,,,,54,,,,,,,,,,,,,,361.3170000476821,,response,,,100,,,,,,Space,keypress(Space),,,,,-- --- ---- --- ------ ----- ------- ---- -- --- ------- --<br>------- ---------- ------ -- ----- -- ----- -- ---- ------<br>--- ----- --- --- ------ interest ----- --- ------ ----- --<br>----- ----- ---------- --- --- ------ ------ ---- -- ------<br>------- --- ------ ----- --- ---- ------- -- ---- --- --<br>------- ------,81896.20000004768,81895.70000004768,81517.717,81520.39999997616,81534.383,81900.983,,27,interest
screen,html.Screen,0_2_1_1_28,2021-11-19T11:17:50.516Z,,,,,,,,,,,,,,,,54,,,,,,,,,,,,,,306.8169999523234,,response,,,100,,,,,,Space,keypress(Space),,,,,-- --- ---- --- ------ ----- ------- ---- -- --- ------- --<br>------- ---------- ------ -- ----- -- ----- -- ---- ------<br>--- ----- --- --- ------ -------- rate. --- ------ ----- --<br>----- ----- ---------- --- --- ------ ------ ---- -- ------<br>------- --- ------ ----- --- ---- ------- -- ---- --- --<br>------- ------,82208.39999997616,82207.79999995232,81884.318,81896.5,81900.983,82217.626,,28,rate.
screen,html.Screen,0_2_1_1_29,2021-11-19T11:17:50.940Z,,,,,,,,,,,,,,,,54,,,,,,,,,,,,,,414.17399995231244,,response,,,100,,,,,,Space,keypress(Space),,,,,-- --- ---- --- ------ ----- ------- ---- -- --- ------- --<br>------- ---------- ------ -- ----- -- ----- -- ---- ------<br>--- ----- --- --- ------ -------- ----- The ------ ----- --<br>----- ----- ---------- --- --- ------ ------ ---- -- ------<br>------- --- ------ ----- --- ---- ------- -- ---- --- --<br>------- ------,82632.39999997616,82631.79999995232,82200.961,82208.5,82217.626,82634.263,,29,The
screen,html.Screen,0_2_1_1_30,2021-11-19T11:17:51.236Z,,,,,,,,,,,,,,,,54,,,,,,,,,,,,,,293.43700004767743,,response,,,100,,,,,,Space,keypress(Space),,,,,-- --- ---- --- ------ ----- ------- ---- -- --- ------- --<br>------- ---------- ------ -- ----- -- ----- -- ---- ------<br>--- ----- --- --- ------ -------- ----- --- market ----- --<br>----- ----- ---------- --- --- ------ ------ ---- -- ------<br>------- --- ------ ----- --- ---- ------- -- ---- --- --<br>------- ------,82928.29999995232,82927.70000004768,82617.598,82632.5,82634.263,82934.256,,30,market
screen,html.Screen,0_2_1_1_31,2021-11-19T11:17:51.580Z,,,,,,,,,,,,,,,,54,,,,,,,,,,,,,,337.3440000238479,,response,,,100,,,,,,Space,keypress(Space),,,,,-- --- ---- --- ------ ----- ------- ---- -- --- ------- --<br>------- ---------- ------ -- ----- -- ----- -- ---- ------<br>--- ----- --- --- ------ -------- ----- --- ------ value --<br>----- ----- ---------- --- --- ------ ------ ---- -- ------<br>------- --- ------ ----- --- ---- ------- -- ---- --- --<br>------- ------,83272.20000004768,83271.60000002384,82917.591,82928.39999997616,82934.256,83284.228,,31,value
screen,html.Screen,0_2_1_1_32,2021-11-19T11:17:51.852Z,,,,,,,,,,,,,,,,54,,,,,,,,,,,,,,259.37200002383906,,response,,,100,,,,,,Space,keypress(Space),,,,,-- --- ---- --- ------ ----- ------- ---- -- --- ------- --<br>------- ---------- ------ -- ----- -- ----- -- ---- ------<br>--- ----- --- --- ------ -------- ----- --- ------ ----- of<br>----- ----- ---------- --- --- ------ ------ ---- -- ------<br>------- --- ------ ----- --- ---- ------- -- ---- --- --<br>------- ------,83544.10000002384,83543.60000002384,83267.563,83272.39999997616,83284.228,83550.881,,32,of
screen,html.Screen,0_2_1_1_33,2021-11-19T11:17:52.428Z,,,,,,,,,,,,,,,,54,,,,,,,,,,,,,,568.7190000238479,,response,,,100,,,,,,Space,keypress(Space),,,,,-- --- ---- --- ------ ----- ------- ---- -- --- ------- --<br>------- ---------- ------ -- ----- -- ----- -- ---- ------<br>--- ----- --- --- ------ -------- ----- --- ------ ----- --<br>these ----- ---------- --- --- ------ ------ ---- -- ------<br>------- --- ------ ----- --- ---- ------- -- ---- --- --<br>------- ------,84120.10000002384,84119.60000002384,83534.216,83544.29999995232,83550.881,84134.167,,33,these
screen,html.Screen,0_2_1_1_34,2021-11-19T11:17:52.724Z,,,,,,,,,,,,,,,,54,,,,,,,,,,,,,,281.4330000238406,,response,,,100,,,,,,Space,keypress(Space),,,,,-- --- ---- --- ------ ----- ------- ---- -- --- ------- --<br>------- ---------- ------ -- ----- -- ----- -- ---- ------<br>--- ----- --- --- ------ -------- ----- --- ------ ----- --<br>----- bonds ---------- --- --- ------ ------ ---- -- ------<br>------- --- ------ ----- --- ---- ------- -- ---- --- --<br>------- ------,84416.20000004768,84415.60000002384,84117.502,84120.29999995232,84134.167,84417.286,,34,bonds
screen,html.Screen,0_2_1_1_35,2021-11-19T11:17:52.988Z,,,,,,,,,,,,,,,,54,,,,,,,,,,,,,,262.3140000238491,,response,,,100,,,,,,Space,keypress(Space),,,,,"-- --- ---- --- ------ ----- ------- ---- -- --- ------- --<br>------- ---------- ------ -- ----- -- ----- -- ---- ------<br>--- ----- --- --- ------ -------- ----- --- ------ ----- --<br>----- ----- plummeted, --- --- ------ ------ ---- -- ------<br>------- --- ------ ----- --- ---- ------- -- ---- --- --<br>------- ------",84680.20000004768,84679.60000002384,84400.624,84416.39999997616,84417.286,84684.186,,35,"plummeted,"
screen,html.Screen,0_2_1_1_36,2021-11-19T11:17:53.348Z,,,,,,,,,,,,,,,,54,,,,,,,,,,,,,,355.3139999999985,,response,,,100,,,,,,Space,keypress(Space),,,,,-- --- ---- --- ------ ----- ------- ---- -- --- ------- --<br>------- ---------- ------ -- ----- -- ----- -- ---- ------<br>--- ----- --- --- ------ -------- ----- --- ------ ----- --<br>----- ----- ---------- and --- ------ ------ ---- -- ------<br>------- --- ------ ----- --- ---- ------- -- ---- --- --<br>------- ------,85040.10000002384,85039.5,84667.52,84680.39999997616,84684.186,85050.783,,36,and
screen,html.Screen,0_2_1_1_37,2021-11-19T11:17:53.620Z,,,,,,,,,,,,,,,,54,,,,,,,,,,,,,,260.81700002384605,,response,,,100,,,,,,Space,keypress(Space),,,,,-- --- ---- --- ------ ----- ------- ---- -- --- ------- --<br>------- ---------- ------ -- ----- -- ----- -- ---- ------<br>--- ----- --- --- ------ -------- ----- --- ------ ----- --<br>----- ----- ---------- --- the ------ ------ ---- -- ------<br>------- --- ------ ----- --- ---- ------- -- ---- --- --<br>------- ------,85312.10000002384,85311.60000002384,85034.118,85040.20000004768,85050.783,85317.445,,37,the
screen,html.Screen,0_2_1_1_38,2021-11-19T11:17:53.940Z,,,,,,,,,,,,,,,,54,,,,,,,,,,,,,,314.054999999993,,response,,,100,,,,,,Space,keypress(Space),,,,,-- --- ---- --- ------ ----- ------- ---- -- --- ------- --<br>------- ---------- ------ -- ----- -- ----- -- ---- ------<br>--- ----- --- --- ------ -------- ----- --- ------ ----- --<br>----- ----- ---------- --- --- market ------ ---- -- ------<br>------- --- ------ ----- --- ---- ------- -- ---- --- --<br>------- ------,85632,85631.5,85300.78,85312.29999995232,85317.445,85634.095,,38,market
screen,html.Screen,0_2_1_1_39,2021-11-19T11:17:54.212Z,,,,,,,,,,,,,,,,54,,,,,,,,,,,,,,269.304999976157,,response,,,100,,,,,,Space,keypress(Space),,,,,-- --- ---- --- ------ ----- ------- ---- -- --- ------- --<br>------- ---------- ------ -- ----- -- ----- -- ---- ------<br>--- ----- --- --- ------ -------- ----- --- ------ ----- --<br>----- ----- ---------- --- --- ------ became ---- -- ------<br>------- --- ------ ----- --- ---- ------- -- ---- --- --<br>------- ------,85904,85903.39999997616,85617.43,85632.20000004768,85634.095,85917.395,,39,became
screen,html.Screen,0_2_1_1_40,2021-11-19T11:17:54.476Z,,,,,,,,,,,,,,,,54,,,,,,,,,,,,,,250.10499999999593,,response,,,100,,,,,,Space,keypress(Space),,,,,-- --- ---- --- ------ ----- ------- ---- -- --- ------- --<br>------- ---------- ------ -- ----- -- ----- -- ---- ------<br>--- ----- --- --- ------ -------- ----- --- ------ ----- --<br>----- ----- ---------- --- --- ------ ------ wary -- ------<br>------- --- ------ ----- --- ---- ------- -- ---- --- --<br>------- ------,86168.10000002384,86167.5,85900.73,85904.20000004768,85917.395,86183.967,,40,wary
screen,html.Screen,0_2_1_1_41,2021-11-19T11:17:54.764Z,,,,,,,,,,,,,,,,54,,,,,,,,,,,,,,271.43299997615395,,response,,,100,,,,,,Space,keypress(Space),,,,,-- --- ---- --- ------ ----- ------- ---- -- --- ------- --<br>------- ---------- ------ -- ----- -- ----- -- ---- ------<br>--- ----- --- --- ------ -------- ----- --- ------ ----- --<br>----- ----- ---------- --- --- ------ ------ ---- of ------<br>------- --- ------ ----- --- ---- ------- -- ---- --- --<br>------- ------,86456,86455.39999997616,86167.304,86168.20000004768,86183.967,86467.428,,41,of
screen,html.Screen,0_2_1_1_42,2021-11-19T11:17:55.044Z,,,,,,,,,,,,,,,,54,,,,,,,,,,,,,,267.97199997615826,,response,,,100,,,,,,Space,keypress(Space),,,,,-- --- ---- --- ------ ----- ------- ---- -- --- ------- --<br>------- ---------- ------ -- ----- -- ----- -- ---- ------<br>--- ----- --- --- ------ -------- ----- --- ------ ----- --<br>----- ----- ---------- --- --- ------ ------ ---- -- French<br>------- --- ------ ----- --- ---- ------- -- ---- --- --<br>------- ------,86735.89999997616,86735.39999997616,86450.761,86456.10000002384,86467.428,86750.684,,42,French
screen,html.Screen,0_2_1_1_43,2021-11-19T11:17:55.564Z,,,,,,,,,,,,,,,,54,,,,,,,,,,,,,,504.81600000000617,,response,,,100,,,,,,Space,keypress(Space),,,,,-- --- ---- --- ------ ----- ------- ---- -- --- ------- --<br>------- ---------- ------ -- ----- -- ----- -- ---- ------<br>--- ----- --- --- ------ -------- ----- --- ------ ----- --<br>----- ----- ---------- --- --- ------ ------ ---- -- ------<br>credit. --- ------ ----- --- ---- ------- -- ---- --- --<br>------- ------,87256,87255.5,86734.019,86736.20000004768,86750.684,87267.309,,43,credit.
screen,html.Screen,0_2_1_1_44,2021-11-19T11:17:55.836Z,,,,,,,,,,,,,,,,54,,,,,,,,,,,,,,260.0909999761643,,response,,,100,,,,,,Space,keypress(Space),,,,,-- --- ---- --- ------ ----- ------- ---- -- --- ------- --<br>------- ---------- ------ -- ----- -- ----- -- ---- ------<br>--- ----- --- --- ------ -------- ----- --- ------ ----- --<br>----- ----- ---------- --- --- ------ ------ ---- -- ------<br>------- The ------ ----- --- ---- ------- -- ---- --- --<br>------- ------,87527.89999997616,87527.39999997616,87250.644,87256.20000004768,87267.309,87533.98,,44,The
screen,html.Screen,0_2_1_1_45,2021-11-19T11:17:56.140Z,,,,,,,,,,,,,,,,54,,,,,,,,,,,,,,297.4199999761622,,response,,,100,,,,,,Space,keypress(Space),,,,,-- --- ---- --- ------ ----- ------- ---- -- --- ------- --<br>------- ---------- ------ -- ----- -- ----- -- ---- ------<br>--- ----- --- --- ------ -------- ----- --- ------ ----- --<br>----- ----- ---------- --- --- ------ ------ ---- -- ------<br>------- --- French ----- --- ---- ------- -- ---- --- --<br>------- ------,87832,87831.39999997616,87517.315,87528.10000002384,87533.98,87833.953,,45,French
screen,html.Screen,0_2_1_1_46,2021-11-19T11:17:56.404Z,,,,,,,,,,,,,,,,54,,,,,,,,,,,,,,261.3469999523222,,response,,,100,,,,,,Space,keypress(Space),,,,,-- --- ---- --- ------ ----- ------- ---- -- --- ------- --<br>------- ---------- ------ -- ----- -- ----- -- ---- ------<br>--- ----- --- --- ------ -------- ----- --- ------ ----- --<br>----- ----- ---------- --- --- ------ ------ ---- -- ------<br>------- --- ------ state --- ---- ------- -- ---- --- --<br>------- ------,88095.89999997616,88095.29999995232,87817.288,87832.10000002384,87833.953,88100.523,,46,state
screen,html.Screen,0_2_1_1_47,2021-11-19T11:17:56.812Z,,,,,,,,,,,,,,,,54,,,,,,,,,,,,,,402.77699995231524,,response,,,100,,,,,,Space,keypress(Space),,,,,-- --- ---- --- ------ ----- ------- ---- -- --- ------- --<br>------- ---------- ------ -- ----- -- ----- -- ---- ------<br>--- ----- --- --- ------ -------- ----- --- ------ ----- --<br>----- ----- ---------- --- --- ------ ------ ---- -- ------<br>------- --- ------ ----- was ---- ------- -- ---- --- --<br>------- ------,88503.89999997616,88503.29999995232,88083.86,88096,88100.523,88517.226,,47,was
screen,html.Screen,0_2_1_1_48,2021-11-19T11:17:57.140Z,,,,,,,,,,,,,,,,54,,,,,,,,,,,,,,314.0739999523212,,response,,,100,,,,,,Space,keypress(Space),,,,,-- --- ---- --- ------ ----- ------- ---- -- --- ------- --<br>------- ---------- ------ -- ----- -- ----- -- ---- ------<br>--- ----- --- --- ------ -------- ----- --- ------ ----- --<br>----- ----- ---------- --- --- ------ ------ ---- -- ------<br>------- --- ------ ----- --- left ------- -- ---- --- --<br>------- ------,88832.10000002384,88831.29999995232,88500.561,88504.10000002384,88517.226,88833.947,,48,left
screen,html.Screen,0_2_1_1_49,2021-11-19T11:17:57.444Z,,,,,,,,,,,,,,,,54,,,,,,,,,,,,,,301.35299995231617,,response,,,100,,,,,,Space,keypress(Space),,,,,-- --- ---- --- ------ ----- ------- ---- -- --- ------- --<br>------- ---------- ------ -- ----- -- ----- -- ---- ------<br>--- ----- --- --- ------ -------- ----- --- ------ ----- --<br>----- ----- ---------- --- --- ------ ------ ---- -- ------<br>------- --- ------ ----- --- ---- without -- ---- --- --<br>------- ------,89135.89999997616,89135.29999995232,88817.281,88832.20000004768,88833.947,89150.528,,49,without
screen,html.Screen,0_2_1_1_50,2021-11-19T11:17:57.731Z,,,,,,,,,,,,,,,,54,,,,,,,,,,,,,,272.672000047678,,response,,,100,,,,,,Space,keypress(Space),,,,,-- --- ---- --- ------ ----- ------- ---- -- --- ------- --<br>------- ---------- ------ -- ----- -- ----- -- ---- ------<br>--- ----- --- --- ------ -------- ----- --- ------ ----- --<br>----- ----- ---------- --- --- ------ ------ ---- -- ------<br>------- --- ------ ----- --- ---- ------- an ---- --- --<br>------- ------,89423.79999995232,89423.20000004768,89133.863,89136.10000002384,89150.528,89433.706,,50,an
screen,html.Screen,0_2_1_1_51,2021-11-19T11:17:57.971Z,,,,,,,,,,,,,,,,54,,,,,,,,,,,,,,229.49400004767813,,response,,,100,,,,,,Space,keypress(Space),,,,,-- --- ---- --- ------ ----- ------- ---- -- --- ------- --<br>------- ---------- ------ -- ----- -- ----- -- ---- ------<br>--- ----- --- --- ------ -------- ----- --- ------ ----- --<br>----- ----- ---------- --- --- ------ ------ ---- -- ------<br>------- --- ------ ----- --- ---- ------- -- easy --- --<br>------- ------,89663.79999995232,89663.20000004768,89417.044,89424,89433.706,89667.247,,51,easy
screen,html.Screen,0_2_1_1_52,2021-11-19T11:17:58.355Z,,,,,,,,,,,,,,,,54,,,,,,,,,,,,,,379.9530000476807,,response,,,100,,,,,,Space,keypress(Space),,,,,-- --- ---- --- ------ ----- ------- ---- -- --- ------- --<br>------- ---------- ------ -- ----- -- ----- -- ---- ------<br>--- ----- --- --- ------ -------- ----- --- ------ ----- --<br>----- ----- ---------- --- --- ------ ------ ---- -- ------<br>------- --- ------ ----- --- ---- ------- -- ---- way --<br>------- ------,90047.79999995232,90047.20000004768,89650.579,89664,89667.247,90050.423,,52,way
screen,html.Screen,0_2_1_1_53,2021-11-19T11:17:58.675Z,,,,,,,,,,,,,,,,54,,,,,,,,,,,,,,316.7770000476885,,response,,,100,,,,,,Space,keypress(Space),,,,,-- --- ---- --- ------ ----- ------- ---- -- --- ------- --<br>------- ---------- ------ -- ----- -- ----- -- ---- ------<br>--- ----- --- --- ------ -------- ----- --- ------ ----- --<br>----- ----- ---------- --- --- ------ ------ ---- -- ------<br>------- --- ------ ----- --- ---- ------- -- ---- --- of<br>------- ------,90367.79999995232,90367.20000004768,90033.759,90048,90050.423,90383.827,,53,of
screen,html.Screen,0_2_1_1_54,2021-11-19T11:17:58.940Z,,,,,,,,,,,,,,,,54,,,,,,,,,,,,,,247.37300004767894,,response,,,100,,,,,,Space,keypress(Space),,,,,-- --- ---- --- ------ ----- ------- ---- -- --- ------- --<br>------- ---------- ------ -- ----- -- ----- -- ---- ------<br>--- ----- --- --- ------ -------- ----- --- ------ ----- --<br>----- ----- ---------- --- --- ------ ------ ---- -- ------<br>------- --- ------ ----- --- ---- ------- -- ---- --- --<br>raising ------,90631.89999997616,90631.20000004768,90367.161,90368,90383.827,90633.79,,54,raising
screen,html.Screen,0_2_1_1_55,2021-11-19T11:17:59.380Z,,,,,,,,,,,,,,,,54,,,,,,,,,,,,,,437.5099999523227,,response,,,100,,,,,,Space,keypress(Space),,,,,-- --- ---- --- ------ ----- ------- ---- -- --- ------- --<br>------- ---------- ------ -- ----- -- ----- -- ---- ------<br>--- ----- --- --- ------ -------- ----- --- ------ ----- --<br>----- ----- ---------- --- --- ------ ------ ---- -- ------<br>------- --- ------ ----- --- ---- ------- -- ---- --- --<br>------- money.,91072.20000004768,91071.29999995232,90617.125,90632.10000002384,90633.79,91083.793,,55,money.
Item 100,flow.Loop,0_2_1_1,2021-11-19T11:17:59.380Z,,,,,,,,,,,,,,,,,,,,,,,,,,,,,,18769.768999952314,,completion,,,,D,,,,,,,,,,silence,,91072.5,91071.29999995232,72284.866,72285.89999997616,72301.531,91083.793,,,
Question 1,html.Screen,0_2_1_2,2021-11-19T11:18:01.270Z,,,,,,,,,,,,,,,,,,,,,,,,,,,true,TRUE,,1877.4070000476786,,response,,,100,D,,,,,TRUE,click #choice-1,,,,silence,,92962,92961.20000004768,91067.127,91072.70000004768,91083.793,92966.809,,,
Question 2,html.Screen,0_2_1_3,2021-11-19T11:18:02.762Z,,,,,,,,,,,,,,,,,,,,,,,,,,,false,FALSE,,1487.1910000000062,,response,,,100,D,,,,,TRUE,click #choice-1,,,,silence,,94454.79999995232,94454,92950.145,92962.20000004768,92966.809,94466.859,,,
Item 100,flow.Sequence,0_2_1,2021-11-19T11:18:02.763Z,,,,,,,,,,,,,,,,,,,,,,,,,,,,,,32151.805999999997,,completion,,,,,,,,,,,,,,,,94455.10000002384,94454,62285.528,62273.89999997616,62302.194,94466.859,,,
End of Practice,html.Page,0_2_2,2021-11-19T11:18:09.552Z,,,,,,,,,,,,,,,,,,,,,,,,,,,,,,6776.9409999523195,,form submission,,,,,,,,,,,,,,,,101244.20000004768,101243.79999995232,94450.194,94455.20000004768,94466.859,101249.824,,,
Practice,flow.Sequence,0_2,2021-11-19T11:18:09.552Z,,,,,,,,,,,,,,,,,,,,,,,,,,,,,,75656.03899995232,,completion,,,,,,,,,,,,,,,,101244.5,101243.79999995232,25571.096,25576.799999952316,25587.761,101249.824,,,
Trap_instruction,html.Page,0_3_0,2021-11-19T11:18:13.191Z,,,,,,,,,,,,,,,,,,,,,,,,,,,,,,3633.575999976165,,form submission,,,,,,,,,,,,,,,,104883.79999995232,104883.39999997616,101233.158,101244.60000002384,101249.824,104899.401,,,
trap_trial,html.Screen,0_3_1,2021-11-19T11:18:15.918Z,,,,,,,,,,,,,,,,,,,,,,,,,,,true,1,,2710.3989999523183,,response,,,,,,,,,1,click #choice-1,,,,,,107610.60000002384,107609.79999995232,104882.736,104883.89999997616,104899.401,107626.843,,,
end of trap trial,html.Page,0_3_2,2021-11-19T11:18:17.691Z,,,,,,,,,,,,,,,,,,,,,,,,,,,,,,1755.8570000476902,,form submission,,,,,,,,,,,,,,,,109383.20000004768,109382.70000004768,107610.214,107610.79999995232,107626.843,109382.623,,,
Trap 1,flow.Sequence,0_3,2021-11-19T11:18:17.691Z,,,,,,,,,,,,,,,,,,,,,,,,,,,,,,8132.8760000476905,,completion,,,,,,,,,,,,,,,,109383.5,109382.70000004768,101233.158,101244.60000002384,101249.824,109382.623,,,
Standby,html.Page,0_4_0,2021-11-19T11:18:25.673Z,,,,,,,,,,,,,,,,,,,,,,,,,,,,,,7999.212999999989,,timeout,,,,,,,,,,,,,,,,117365.79999995232,117365.171,109365.958,109383.60000002384,109382.623,117381.836,,,
Holding screen,html.Screen,0_4_1_0_0,2021-11-19T11:18:32.677Z,,,,,,,,,,,,,,,,,,,,,,,,,,,,,,6999.827000000005,,timeout,,,,,,,,,,,,,,,,124365.79999995232,124364.998,117365.171,117366.10000002384,117381.836,124381.663,,,
screen,html.Screen,0_4_1_0_1_0,2021-11-19T11:18:33.557Z,,,,,,,,,,,,,,,,11,,,,,,,,,,,,,,863.7369999761577,,response,,,4,D,,,,,Space,keypress(Space),,,,silence,Known -- ---- --- -- --- -------- ------------ ---------- --<br>- ------- ------ --------- -- ------------ -- --- ---- -----<br>------ ---- ---- ------ ------ ------- --- ----- ---------<br>---- --- -------- -------- --- --- -- ------- --- --- -----<br>-- --- ------ ------- --- --- -------- ---- --------- --<br>---------- -- -------- ----------------,125246,125245.39999997616,124364.998,124366,124381.663,125248.307,,0,Known
screen,html.Screen,0_4_1_0_1_1,2021-11-19T11:18:33.964Z,,,,,,,,,,,,,,,,11,,,,,,,,,,,,,,404.6929999999993,,response,,,4,D,,,,,Space,keypress(Space),,,,silence,----- as ---- --- -- --- -------- ------------ ---------- --<br>- ------- ------ --------- -- ------------ -- --- ---- -----<br>------ ---- ---- ------ ------ ------- --- ----- ---------<br>---- --- -------- -------- --- --- -- ------- --- --- -----<br>-- --- ------ ------- --- --- -------- ---- --------- --<br>---------- -- -------- ----------------,125653.60000002384,125653,125231.642,125246.20000004768,125248.307,125664.904,,1,as
screen,html.Screen,0_4_1_0_1_2,2021-11-19T11:18:34.268Z,,,,,,,,,,,,,,,,11,,,,,,,,,,,,,,292.096000000005,,response,,,4,D,,,,,Space,keypress(Space),,,,silence,----- -- Rapa --- -- --- -------- ------------ ---------- --<br>- ------- ------ --------- -- ------------ -- --- ---- -----<br>------ ---- ---- ------ ------ ------- --- ----- ---------<br>---- --- -------- -------- --- --- -- ------- --- --- -----<br>-- --- ------ ------- --- --- -------- ---- --------- --<br>---------- -- -------- ----------------,125957.5,125957,125648.239,125653.79999995232,125664.904,125964.881,,2,Rapa
screen,html.Screen,0_4_1_0_1_3,2021-11-19T11:18:34.604Z,,,,,,,,,,,,,,,,11,,,,,,,,,,,,,,328.11900000000605,,response,,,4,D,,,,,Space,keypress(Space),,,,silence,----- -- ---- Nui -- --- -------- ------------ ---------- --<br>- ------- ------ --------- -- ------------ -- --- ---- -----<br>------ ---- ---- ------ ------ ------- --- ----- ---------<br>---- --- -------- -------- --- --- -- ------- --- --- -----<br>-- --- ------ ------- --- --- -------- ---- --------- --<br>---------- -- -------- ----------------,126293.60000002384,126293,125948.216,125957.60000002384,125964.881,126298.268,,3,Nui
screen,html.Screen,0_4_1_0_1_4,2021-11-19T11:18:34.972Z,,,,,,,,,,,,,,,,11,,,,,,,,,,,,,,362.63199997616175,,response,,,4,D,,,,,Space,keypress(Space),,,,silence,----- -- ---- --- to --- -------- ------------ ---------- --<br>- ------- ------ --------- -- ------------ -- --- ---- -----<br>------ ---- ---- ------ ------ ------- --- ----- ---------<br>---- --- -------- -------- --- --- -- ------- --- --- -----<br>-- --- ------ ------- --- --- -------- ---- --------- --<br>---------- -- -------- ----------------,126661.60000002384,126660.89999997616,126281.602,126293.79999995232,126298.268,126664.926,,4,to
screen,html.Screen,0_4_1_0_1_5,2021-11-19T11:18:35.260Z,,,,,,,,,,,,,,,,11,,,,,,,,,,,,,,283.9739999761514,,response,,,4,D,,,,,Space,keypress(Space),,,,silence,----- -- ---- --- -- the -------- ------------ ---------- --<br>- ------- ------ --------- -- ------------ -- --- ---- -----<br>------ ---- ---- ------ ------ ------- --- ----- ---------<br>---- --- -------- -------- --- --- -- ------- --- --- -----<br>-- --- ------ ------- --- --- -------- ---- --------- --<br>---------- -- -------- ----------------,126949.5,126948.89999997616,126648.26,126661.70000004768,126664.926,126964.912,,5,the
screen,html.Screen,0_4_1_0_1_6,2021-11-19T11:18:35.812Z,,,,,,,,,,,,,,,,11,,,,,,,,,,,,,,535.9879999761615,,response,,,4,D,,,,,Space,keypress(Space),,,,silence,----- -- ---- --- -- --- island's ------------ ---------- --<br>- ------- ------ --------- -- ------------ -- --- ---- -----<br>------ ---- ---- ------ ------ ------- --- ----- ---------<br>---- --- -------- -------- --- --- -- ------- --- --- -----<br>-- --- ------ ------- --- --- -------- ---- --------- --<br>---------- -- -------- ----------------,127501.5,127500.89999997616,126948.246,126949.70000004768,126964.912,127514.846,,6,island's
screen,html.Screen,0_4_1_0_1_7,2021-11-19T11:18:36.140Z,,,,,,,,,,,,,,,,11,,,,,,,,,,,,,,314.153999999995,,response,,,4,D,,,,,Space,keypress(Space),,,,silence,"----- -- ---- --- -- --- -------- inhabitants, ---------- --<br>- ------- ------ --------- -- ------------ -- --- ---- -----<br>------ ---- ---- ------ ------ ------- --- ----- ---------<br>---- --- -------- -------- --- --- -- ------- --- --- -----<br>-- --- ------ ------- --- --- -------- ---- --------- --<br>---------- -- -------- ----------------",127829.5,127829,127498.181,127501.60000002384,127514.846,127831.492,,7,"inhabitants,"
screen,html.Screen,0_4_1_0_1_8,2021-11-19T11:18:36.628Z,,,,,,,,,,,,,,,,11,,,,,,,,,,,,,,485.4079999761598,,response,,,4,D,,,,,Space,keypress(Space),,,,silence,----- -- ---- --- -- --- -------- ------------ Rongorongo --<br>- ------- ------ --------- -- ------------ -- --- ---- -----<br>------ ---- ---- ------ ------ ------- --- ----- ---------<br>---- --- -------- -------- --- --- -- ------- --- --- -----<br>-- --- ------ ------- --- --- -------- ---- --------- --<br>---------- -- -------- ----------------,128317.39999997616,128316.89999997616,127814.827,127829.70000004768,127831.492,128331.455,,8,Rongorongo
screen,html.Screen,0_4_1_0_1_9,2021-11-19T11:18:37.068Z,,,,,,,,,,,,,,,,11,,,,,,,,,,,,,,425.4449999761564,,response,,,4,D,,,,,Space,keypress(Space),,,,silence,----- -- ---- --- -- --- -------- ------------ ---------- is<br>- ------- ------ --------- -- ------------ -- --- ---- -----<br>------ ---- ---- ------ ------ ------- --- ----- ---------<br>---- --- -------- -------- --- --- -- ------- --- --- -----<br>-- --- ------ ------- --- --- -------- ---- --------- --<br>---------- -- -------- ----------------,128757.5,128756.89999997616,128314.79,128317.60000002384,128331.455,128764.772,,9,is
screen,html.Screen,0_4_1_0_1_10,2021-11-19T11:18:37.484Z,,,,,,,,,,,,,,,,11,,,,,,,,,,,,,,408.0279999523191,,response,,,4,D,,,,,Space,keypress(Space),,,,silence,----- -- ---- --- -- --- -------- ------------ ---------- --<br>a ------- ------ --------- -- ------------ -- --- ---- -----<br>------ ---- ---- ------ ------ ------- --- ----- ---------<br>---- --- -------- -------- --- --- -- ------- --- --- -----<br>-- --- ------ ------- --- --- -------- ---- --------- --<br>---------- -- -------- ----------------,129173.39999997616,129172.79999995232,128748.107,128757.70000004768,128764.772,129181.417,,10,a
screen,html.Screen,0_4_1_0_1_11,2021-11-19T11:18:37.828Z,,,,,,,,,,,,,,,,11,,,,,,,,,,,,,,335.48299997615686,,response,,,4,D,,,,,Space,keypress(Space),,,,silence,----- -- ---- --- -- --- -------- ------------ ---------- --<br>- writing ------ --------- -- ------------ -- --- ---- -----<br>------ ---- ---- ------ ------ ------- --- ----- ---------<br>---- --- -------- -------- --- --- -- ------- --- --- -----<br>-- --- ------ ------- --- --- -------- ---- --------- --<br>---------- -- -------- ----------------,129517.5,129516.89999997616,129164.752,129173.60000002384,129181.417,129531.387,,11,writing
screen,html.Screen,0_4_1_0_1_12,2021-11-19T11:18:38.188Z,,,,,,,,,,,,,,,,11,,,,,,,,,,,,,,345.31300004768127,,response,,,4,D,,,,,Space,keypress(Space),,,,silence,----- -- ---- --- -- --- -------- ------------ ---------- --<br>- ------- system --------- -- ------------ -- --- ---- -----<br>------ ---- ---- ------ ------ ------- --- ----- ---------<br>---- --- -------- -------- --- --- -- ------- --- --- -----<br>-- --- ------ ------- --- --- -------- ---- --------- --<br>---------- -- -------- ----------------,129877.5,129876.70000004768,129514.722,129517.70000004768,129531.387,129881.373,,12,system
screen,html.Screen,0_4_1_0_1_13,2021-11-19T11:18:38.548Z,,,,,,,,,,,,,,,,11,,,,,,,,,,,,,,355.32700004767685,,response,,,4,D,,,,,Space,keypress(Space),,,,silence,----- -- ---- --- -- --- -------- ------------ ---------- --<br>- ------- ------ comprised -- ------------ -- --- ---- -----<br>------ ---- ---- ------ ------ ------- --- ----- ---------<br>---- --- -------- -------- --- --- -- ------- --- --- -----<br>-- --- ------ ------- --- --- -------- ---- --------- --<br>---------- -- -------- ----------------,130237.39999997616,130236.70000004768,129864.708,129877.60000002384,129881.373,130248.01,,13,comprised
screen,html.Screen,0_4_1_0_1_14,2021-11-19T11:18:38.964Z,,,,,,,,,,,,,,,,11,,,,,,,,,,,,,,404.69000004768895,,response,,,4,D,,,,,Space,keypress(Space),,,,silence,----- -- ---- --- -- --- -------- ------------ ---------- --<br>- ------- ------ --------- of ------------ -- --- ---- -----<br>------ ---- ---- ------ ------ ------- --- ----- ---------<br>---- --- -------- -------- --- --- -- ------- --- --- -----<br>-- --- ------ ------- --- --- -------- ---- --------- --<br>---------- -- -------- ----------------,130653.29999995232,130652.70000004768,130231.345,130237.5,130248.01,130664.649,,14,of
screen,html.Screen,0_4_1_0_1_15,2021-11-19T11:18:39.340Z,,,,,,,,,,,,,,,,11,,,,,,,,,,,,,,364.0510000476788,,response,,,4,D,,,,,Space,keypress(Space),,,,silence,----- -- ---- --- -- --- -------- ------------ ---------- --<br>- ------- ------ --------- -- pictographs. -- --- ---- -----<br>------ ---- ---- ------ ------ ------- --- ----- ---------<br>---- --- -------- -------- --- --- -- ------- --- --- -----<br>-- --- ------ ------- --- --- -------- ---- --------- --<br>---------- -- -------- ----------------,131029.29999995232,131028.70000004768,130647.984,130653.39999997616,130664.649,131031.147,,15,pictographs.
screen,html.Screen,0_4_1_0_1_16,2021-11-19T11:18:39.780Z,,,,,,,,,,,,,,,,11,,,,,,,,,,,,,,437.45300002384465,,response,,,4,D,,,,,Space,keypress(Space),,,,silence,----- -- ---- --- -- --- -------- ------------ ---------- --<br>- ------- ------ --------- -- ------------ It --- ---- -----<br>------ ---- ---- ------ ------ ------- --- ----- ---------<br>---- --- -------- -------- --- --- -- ------- --- --- -----<br>-- --- ------ ------- --- --- -------- ---- --------- --<br>---------- -- -------- ----------------,131469.29999995232,131468.60000002384,131014.484,131029.39999997616,131031.147,131481.361,,16,It
screen,html.Screen,0_4_1_0_1_17,2021-11-19T11:18:40.116Z,,,,,,,,,,,,,,,,11,,,,,,,,,,,,,,323.23900002383743,,response,,,4,D,,,,,Space,keypress(Space),,,,silence,----- -- ---- --- -- --- -------- ------------ ---------- --<br>- ------- ------ --------- -- ------------ -- has ---- -----<br>------ ---- ---- ------ ------ ------- --- ----- ---------<br>---- --- -------- -------- --- --- -- ------- --- --- -----<br>-- --- ------ ------- --- --- -------- ---- --------- --<br>---------- -- -------- ----------------,131805.20000004768,131804.60000002384,131464.694,131469.39999997616,131481.361,131814.59,,17,has
screen,html.Screen,0_4_1_0_1_18,2021-11-19T11:18:40.428Z,,,,,,,,,,,,,,,,11,,,,,,,,,,,,,,302.1100000476872,,response,,,4,D,,,,,Space,keypress(Space),,,,silence,----- -- ---- --- -- --- -------- ------------ ---------- --<br>- ------- ------ --------- -- ------------ -- --- been -----<br>------ ---- ---- ------ ------ ------- --- ----- ---------<br>---- --- -------- -------- --- --- -- ------- --- --- -----<br>-- --- ------ ------- --- --- -------- ---- --------- --<br>---------- -- -------- ----------------,132117.29999995232,132116.70000004768,131797.925,131805.39999997616,131814.59,132131.166,,18,been
screen,html.Screen,0_4_1_0_1_19,2021-11-19T11:18:40.660Z,,,,,,,,,,,,,,,,11,,,,,,,,,,,,,,217.43400002384442,,response,,,4,D,,,,,Space,keypress(Space),,,,silence,----- -- ---- --- -- --- -------- ------------ ---------- --<br>- ------- ------ --------- -- ------------ -- --- ---- found<br>------ ---- ---- ------ ------ ------- --- ----- ---------<br>---- --- -------- -------- --- --- -- ------- --- --- -----<br>-- --- ------ ------- --- --- -------- ---- --------- --<br>---------- -- -------- ----------------,132349.20000004768,132348.60000002384,132114.502,132117.5,132131.166,132364.583,,19,found
screen,html.Screen,0_4_1_0_1_20,2021-11-19T11:18:40.972Z,,,,,,,,,,,,,,,,11,,,,,,,,,,,,,,296.0170000238286,,response,,,4,D,,,,,Space,keypress(Space),,,,silence,----- -- ---- --- -- --- -------- ------------ ---------- --<br>- ------- ------ --------- -- ------------ -- --- ---- -----<br>carved ---- ---- ------ ------ ------- --- ----- ---------<br>---- --- -------- -------- --- --- -- ------- --- --- -----<br>-- --- ------ ------- --- --- -------- ---- --------- --<br>---------- -- -------- ----------------,132661.20000004768,132660.60000002384,132347.917,132349.39999997616,132364.583,132664.536,,20,carved
screen,html.Screen,0_4_1_0_1_21,2021-11-19T11:18:41.276Z,,,,,,,,,,,,,,,,11,,,,,,,,,,,,,,300.0640000238491,,response,,,4,D,,,,,Space,keypress(Space),,,,silence,----- -- ---- --- -- --- -------- ------------ ---------- --<br>- ------- ------ --------- -- ------------ -- --- ---- -----<br>------ into ---- ------ ------ ------- --- ----- ---------<br>---- --- -------- -------- --- --- -- ------- --- --- -----<br>-- --- ------ ------- --- --- -------- ---- --------- --<br>---------- -- -------- ----------------,132965.10000002384,132964.60000002384,132647.871,132661.39999997616,132664.536,132981.178,,21,into
screen,html.Screen,0_4_1_0_1_22,2021-11-19T11:18:41.532Z,,,,,,,,,,,,,,,,11,,,,,,,,,,,,,,239.42200002382742,,response,,,4,D,,,,,Space,keypress(Space),,,,silence,----- -- ---- --- -- --- -------- ------------ ---------- --<br>- ------- ------ --------- -- ------------ -- --- ---- -----<br>------ ---- many ------ ------ ------- --- ----- ---------<br>---- --- -------- -------- --- --- -- ------- --- --- -----<br>-- --- ------ ------- --- --- -------- ---- --------- --<br>---------- -- -------- ----------------,133221,133220.60000002384,132964.513,132965.29999995232,132981.178,133231.172,,22,many
screen,html.Screen,0_4_1_0_1_23,2021-11-19T11:18:41.852Z,,,,,,,,,,,,,,,,11,,,,,,,,,,,,,,309.3280000000086,,response,,,4,D,,,,,Space,keypress(Space),,,,silence,----- -- ---- --- -- --- -------- ------------ ---------- --<br>- ------- ------ --------- -- ------------ -- --- ---- -----<br>------ ---- ---- oblong ------ ------- --- ----- ---------<br>---- --- -------- -------- --- --- -- ------- --- --- -----<br>-- --- ------ ------- --- --- -------- ---- --------- --<br>---------- -- -------- ----------------,133541.20000004768,133540.5,133214.507,133221.29999995232,133231.172,133547.811,,23,oblong
screen,html.Screen,0_4_1_0_1_24,2021-11-19T11:18:42.204Z,,,,,,,,,,,,,,,,11,,,,,,,,,,,,,,344.68900000001304,,response,,,4,D,,,,,Space,keypress(Space),,,,silence,----- -- ---- --- -- --- -------- ------------ ---------- --<br>- ------- ------ --------- -- ------------ -- --- ---- -----<br>------ ---- ---- ------ wooden ------- --- ----- ---------<br>---- --- -------- -------- --- --- -- ------- --- --- -----<br>-- --- ------ ------- --- --- -------- ---- --------- --<br>---------- -- -------- ----------------,133893.20000004768,133892.5,133531.146,133541.39999997616,133547.811,133897.794,,24,wooden
screen,html.Screen,0_4_1_0_1_25,2021-11-19T11:18:42.588Z,,,,,,,,,,,,,,,,11,,,,,,,,,,,,,,378.7060000000056,,response,,,4,D,,,,,Space,keypress(Space),,,,silence,----- -- ---- --- -- --- -------- ------------ ---------- --<br>- ------- ------ --------- -- ------------ -- --- ---- -----<br>------ ---- ---- ------ ------ tablets --- ----- ---------<br>---- --- -------- -------- --- --- -- ------- --- --- -----<br>-- --- ------ ------- --- --- -------- ---- --------- --<br>---------- -- -------- ----------------,134277.10000002384,134276.5,133881.129,133893.39999997616,133897.794,134281.107,,25,tablets
screen,html.Screen,0_4_1_0_1_26,2021-11-19T11:18:42.900Z,,,,,,,,,,,,,,,,11,,,,,,,,,,,,,,307.39300000001094,,response,,,4,D,,,,,Space,keypress(Space),,,,silence,----- -- ---- --- -- --- -------- ------------ ---------- --<br>- ------- ------ --------- -- ------------ -- --- ---- -----<br>------ ---- ---- ------ ------ ------- and ----- ---------<br>---- --- -------- -------- --- --- -- ------- --- --- -----<br>-- --- ------ ------- --- --- -------- ---- --------- --<br>---------- -- -------- ----------------,134589.10000002384,134588.5,134264.442,134277.20000004768,134281.107,134597.758,,26,and
screen,html.Screen,0_4_1_0_1_27,2021-11-19T11:18:43.236Z,,,,,,,,,,,,,,,,11,,,,,,,,,,,,,,326.6419999761565,,response,,,4,D,,,,,Space,keypress(Space),,,,silence,----- -- ---- --- -- --- -------- ------------ ---------- --<br>- ------- ------ --------- -- ------------ -- --- ---- -----<br>------ ---- ---- ------ ------ ------- --- other ---------<br>---- --- -------- -------- --- --- -- ------- --- --- -----<br>-- --- ------ ------- --- --- -------- ---- --------- --<br>---------- -- -------- ----------------,134925,134924.39999997616,134581.093,134589.29999995232,134597.758,134931.017,,27,other
screen,html.Screen,0_4_1_0_1_28,2021-11-19T11:18:43.588Z,,,,,,,,,,,,,,,,11,,,,,,,,,,,,,,345.68300004769117,,response,,,4,D,,,,,Space,keypress(Space),,,,silence,----- -- ---- --- -- --- -------- ------------ ---------- --<br>- ------- ------ --------- -- ------------ -- --- ---- -----<br>------ ---- ---- ------ ------ ------- --- ----- artifacts<br>---- --- -------- -------- --- --- -- ------- --- --- -----<br>-- --- ------ ------- --- --- -------- ---- --------- --<br>---------- -- -------- ----------------,135277.29999995232,135276.70000004768,134914.353,134925.20000004768,134931.017,135281.078,,28,artifacts
screen,html.Screen,0_4_1_0_1_29,2021-11-19T11:18:43.868Z,,,,,,,,,,,,,,,,11,,,,,,,,,,,,,,275.3219999761495,,response,,,4,D,,,,,Space,keypress(Space),,,,silence,----- -- ---- --- -- --- -------- ------------ ---------- --<br>- ------- ------ --------- -- ------------ -- --- ---- -----<br>------ ---- ---- ------ ------ ------- --- ----- ---------<br>from --- -------- -------- --- --- -- ------- --- --- -----<br>-- --- ------ ------- --- --- -------- ---- --------- --<br>---------- -- -------- ----------------,135557,135556.39999997616,135264.412,135277.39999997616,135281.078,135564.264,,29,from
screen,html.Screen,0_4_1_0_1_30,2021-11-19T11:18:44.148Z,,,,,,,,,,,,,,,,11,,,,,,,,,,,,,,272.13599997616257,,response,,,4,D,,,,,Space,keypress(Space),,,,silence,----- -- ---- --- -- --- -------- ------------ ---------- --<br>- ------- ------ --------- -- ------------ -- --- ---- -----<br>------ ---- ---- ------ ------ ------- --- ----- ---------<br>---- the -------- -------- --- --- -- ------- --- --- -----<br>-- --- ------ ------- --- --- -------- ---- --------- --<br>---------- -- -------- ----------------,135836.89999997616,135836.39999997616,135547.601,135557.20000004768,135564.264,135847.589,,30,the
screen,html.Screen,0_4_1_0_1_31,2021-11-19T11:18:44.452Z,,,,,,,,,,,,,,,,11,,,,,,,,,,,,,,292.8109999761509,,response,,,4,D,,,,,Space,keypress(Space),,,,silence,----- -- ---- --- -- --- -------- ------------ ---------- --<br>- ------- ------ --------- -- ------------ -- --- ---- -----<br>------ ---- ---- ------ ------ ------- --- ----- ---------<br>---- --- island's -------- --- --- -- ------- --- --- -----<br>-- --- ------ ------- --- --- -------- ---- --------- --<br>---------- -- -------- ----------------,136141,136140.39999997616,135830.925,135837.10000002384,135847.589,136147.712,,31,island's
screen,html.Screen,0_4_1_0_1_32,2021-11-19T11:18:44.748Z,,,,,,,,,,,,,,,,11,,,,,,,,,,,,,,288.58799995231675,,response,,,4,D,,,,,Space,keypress(Space),,,,silence,----- -- ---- --- -- --- -------- ------------ ---------- --<br>- ------- ------ --------- -- ------------ -- --- ---- -----<br>------ ---- ---- ------ ------ ------- --- ----- ---------<br>---- --- -------- history. --- --- -- ------- --- --- -----<br>-- --- ------ ------- --- --- -------- ---- --------- --<br>---------- -- -------- ----------------,136437,136436.29999995232,136131.044,136141.10000002384,136147.712,136447.578,,32,history.
screen,html.Screen,0_4_1_0_1_33,2021-11-19T11:18:45.132Z,,,,,,,,,,,,,,,,11,,,,,,,,,,,,,,372.72199995230767,,response,,,4,D,,,,,Space,keypress(Space),,,,silence,----- -- ---- --- -- --- -------- ------------ ---------- --<br>- ------- ------ --------- -- ------------ -- --- ---- -----<br>------ ---- ---- ------ ------ ------- --- ----- ---------<br>---- --- -------- -------- The --- -- ------- --- --- -----<br>-- --- ------ ------- --- --- -------- ---- --------- --<br>---------- -- -------- ----------------,136820.89999997616,136820.29999995232,136430.914,136437.10000002384,136447.578,136830.924,,33,The
screen,html.Screen,0_4_1_0_1_34,2021-11-19T11:18:45.444Z,,,,,,,,,,,,,,,,11,,,,,,,,,,,,,,301.4759999761591,,response,,,4,D,,,,,Space,keypress(Space),,,,silence,----- -- ---- --- -- --- -------- ------------ ---------- --<br>- ------- ------ --------- -- ------------ -- --- ---- -----<br>------ ---- ---- ------ ------ ------- --- ----- ---------<br>---- --- -------- -------- --- art -- ------- --- --- -----<br>-- --- ------ ------- --- --- -------- ---- --------- --<br>---------- -- -------- ----------------,137133,137132.39999997616,136814.259,136821.10000002384,136830.924,137147.644,,34,art
screen,html.Screen,0_4_1_0_1_35,2021-11-19T11:18:45.748Z,,,,,,,,,,,,,,,,11,,,,,,,,,,,,,,288.7559999761579,,response,,,4,D,,,,,Space,keypress(Space),,,,silence,----- -- ---- --- -- --- -------- ------------ ---------- --<br>- ------- ------ --------- -- ------------ -- --- ---- -----<br>------ ---- ---- ------ ------ ------- --- ----- ---------<br>---- --- -------- -------- --- --- of ------- --- --- -----<br>-- --- ------ ------- --- --- -------- ---- --------- --<br>---------- -- -------- ----------------,137437,137436.39999997616,137130.978,137133.20000004768,137147.644,137447.586,,35,of
screen,html.Screen,0_4_1_0_1_36,2021-11-19T11:18:46.060Z,,,,,,,,,,,,,,,,11,,,,,,,,,,,,,,300.71399995230604,,response,,,4,D,,,,,Space,keypress(Space),,,,silence,----- -- ---- --- -- --- -------- ------------ ---------- --<br>- ------- ------ --------- -- ------------ -- --- ---- -----<br>------ ---- ---- ------ ------ ------- --- ----- ---------<br>---- --- -------- -------- --- --- -- writing --- --- -----<br>-- --- ------ ------- --- --- -------- ---- --------- --<br>---------- -- -------- ----------------,137748.79999995232,137748.29999995232,137430.921,137437.20000004768,137447.586,137764.133,,36,writing
screen,html.Screen,0_4_1_0_1_37,2021-11-19T11:18:46.348Z,,,,,,,,,,,,,,,,11,,,,,,,,,,,,,,272.0670000476821,,response,,,4,D,,,,,Space,keypress(Space),,,,silence,----- -- ---- --- -- --- -------- ------------ ---------- --<br>- ------- ------ --------- -- ------------ -- --- ---- -----<br>------ ---- ---- ------ ------ ------- --- ----- ---------<br>---- --- -------- -------- --- --- -- ------- was --- -----<br>-- --- ------ ------- --- --- -------- ---- --------- --<br>---------- -- -------- ----------------,138036.79999995232,138036.20000004768,137747.47,137748.89999997616,137764.133,138047.569,,37,was
screen,html.Screen,0_4_1_0_1_38,2021-11-19T11:18:46.668Z,,,,,,,,,,,,,,,,11,,,,,,,,,,,,,,308.7309999523277,,response,,,4,D,,,,,Space,keypress(Space),,,,silence,----- -- ---- --- -- --- -------- ------------ ---------- --<br>- ------- ------ --------- -- ------------ -- --- ---- -----<br>------ ---- ---- ------ ------ ------- --- ----- ---------<br>---- --- -------- -------- --- --- -- ------- --- not -----<br>-- --- ------ ------- --- --- -------- ---- --------- --<br>---------- -- -------- ----------------,138356.89999997616,138356.29999995232,138030.903,138036.89999997616,138047.569,138364.126,,38,not
screen,html.Screen,0_4_1_0_1_39,2021-11-19T11:18:47.004Z,,,,,,,,,,,,,,,,11,,,,,,,,,,,,,,328.173999952327,,response,,,4,D,,,,,Space,keypress(Space),,,,silence,----- -- ---- --- -- --- -------- ------------ ---------- --<br>- ------- ------ --------- -- ------------ -- --- ---- -----<br>------ ---- ---- ------ ------ ------- --- ----- ---------<br>---- --- -------- -------- --- --- -- ------- --- --- known<br>-- --- ------ ------- --- --- -------- ---- --------- --<br>---------- -- -------- ----------------,138692.79999995232,138692.29999995232,138347.462,138357,138364.126,138697.473,,39,known
screen,html.Screen,0_4_1_0_1_40,2021-11-19T11:18:47.300Z,,,,,,,,,,,,,,,,11,,,,,,,,,,,,,,290.7270000476856,,response,,,4,D,,,,,Space,keypress(Space),,,,silence,----- -- ---- --- -- --- -------- ------------ ---------- --<br>- ------- ------ --------- -- ------------ -- --- ---- -----<br>------ ---- ---- ------ ------ ------- --- ----- ---------<br>---- --- -------- -------- --- --- -- ------- --- --- -----<br>in --- ------ ------- --- --- -------- ---- --------- --<br>---------- -- -------- ----------------,138988.89999997616,138988.20000004768,138680.808,138693,138697.473,138997.517,,40,in
screen,html.Screen,0_4_1_0_1_41,2021-11-19T11:18:47.596Z,,,,,,,,,,,,,,,,11,,,,,,,,,,,,,,286.68300004769117,,response,,,4,D,,,,,Space,keypress(Space),,,,silence,----- -- ---- --- -- --- -------- ------------ ---------- --<br>- ------- ------ --------- -- ------------ -- --- ---- -----<br>------ ---- ---- ------ ------ ------- --- ----- ---------<br>---- --- -------- -------- --- --- -- ------- --- --- -----<br>-- any ------ ------- --- --- -------- ---- --------- --<br>---------- -- -------- ----------------,139284.79999995232,139284.20000004768,138980.851,138988.89999997616,138997.517,139297.405,,41,any
screen,html.Screen,0_4_1_0_1_42,2021-11-19T11:18:47.860Z,,,,,,,,,,,,,,,,11,,,,,,,,,,,,,,250.69500002384302,,response,,,4,D,,,,,Space,keypress(Space),,,,silence,----- -- ---- --- -- --- -------- ------------ ---------- --<br>- ------- ------ --------- -- ------------ -- --- ---- -----<br>------ ---- ---- ------ ------ ------- --- ----- ---------<br>---- --- -------- -------- --- --- -- ------- --- --- -----<br>-- --- nearby ------- --- --- -------- ---- --------- --<br>---------- -- -------- ----------------,139549,139548.10000002384,139280.741,139284.89999997616,139297.405,139564.088,,42,nearby
screen,html.Screen,0_4_1_0_1_43,2021-11-19T11:18:48.140Z,,,,,,,,,,,,,,,,11,,,,,,,,,,,,,,264.1120000476949,,response,,,4,D,,,,,Space,keypress(Space),,,,silence,----- -- ---- --- -- --- -------- ------------ ---------- --<br>- ------- ------ --------- -- ------------ -- --- ---- -----<br>------ ---- ---- ------ ------ ------- --- ----- ---------<br>---- --- -------- -------- --- --- -- ------- --- --- -----<br>-- --- ------ islands --- --- -------- ---- --------- --<br>---------- -- -------- ----------------,139828.89999997616,139828.20000004768,139547.423,139549.20000004768,139564.088,139830.744,,43,islands
screen,html.Screen,0_4_1_0_1_44,2021-11-19T11:18:48.428Z,,,,,,,,,,,,,,,,11,,,,,,,,,,,,,,285.45600004767766,,response,,,4,D,,,,,Space,keypress(Space),,,,silence,----- -- ---- --- -- --- -------- ------------ ---------- --<br>- ------- ------ --------- -- ------------ -- --- ---- -----<br>------ ---- ---- ------ ------ ------- --- ----- ---------<br>---- --- -------- -------- --- --- -- ------- --- --- -----<br>-- --- ------ ------- and --- -------- ---- --------- --<br>---------- -- -------- ----------------,140116.79999995232,140116.20000004768,139814.079,139829.10000002384,139830.744,140130.784,,44,and
screen,html.Screen,0_4_1_0_1_45,2021-11-19T11:18:48.732Z,,,,,,,,,,,,,,,,11,,,,,,,,,,,,,,289.31600002382766,,response,,,4,D,,,,,Space,keypress(Space),,,,silence,----- -- ---- --- -- --- -------- ------------ ---------- --<br>- ------- ------ --------- -- ------------ -- --- ---- -----<br>------ ---- ---- ------ ------ ------- --- ----- ---------<br>---- --- -------- -------- --- --- -- ------- --- --- -----<br>-- --- ------ ------- --- the -------- ---- --------- --<br>---------- -- -------- ----------------,140420.70000004768,140420.10000002384,140114.118,140117.10000002384,140130.784,140430.724,,45,the
screen,html.Screen,0_4_1_0_1_46,2021-11-19T11:18:48.987Z,,,,,,,,,,,,,,,,11,,,,,,,,,,,,,,245.37600002385443,,response,,,4,D,,,,,Space,keypress(Space),,,,silence,----- -- ---- --- -- --- -------- ------------ ---------- --<br>- ------- ------ --------- -- ------------ -- --- ---- -----<br>------ ---- ---- ------ ------ ------- --- ----- ---------<br>---- --- -------- -------- --- --- -- ------- --- --- -----<br>-- --- ------ ------- --- --- script's ---- --------- --<br>---------- -- -------- ----------------,140676.70000004768,140676.10000002384,140414.059,140421,140430.724,140680.709,,46,script's
screen,html.Screen,0_4_1_0_1_47,2021-11-19T11:18:49.299Z,,,,,,,,,,,,,,,,11,,,,,,,,,,,,,,307.29099999999744,,response,,,4,D,,,,,Space,keypress(Space),,,,silence,----- -- ---- --- -- --- -------- ------------ ---------- --<br>- ------- ------ --------- -- ------------ -- --- ---- -----<br>------ ---- ---- ------ ------ ------- --- ----- ---------<br>---- --- -------- -------- --- --- -- ------- --- --- -----<br>-- --- ------ ------- --- --- -------- mere --------- --<br>---------- -- -------- ----------------,140988.70000004768,140988,140664.044,140678.10000002384,140680.709,140997.359,,47,mere
screen,html.Screen,0_4_1_0_1_48,2021-11-19T11:18:49.587Z,,,,,,,,,,,,,,,,11,,,,,,,,,,,,,,278.7410000238451,,response,,,4,D,,,,,Space,keypress(Space),,,,silence,----- -- ---- --- -- --- -------- ------------ ---------- --<br>- ------- ------ --------- -- ------------ -- --- ---- -----<br>------ ---- ---- ------ ------ ------- --- ----- ---------<br>---- --- -------- -------- --- --- -- ------- --- --- -----<br>-- --- ------ ------- --- --- -------- ---- existence --<br>---------- -- -------- ----------------,141276.70000004768,141276.10000002384,140980.694,140988.79999995232,140997.359,141280.567,,48,existence
screen,html.Screen,0_4_1_0_1_49,2021-11-19T11:18:50.035Z,,,,,,,,,,,,,,,,11,,,,,,,,,,,,,,443.53300002383185,,response,,,4,D,,,,,Space,keypress(Space),,,,silence,----- -- ---- --- -- --- -------- ------------ ---------- --<br>- ------- ------ --------- -- ------------ -- --- ---- -----<br>------ ---- ---- ------ ------ ------- --- ----- ---------<br>---- --- -------- -------- --- --- -- ------- --- --- -----<br>-- --- ------ ------- --- --- -------- ---- --------- is<br>---------- -- -------- ----------------,141724.70000004768,141724.10000002384,141263.904,141276.89999997616,141280.567,141730.651,,49,is
screen,html.Screen,0_4_1_0_1_50,2021-11-19T11:18:50.467Z,,,,,,,,,,,,,,,,11,,,,,,,,,,,,,,425.4490000238293,,response,,,4,D,,,,,Space,keypress(Space),,,,silence,----- -- ---- --- -- --- -------- ------------ ---------- --<br>- ------- ------ --------- -- ------------ -- --- ---- -----<br>------ ---- ---- ------ ------ ------- --- ----- ---------<br>---- --- -------- -------- --- --- -- ------- --- --- -----<br>-- --- ------ ------- --- --- -------- ---- --------- --<br>sufficient -- -------- ----------------,142156.70000004768,142156.10000002384,141713.985,141724.79999995232,141730.651,142164.008,,50,sufficient
screen,html.Screen,0_4_1_0_1_51,2021-11-19T11:18:50.723Z,,,,,,,,,,,,,,,,11,,,,,,,,,,,,,,247.99199999999837,,response,,,4,D,,,,,Space,keypress(Space),,,,silence,----- -- ---- --- -- --- -------- ------------ ---------- --<br>- ------- ------ --------- -- ------------ -- --- ---- -----<br>------ ---- ---- ------ ------ ------- --- ----- ---------<br>---- --- -------- -------- --- --- -- ------- --- --- -----<br>-- --- ------ ------- --- --- -------- ---- --------- --<br>---------- to -------- ----------------,142412.70000004768,142412,142147.342,142156.89999997616,142164.008,142413.935,,51,to
