sender,sender_type,sender_id,timestamp,meta,,Blues,Classical,Country,Dance,Electronic,Folk,Gospel,Hip-Hop,Jazz,Latin,Musical/Film,New-age,Pop,Provo_ID,R&B,Rap,Reggae,Religious,Rock,Soul,Swing,Traditional,age,artist_name,correct,correctResponse,distraction,duration,education,ended_on,familiarity,gender,item,list,music_frequency,offensiveness,pleasantness,preference,response,response_action,snippet_file,song_name,song_rating,sound,text,time_commit,time_end,time_render,time_run,time_show,time_switch,url,word,word_ID
Instructions,html.Page,0_0,2021-11-19T13:55:53.675Z,"{""labjs_version"":""20.2.3"",""labjs_build"":{""flavor"":""production"",""commit"":""7ea907d66ca8aeef8054924ca5d82ffbe11e34e5""},""location"":""https://run.pavlovia.org/mvasilev/lab_music_b/"",""userAgent"":""Mozilla/5.0 (Windows NT 6.1; Win64; x64) AppleWebKit/537.36 (KHTML, like Gecko) Chrome/96.0.4664.45 Safari/537.36"",""platform"":""Win32"",""language"":""en-US"",""locale"":""en-US"",""timeZone"":""Europe/London"",""timezoneOffset"":0,""screen_width"":1920,""screen_height"":1080,""scroll_width"":1920,""scroll_height"":959,""window_innerWidth"":1920,""window_innerHeight"":1007,""devicePixelRatio"":1}",,,,,,,,,,,,,,,,,,,,,,,,,,,,,27280.706999928472,,form submission,,,,,,,,,,,,,,,,40386.39999997616,40385.199999928474,13087.822,13093.699999928474,13104.493,40394.918,{},,
Headphones,html.Page,0_1,2021-11-19T13:55:53.853Z,,,,,,,,,,,,,,,,,,,,,,,,,,,,,,169.08200000000215,,form submission,,,,,,,,,,,,,,,,40564.39999997616,40564,40378.233,40387,40394.918,40577.839,,,
Holding screen,html.Screen,0_2_0_0,2021-11-19T13:56:03.860Z,,,,,,,,,,,,,,,,,,,,,,,,,,,,,,10002.239000000001,,timeout,,,,,,,,,,,,,,,,50571.5,50563.409,40561.169,40564.89999997616,40577.839,50580.078,,,
screen,html.Screen,0_2_0_1_0,2021-11-19T13:56:06.293Z,,,,,,,,,,,,,,,,53,,,,,,,,,,,,,,2422.321999976157,,response,,,99,,,,,,Space,keypress(Space),,,,,When -- ----- -- ------ - ------- --- ----------<br>------------- ------ ------ ---- ---- ------- ----- -- ----<br>-------- ------- -- ---------- --- - --- ----- ----- ----<br>---- --- --- ----- --- ---- ---- ------- ----- ---- -------<br>--- --- -- ----- -- --- ---- -- --- ---- -- ------ ------<br>--- ----- -- ----,53003.799999952316,53002.39999997616,50563.409,50572,50580.078,53014.26,,0,When
screen,html.Screen,0_2_0_1_1,2021-11-19T13:56:07.004Z,,,,,,,,,,,,,,,,53,,,,,,,,,,,,,,699.739999999998,,response,,,99,,,,,,Space,keypress(Space),,,,,---- it ----- -- ------ - ------- --- ----------<br>------------- ------ ------ ---- ---- ------- ----- -- ----<br>-------- ------- -- ---------- --- - --- ----- ----- ----<br>---- --- --- ----- --- ---- ---- ------- ----- ---- -------<br>--- --- -- ----- -- --- ---- -- --- ---- -- ------ ------<br>--- ----- -- ----,53715,53714,52997.589,53004.199999928474,53014.26,53731.028,,1,it
screen,html.Screen,0_2_0_1_2,2021-11-19T13:56:07.660Z,,,,,,,,,,,,,,,,53,,,,,,,,,,,,,,638.9720000000016,,response,,,99,,,,,,Space,keypress(Space),,,,,---- -- comes -- ------ - ------- --- ----------<br>------------- ------ ------ ---- ---- ------- ----- -- ----<br>-------- ------- -- ---------- --- - --- ----- ----- ----<br>---- --- --- ----- --- ---- ---- ------- ----- ---- -------<br>--- --- -- ----- -- --- ---- -- --- ---- -- ------ ------<br>--- ----- -- ----,54370.89999997616,54370,53714.358,53715.299999952316,53731.028,54381.162,,2,comes
screen,html.Screen,0_2_0_1_3,2021-11-19T13:56:08.356Z,,,,,,,,,,,,,,,,53,,,,,,,,,,,,,,684.7379999761615,,response,,,99,,,,,,Space,keypress(Space),,,,,---- -- ----- to ------ - ------- --- ----------<br>------------- ------ ------ ---- ---- ------- ----- -- ----<br>-------- ------- -- ---------- --- - --- ----- ----- ----<br>---- --- --- ----- --- ---- ---- ------- ----- ---- -------<br>--- --- -- ----- -- --- ---- -- --- ---- -- ------ ------<br>--- ----- -- ----,55066.89999997616,55065.89999997616,54364.492,54371.299999952316,54381.162,55081.432,,3,to
screen,html.Screen,0_2_0_1_4,2021-11-19T13:56:09.092Z,,,,,,,,,,,,,,,,53,,,,,,,,,,,,,,720.4679999761574,,response,,,99,,,,,,Space,keypress(Space),,,,,---- -- ----- -- having - ------- --- ----------<br>------------- ------ ------ ---- ---- ------- ----- -- ----<br>-------- ------- -- ---------- --- - --- ----- ----- ----<br>---- --- --- ----- --- ---- ---- ------- ----- ---- -------<br>--- --- -- ----- -- --- ---- -- --- ---- -- ------ ------<br>--- ----- -- ----,55803,55801.89999997616,55064.761,55067.5,55081.432,55814.879,,4,having
screen,html.Screen,0_2_0_1_5,2021-11-19T13:56:09.595Z,,,,,,,,,,,,,,,,53,,,,,,,,,,,,,,491.0209999761573,,response,,,99,,,,,,Space,keypress(Space),,,,,---- -- ----- -- ------ a ------- --- ----------<br>------------- ------ ------ ---- ---- ------- ----- -- ----<br>-------- ------- -- ---------- --- - --- ----- ----- ----<br>---- --- --- ----- --- ---- ---- ------- ----- ---- -------<br>--- --- -- ----- -- --- ---- -- --- ---- -- ------ ------<br>--- ----- -- ----,56306.799999952316,56305.89999997616,55798.209,55803.299999952316,55814.879,56314.988,,5,a
screen,html.Screen,0_2_0_1_6,2021-11-19T13:56:10.483Z,,,,,,,,,,,,,,,,53,,,,,,,,,,,,,,878.8119999523187,,response,,,99,,,,,,Space,keypress(Space),,,,,---- -- ----- -- ------ - lasting --- ----------<br>------------- ------ ------ ---- ---- ------- ----- -- ----<br>-------- ------- -- ---------- --- - --- ----- ----- ----<br>---- --- --- ----- --- ---- ---- ------- ----- ---- -------<br>--- --- -- ----- -- --- ---- -- --- ---- -- ------ ------<br>--- ----- -- ----,57194.59999990463,57193.799999952316,56298.318,56307.199999928474,56314.988,57198.553,,6,lasting
screen,html.Screen,0_2_0_1_7,2021-11-19T13:56:11.140Z,,,,,,,,,,,,,,,,53,,,,,,,,,,,,,,651.1469999284745,,response,,,99,,,,,,Space,keypress(Space),,,,,---- -- ----- -- ------ - ------- and ----------<br>------------- ------ ------ ---- ---- ------- ----- -- ----<br>-------- ------- -- ---------- --- - --- ----- ----- ----<br>---- --- --- ----- --- ---- ---- ------- ----- ---- -------<br>--- --- -- ----- -- --- ---- -- --- ---- -- ------ ------<br>--- ----- -- ----,57850.89999997616,57849.699999928474,57181.883,57195,57198.553,57865.356,,7,and
screen,html.Screen,0_2_0_1_8,2021-11-19T13:56:11.899Z,,,,,,,,,,,,,,,,53,,,,,,,,,,,,,,744.2439999046328,,response,,,99,,,,,,Space,keypress(Space),,,,,---- -- ----- -- ------ - ------- --- fulfilling<br>------------- ------ ------ ---- ---- ------- ----- -- ----<br>-------- ------- -- ---------- --- - --- ----- ----- ----<br>---- --- --- ----- --- ---- ---- ------- ----- ---- -------<br>--- --- -- ----- -- --- ---- -- --- ---- -- ------ ------<br>--- ----- -- ----,58610.699999928474,58609.59999990463,57848.686,57851.199999928474,57865.356,58615.559,,8,fulfilling
screen,html.Screen,0_2_0_1_9,2021-11-19T13:56:13.551Z,,,,,,,,,,,,,,,,53,,,,,,,,,,,,,,1641.940999999999,,response,,,99,,,,,,Space,keypress(Space),,,,,"---- -- ----- -- ------ - ------- --- ----------<br>relationship, ------ ------ ---- ---- ------- ----- -- ----<br>-------- ------- -- ---------- --- - --- ----- ----- ----<br>---- --- --- ----- --- ---- ---- ------- ----- ---- -------<br>--- --- -- ----- -- --- ---- -- --- ---- -- ------ ------<br>--- ----- -- ----",60258.5,60257.5,58598.889,58611,58615.559,60265.747,,9,"relationship,"
screen,html.Screen,0_2_0_1_10,2021-11-19T13:56:14.111Z,,,,,,,,,,,,,,,,53,,,,,,,,,,,,,,551.752999999997,,response,,,99,,,,,,Space,keypress(Space),,,,,---- -- ----- -- ------ - ------- --- ----------<br>------------- common ------ ---- ---- ------- ----- -- ----<br>-------- ------- -- ---------- --- - --- ----- ----- ----<br>---- --- --- ----- --- ---- ---- ------- ----- ---- -------<br>--- --- -- ----- -- --- ---- -- --- ---- -- ------ ------<br>--- ----- -- ----,60818.39999997616,60817.5,60249.078,60258.699999928474,60265.747,60832.86,,10,common
screen,html.Screen,0_2_0_1_11,2021-11-19T13:56:14.791Z,,,,,,,,,,,,,,,,53,,,,,,,,,,,,,,664.6399999999994,,response,,,99,,,,,,Space,keypress(Space),,,,,---- -- ----- -- ------ - ------- --- ----------<br>------------- ------ wisdom ---- ---- ------- ----- -- ----<br>-------- ------- -- ---------- --- - --- ----- ----- ----<br>---- --- --- ----- --- ---- ---- ------- ----- ---- -------<br>--- --- -- ----- -- --- ---- -- --- ---- -- ------ ------<br>--- ----- -- ----,61498.5,61497.5,60816.189,60818.699999928474,60832.86,61499.599,,11,wisdom
screen,html.Screen,0_2_0_1_12,2021-11-19T13:56:15.335Z,,,,,,,,,,,,,,,,53,,,,,,,,,,,,,,541.900999999998,,response,,,99,,,,,,Space,keypress(Space),,,,,---- -- ----- -- ------ - ------- --- ----------<br>------------- ------ ------ says ---- ------- ----- -- ----<br>-------- ------- -- ---------- --- - --- ----- ----- ----<br>---- --- --- ----- --- ---- ---- ------- ----- ---- -------<br>--- --- -- ----- -- --- ---- -- --- ---- -- ------ ------<br>--- ----- -- ----,62042.299999952316,62041.5,61482.929,61498.799999952316,61499.599,62049.74,,12,says
screen,html.Screen,0_2_0_1_13,2021-11-19T13:56:15.799Z,,,,,,,,,,,,,,,,53,,,,,,,,,,,,,,455.6599999761602,,response,,,99,,,,,,Space,keypress(Space),,,,,---- -- ----- -- ------ - ------- --- ----------<br>------------- ------ ------ ---- that ------- ----- -- ----<br>-------- ------- -- ---------- --- - --- ----- ----- ----<br>---- --- --- ----- --- ---- ---- ------- ----- ---- -------<br>--- --- -- ----- -- --- ---- -- --- ---- -- ------ ------<br>--- ----- -- ----,62506.299999952316,62505.39999997616,62033.07,62042.5,62049.74,62516.53,,13,that
screen,html.Screen,0_2_0_1_14,2021-11-19T13:56:16.311Z,,,,,,,,,,,,,,,,53,,,,,,,,,,,,,,501.06999990463373,,response,,,99,,,,,,Space,keypress(Space),,,,,---- -- ----- -- ------ - ------- --- ----------<br>------------- ------ ------ ---- ---- feeling ----- -- ----<br>-------- ------- -- ---------- --- - --- ----- ----- ----<br>---- --- --- ----- --- ---- ---- ------- ----- ---- -------<br>--- --- -- ----- -- --- ---- -- --- ---- -- ------ ------<br>--- ----- -- ----,63018.39999997616,63017.59999990463,62499.86,62506.5,62516.53,63033.284,,14,feeling
screen,html.Screen,0_2_0_1_15,2021-11-19T13:56:16.839Z,,,,,,,,,,,,,,,,53,,,,,,,,,,,,,,512.0159999523166,,response,,,99,,,,,,Space,keypress(Space),,,,,---- -- ----- -- ------ - ------- --- ----------<br>------------- ------ ------ ---- ---- ------- close -- ----<br>-------- ------- -- ---------- --- - --- ----- ----- ----<br>---- --- --- ----- --- ---- ---- ------- ----- ---- -------<br>--- --- -- ----- -- --- ---- -- --- ---- -- ------ ------<br>--- ----- -- ----,63546.09999990463,63545.299999952316,63016.614,63018.59999990463,63033.284,63550.153,,15,close
screen,html.Screen,0_2_0_1_16,2021-11-19T13:56:17.247Z,,,,,,,,,,,,,,,,53,,,,,,,,,,,,,,403.046999928476,,response,,,99,,,,,,Space,keypress(Space),,,,,---- -- ----- -- ------ - ------- --- ----------<br>------------- ------ ------ ---- ---- ------- ----- to ----<br>-------- ------- -- ---------- --- - --- ----- ----- ----<br>---- --- --- ----- --- ---- ---- ------- ----- ---- -------<br>--- --- -- ----- -- --- ---- -- --- ---- -- ------ ------<br>--- ----- -- ----,63954.09999990463,63953.199999928474,63533.482,63546.39999997616,63550.153,63966.841,,16,to
screen,html.Screen,0_2_0_1_17,2021-11-19T13:56:17.711Z,,,,,,,,,,,,,,,,53,,,,,,,,,,,,,,450.45899995231593,,response,,,99,,,,,,Space,keypress(Space),,,,,---- -- ----- -- ------ - ------- --- ----------<br>------------- ------ ------ ---- ---- ------- ----- -- your<br>-------- ------- -- ---------- --- - --- ----- ----- ----<br>---- --- --- ----- --- ---- ---- ------- ----- ---- -------<br>--- --- -- ----- -- --- ---- -- --- ---- -- ------ ------<br>--- ----- -- ----,64418.09999990463,64417.299999952316,63950.171,63954.39999997616,63966.841,64433.653,,17,your
screen,html.Screen,0_2_0_1_18,2021-11-19T13:56:18.215Z,,,,,,,,,,,,,,,,53,,,,,,,,,,,,,,487.546999928476,,response,,,99,,,,,,Space,keypress(Space),,,,,---- -- ----- -- ------ - ------- --- ----------<br>------------- ------ ------ ---- ---- ------- ----- -- ----<br>romantic ------- -- ---------- --- - --- ----- ----- ----<br>---- --- --- ----- --- ---- ---- ------- ----- ---- -------<br>--- --- -- ----- -- --- ---- -- --- ---- -- ------ ------<br>--- ----- -- ----,64922,64921.199999928474,64416.983,64418.39999997616,64433.653,64933.674,,18,romantic
screen,html.Screen,0_2_0_1_19,2021-11-19T13:56:18.727Z,,,,,,,,,,,,,,,,53,,,,,,,,,,,,,,499.52599992847536,,response,,,99,,,,,,Space,keypress(Space),,,,,---- -- ----- -- ------ - ------- --- ----------<br>------------- ------ ------ ---- ---- ------- ----- -- ----<br>-------- partner -- ---------- --- - --- ----- ----- ----<br>---- --- --- ----- --- ---- ---- ------- ----- ---- -------<br>--- --- -- ----- -- --- ---- -- --- ---- -- ------ ------<br>--- ----- -- ----,65434.09999990463,65433.199999928474,64917.005,64922.199999928474,64933.674,65450.625,,19,partner
screen,html.Screen,0_2_0_1_20,2021-11-19T13:56:19.199Z,,,,,,,,,,,,,,,,53,,,,,,,,,,,,,,454.5749999284744,,response,,,99,,,,,,Space,keypress(Space),,,,,---- -- ----- -- ------ - ------- --- ----------<br>------------- ------ ------ ---- ---- ------- ----- -- ----<br>-------- ------- is ---------- --- - --- ----- ----- ----<br>---- --- --- ----- --- ---- ---- ------- ----- ---- -------<br>--- --- -- ----- -- --- ---- -- --- ---- -- ------ ------<br>--- ----- -- ----,65906,65905.19999992847,65433.954,65434.5,65450.625,65917.347,,20,is
screen,html.Screen,0_2_0_1_21,2021-11-19T13:56:20.303Z,,,,,,,,,,,,,,,,53,,,,,,,,,,,,,,1091.7529999046383,,response,,,99,,,,,,Space,keypress(Space),,,,,---- -- ----- -- ------ - ------- --- ----------<br>------------- ------ ------ ---- ---- ------- ----- -- ----<br>-------- ------- -- paramount. --- - --- ----- ----- ----<br>---- --- --- ----- --- ---- ---- ------- ----- ---- -------<br>--- --- -- ----- -- --- ---- -- --- ---- -- ------ ------<br>--- ----- -- ----,67009.89999997616,67009.09999990463,65900.677,65906.19999992847,65917.347,67017.573,,21,paramount.
screen,html.Screen,0_2_0_1_22,2021-11-19T13:56:20.791Z,,,,,,,,,,,,,,,,53,,,,,,,,,,,,,,479.5269999046286,,response,,,99,,,,,,Space,keypress(Space),,,,,---- -- ----- -- ------ - ------- --- ----------<br>------------- ------ ------ ---- ---- ------- ----- -- ----<br>-------- ------- -- ---------- But - --- ----- ----- ----<br>---- --- --- ----- --- ---- ---- ------- ----- ---- -------<br>--- --- -- ----- -- --- ---- -- --- ---- -- ------ ------<br>--- ----- -- ----,67497.79999995232,67497.09999990463,67000.903,67010.39999997616,67017.573,67500.889,,22,But
screen,html.Screen,0_2_0_1_23,2021-11-19T13:56:21.247Z,,,,,,,,,,,,,,,,53,,,,,,,,,,,,,,452.1110000000044,,response,,,99,,,,,,Space,keypress(Space),,,,,---- -- ----- -- ------ - ------- --- ----------<br>------------- ------ ------ ---- ---- ------- ----- -- ----<br>-------- ------- -- ---------- --- a --- ----- ----- ----<br>---- --- --- ----- --- ---- ---- ------- ----- ---- -------<br>--- --- -- ----- -- --- ---- -- --- ---- -- ------ ------<br>--- ----- -- ----,67953.79999995232,67953,67484.22,67498.09999990463,67500.889,67967.82,,23,a
screen,html.Screen,0_2_0_1_24,2021-11-19T13:56:21.671Z,,,,,,,,,,,,,,,,53,,,,,,,,,,,,,,409.179999999993,,response,,,99,,,,,,Space,keypress(Space),,,,,---- -- ----- -- ------ - ------- --- ----------<br>------------- ------ ------ ---- ---- ------- ----- -- ----<br>-------- ------- -- ---------- --- - new ----- ----- ----<br>---- --- --- ----- --- ---- ---- ------- ----- ---- -------<br>--- --- -- ----- -- --- ---- -- --- ---- -- ------ ------<br>--- ----- -- ----,68377.79999995232,68377,67951.15,67954.09999990463,67967.82,68384.676,,24,new
screen,html.Screen,0_2_0_1_25,2021-11-19T13:56:22.159Z,,,,,,,,,,,,,,,,53,,,,,,,,,,,,,,480.2239999761514,,response,,,99,,,,,,Space,keypress(Space),,,,,---- -- ----- -- ------ - ------- --- ----------<br>------------- ------ ------ ---- ---- ------- ----- -- ----<br>-------- ------- -- ---------- --- - --- study ----- ----<br>---- --- --- ----- --- ---- ---- ------- ----- ---- -------<br>--- --- -- ----- -- --- ---- -- --- ---- -- ------ ------<br>--- ----- -- ----,68865.69999992847,68864.89999997616,68368.005,68378,68384.676,68868.054,,25,study
screen,html.Screen,0_2_0_1_26,2021-11-19T13:56:22.591Z,,,,,,,,,,,,,,,,53,,,,,,,,,,,,,,428.8459999761544,,response,,,99,,,,,,Space,keypress(Space),,,,,---- -- ----- -- ------ - ------- --- ----------<br>------------- ------ ------ ---- ---- ------- ----- -- ----<br>-------- ------- -- ---------- --- - --- ----- finds ----<br>---- --- --- ----- --- ---- ---- ------- ----- ---- -------<br>--- --- -- ----- -- --- ---- -- --- ---- -- ------ ------<br>--- ----- -- ----,69297.69999992847,69296.89999997616,68851.384,68866,68868.054,69301.358,,26,finds
screen,html.Screen,0_2_0_1_27,2021-11-19T13:56:23.014Z,,,,,,,,,,,,,,,,53,,,,,,,,,,,,,,419.54199997616524,,response,,,99,,,,,,Space,keypress(Space),,,,,---- -- ----- -- ------ - ------- --- ----------<br>------------- ------ ------ ---- ---- ------- ----- -- ----<br>-------- ------- -- ---------- --- - --- ----- ----- that<br>---- --- --- ----- --- ---- ---- ------- ----- ---- -------<br>--- --- -- ----- -- --- ---- -- --- ---- -- ------ ------<br>--- ----- -- ----,69721.59999990463,69720.89999997616,69284.69,69297.89999997616,69301.358,69735.023,,27,that
screen,html.Screen,0_2_0_1_28,2021-11-19T13:56:23.431Z,,,,,,,,,,,,,,,,53,,,,,,,,,,,,,,401.8769999761571,,response,,,99,,,,,,Space,keypress(Space),,,,,---- -- ----- -- ------ - ------- --- ----------<br>------------- ------ ------ ---- ---- ------- ----- -- ----<br>-------- ------- -- ---------- --- - --- ----- ----- ----<br>it's --- --- ----- --- ---- ---- ------- ----- ---- -------<br>--- --- -- ----- -- --- ---- -- --- ---- -- ------ ------<br>--- ----- -- ----,70137.69999992847,70136.89999997616,69718.351,69721.89999997616,69735.023,70151.72,,28,it's
screen,html.Screen,0_2_0_1_29,2021-11-19T13:56:23.903Z,,,,,,,,,,,,,,,,53,,,,,,,,,,,,,,457.0799999523151,,response,,,99,,,,,,Space,keypress(Space),,,,,---- -- ----- -- ------ - ------- --- ----------<br>------------- ------ ------ ---- ---- ------- ----- -- ----<br>-------- ------- -- ---------- --- - --- ----- ----- ----<br>---- not --- ----- --- ---- ---- ------- ----- ---- -------<br>--- --- -- ----- -- --- ---- -- --- ---- -- ------ ------<br>--- ----- -- ----,70609.69999992847,70608.79999995232,70135.05,70137.89999997616,70151.72,70618.477,,29,not
screen,html.Screen,0_2_0_1_30,2021-11-19T13:56:24.406Z,,,,,,,,,,,,,,,,53,,,,,,,,,,,,,,494.32299995231733,,response,,,99,,,,,,Space,keypress(Space),,,,,---- -- ----- -- ------ - ------- --- ----------<br>------------- ------ ------ ---- ---- ------- ----- -- ----<br>-------- ------- -- ---------- --- - --- ----- ----- ----<br>---- --- how ----- --- ---- ---- ------- ----- ---- -------<br>--- --- -- ----- -- --- ---- -- --- ---- -- ------ ------<br>--- ----- -- ----,71113.59999990463,71112.79999995232,70601.807,70609.79999995232,70618.477,71118.621,,30,how
screen,html.Screen,0_2_0_1_31,2021-11-19T13:56:24.847Z,,,,,,,,,,,,,,,,53,,,,,,,,,,,,,,434.07899992847524,,response,,,99,,,,,,Space,keypress(Space),,,,,---- -- ----- -- ------ - ------- --- ----------<br>------------- ------ ------ ---- ---- ------- ----- -- ----<br>-------- ------- -- ---------- --- - --- ----- ----- ----<br>---- --- --- close --- ---- ---- ------- ----- ---- -------<br>--- --- -- ----- -- --- ---- -- --- ---- -- ------ ------<br>--- ----- -- ----,71553.69999992847,71552.69999992847,71101.951,71113.79999995232,71118.621,71568.722,,31,close
screen,html.Screen,0_2_0_1_32,2021-11-19T13:56:25.358Z,,,,,,,,,,,,,,,,53,,,,,,,,,,,,,,495.97799992848013,,response,,,99,,,,,,Space,keypress(Space),,,,,---- -- ----- -- ------ - ------- --- ----------<br>------------- ------ ------ ---- ---- ------- ----- -- ----<br>-------- ------- -- ---------- --- - --- ----- ----- ----<br>---- --- --- ----- you ---- ---- ------- ----- ---- -------<br>--- --- -- ----- -- --- ---- -- --- ---- -- ------ ------<br>--- ----- -- ----,72065.59999990463,72064.69999992847,71552.052,71553.89999997616,71568.722,72068.745,,32,you
screen,html.Screen,0_2_0_1_33,2021-11-19T13:56:25.854Z,,,,,,,,,,,,,,,,53,,,,,,,,,,,,,,491.9549999284791,,response,,,99,,,,,,Space,keypress(Space),,,,,---- -- ----- -- ------ - ------- --- ----------<br>------------- ------ ------ ---- ---- ------- ----- -- ----<br>-------- ------- -- ---------- --- - --- ----- ----- ----<br>---- --- --- ----- --- feel ---- ------- ----- ---- -------<br>--- --- -- ----- -- --- ---- -- --- ---- -- ------ ------<br>--- ----- -- ----,72561.39999997616,72560.69999992847,72052.076,72065.89999997616,72068.745,72569.07,,33,feel
screen,html.Screen,0_2_0_1_34,2021-11-19T13:56:26.327Z,,,,,,,,,,,,,,,,53,,,,,,,,,,,,,,463.929999999993,,response,,,99,,,,,,Space,keypress(Space),,,,,---- -- ----- -- ------ - ------- --- ----------<br>------------- ------ ------ ---- ---- ------- ----- -- ----<br>-------- ------- -- ---------- --- - --- ----- ----- ----<br>---- --- --- ----- --- ---- that ------- ----- ---- -------<br>--- --- -- ----- -- --- ---- -- --- ---- -- ------ ------<br>--- ----- -- ----,73033.89999997616,73033,72552.398,72561.69999992847,72569.07,73035.72,,34,that
screen,html.Screen,0_2_0_1_35,2021-11-19T13:56:26.798Z,,,,,,,,,,,,,,,,53,,,,,,,,,,,,,,468.97999992847326,,response,,,99,,,,,,Space,keypress(Space),,,,,---- -- ----- -- ------ - ------- --- ----------<br>------------- ------ ------ ---- ---- ------- ----- -- ----<br>-------- ------- -- ---------- --- - --- ----- ----- ----<br>---- --- --- ----- --- ---- ---- matters ----- ---- -------<br>--- --- -- ----- -- --- ---- -- --- ---- -- ------ ------<br>--- ----- -- ----,73505.5,73504.69999992847,73019.05,73034.09999990463,73035.72,73519.203,,35,matters
screen,html.Screen,0_2_0_1_36,2021-11-19T13:56:27.822Z,,,,,,,,,,,,,,,,53,,,,,,,,,,,,,,1009.3969999046385,,response,,,99,,,,,,Space,keypress(Space),,,,,"---- -- ----- -- ------ - ------- --- ----------<br>------------- ------ ------ ---- ---- ------- ----- -- ----<br>-------- ------- -- ---------- --- - --- ----- ----- ----<br>---- --- --- ----- --- ---- ---- ------- most, ---- -------<br>--- --- -- ----- -- --- ---- -- --- ---- -- ------ ------<br>--- ----- -- ----",74529.5,74528.59999990463,73502.533,73505.59999990463,73519.203,74536.087,,36,"most,"
screen,html.Screen,0_2_0_1_37,2021-11-19T13:56:28.270Z,,,,,,,,,,,,,,,,53,,,,,,,,,,,,,,440.41300000000047,,response,,,99,,,,,,Space,keypress(Space),,,,,---- -- ----- -- ------ - ------- --- ----------<br>------------- ------ ------ ---- ---- ------- ----- -- ----<br>-------- ------- -- ---------- --- - --- ----- ----- ----<br>---- --- --- ----- --- ---- ---- ------- ----- it's -------<br>--- --- -- ----- -- --- ---- -- --- ---- -- ------ ------<br>--- ----- -- ----,74977.19999992847,74976.5,74519.417,74529.69999992847,74536.087,74985.961,,37,it's
screen,html.Screen,0_2_0_1_38,2021-11-19T13:56:28.742Z,,,,,,,,,,,,,,,,53,,,,,,,,,,,,,,462.5390000000043,,response,,,99,,,,,,Space,keypress(Space),,,,,---- -- ----- -- ------ - ------- --- ----------<br>------------- ------ ------ ---- ---- ------- ----- -- ----<br>-------- ------- -- ---------- --- - --- ----- ----- ----<br>---- --- --- ----- --- ---- ---- ------- ----- ---- whether<br>--- --- -- ----- -- --- ---- -- --- ---- -- ------ ------<br>--- ----- -- ----,75449.19999992847,75448.5,74969.293,74977.39999997616,74985.961,75453.05,,38,whether
screen,html.Screen,0_2_0_1_39,2021-11-19T13:56:29.270Z,,,,,,,,,,,,,,,,53,,,,,,,,,,,,,,523.3499999761552,,response,,,99,,,,,,Space,keypress(Space),,,,,---- -- ----- -- ------ - ------- --- ----------<br>------------- ------ ------ ---- ---- ------- ----- -- ----<br>-------- ------- -- ---------- --- - --- ----- ----- ----<br>---- --- --- ----- --- ---- ---- ------- ----- ---- -------<br>you --- -- ----- -- --- ---- -- --- ---- -- ------ ------<br>--- ----- -- ----,75977.09999990463,75976.39999997616,75436.379,75449.39999997616,75453.05,75986.306,,39,you
screen,html.Screen,0_2_0_1_40,2021-11-19T13:56:29.710Z,,,,,,,,,,,,,,,,53,,,,,,,,,,,,,,430.0939999761613,,response,,,99,,,,,,Space,keypress(Space),,,,,---- -- ----- -- ------ - ------- --- ----------<br>------------- ------ ------ ---- ---- ------- ----- -- ----<br>-------- ------- -- ---------- --- - --- ----- ----- ----<br>---- --- --- ----- --- ---- ---- ------- ----- ---- -------<br>--- are -- ----- -- --- ---- -- --- ---- -- ------ ------<br>--- ----- -- ----,76417.19999992847,76416.39999997616,75969.638,75977.29999995232,75986.306,76419.955,,40,are
screen,html.Screen,0_2_0_1_41,2021-11-19T13:56:30.278Z,,,,,,,,,,,,,,,,53,,,,,,,,,,,,,,564.3449999523145,,response,,,99,,,,,,Space,keypress(Space),,,,,---- -- ----- -- ------ - ------- --- ----------<br>------------- ------ ------ ---- ---- ------- ----- -- ----<br>-------- ------- -- ---------- --- - --- ----- ----- ----<br>---- --- --- ----- --- ---- ---- ------- ----- ---- -------<br>--- --- as ----- -- --- ---- -- --- ---- -- ------ ------<br>--- ----- -- ----,76985,76984.29999995232,76403.284,76417.39999997616,76419.955,76986.695,,41,as
screen,html.Screen,0_2_0_1_42,2021-11-19T13:56:30.726Z,,,,,,,,,,,,,,,,53,,,,,,,,,,,,,,445.6049999523093,,response,,,99,,,,,,Space,keypress(Space),,,,,---- -- ----- -- ------ - ------- --- ----------<br>------------- ------ ------ ---- ---- ------- ----- -- ----<br>-------- ------- -- ---------- --- - --- ----- ----- ----<br>---- --- --- ----- --- ---- ---- ------- ----- ---- -------<br>--- --- -- close -- --- ---- -- --- ---- -- ------ ------<br>--- ----- -- ----,77433,77432.29999995232,76970.025,76985.29999995232,76986.695,77436.827,,42,close
screen,html.Screen,0_2_0_1_43,2021-11-19T13:56:31.206Z,,,,,,,,,,,,,,,,53,,,,,,,,,,,,,,475.4729999523115,,response,,,99,,,,,,Space,keypress(Space),,,,,---- -- ----- -- ------ - ------- --- ----------<br>------------- ------ ------ ---- ---- ------- ----- -- ----<br>-------- ------- -- ---------- --- - --- ----- ----- ----<br>---- --- --- ----- --- ---- ---- ------- ----- ---- -------<br>--- --- -- ----- as --- ---- -- --- ---- -- ------ ------<br>--- ----- -- ----,77913.09999990463,77912.29999995232,77420.157,77433.19999992847,77436.827,77920.254,,43,as
screen,html.Screen,0_2_0_1_44,2021-11-19T13:56:31.854Z,,,,,,,,,,,,,,,,53,,,,,,,,,,,,,,640.0459999523155,,response,,,99,,,,,,Space,keypress(Space),,,,,---- -- ----- -- ------ - ------- --- ----------<br>------------- ------ ------ ---- ---- ------- ----- -- ----<br>-------- ------- -- ---------- --- - --- ----- ----- ----<br>---- --- --- ----- --- ---- ---- ------- ----- ---- -------<br>--- --- -- ----- -- you ---- -- --- ---- -- ------ ------<br>--- ----- -- ----,78561,78560.29999995232,77903.584,77913.29999995232,77920.254,78570.398,,44,you
screen,html.Screen,0_2_0_1_45,2021-11-19T13:56:32.358Z,,,,,,,,,,,,,,,,53,,,,,,,,,,,,,,493.8019999284734,,response,,,99,,,,,,Space,keypress(Space),,,,,---- -- ----- -- ------ - ------- --- ----------<br>------------- ------ ------ ---- ---- ------- ----- -- ----<br>-------- ------- -- ---------- --- - --- ----- ----- ----<br>---- --- --- ----- --- ---- ---- ------- ----- ---- -------<br>--- --- -- ----- -- --- want -- --- ---- -- ------ ------<br>--- ----- -- ----,79065,79064.19999992847,78553.728,78561.29999995232,78570.398,79070.549,,45,want
screen,html.Screen,0_2_0_1_46,2021-11-19T13:56:32.894Z,,,,,,,,,,,,,,,,53,,,,,,,,,,,,,,529.6509999284754,,response,,,99,,,,,,Space,keypress(Space),,,,,---- -- ----- -- ------ - ------- --- ----------<br>------------- ------ ------ ---- ---- ------- ----- -- ----<br>-------- ------- -- ---------- --- - --- ----- ----- ----<br>---- --- --- ----- --- ---- ---- ------- ----- ---- -------<br>--- --- -- ----- -- --- ---- to --- ---- -- ------ ------<br>--- ----- -- ----,79601,79600.19999992847,79053.879,79065.29999995232,79070.549,79604.002,,46,to
screen,html.Screen,0_2_0_1_47,2021-11-19T13:56:33.806Z,,,,,,,,,,,,,,,,53,,,,,,,,,,,,,,908.0979999046394,,response,,,99,,,,,,Space,keypress(Space),,,,,"---- -- ----- -- ------ - ------- --- ----------<br>------------- ------ ------ ---- ---- ------- ----- -- ----<br>-------- ------- -- ---------- --- - --- ----- ----- ----<br>---- --- --- ----- --- ---- ---- ------- ----- ---- -------<br>--- --- -- ----- -- --- ---- -- be, ---- -- ------ ------<br>--- ----- -- ----",80512.89999997616,80512.09999990463,79587.332,79601.29999995232,79604.002,80520.856,,47,"be,"
screen,html.Screen,0_2_0_1_48,2021-11-19T13:56:34.318Z,,,,,,,,,,,,,,,,53,,,,,,,,,,,,,,503.2439999046328,,response,,,99,,,,,,Space,keypress(Space),,,,,---- -- ----- -- ------ - ------- --- ----------<br>------------- ------ ------ ---- ---- ------- ----- -- ----<br>-------- ------- -- ---------- --- - --- ----- ----- ----<br>---- --- --- ----- --- ---- ---- ------- ----- ---- -------<br>--- --- -- ----- -- --- ---- -- --- even -- ------ ------<br>--- ----- -- ----,81024.89999997616,81024.09999990463,80504.186,80513.09999990463,80520.856,81037.701,,48,even
screen,html.Screen,0_2_0_1_49,2021-11-19T13:56:34.758Z,,,,,,,,,,,,,,,,53,,,,,,,,,,,,,,426.39899990463164,,response,,,99,,,,,,Space,keypress(Space),,,,,---- -- ----- -- ------ - ------- --- ----------<br>------------- ------ ------ ---- ---- ------- ----- -- ----<br>-------- ------- -- ---------- --- - --- ----- ----- ----<br>---- --- --- ----- --- ---- ---- ------- ----- ---- -------<br>--- --- -- ----- -- --- ---- -- --- ---- if ------ ------<br>--- ----- -- ----,81464.79999995232,81464.09999990463,81021.031,81025.09999990463,81037.701,81471.112,,49,if
screen,html.Screen,0_2_0_1_50,2021-11-19T13:56:35.254Z,,,,,,,,,,,,,,,,53,,,,,,,,,,,,,,488.8880000000063,,response,,,99,,,,,,Space,keypress(Space),,,,,---- -- ----- -- ------ - ------- --- ----------<br>------------- ------ ------ ---- ---- ------- ----- -- ----<br>-------- ------- -- ---------- --- - --- ----- ----- ----<br>---- --- --- ----- --- ---- ---- ------- ----- ---- -------<br>--- --- -- ----- -- --- ---- -- --- ---- -- that's ------<br>--- ----- -- ----,81960.79999995232,81960,81454.442,81465,81471.112,81971.257,,50,that's
screen,html.Screen,0_2_0_1_51,2021-11-19T13:56:35.782Z,,,,,,,,,,,,,,,,53,,,,,,,,,,,,,,516.8429999046348,,response,,,99,,,,,,Space,keypress(Space),,,,,---- -- ----- -- ------ - ------- --- ----------<br>------------- ------ ------ ---- ---- ------- ----- -- ----<br>-------- ------- -- ---------- --- - --- ----- ----- ----<br>---- --- --- ----- --- ---- ---- ------- ----- ---- -------<br>--- --- -- ----- -- --- ---- -- --- ---- -- ------ really<br>--- ----- -- ----,82488.79999995232,82488.09999990463,81954.587,81961,81971.257,82504.696,,51,really
screen,html.Screen,0_2_0_1_52,2021-11-19T13:56:36.301Z,,,,,,,,,,,,,,,,53,,,,,,,,,,,,,,502.9039999046363,,response,,,99,,,,,,Space,keypress(Space),,,,,---- -- ----- -- ------ - ------- --- ----------<br>------------- ------ ------ ---- ---- ------- ----- -- ----<br>-------- ------- -- ---------- --- - --- ----- ----- ----<br>---- --- --- ----- --- ---- ---- ------- ----- ---- -------<br>--- --- -- ----- -- --- ---- -- --- ---- -- ------ ------<br>not ----- -- ----,83008.19999992847,83007.59999990463,82488.026,82489,82504.696,83021.501,,52,not
screen,html.Screen,0_2_0_1_53,2021-11-19T13:56:36.670Z,,,,,,,,,,,,,,,,53,,,,,,,,,,,,,,354.6989999284706,,response,,,99,,,,,,Space,keypress(Space),,,,,---- -- ----- -- ------ - ------- --- ----------<br>------------- ------ ------ ---- ---- ------- ----- -- ----<br>-------- ------- -- ---------- --- - --- ----- ----- ----<br>---- --- --- ----- --- ---- ---- ------- ----- ---- -------<br>--- --- -- ----- -- --- ---- -- --- ---- -- ------ ------<br>--- close -- ----,83377,83376.19999992847,83004.831,83008.29999995232,83021.501,83388.228,,53,close
screen,html.Screen,0_2_0_1_54,2021-11-19T13:56:37.086Z,,,,,,,,,,,,,,,,53,,,,,,,,,,,,,,403.67199997615535,,response,,,99,,,,,,Space,keypress(Space),,,,,---- -- ----- -- ------ - ------- --- ----------<br>------------- ------ ------ ---- ---- ------- ----- -- ----<br>-------- ------- -- ---------- --- - --- ----- ----- ----<br>---- --- --- ----- --- ---- ---- ------- ----- ---- -------<br>--- --- -- ----- -- --- ---- -- --- ---- -- ------ ------<br>--- ----- at ----,83792.59999990463,83791.89999997616,83371.558,83377.19999992847,83388.228,83805.026,,54,at
screen,html.Screen,0_2_0_1_55,2021-11-19T13:56:37.549Z,,,,,,,,,,,,,,,,53,,,,,,,,,,,,,,450.77399995231826,,response,,,99,,,,,,Space,keypress(Space),,,,,---- -- ----- -- ------ - ------- --- ----------<br>------------- ------ ------ ---- ---- ------- ----- -- ----<br>-------- ------- -- ---------- --- - --- ----- ----- ----<br>---- --- --- ----- --- ---- ---- ------- ----- ---- -------<br>--- --- -- ----- -- --- ---- -- --- ---- -- ------ ------<br>--- ----- -- all.,84256.5,84255.79999995232,83788.356,83792.79999995232,83805.026,84271.853,,55,all.
Item 99,flow.Loop,0_2_0_1,2021-11-19T13:56:37.554Z,,,,,,,,,,,,,,,,,,,,,,,,,,,,,,33675.721999952315,,completion,,,,B,,,,,,,,,,silence,,84261.09999990463,84255.79999995232,50563.409,50571.89999997616,50580.078,84271.853,,,
Question 1,html.Screen,0_2_0_2,2021-11-19T13:56:46.605Z,,,,,,,,,,,,,,,,,,,,,,,,,,,true,FALSE,,9039.24699990463,,response,,,99,B,,,,,FALSE,click #choice-2,,,,silence,,93312.5,93311.09999990463,84255.182,84261.29999995232,84271.853,93324.08,,,
Question 2,html.Screen,0_2_0_3,2021-11-19T13:56:46.765Z,,,,,,,,,,,,,,,,,,,,,,,,,,,false,TRUE,,146.91999999999825,,response,,,99,B,,,,,FALSE,click #choice-2,,,,silence,,93472.29999995232,93471,93307.408,93312.79999995232,93324.08,93474.051,,,
Item 99,flow.Sequence,0_2_0,2021-11-19T13:56:46.766Z,,,,,,,,,,,,,,,,,,,,,,,,,,,,,,52893.161,,completion,,,,,,,,,,,,,,,,93472.69999992847,93471,40561.169,40564.799999952316,40577.839,93474.051,,,
Holding screen,html.Screen,0_2_1_0,2021-11-19T13:56:56.754Z,,,,,,,,,,,,,,,,,,,,,,,,,,,,,,10002.341,,timeout,,,,,,,,,,,,,,,,103460.69999992847,103459.722,93457.381,93473,93474.051,103476.392,,,
screen,html.Screen,0_2_1_1_0,2021-11-19T13:56:58.172Z,,,,,,,,,,,,,,,,54,,,,,,,,,,,,,,1402.3079999284673,,response,,,100,,,,,,Space,keypress(Space),,,,,At --- ---- --- ------ ----- ------- ---- -- --- ------- --<br>------- ---------- ------ -- ----- -- ----- -- ---- ------<br>--- ----- --- --- ------ -------- ----- --- ------ ----- --<br>----- ----- ---------- --- --- ------ ------ ---- -- ------<br>------- --- ------ ----- --- ---- ------- -- ---- --- --<br>------- ------,104879.59999990463,104878.69999992847,103459.722,103461.29999995232,103476.392,104893.55,,0,At
screen,html.Screen,0_2_1_1_1,2021-11-19T13:56:58.596Z,,,,,,,,,,,,,,,,54,,,,,,,,,,,,,,408.9499999999971,,response,,,100,,,,,,Space,keypress(Space),,,,,-- the ---- --- ------ ----- ------- ---- -- --- ------- --<br>------- ---------- ------ -- ----- -- ----- -- ---- ------<br>--- ----- --- --- ------ -------- ----- --- ------ ----- --<br>----- ----- ---------- --- --- ------ ------ ---- -- ------<br>------- --- ------ ----- --- ---- ------- -- ---- --- --<br>------- ------,105303.19999992847,105302.5,104876.879,104879.89999997616,104893.55,105310.245,,1,the
screen,html.Screen,0_2_1_1_2,2021-11-19T13:56:59.156Z,,,,,,,,,,,,,,,,54,,,,,,,,,,,,,,552.0549999523209,,response,,,100,,,,,,Space,keypress(Space),,,,,-- --- time --- ------ ----- ------- ---- -- --- ------- --<br>------- ---------- ------ -- ----- -- ----- -- ---- ------<br>--- ----- --- --- ------ -------- ----- --- ------ ----- --<br>----- ----- ---------- --- --- ------ ------ ---- -- ------<br>------- --- ------ ----- --- ---- ------- -- ---- --- --<br>------- ------,105863.09999990463,105862.29999995232,105293.575,105303.39999997616,105310.245,105877.032,,2,time
screen,html.Screen,0_2_1_1_3,2021-11-19T13:56:59.668Z,,,,,,,,,,,,,,,,54,,,,,,,,,,,,,,497.26799995230976,,response,,,100,,,,,,Space,keypress(Space),,,,,-- --- ---- the ------ ----- ------- ---- -- --- ------- --<br>------- ---------- ------ -- ----- -- ----- -- ---- ------<br>--- ----- --- --- ------ -------- ----- --- ------ ----- --<br>----- ----- ---------- --- --- ------ ------ ---- -- ------<br>------- --- ------ ----- --- ---- ------- -- ---- --- --<br>------- ------,106375.09999990463,106374.29999995232,105860.362,105863.39999997616,105877.032,106377.167,,3,the
screen,html.Screen,0_2_1_1_4,2021-11-19T13:57:01.420Z,,,,,,,,,,,,,,,,54,,,,,,,,,,,,,,1749.132999952315,,response,,,100,,,,,,Space,keypress(Space),,,,,-- --- ---- --- French ----- ------- ---- -- --- ------- --<br>------- ---------- ------ -- ----- -- ----- -- ---- ------<br>--- ----- --- --- ------ -------- ----- --- ------ ----- --<br>----- ----- ---------- --- --- ------ ------ ---- -- ------<br>------- --- ------ ----- --- ---- ------- -- ---- --- --<br>------- ------,108127,108126.29999995232,106360.497,106375.29999995232,106377.167,108144.227,,4,French
screen,html.Screen,0_2_1_1_5,2021-11-19T13:57:01.948Z,,,,,,,,,,,,,,,,54,,,,,,,,,,,,,,509.9729999284755,,response,,,100,,,,,,Space,keypress(Space),,,,,-- --- ---- --- ------ crown ------- ---- -- --- ------- --<br>------- ---------- ------ -- ----- -- ----- -- ---- ------<br>--- ----- --- --- ------ -------- ----- --- ------ ----- --<br>----- ----- ---------- --- --- ------ ------ ---- -- ------<br>------- --- ------ ----- --- ---- ------- -- ---- --- --<br>------- ------,108654.89999997616,108654.19999992847,108127.557,108127.29999995232,108144.227,108661.043,,5,crown
screen,html.Screen,0_2_1_1_6,2021-11-19T13:57:02.420Z,,,,,,,,,,,,,,,,54,,,,,,,,,,,,,,465.05699990462745,,response,,,100,,,,,,Space,keypress(Space),,,,,-- --- ---- --- ------ ----- secured ---- -- --- ------- --<br>------- ---------- ------ -- ----- -- ----- -- ---- ------<br>--- ----- --- --- ------ -------- ----- --- ------ ----- --<br>----- ----- ---------- --- --- ------ ------ ---- -- ------<br>------- --- ------ ----- --- ---- ------- -- ---- --- --<br>------- ------,109126.89999997616,109126.09999990463,108644.373,108655.19999992847,108661.043,109144.443,,6,secured
screen,html.Screen,0_2_1_1_7,2021-11-19T13:57:02.812Z,,,,,,,,,,,,,,,,54,,,,,,,,,,,,,,374.15699990463327,,response,,,100,,,,,,Space,keypress(Space),,,,,-- --- ---- --- ------ ----- ------- much -- --- ------- --<br>------- ---------- ------ -- ----- -- ----- -- ---- ------<br>--- ----- --- --- ------ -------- ----- --- ------ ----- --<br>----- ----- ---------- --- --- ------ ------ ---- -- ------<br>------- --- ------ ----- --- ---- ------- -- ---- --- --<br>------- ------,109519.39999997616,109518.59999990463,109127.773,109127.19999992847,109144.443,109528.043,,7,much
screen,html.Screen,0_2_1_1_8,2021-11-19T13:57:03.220Z,,,,,,,,,,,,,,,,54,,,,,,,,,,,,,,398.05699990462745,,response,,,100,,,,,,Space,keypress(Space),,,,,-- --- ---- --- ------ ----- ------- ---- of --- ------- --<br>------- ---------- ------ -- ----- -- ----- -- ---- ------<br>--- ----- --- --- ------ -------- ----- --- ------ ----- --<br>----- ----- ---------- --- --- ------ ------ ---- -- ------<br>------- --- ------ ----- --- ---- ------- -- ---- --- --<br>------- ------,109927,109926.09999990463,109511.371,109519.5,109528.043,109928.044,,8,of
screen,html.Screen,0_2_1_1_9,2021-11-19T13:57:03.604Z,,,,,,,,,,,,,,,,54,,,,,,,,,,,,,,382.05599990463816,,response,,,100,,,,,,Space,keypress(Space),,,,,-- --- ---- --- ------ ----- ------- ---- -- its ------- --<br>------- ---------- ------ -- ----- -- ----- -- ---- ------<br>--- ----- --- --- ------ -------- ----- --- ------ ----- --<br>----- ----- ---------- --- --- ------ ------ ---- -- ------<br>------- --- ------ ----- --- ---- ------- -- ---- --- --<br>------- ------,110310.79999995232,110310.09999990463,109911.374,109927.19999992847,109928.044,110328.141,,9,its
screen,html.Screen,0_2_1_1_10,2021-11-19T13:57:03.972Z,,,,,,,,,,,,,,,,54,,,,,,,,,,,,,,349.85899999999674,,response,,,100,,,,,,Space,keypress(Space),,,,,-- --- ---- --- ------ ----- ------- ---- -- --- revenue --<br>------- ---------- ------ -- ----- -- ----- -- ---- ------<br>--- ----- --- --- ------ -------- ----- --- ------ ----- --<br>----- ----- ---------- --- --- ------ ------ ---- -- ------<br>------- --- ------ ----- --- ---- ------- -- ---- --- --<br>------- ------,110678.79999995232,110678,110311.471,110311.09999990463,110328.141,110694.899,,10,revenue
screen,html.Screen,0_2_1_1_11,2021-11-19T13:57:04.468Z,,,,,,,,,,,,,,,,54,,,,,,,,,,,,,,479.1009999999951,,response,,,100,,,,,,Space,keypress(Space),,,,,-- --- ---- --- ------ ----- ------- ---- -- --- ------- by<br>------- ---------- ------ -- ----- -- ----- -- ---- ------<br>--- ----- --- --- ------ -------- ----- --- ------ ----- --<br>----- ----- ---------- --- --- ------ ------ ---- -- ------<br>------- --- ------ ----- --- ---- ------- -- ---- --- --<br>------- ------,111174.79999995232,111174,110678.229,110679,110694.899,111178.343,,11,by
screen,html.Screen,0_2_1_1_12,2021-11-19T13:57:04.908Z,,,,,,,,,,,,,,,,54,,,,,,,,,,,,,,435.6570000000065,,response,,,100,,,,,,Space,keypress(Space),,,,,-- --- ---- --- ------ ----- ------- ---- -- --- ------- --<br>issuing ---------- ------ -- ----- -- ----- -- ---- ------<br>--- ----- --- --- ------ -------- ----- --- ------ ----- --<br>----- ----- ---------- --- --- ------ ------ ---- -- ------<br>------- --- ------ ----- --- ---- ------- -- ---- --- --<br>------- ------,111614.79999995232,111614,111161.673,111174.89999997616,111178.343,111628.447,,12,issuing
screen,html.Screen,0_2_1_1_13,2021-11-19T13:57:05.300Z,,,,,,,,,,,,,,,,54,,,,,,,,,,,,,,377.452999976158,,response,,,100,,,,,,Space,keypress(Space),,,,,-- --- ---- --- ------ ----- ------- ---- -- --- ------- --<br>------- government ------ -- ----- -- ----- -- ---- ------<br>--- ----- --- --- ------ -------- ----- --- ------ ----- --<br>----- ----- ---------- --- --- ------ ------ ---- -- ------<br>------- --- ------ ----- --- ---- ------- -- ---- --- --<br>------- ------,112006.69999992847,112005.89999997616,111611.777,111615,111628.447,112011.873,,13,government
screen,html.Screen,0_2_1_1_14,2021-11-19T13:57:05.708Z,,,,,,,,,,,,,,,,54,,,,,,,,,,,,,,402.12699999999313,,response,,,100,,,,,,Space,keypress(Space),,,,,-- --- ---- --- ------ ----- ------- ---- -- --- ------- --<br>------- ---------- bonds. -- ----- -- ----- -- ---- ------<br>--- ----- --- --- ------ -------- ----- --- ------ ----- --<br>----- ----- ---------- --- --- ------ ------ ---- -- ------<br>------- --- ------ ----- --- ---- ------- -- ---- --- --<br>------- ------,112414.69999992847,112414,111995.203,112006.89999997616,112011.873,112428.635,,14,bonds.
screen,html.Screen,0_2_1_1_15,2021-11-19T13:57:06.148Z,,,,,,,,,,,,,,,,54,,,,,,,,,,,,,,425.2649999761634,,response,,,100,,,,,,Space,keypress(Space),,,,,-- --- ---- --- ------ ----- ------- ---- -- --- ------- --<br>------- ---------- ------ In ----- -- ----- -- ---- ------<br>--- ----- --- --- ------ -------- ----- --- ------ ----- --<br>----- ----- ---------- --- --- ------ ------ ---- -- ------<br>------- --- ------ ----- --- ---- ------- -- ---- --- --<br>------- ------,112854.69999992847,112853.89999997616,112411.965,112415,112428.635,112862.094,,15,In
screen,html.Screen,0_2_1_1_16,2021-11-19T13:57:08.244Z,,,,,,,,,,,,,,,,54,,,,,,,,,,,,,,2087.9060000000027,,response,,,100,,,,,,Space,keypress(Space),,,,,"-- --- ---- --- ------ ----- ------- ---- -- --- ------- --<br>------- ---------- ------ -- 1727, -- ----- -- ---- ------<br>--- ----- --- --- ------ -------- ----- --- ------ ----- --<br>----- ----- ---------- --- --- ------ ------ ---- -- ------<br>------- --- ------ ----- --- ---- ------- -- ---- --- --<br>------- ------",114950.89999997616,114950,112845.424,112854.89999997616,112862.094,114962.528,,16,"1727,"
screen,html.Screen,0_2_1_1_17,2021-11-19T13:57:08.771Z,,,,,,,,,,,,,,,,54,,,,,,,,,,,,,,515.1719999284687,,response,,,100,,,,,,Space,keypress(Space),,,,,-- --- ---- --- ------ ----- ------- ---- -- --- ------- --<br>------- ---------- ------ -- ----- in ----- -- ---- ------<br>--- ----- --- --- ------ -------- ----- --- ------ ----- --<br>----- ----- ---------- --- --- ------ ------ ---- -- ------<br>------- --- ------ ----- --- ---- ------- -- ---- --- --<br>------- ------,115478.5,115477.69999992847,114945.858,114951.19999992847,114962.528,115496.004,,17,in
screen,html.Screen,0_2_1_1_18,2021-11-19T13:57:09.323Z,,,,,,,,,,,,,,,,54,,,,,,,,,,,,,,533.6959999284736,,response,,,100,,,,,,Space,keypress(Space),,,,,-- --- ---- --- ------ ----- ------- ---- -- --- ------- --<br>------- ---------- ------ -- ----- -- order -- ---- ------<br>--- ----- --- --- ------ -------- ----- --- ------ ----- --<br>----- ----- ---------- --- --- ------ ------ ---- -- ------<br>------- --- ------ ----- --- ---- ------- -- ---- --- --<br>------- ------,116030.59999990463,116029.69999992847,115479.334,115478.79999995232,115496.004,116046.123,,18,order
screen,html.Screen,0_2_1_1_19,2021-11-19T13:57:09.691Z,,,,,,,,,,,,,,,,54,,,,,,,,,,,,,,351.57699992846756,,response,,,100,,,,,,Space,keypress(Space),,,,,-- --- ---- --- ------ ----- ------- ---- -- --- ------- --<br>------- ---------- ------ -- ----- -- ----- to ---- ------<br>--- ----- --- --- ------ -------- ----- --- ------ ----- --<br>----- ----- ---------- --- --- ------ ------ ---- -- ------<br>------- --- ------ ----- --- ---- ------- -- ---- --- --<br>------- ------,116398.5,116397.69999992847,116029.453,116030.79999995232,116046.123,116413.047,,19,to
screen,html.Screen,0_2_1_1_20,2021-11-19T13:57:10.099Z,,,,,,,,,,,,,,,,54,,,,,,,,,,,,,,392.55299990462663,,response,,,100,,,,,,Space,keypress(Space),,,,,-- --- ---- --- ------ ----- ------- ---- -- --- ------- --<br>------- ---------- ------ -- ----- -- ----- -- save ------<br>--- ----- --- --- ------ -------- ----- --- ------ ----- --<br>----- ----- ---------- --- --- ------ ------ ---- -- ------<br>------- --- ------ ----- --- ---- ------- -- ---- --- --<br>------- ------,116806.5,116805.59999990463,116396.375,116398.79999995232,116413.047,116813.024,,20,save
screen,html.Screen,0_2_1_1_21,2021-11-19T13:57:10.499Z,,,,,,,,,,,,,,,,54,,,,,,,,,,,,,,392.5759999046277,,response,,,100,,,,,,Space,keypress(Space),,,,,"-- --- ---- --- ------ ----- ------- ---- -- --- ------- --<br>------- ---------- ------ -- ----- -- ----- -- ---- money,<br>--- ----- --- --- ------ -------- ----- --- ------ ----- --<br>----- ----- ---------- --- --- ------ ------ ---- -- ------<br>------- --- ------ ----- --- ---- ------- -- ---- --- --<br>------- ------",117206.5,117205.59999990463,116796.354,116806.89999997616,116813.024,117213.203,,21,"money,"
screen,html.Screen,0_2_1_1_22,2021-11-19T13:57:10.891Z,,,,,,,,,,,,,,,,54,,,,,,,,,,,,,,384.29700000000594,,response,,,100,,,,,,Space,keypress(Space),,,,,-- --- ---- --- ------ ----- ------- ---- -- --- ------- --<br>------- ---------- ------ -- ----- -- ----- -- ---- ------<br>the ----- --- --- ------ -------- ----- --- ------ ----- --<br>----- ----- ---------- --- --- ------ ------ ---- -- ------<br>------- --- ------ ----- --- ---- ------- -- ---- --- --<br>------- ------,117598.39999997616,117597.5,117196.532,117206.69999992847,117213.203,117613.234,,22,the
screen,html.Screen,0_2_1_1_23,2021-11-19T13:57:11.235Z,,,,,,,,,,,,,,,,54,,,,,,,,,,,,,,328.26600000000326,,response,,,100,,,,,,Space,keypress(Space),,,,,-- --- ---- --- ------ ----- ------- ---- -- --- ------- --<br>------- ---------- ------ -- ----- -- ----- -- ---- ------<br>--- state --- --- ------ -------- ----- --- ------ ----- --<br>----- ----- ---------- --- --- ------ ------ ---- -- ------<br>------- --- ------ ----- --- ---- ------- -- ---- --- --<br>------- ------,117942.29999995232,117941.5,117596.564,117598.69999992847,117613.234,117946.671,,23,state
screen,html.Screen,0_2_1_1_24,2021-11-19T13:57:11.627Z,,,,,,,,,,,,,,,,54,,,,,,,,,,,,,,386.8289999999979,,response,,,100,,,,,,Space,keypress(Space),,,,,-- --- ---- --- ------ ----- ------- ---- -- --- ------- --<br>------- ---------- ------ -- ----- -- ----- -- ---- ------<br>--- ----- cut --- ------ -------- ----- --- ------ ----- --<br>----- ----- ---------- --- --- ------ ------ ---- -- ------<br>------- --- ------ ----- --- ---- ------- -- ---- --- --<br>------- ------,118334.39999997616,118333.5,117930.001,117942.59999990463,117946.671,118346.638,,24,cut
screen,html.Screen,0_2_1_1_25,2021-11-19T13:57:12.019Z,,,,,,,,,,,,,,,,54,,,,,,,,,,,,,,378.8619999999937,,response,,,100,,,,,,Space,keypress(Space),,,,,-- --- ---- --- ------ ----- ------- ---- -- --- ------- --<br>------- ---------- ------ -- ----- -- ----- -- ---- ------<br>--- ----- --- the ------ -------- ----- --- ------ ----- --<br>----- ----- ---------- --- --- ------ ------ ---- -- ------<br>------- --- ------ ----- --- ---- ------- -- ---- --- --<br>------- ------,118726.19999992847,118725.5,118329.97,118334.59999990463,118346.638,118730.221,,25,the
screen,html.Screen,0_2_1_1_26,2021-11-19T13:57:12.459Z,,,,,,,,,,,,,,,,54,,,,,,,,,,,,,,435.17899997615314,,response,,,100,,,,,,Space,keypress(Space),,,,,-- --- ---- --- ------ ----- ------- ---- -- --- ------- --<br>------- ---------- ------ -- ----- -- ----- -- ---- ------<br>--- ----- --- --- bonds' -------- ----- --- ------ ----- --<br>----- ----- ---------- --- --- ------ ------ ---- -- ------<br>------- --- ------ ----- --- ---- ------- -- ---- --- --<br>------- ------,119166.19999992847,119165.39999997616,118713.55,118726.5,118730.221,119180.332,,26,bonds'
screen,html.Screen,0_2_1_1_27,2021-11-19T13:57:13.003Z,,,,,,,,,,,,,,,,54,,,,,,,,,,,,,,529.0679999761633,,response,,,100,,,,,,Space,keypress(Space),,,,,-- --- ---- --- ------ ----- ------- ---- -- --- ------- --<br>------- ---------- ------ -- ----- -- ----- -- ---- ------<br>--- ----- --- --- ------ interest ----- --- ------ ----- --<br>----- ----- ---------- --- --- ------ ------ ---- -- ------<br>------- --- ------ ----- --- ---- ------- -- ---- --- --<br>------- ------,119710.19999992847,119709.39999997616,119163.661,119166.5,119180.332,119713.752,,27,interest
screen,html.Screen,0_2_1_1_28,2021-11-19T13:57:13.435Z,,,,,,,,,,,,,,,,54,,,,,,,,,,,,,,427.54799995232315,,response,,,100,,,,,,Space,keypress(Space),,,,,-- --- ---- --- ------ ----- ------- ---- -- --- ------- --<br>------- ---------- ------ -- ----- -- ----- -- ---- ------<br>--- ----- --- --- ------ -------- rate. --- ------ ----- --<br>----- ----- ---------- --- --- ------ ------ ---- -- ------<br>------- --- ------ ----- --- ---- ------- -- ---- --- --<br>------- ------,120142.09999990463,120141.29999995232,119697.082,119710.39999997616,119713.752,120147.161,,28,rate.
screen,html.Screen,0_2_1_1_29,2021-11-19T13:57:14.407Z,,,,,,,,,,,,,,,,54,,,,,,,,,,,,,,962.1389999523235,,response,,,100,,,,,,Space,keypress(Space),,,,,-- --- ---- --- ------ ----- ------- ---- -- --- ------- --<br>------- ---------- ------ -- ----- -- ----- -- ---- ------<br>--- ----- --- --- ------ -------- ----- The ------ ----- --<br>----- ----- ---------- --- --- ------ ------ ---- -- ------<br>------- --- ------ ----- --- ---- ------- -- ---- --- --<br>------- ------,121110.19999992847,121109.29999995232,120130.491,120142.39999997616,120147.161,121114.08,,29,The
screen,html.Screen,0_2_1_1_30,2021-11-19T13:57:15.151Z,,,,,,,,,,,,,,,,54,,,,,,,,,,,,,,739.2199999523145,,response,,,100,,,,,,Space,keypress(Space),,,,,-- --- ---- --- ------ ----- ------- ---- -- --- ------- --<br>------- ---------- ------ -- ----- -- ----- -- ---- ------<br>--- ----- --- --- ------ -------- ----- --- market ----- --<br>----- ----- ---------- --- --- ------ ------ ---- -- ------<br>------- --- ------ ----- --- ---- ------- -- ---- --- --<br>------- ------,121854.09999990463,121853.29999995232,121097.41,121110.5,121114.08,121864.006,,30,market
screen,html.Screen,0_2_1_1_31,2021-11-19T13:57:15.759Z,,,,,,,,,,,,,,,,54,,,,,,,,,,,,,,597.2939999523223,,response,,,100,,,,,,Space,keypress(Space),,,,,-- --- ---- --- ------ ----- ------- ---- -- --- ------- --<br>------- ---------- ------ -- ----- -- ----- -- ---- ------<br>--- ----- --- --- ------ -------- ----- --- ------ value --<br>----- ----- ---------- --- --- ------ ------ ---- -- ------<br>------- --- ------ ----- --- ---- ------- -- ---- --- --<br>------- ------,122462,122461.29999995232,121847.338,121854.39999997616,121864.006,122464.485,,31,value
screen,html.Screen,0_2_1_1_32,2021-11-19T13:57:16.287Z,,,,,,,,,,,,,,,,54,,,,,,,,,,,,,,524.7149999284738,,response,,,100,,,,,,Space,keypress(Space),,,,,-- --- ---- --- ------ ----- ------- ---- -- --- ------- --<br>------- ---------- ------ -- ----- -- ----- -- ---- ------<br>--- ----- --- --- ------ -------- ----- --- ------ ----- of<br>----- ----- ---------- --- --- ------ ------ ---- -- ------<br>------- --- ------ ----- --- ---- ------- -- ---- --- --<br>------- ------,122989.89999997616,122989.19999992847,122447.814,122462.19999992847,122464.485,122997.831,,32,of
screen,html.Screen,0_2_1_1_33,2021-11-19T13:57:16.727Z,,,,,,,,,,,,,,,,54,,,,,,,,,,,,,,431.268999904627,,response,,,100,,,,,,Space,keypress(Space),,,,,-- --- ---- --- ------ ----- ------- ---- -- --- ------- --<br>------- ---------- ------ -- ----- -- ----- -- ---- ------<br>--- ----- --- --- ------ -------- ----- --- ------ ----- --<br>these ----- ---------- --- --- ------ ------ ---- -- ------<br>------- --- ------ ----- --- ---- ------- -- ---- --- --<br>------- ------,123429.89999997616,123429.09999990463,122981.161,122990.19999992847,122997.831,123431.361,,33,these
screen,html.Screen,0_2_1_1_34,2021-11-19T13:57:17.247Z,,,,,,,,,,,,,,,,54,,,,,,,,,,,,,,517.7389999046281,,response,,,100,,,,,,Space,keypress(Space),,,,,-- --- ---- --- ------ ----- ------- ---- -- --- ------- --<br>------- ---------- ------ -- ----- -- ----- -- ---- ------<br>--- ----- --- --- ------ -------- ----- --- ------ ----- --<br>----- bonds ---------- --- --- ------ ------ ---- -- ------<br>------- --- ------ ----- --- ---- ------- -- ---- --- --<br>------- ------,123949.79999995232,123949.09999990463,123414.69,123430.29999995232,123431.361,123964.765,,34,bonds
screen,html.Screen,0_2_1_1_35,2021-11-19T13:57:17.719Z,,,,,,,,,,,,,,,,54,,,,,,,,,,,,,,456.33499990463315,,response,,,100,,,,,,Space,keypress(Space),,,,,"-- --- ---- --- ------ ----- ------- ---- -- --- ------- --<br>------- ---------- ------ -- ----- -- ----- -- ---- ------<br>--- ----- --- --- ------ -------- ----- --- ------ ----- --<br>----- ----- plummeted, --- --- ------ ------ ---- -- ------<br>------- --- ------ ----- --- ---- ------- -- ---- --- --<br>------- ------",124421.79999995232,124421.09999990463,123948.095,123950,123964.765,124431.572,,35,"plummeted,"
screen,html.Screen,0_2_1_1_36,2021-11-19T13:57:18.296Z,,,,,,,,,,,,,,,,54,,,,,,,,,,,,,,565.827999976158,,response,,,100,,,,,,Space,keypress(Space),,,,,-- --- ---- --- ------ ----- ------- ---- -- --- ------- --<br>------- ---------- ------ -- ----- -- ----- -- ---- ------<br>--- ----- --- --- ------ -------- ----- --- ------ ----- --<br>----- ----- ---------- and --- ------ ------ ---- -- ------<br>------- --- ------ ----- --- ---- ------- -- ---- --- --<br>------- ------,124998.29999995232,124997.39999997616,124414.902,124422.09999990463,124431.572,125015.036,,36,and
screen,html.Screen,0_2_1_1_37,2021-11-19T13:57:18.727Z,,,,,,,,,,,,,,,,54,,,,,,,,,,,,,,413.9640000000072,,response,,,100,,,,,,Space,keypress(Space),,,,,-- --- ---- --- ------ ----- ------- ---- -- --- ------- --<br>------- ---------- ------ -- ----- -- ----- -- ---- ------<br>--- ----- --- --- ------ -------- ----- --- ------ ----- --<br>----- ----- ---------- --- the ------ ------ ---- -- ------<br>------- --- ------ ----- --- ---- ------- -- ---- --- --<br>------- ------,125429.79999995232,125429,124998.366,124998.59999990463,125015.036,125431.795,,37,the
screen,html.Screen,0_2_1_1_38,2021-11-19T13:57:19.119Z,,,,,,,,,,,,,,,,54,,,,,,,,,,,,,,389.20500000000175,,response,,,100,,,,,,Space,keypress(Space),,,,,-- --- ---- --- ------ ----- ------- ---- -- --- ------- --<br>------- ---------- ------ -- ----- -- ----- -- ---- ------<br>--- ----- --- --- ------ -------- ----- --- ------ ----- --<br>----- ----- ---------- --- --- market ------ ---- -- ------<br>------- --- ------ ----- --- ---- ------- -- ---- --- --<br>------- ------,125821.79999995232,125821,125415.125,125430,125431.795,125831.927,,38,market
screen,html.Screen,0_2_1_1_39,2021-11-19T13:57:19.623Z,,,,,,,,,,,,,,,,54,,,,,,,,,,,,,,493.07300000000396,,response,,,100,,,,,,Space,keypress(Space),,,,,-- --- ---- --- ------ ----- ------- ---- -- --- ------- --<br>------- ---------- ------ -- ----- -- ----- -- ---- ------<br>--- ----- --- --- ------ -------- ----- --- ------ ----- --<br>----- ----- ---------- --- --- ------ became ---- -- ------<br>------- --- ------ ----- --- ---- ------- -- ---- --- --<br>------- ------,126325.69999992847,126325,125815.257,125822.09999990463,125831.927,126332.019,,39,became
screen,html.Screen,0_2_1_1_40,2021-11-19T13:57:20.031Z,,,,,,,,,,,,,,,,54,,,,,,,,,,,,,,400.8809999761579,,response,,,100,,,,,,Space,keypress(Space),,,,,-- --- ---- --- ------ ----- ------- ---- -- --- ------- --<br>------- ---------- ------ -- ----- -- ----- -- ---- ------<br>--- ----- --- --- ------ -------- ----- --- ------ ----- --<br>----- ----- ---------- --- --- ------ ------ wary -- ------<br>------- --- ------ ----- --- ---- ------- -- ---- --- --<br>------- ------,126733.59999990463,126732.89999997616,126315.349,126325.89999997616,126332.019,126748.798,,40,wary
screen,html.Screen,0_2_1_1_41,2021-11-19T13:57:20.431Z,,,,,,,,,,,,,,,,54,,,,,,,,,,,,,,384.00199995232106,,response,,,100,,,,,,Space,keypress(Space),,,,,-- --- ---- --- ------ ----- ------- ---- -- --- ------- --<br>------- ---------- ------ -- ----- -- ----- -- ---- ------<br>--- ----- --- --- ------ -------- ----- --- ------ ----- --<br>----- ----- ---------- --- --- ------ ------ ---- of ------<br>------- --- ------ ----- --- ---- ------- -- ---- --- --<br>------- ------,127133.59999990463,127132.79999995232,126732.128,126733.79999995232,126748.798,127148.878,,41,of
screen,html.Screen,0_2_1_1_42,2021-11-19T13:57:20.863Z,,,,,,,,,,,,,,,,54,,,,,,,,,,,,,,416.02199997616117,,response,,,100,,,,,,Space,keypress(Space),,,,,-- --- ---- --- ------ ----- ------- ---- -- --- ------- --<br>------- ---------- ------ -- ----- -- ----- -- ---- ------<br>--- ----- --- --- ------ -------- ----- --- ------ ----- --<br>----- ----- ---------- --- --- ------ ------ ---- -- French<br>------- --- ------ ----- --- ---- ------- -- ---- --- --<br>------- ------,127565.69999992847,127564.89999997616,127132.208,127133.79999995232,127148.878,127582.334,,42,French
screen,html.Screen,0_2_1_1_43,2021-11-19T13:57:21.263Z,,,,,,,,,,,,,,,,54,,,,,,,,,,,,,,382.4659999523137,,response,,,100,,,,,,Space,keypress(Space),,,,,-- --- ---- --- ------ ----- ------- ---- -- --- ------- --<br>------- ---------- ------ -- ----- -- ----- -- ---- ------<br>--- ----- --- --- ------ -------- ----- --- ------ ----- --<br>----- ----- ---------- --- --- ------ ------ ---- -- ------<br>credit. --- ------ ----- --- ---- ------- -- ---- --- --<br>------- ------,127965.59999990463,127964.79999995232,127565.664,127565.89999997616,127582.334,127982.441,,43,credit.
screen,html.Screen,0_2_1_1_44,2021-11-19T13:57:22.327Z,,,,,,,,,,,,,,,,54,,,,,,,,,,,,,,1046.3589999523101,,response,,,100,,,,,,Space,keypress(Space),,,,,-- --- ---- --- ------ ----- ------- ---- -- --- ------- --<br>------- ---------- ------ -- ----- -- ----- -- ---- ------<br>--- ----- --- --- ------ -------- ----- --- ------ ----- --<br>----- ----- ---------- --- --- ------ ------ ---- -- ------<br>------- The ------ ----- --- ---- ------- -- ---- --- --<br>------- ------,129029.5,129028.79999995232,127965.771,127965.89999997616,127982.441,129032.553,,44,The
screen,html.Screen,0_2_1_1_45,2021-11-19T13:57:22.775Z,,,,,,,,,,,,,,,,54,,,,,,,,,,,,,,444.2469999523164,,response,,,100,,,,,,Space,keypress(Space),,,,,-- --- ---- --- ------ ----- ------- ---- -- --- ------- --<br>------- ---------- ------ -- ----- -- ----- -- ---- ------<br>--- ----- --- --- ------ -------- ----- --- ------ ----- --<br>----- ----- ---------- --- --- ------ ------ ---- -- ------<br>------- --- French ----- --- ---- ------- -- ---- --- --<br>------- ------,129477.5,129476.79999995232,129015.884,129029.79999995232,129032.553,129482.798,,45,French
screen,html.Screen,0_2_1_1_46,2021-11-19T13:57:23.199Z,,,,,,,,,,,,,,,,54,,,,,,,,,,,,,,417.9019999284792,,response,,,100,,,,,,Space,keypress(Space),,,,,-- --- ---- --- ------ ----- ------- ---- -- --- ------- --<br>------- ---------- ------ -- ----- -- ----- -- ---- ------<br>--- ----- --- --- ------ -------- ----- --- ------ ----- --<br>----- ----- ---------- --- --- ------ ------ ---- -- ------<br>------- --- ------ state --- ---- ------- -- ---- --- --<br>------- ------,129901.5,129900.69999992847,129466.128,129477.69999992847,129482.798,129916.227,,46,state
screen,html.Screen,0_2_1_1_47,2021-11-19T13:57:23.583Z,,,,,,,,,,,,,,,,54,,,,,,,,,,,,,,368.3729999046336,,response,,,100,,,,,,Space,keypress(Space),,,,,-- --- ---- --- ------ ----- ------- ---- -- --- ------- --<br>------- ---------- ------ -- ----- -- ----- -- ---- ------<br>--- ----- --- --- ------ -------- ----- --- ------ ----- --<br>----- ----- ---------- --- --- ------ ------ ---- -- ------<br>------- --- ------ ----- was ---- ------- -- ---- --- --<br>------- ------,130285.5,130284.59999990463,129899.557,129901.69999992847,129916.227,130299.654,,47,was
screen,html.Screen,0_2_1_1_48,2021-11-19T13:57:24.023Z,,,,,,,,,,,,,,,,54,,,,,,,,,,,,,,424.846000000005,,response,,,100,,,,,,Space,keypress(Space),,,,,-- --- ---- --- ------ ----- ------- ---- -- --- ------- --<br>------- ---------- ------ -- ----- -- ----- -- ---- ------<br>--- ----- --- --- ------ -------- ----- --- ------ ----- --<br>----- ----- ---------- --- --- ------ ------ ---- -- ------<br>------- --- ------ ----- --- left ------- -- ---- --- --<br>------- ------,130725.29999995232,130724.5,130282.984,130285.69999992847,130299.654,130733.088,,48,left
screen,html.Screen,0_2_1_1_49,2021-11-19T13:57:24.431Z,,,,,,,,,,,,,,,,54,,,,,,,,,,,,,,399.61199992847105,,response,,,100,,,,,,Space,keypress(Space),,,,,-- --- ---- --- ------ ----- ------- ---- -- --- ------- --<br>------- ---------- ------ -- ----- -- ----- -- ---- ------<br>--- ----- --- --- ------ -------- ----- --- ------ ----- --<br>----- ----- ---------- --- --- ------ ------ ---- -- ------<br>------- --- ------ ----- --- ---- without -- ---- --- --<br>------- ------,131133.39999997616,131132.69999992847,130716.418,130725.59999990463,130733.088,131149.874,,49,without
screen,html.Screen,0_2_1_1_50,2021-11-19T13:57:24.847Z,,,,,,,,,,,,,,,,54,,,,,,,,,,,,,,398.72599990462186,,response,,,100,,,,,,Space,keypress(Space),,,,,-- --- ---- --- ------ ----- ------- ---- -- --- ------- --<br>------- ---------- ------ -- ----- -- ----- -- ---- ------<br>--- ----- --- --- ------ -------- ----- --- ------ ----- --<br>----- ----- ---------- --- --- ------ ------ ---- -- ------<br>------- --- ------ ----- --- ---- ------- an ---- --- --<br>------- ------,131549.39999997616,131548.59999990463,131133.204,131133.59999990463,131149.874,131566.61,,50,an
screen,html.Screen,0_2_1_1_51,2021-11-19T13:57:25.279Z,,,,,,,,,,,,,,,,54,,,,,,,,,,,,,,413.89000000001397,,response,,,100,,,,,,Space,keypress(Space),,,,,-- --- ---- --- ------ ----- ------- ---- -- --- ------- --<br>------- ---------- ------ -- ----- -- ----- -- ---- ------<br>--- ----- --- --- ------ -------- ----- --- ------ ----- --<br>----- ----- ---------- --- --- ------ ------ ---- -- ------<br>------- --- ------ ----- --- ---- ------- -- easy --- --<br>------- ------,131981.39999997616,131980.5,131549.94,131549.59999990463,131566.61,131983.392,,51,easy
screen,html.Screen,0_2_1_1_52,2021-11-19T13:57:25.687Z,,,,,,,,,,,,,,,,54,,,,,,,,,,,,,,405.20799990464,,response,,,100,,,,,,Space,keypress(Space),,,,,-- --- ---- --- ------ ----- ------- ---- -- --- ------- --<br>------- ---------- ------ -- ----- -- ----- -- ---- ------<br>--- ----- --- --- ------ -------- ----- --- ------ ----- --<br>----- ----- ---------- --- --- ------ ------ ---- -- ------<br>------- --- ------ ----- --- ---- ------- -- ---- way --<br>------- ------,132389.29999995232,132388.59999990463,131966.722,131981.59999990463,131983.392,132400.161,,52,way
screen,html.Screen,0_2_1_1_53,2021-11-19T13:57:26.103Z,,,,,,,,,,,,,,,,54,,,,,,,,,,,,,,404.3390000000072,,response,,,100,,,,,,Space,keypress(Space),,,,,-- --- ---- --- ------ ----- ------- ---- -- --- ------- --<br>------- ---------- ------ -- ----- -- ----- -- ---- ------<br>--- ----- --- --- ------ -------- ----- --- ------ ----- --<br>----- ----- ---------- --- --- ------ ------ ---- -- ------<br>------- --- ------ ----- --- ---- ------- -- ---- --- of<br>------- ------,132805.39999997616,132804.5,132383.491,132389.59999990463,132400.161,132816.843,,53,of
screen,html.Screen,0_2_1_1_54,2021-11-19T13:57:26.551Z,,,,,,,,,,,,,,,,54,,,,,,,,,,,,,,435.6570000000065,,response,,,100,,,,,,Space,keypress(Space),,,,,-- --- ---- --- ------ ----- ------- ---- -- --- ------- --<br>------- ---------- ------ -- ----- -- ----- -- ---- ------<br>--- ----- --- --- ------ -------- ----- --- ------ ----- --<br>----- ----- ---------- --- --- ------ ------ ---- -- ------<br>------- --- ------ ----- --- ---- ------- -- ---- --- --<br>raising ------,133253.29999995232,133252.5,132800.174,132805.69999992847,132816.843,133267.085,,54,raising
screen,html.Screen,0_2_1_1_55,2021-11-19T13:57:26.927Z,,,,,,,,,,,,,,,,54,,,,,,,,,,,,,,361.3149999761663,,response,,,100,,,,,,Space,keypress(Space),,,,,-- --- ---- --- ------ ----- ------- ---- -- --- ------- --<br>------- ---------- ------ -- ----- -- ----- -- ---- ------<br>--- ----- --- --- ------ -------- ----- --- ------ ----- --<br>----- ----- ---------- --- --- ------ ------ ---- -- ------<br>------- --- ------ ----- --- ---- ------- -- ---- --- --<br>------- money.,133629.19999992847,133628.39999997616,133250.414,133253.59999990463,133267.085,133633.839,,55,money.
Item 100,flow.Loop,0_2_1_1,2021-11-19T13:57:26.927Z,,,,,,,,,,,,,,,,,,,,,,,,,,,,,,30152.00799997615,,completion,,,,B,,,,,,,,,,silence,,133629.59999990463,133628.39999997616,103459.722,103461.09999990463,103476.392,133633.839,,,
Question 1,html.Screen,0_2_1_2,2021-11-19T13:57:29.703Z,,,,,,,,,,,,,,,,,,,,,,,,,,,true,TRUE,,2770.160999999993,,response,,,100,B,,,,,TRUE,click #choice-1,,,,silence,,136405.29999995232,136404,133617.168,133629.79999995232,133633.839,136417.816,,,
Question 2,html.Screen,0_2_1_3,2021-11-19T13:57:32.806Z,,,,,,,,,,,,,,,,,,,,,,,,,,,true,FALSE,,3090.0839999761665,,response,,,100,B,,,,,FALSE,click #choice-2,,,,silence,,139509.19999992847,139507.89999997616,136401.146,136405.59999990463,136417.816,139518.572,,,
Item 100,flow.Sequence,0_2_1,2021-11-19T13:57:32.807Z,,,,,,,,,,,,,,,,,,,,,,,,,,,,,,46033.84899997615,,completion,,,,,,,,,,,,,,,,139509.59999990463,139507.89999997616,93457.381,93472.79999995232,93474.051,139518.572,,,
End of Practice,html.Page,0_2_2,2021-11-19T13:57:39.047Z,,,,,,,,,,,,,,,,,,,,,,,,,,,,,,6230.527999904647,,form submission,,,,,,,,,,,,,,,,145749.69999992847,145749.09999990463,139501.902,139509.69999992847,139518.572,145753.423,,,
Practice,flow.Sequence,0_2,2021-11-19T13:57:39.048Z,,,,,,,,,,,,,,,,,,,,,,,,,,,,,,105171.26099990463,,completion,,,,,,,,,,,,,,,,145750.29999995232,145749.09999990463,40561.169,40564.699999928474,40577.839,145753.423,,,
Trap_instruction,html.Page,0_3_0,2021-11-19T13:57:39.279Z,,,,,,,,,,,,,,,,,,,,,,,,,,,,,,227.47699997614836,,form submission,,,,,,,,,,,,,,,,145981.29999995232,145980.89999997616,145736.752,145750.59999990463,145753.423,146003.375,,,
trap_trial,html.Screen,0_3_1,2021-11-19T13:57:43.486Z,,,,,,,,,,,,,,,,,,,,,,,,,,,true,1,,4183.625,,response,,,,,,,,,1,click #choice-1,,,,,,150188.29999995232,150187,145970.035,145981.59999990463,146003.375,150203.275,,,
end of trap trial,html.Page,0_3_2,2021-11-19T13:57:47.190Z,,,,,,,,,,,,,,,,,,,,,,,,,,,,,,3689.024999952322,,form submission,,,,,,,,,,,,,,,,153892.79999995232,153892.29999995232,150186.609,150188.5,150203.275,153905.3,,,
Trap 1,flow.Sequence,0_3,2021-11-19T13:57:47.191Z,,,,,,,,,,,,,,,,,,,,,,,,,,,,,,8138.8769999523065,,completion,,,,,,,,,,,,,,,,153893.29999995232,153892.29999995232,145736.752,145750.59999990463,145753.423,153905.3,,,
Standby,html.Page,0_4_0,2021-11-19T13:57:55.189Z,,,,,,,,,,,,,,,,,,,,,,,,,,,,,,8001.65300000002,,timeout,,,,,,,,,,,,,,,,161891.69999992847,161890.283,153888.63,153893.59999990463,153905.3,161906.953,,,
Holding screen,html.Screen,0_4_1_0_0,2021-11-19T13:58:02.190Z,,,,,,,,,,,,,,,,,,,,,,,,,,,,,,7002.008000000002,,timeout,,,,,,,,,,,,,,,,168893.09999990463,168892.291,161890.283,161892.09999990463,161906.953,168908.961,,,
screen,html.Screen,0_4_1_0_1_0,2021-11-19T13:58:03.157Z,,,,,,,,,,,,,,,,51,,,,,,,,,,,,,,949.4389999761479,,response,,,13,B,,,,,Space,keypress(Space),,,,lyrical,American -------- --- --- ---- --- --- ------ -- --------<br>---- --------- --- ------- ------------ ---------- ---------<br>--- ---------- ------- ---------- ------- -- -------- ----<br>---- --- ------ ----- ------ -- ---- --- ----- -- - -------<br>-------- -- --- --- -- ----- ----------- ----- -----------<br>---- --- ---------- --- ---- --- -- ----------,169859.39999997616,169858.39999997616,168892.291,168893.5,168908.961,169859.171,,0,American
screen,html.Screen,0_4_1_0_1_1,2021-11-19T13:58:03.692Z,,,,,,,,,,,,,,,,51,,,,,,,,,,,,,,534.728999976156,,response,,,13,B,,,,,Space,keypress(Space),,,,lyrical,-------- industry --- --- ---- --- --- ------ -- --------<br>---- --------- --- ------- ------------ ---------- ---------<br>--- ---------- ------- ---------- ------- -- -------- ----<br>---- --- ------ ----- ------ -- ---- --- ----- -- - -------<br>-------- -- --- --- -- ----- ----------- ----- -----------<br>---- --- ---------- --- ---- --- -- ----------,170394.69999992847,170393.89999997616,169842.501,169859.79999995232,169859.171,170409.477,,1,industry
screen,html.Screen,0_4_1_0_1_2,2021-11-19T13:58:04.196Z,,,,,,,,,,,,,,,,51,,,,,,,,,,,,,,488.42299997614464,,response,,,13,B,,,,,Space,keypress(Space),,,,lyrical,-------- -------- may --- ---- --- --- ------ -- --------<br>---- --------- --- ------- ------------ ---------- ---------<br>--- ---------- ------- ---------- ------- -- -------- ----<br>---- --- ------ ----- ------ -- ---- --- ----- -- - -------<br>-------- -- --- --- -- ----- ----------- ----- -----------<br>---- --- ---------- --- ---- --- -- ----------,170898.69999992847,170897.89999997616,170392.806,170395,170409.477,170909.502,,2,may
screen,html.Screen,0_4_1_0_1_3,2021-11-19T13:58:04.772Z,,,,,,,,,,,,,,,,51,,,,,,,,,,,,,,564.2979999523086,,response,,,13,B,,,,,Space,keypress(Space),,,,lyrical,-------- -------- --- not ---- --- --- ------ -- --------<br>---- --------- --- ------- ------------ ---------- ---------<br>--- ---------- ------- ---------- ------- -- -------- ----<br>---- --- ------ ----- ------ -- ---- --- ----- -- - -------<br>-------- -- --- --- -- ----- ----------- ----- -----------<br>---- --- ---------- --- ---- --- -- ----------,171474.59999990463,171473.79999995232,170892.832,170898.79999995232,170909.502,171476.328,,3,not
screen,html.Screen,0_4_1_0_1_4,2021-11-19T13:58:05.236Z,,,,,,,,,,,,,,,,51,,,,,,,,,,,,,,461.47199995230767,,response,,,13,B,,,,,Space,keypress(Space),,,,lyrical,-------- -------- --- --- know --- --- ------ -- --------<br>---- --------- --- ------- ------------ ---------- ---------<br>--- ---------- ------- ---------- ------- -- -------- ----<br>---- --- ------ ----- ------ -- ---- --- ----- -- - -------<br>-------- -- --- --- -- ----- ----------- ----- -----------<br>---- --- ---------- --- ---- --- -- ----------,171938.5,171937.79999995232,171459.658,171474.89999997616,171476.328,171943.104,,4,know
screen,html.Screen,0_4_1_0_1_5,2021-11-19T13:58:06.052Z,,,,,,,,,,,,,,,,51,,,,,,,,,,,,,,810.5959999284823,,response,,,13,B,,,,,Space,keypress(Space),,,,lyrical,"-------- -------- --- --- ---- it, --- ------ -- --------<br>---- --------- --- ------- ------------ ---------- ---------<br>--- ---------- ------- ---------- ------- -- -------- ----<br>---- --- ------ ----- ------ -- ---- --- ----- -- - -------<br>-------- -- --- --- -- ----- ----------- ----- -----------<br>---- --- ---------- --- ---- --- -- ----------",172754.5,172753.69999992847,171926.434,171938.79999995232,171943.104,172759.952,,5,"it,"
screen,html.Screen,0_4_1_0_1_6,2021-11-19T13:58:06.460Z,,,,,,,,,,,,,,,,51,,,,,,,,,,,,,,401.7479999284842,,response,,,13,B,,,,,Space,keypress(Space),,,,lyrical,-------- -------- --- --- ---- --- but ------ -- --------<br>---- --------- --- ------- ------------ ---------- ---------<br>--- ---------- ------- ---------- ------- -- -------- ----<br>---- --- ------ ----- ------ -- ---- --- ----- -- - -------<br>-------- -- --- --- -- ----- ----------- ----- -----------<br>---- --- ---------- --- ---- --- -- ----------,173162.59999990463,173161.69999992847,172743.282,172754.89999997616,172759.952,173176.715,,6,but
screen,html.Screen,0_4_1_0_1_7,2021-11-19T13:58:07.004Z,,,,,,,,,,,,,,,,51,,,,,,,,,,,,,,528.8849999046361,,response,,,13,B,,,,,Space,keypress(Space),,,,lyrical,-------- -------- --- --- ---- --- --- debate -- --------<br>---- --------- --- ------- ------------ ---------- ---------<br>--- ---------- ------- ---------- ------- -- -------- ----<br>---- --- ------ ----- ------ -- ---- --- ----- -- - -------<br>-------- -- --- --- -- ----- ----------- ----- -----------<br>---- --- ---------- --- ---- --- -- ----------,173706.39999997616,173705.59999990463,173160.045,173162.79999995232,173176.715,173710.099,,7,debate
screen,html.Screen,0_4_1_0_1_8,2021-11-19T13:58:07.484Z,,,,,,,,,,,,,,,,51,,,,,,,,,,,,,,475.600999928487,,response,,,13,B,,,,,Space,keypress(Space),,,,lyrical,-------- -------- --- --- ---- --- --- ------ in --------<br>---- --------- --- ------- ------------ ---------- ---------<br>--- ---------- ------- ---------- ------- -- -------- ----<br>---- --- ------ ----- ------ -- ---- --- ----- -- - -------<br>-------- -- --- --- -- ----- ----------- ----- -----------<br>---- --- ---------- --- ---- --- -- ----------,174186.39999997616,174185.69999992847,173693.43,173706.59999990463,173710.099,174193.603,,8,in
screen,html.Screen,0_4_1_0_1_9,2021-11-19T13:58:08.124Z,,,,,,,,,,,,,,,,51,,,,,,,,,,,,,,631.8969999999972,,response,,,13,B,,,,,Space,keypress(Space),,,,lyrical,-------- -------- --- --- ---- --- --- ------ -- Congress<br>---- --------- --- ------- ------------ ---------- ---------<br>--- ---------- ------- ---------- ------- -- -------- ----<br>---- --- ------ ----- ------ -- ---- --- ----- -- - -------<br>-------- -- --- --- -- ----- ----------- ----- -----------<br>---- --- ---------- --- ---- --- -- ----------,174826.39999997616,174825.5,174176.933,174186.69999992847,174193.603,174843.917,,9,Congress
screen,html.Screen,0_4_1_0_1_10,2021-11-19T13:58:08.564Z,,,,,,,,,,,,,,,,51,,,,,,,,,,,,,,421.58300000001327,,response,,,13,B,,,,,Space,keypress(Space),,,,lyrical,-------- -------- --- --- ---- --- --- ------ -- --------<br>over --------- --- ------- ------------ ---------- ---------<br>--- ---------- ------- ---------- ------- -- -------- ----<br>---- --- ------ ----- ------ -- ---- --- ----- -- - -------<br>-------- -- --- --- -- ----- ----------- ----- -----------<br>---- --- ---------- --- ---- --- -- ----------,175266.29999995232,175265.5,174827.245,174826.59999990463,174843.917,175277.246,,10,over
screen,html.Screen,0_4_1_0_1_11,2021-11-19T13:58:09.068Z,,,,,,,,,,,,,,,,51,,,,,,,,,,,,,,492.35399990461883,,response,,,13,B,,,,,Space,keypress(Space),,,,lyrical,-------- -------- --- --- ---- --- --- ------ -- --------<br>---- reforming --- ------- ------------ ---------- ---------<br>--- ---------- ------- ---------- ------- -- -------- ----<br>---- --- ------ ----- ------ -- ---- --- ----- -- - -------<br>-------- -- --- --- -- ----- ----------- ----- -----------<br>---- --- ---------- --- ---- --- -- ----------,175770.29999995232,175769.59999990463,175260.576,175266.5,175277.246,175777.369,,11,reforming
screen,html.Screen,0_4_1_0_1_12,2021-11-19T13:58:09.635Z,,,,,,,,,,,,,,,,51,,,,,,,,,,,,,,560.130999999994,,response,,,13,B,,,,,Space,keypress(Space),,,,lyrical,-------- -------- --- --- ---- --- --- ------ -- --------<br>---- --------- the ------- ------------ ---------- ---------<br>--- ---------- ------- ---------- ------- -- -------- ----<br>---- --- ------ ----- ------ -- ---- --- ----- -- - -------<br>-------- -- --- --- -- ----- ----------- ----- -----------<br>---- --- ---------- --- ---- --- -- ----------,176338.19999992847,176337.5,175760.699,175770.5,175777.369,176344.003,,12,the
screen,html.Screen,0_4_1_0_1_13,2021-11-19T13:58:10.212Z,,,,,,,,,,,,,,,,51,,,,,,,,,,,,,,569.3969999761612,,response,,,13,B,,,,,Space,keypress(Space),,,,lyrical,-------- -------- --- --- ---- --- --- ------ -- --------<br>---- --------- --- federal ------------ ---------- ---------<br>--- ---------- ------- ---------- ------- -- -------- ----<br>---- --- ------ ----- ------ -- ---- --- ----- -- - -------<br>-------- -- --- --- -- ----- ----------- ----- -----------<br>---- --- ---------- --- ---- --- -- ----------,176914.19999992847,176913.39999997616,176327.335,176338.5,176344.003,176927.737,,13,federal
screen,html.Screen,0_4_1_0_1_14,2021-11-19T13:58:10.891Z,,,,,,,,,,,,,,,,51,,,,,,,,,,,,,,665.6629999761644,,response,,,13,B,,,,,Space,keypress(Space),,,,lyrical,-------- -------- --- --- ---- --- --- ------ -- --------<br>---- --------- --- ------- government's ---------- ---------<br>--- ---------- ------- ---------- ------- -- -------- ----<br>---- --- ------ ----- ------ -- ---- --- ----- -- - -------<br>-------- -- --- --- -- ----- ----------- ----- -----------<br>---- --- ---------- --- ---- --- -- ----------,177594.19999992847,177593.39999997616,176911.065,176914.5,176927.737,177611.121,,14,government's
screen,html.Screen,0_4_1_0_1_15,2021-11-19T13:58:11.596Z,,,,,,,,,,,,,,,,51,,,,,,,,,,,,,,686.1789999523025,,response,,,13,B,,,,,Space,keypress(Space),,,,lyrical,-------- -------- --- --- ---- --- --- ------ -- --------<br>---- --------- --- ------- ------------ regulatory ---------<br>--- ---------- ------- ---------- ------- -- -------- ----<br>---- --- ------ ----- ------ -- ---- --- ----- -- - -------<br>-------- -- --- --- -- ----- ----------- ----- -----------<br>---- --- ---------- --- ---- --- -- ----------,178298.29999995232,178297.29999995232,177594.451,177594.5,177611.121,178311.189,,15,regulatory
screen,html.Screen,0_4_1_0_1_16,2021-11-19T13:58:12.259Z,,,,,,,,,,,,,,,,51,,,,,,,,,,,,,,650.1109999523032,,response,,,13,B,,,,,Space,keypress(Space),,,,lyrical,-------- -------- --- --- ---- --- --- ------ -- --------<br>---- --------- --- ------- ------------ ---------- apparatus<br>--- ---------- ------- ---------- ------- -- -------- ----<br>---- --- ------ ----- ------ -- ---- --- ----- -- - -------<br>-------- -- --- --- -- ----- ----------- ----- -----------<br>---- --- ---------- --- ---- --- -- ----------,178962.09999990463,178961.29999995232,178294.52,178298.5,178311.189,178978.216,,16,apparatus
screen,html.Screen,0_4_1_0_1_17,2021-11-19T13:58:12.787Z,,,,,,,,,,,,,,,,51,,,,,,,,,,,,,,511.0839999523305,,response,,,13,B,,,,,Space,keypress(Space),,,,lyrical,-------- -------- --- --- ---- --- --- ------ -- --------<br>---- --------- --- ------- ------------ ---------- ---------<br>may ---------- ------- ---------- ------- -- -------- ----<br>---- --- ------ ----- ------ -- ---- --- ----- -- - -------<br>-------- -- --- --- -- ----- ----------- ----- -----------<br>---- --- ---------- --- ---- --- -- ----------,179490,179489.29999995232,178961.545,178962.29999995232,178978.216,179494.819,,17,may
screen,html.Screen,0_4_1_0_1_18,2021-11-19T13:58:13.308Z,,,,,,,,,,,,,,,,51,,,,,,,,,,,,,,514.780999904644,,response,,,13,B,,,,,Space,keypress(Space),,,,lyrical,-------- -------- --- --- ---- --- --- ------ -- --------<br>---- --------- --- ------- ------------ ---------- ---------<br>--- profoundly ------- ---------- ------- -- -------- ----<br>---- --- ------ ----- ------ -- ---- --- ----- -- - -------<br>-------- -- --- --- -- ----- ----------- ----- -----------<br>---- --- ---------- --- ---- --- -- ----------,180010.29999995232,180009.59999990463,179478.15,179490.29999995232,179494.819,180011.695,,18,profoundly
screen,html.Screen,0_4_1_0_1_19,2021-11-19T13:58:13.835Z,,,,,,,,,,,,,,,,51,,,,,,,,,,,,,,525.5049999284674,,response,,,13,B,,,,,Space,keypress(Space),,,,lyrical,-------- -------- --- --- ---- --- --- ------ -- --------<br>---- --------- --- ------- ------------ ---------- ---------<br>--- ---------- improve ---------- ------- -- -------- ----<br>---- --- ------ ----- ------ -- ---- --- ----- -- - -------<br>-------- -- --- --- -- ----- ----------- ----- -----------<br>---- --- ---------- --- ---- --- -- ----------,180538,180537.19999992847,179995.025,180010.5,180011.695,180545.242,,19,improve
screen,html.Screen,0_4_1_0_1_20,2021-11-19T13:58:14.410Z,,,,,,,,,,,,,,,,51,,,,,,,,,,,,,,567.957999928476,,response,,,13,B,,,,,Space,keypress(Space),,,,lyrical,-------- -------- --- --- ---- --- --- ------ -- --------<br>---- --------- --- ------- ------------ ---------- ---------<br>--- ---------- ------- companies' ------- -- -------- ----<br>---- --- ------ ----- ------ -- ---- --- ----- -- - -------<br>-------- -- --- --- -- ----- ----------- ----- -----------<br>---- --- ---------- --- ---- --- -- ----------,181113.89999997616,181113.19999992847,180528.571,180538.19999992847,180545.242,181128.674,,20,companies'
screen,html.Screen,0_4_1_0_1_21,2021-11-19T13:58:14.938Z,,,,,,,,,,,,,,,,51,,,,,,,,,,,,,,512.4259999046335,,response,,,13,B,,,,,Space,keypress(Space),,,,lyrical,-------- -------- --- --- ---- --- --- ------ -- --------<br>---- --------- --- ------- ------------ ---------- ---------<br>--- ---------- ------- ---------- ability -- -------- ----<br>---- --- ------ ----- ------ -- ---- --- ----- -- - -------<br>-------- -- --- --- -- ----- ----------- ----- -----------<br>---- --- ---------- --- ---- --- -- ----------,181642,181641.09999990463,181112.004,181114.09999990463,181128.674,181645.461,,21,ability
screen,html.Screen,0_4_1_0_1_22,2021-11-19T13:58:15.449Z,,,,,,,,,,,,,,,,51,,,,,,,,,,,,,,507.53899999998976,,response,,,13,B,,,,,Space,keypress(Space),,,,lyrical,-------- -------- --- --- ---- --- --- ------ -- --------<br>---- --------- --- ------- ------------ ---------- ---------<br>--- ---------- ------- ---------- ------- to -------- ----<br>---- --- ------ ----- ------ -- ---- --- ----- -- - -------<br>-------- -- --- --- -- ----- ----------- ----- -----------<br>---- --- ---------- --- ---- --- -- ----------,182153.79999995232,182153,181628.791,181642.09999990463,181645.461,182162.252,,22,to
screen,html.Screen,0_4_1_0_1_23,2021-11-19T13:58:16.265Z,,,,,,,,,,,,,,,,51,,,,,,,,,,,,,,806.7479999999923,,response,,,13,B,,,,,Space,keypress(Space),,,,lyrical,-------- -------- --- --- ---- --- --- ------ -- --------<br>---- --------- --- ------- ------------ ---------- ---------<br>--- ---------- ------- ---------- ------- -- survive. ----<br>---- --- ------ ----- ------ -- ---- --- ----- -- - -------<br>-------- -- --- --- -- ----- ----------- ----- -----------<br>---- --- ---------- --- ---- --- -- ----------,182969.79999995232,182969,182145.582,182154.19999992847,182162.252,182979.087,,23,survive.
screen,html.Screen,0_4_1_0_1_24,2021-11-19T13:58:16.785Z,,,,,,,,,,,,,,,,51,,,,,,,,,,,,,,509.91300000000047,,response,,,13,B,,,,,Space,keypress(Space),,,,lyrical,-------- -------- --- --- ---- --- --- ------ -- --------<br>---- --------- --- ------- ------------ ---------- ---------<br>--- ---------- ------- ---------- ------- -- -------- This<br>---- --- ------ ----- ------ -- ---- --- ----- -- - -------<br>-------- -- --- --- -- ----- ----------- ----- -----------<br>---- --- ---------- --- ---- --- -- ----------,183489.79999995232,183489,182962.417,182970.09999990463,182979.087,183495.92,,24,This
screen,html.Screen,0_4_1_0_1_25,2021-11-19T13:58:17.353Z,,,,,,,,,,,,,,,,51,,,,,,,,,,,,,,560.9799999761453,,response,,,13,B,,,,,Space,keypress(Space),,,,lyrical,-------- -------- --- --- ---- --- --- ------ -- --------<br>---- --------- --- ------- ------------ ---------- ---------<br>--- ---------- ------- ---------- ------- -- -------- ----<br>week --- ------ ----- ------ -- ---- --- ----- -- - -------<br>-------- -- --- --- -- ----- ----------- ----- -----------<br>---- --- ---------- --- ---- --- -- ----------,184057.69999992847,184056.89999997616,183479.25,183490,183495.92,184062.714,,25,week
screen,html.Screen,0_4_1_0_1_26,2021-11-19T13:58:18.209Z,,,,,,,,,,,,,,,,51,,,,,,,,,,,,,,850.0859999523091,,response,,,13,B,,,,,Space,keypress(Space),,,,lyrical,-------- -------- --- --- ---- --- --- ------ -- --------<br>---- --------- --- ------- ------------ ---------- ---------<br>--- ---------- ------- ---------- ------- -- -------- ----<br>---- the ------ ----- ------ -- ---- --- ----- -- - -------<br>-------- -- --- --- -- ----- ----------- ----- -----------<br>---- --- ---------- --- ---- --- -- ----------,184913.59999990463,184912.79999995232,184046.044,184058,184062.714,184929.58,,26,the
screen,html.Screen,0_4_1_0_1_27,2021-11-19T13:58:18.825Z,,,,,,,,,,,,,,,,51,,,,,,,,,,,,,,599.2199999523291,,response,,,13,B,,,,,Space,keypress(Space),,,,lyrical,-------- -------- --- --- ---- --- --- ------ -- --------<br>---- --------- --- ------- ------------ ---------- ---------<br>--- ---------- ------- ---------- ------- -- -------- ----<br>---- --- Senate ----- ------ -- ---- --- ----- -- - -------<br>-------- -- --- --- -- ----- ----------- ----- -----------<br>---- --- ---------- --- ---- --- -- ----------,185529.69999992847,185528.79999995232,184912.91,184913.89999997616,184929.58,185546.38,,27,Senate
screen,html.Screen,0_4_1_0_1_28,2021-11-19T13:58:19.273Z,,,,,,,,,,,,,,,,51,,,,,,,,,,,,,,430.5199999761535,,response,,,13,B,,,,,Space,keypress(Space),,,,lyrical,-------- -------- --- --- ---- --- --- ------ -- --------<br>---- --------- --- ------- ------------ ---------- ---------<br>--- ---------- ------- ---------- ------- -- -------- ----<br>---- --- ------ seems ------ -- ---- --- ----- -- - -------<br>-------- -- --- --- -- ----- ----------- ----- -----------<br>---- --- ---------- --- ---- --- -- ----------,185977.59999990463,185976.89999997616,185529.71,185529.89999997616,185546.38,185979.849,,28,seems
screen,html.Screen,0_4_1_0_1_29,2021-11-19T13:58:19.665Z,,,,,,,,,,,,,,,,51,,,,,,,,,,,,,,388.95099995232886,,response,,,13,B,,,,,Space,keypress(Space),,,,lyrical,-------- -------- --- --- ---- --- --- ------ -- --------<br>---- --------- --- ------- ------------ ---------- ---------<br>--- ---------- ------- ---------- ------- -- -------- ----<br>---- --- ------ ----- poised -- ---- --- ----- -- - -------<br>-------- -- --- --- -- ----- ----------- ----- -----------<br>---- --- ---------- --- ---- --- -- ----------,186369.5,186368.79999995232,185963.179,185977.79999995232,185979.849,186379.84,,29,poised
screen,html.Screen,0_4_1_0_1_30,2021-11-19T13:58:20.161Z,,,,,,,,,,,,,,,,51,,,,,,,,,,,,,,484.9599999523198,,response,,,13,B,,,,,Space,keypress(Space),,,,lyrical,-------- -------- --- --- ---- --- --- ------ -- --------<br>---- --------- --- ------- ------------ ---------- ---------<br>--- ---------- ------- ---------- ------- -- -------- ----<br>---- --- ------ ----- ------ to ---- --- ----- -- - -------<br>-------- -- --- --- -- ----- ----------- ----- -----------<br>---- --- ---------- --- ---- --- -- ----------,186865.59999990463,186864.79999995232,186363.171,186369.79999995232,186379.84,186880.019,,30,to
screen,html.Screen,0_4_1_0_1_31,2021-11-19T13:58:20.649Z,,,,,,,,,,,,,,,,51,,,,,,,,,,,,,,472.58099990463234,,response,,,13,B,,,,,Space,keypress(Space),,,,lyrical,-------- -------- --- --- ---- --- --- ------ -- --------<br>---- --------- --- ------- ------------ ---------- ---------<br>--- ---------- ------- ---------- ------- -- -------- ----<br>---- --- ------ ----- ------ -- join --- ----- -- - -------<br>-------- -- --- --- -- ----- ----------- ----- -----------<br>---- --- ---------- --- ---- --- -- ----------,187353.5,187352.59999990463,186863.349,186865.79999995232,186880.019,187363.543,,31,join
screen,html.Screen,0_4_1_0_1_32,2021-11-19T13:58:21.065Z,,,,,,,,,,,,,,,,51,,,,,,,,,,,,,,405.1569999284693,,response,,,13,B,,,,,Space,keypress(Space),,,,lyrical,-------- -------- --- --- ---- --- --- ------ -- --------<br>---- --------- --- ------- ------------ ---------- ---------<br>--- ---------- ------- ---------- ------- -- -------- ----<br>---- --- ------ ----- ------ -- ---- the ----- -- - -------<br>-------- -- --- --- -- ----- ----------- ----- -----------<br>---- --- ---------- --- ---- --- -- ----------,187769.5,187768.69999992847,187346.872,187353.89999997616,187363.543,187780.224,,32,the
screen,html.Screen,0_4_1_0_1_33,2021-11-19T13:58:21.633Z,,,,,,,,,,,,,,,,51,,,,,,,,,,,,,,556.475999928487,,response,,,13,B,,,,,Space,keypress(Space),,,,lyrical,-------- -------- --- --- ---- --- --- ------ -- --------<br>---- --------- --- ------- ------------ ---------- ---------<br>--- ---------- ------- ---------- ------- -- -------- ----<br>---- --- ------ ----- ------ -- ---- --- House -- - -------<br>-------- -- --- --- -- ----- ----------- ----- -----------<br>---- --- ---------- --- ---- --- -- ----------,188337.5,188336.69999992847,187763.554,187769.69999992847,187780.224,188347.212,,33,House
screen,html.Screen,0_4_1_0_1_34,2021-11-19T13:58:22.033Z,,,,,,,,,,,,,,,,51,,,,,,,,,,,,,,389.38799990463303,,response,,,13,B,,,,,Space,keypress(Space),,,,lyrical,-------- -------- --- --- ---- --- --- ------ -- --------<br>---- --------- --- ------- ------------ ---------- ---------<br>--- ---------- ------- ---------- ------- -- -------- ----<br>---- --- ------ ----- ------ -- ---- --- ----- in - -------<br>-------- -- --- --- -- ----- ----------- ----- -----------<br>---- --- ---------- --- ---- --- -- ----------,188737.39999997616,188736.59999990463,188330.54,188337.69999992847,188347.212,188747.181,,34,in
screen,html.Screen,0_4_1_0_1_35,2021-11-19T13:58:22.465Z,,,,,,,,,,,,,,,,51,,,,,,,,,,,,,,421.41899990462116,,response,,,13,B,,,,,Space,keypress(Space),,,,lyrical,-------- -------- --- --- ---- --- --- ------ -- --------<br>---- --------- --- ------- ------------ ---------- ---------<br>--- ---------- ------- ---------- ------- -- -------- ----<br>---- --- ------ ----- ------ -- ---- --- ----- -- a -------<br>-------- -- --- --- -- ----- ----------- ----- -----------<br>---- --- ---------- --- ---- --- -- ----------,189169.39999997616,189168.59999990463,188730.511,188737.59999990463,188747.181,189180.52,,35,a
screen,html.Screen,0_4_1_0_1_36,2021-11-19T13:58:22.897Z,,,,,,,,,,,,,,,,51,,,,,,,,,,,,,,419.9800000000105,,response,,,13,B,,,,,Space,keypress(Space),,,,lyrical,-------- -------- --- --- ---- --- --- ------ -- --------<br>---- --------- --- ------- ------------ ---------- ---------<br>--- ---------- ------- ---------- ------- -- -------- ----<br>---- --- ------ ----- ------ -- ---- --- ----- -- - massive<br>-------- -- --- --- -- ----- ----------- ----- -----------<br>---- --- ---------- --- ---- --- -- ----------,189601.29999995232,189600.5,189163.851,189169.59999990463,189180.52,189614.156,,36,massive
screen,html.Screen,0_4_1_0_1_37,2021-11-19T13:58:23.345Z,,,,,,,,,,,,,,,,51,,,,,,,,,,,,,,434.74399997617,,response,,,13,B,,,,,Space,keypress(Space),,,,lyrical,-------- -------- --- --- ---- --- --- ------ -- --------<br>---- --------- --- ------- ------------ ---------- ---------<br>--- ---------- ------- ---------- ------- -- -------- ----<br>---- --- ------ ----- ------ -- ---- --- ----- -- - -------<br>overhaul -- --- --- -- ----- ----------- ----- -----------<br>---- --- ---------- --- ---- --- -- ----------,190049.59999990463,190048.89999997616,189597.484,189601.5,189614.156,190064.166,,37,overhaul
screen,html.Screen,0_4_1_0_1_38,2021-11-19T13:58:23.825Z,,,,,,,,,,,,,,,,51,,,,,,,,,,,,,,464.33400000000256,,response,,,13,B,,,,,Space,keypress(Space),,,,lyrical,-------- -------- --- --- ---- --- --- ------ -- --------<br>---- --------- --- ------- ------------ ---------- ---------<br>--- ---------- ------- ---------- ------- -- -------- ----<br>---- --- ------ ----- ------ -- ---- --- ----- -- - -------<br>-------- of --- --- -- ----- ----------- ----- -----------<br>---- --- ---------- --- ---- --- -- ----------,190529.29999995232,190528.5,190047.496,190049.89999997616,190064.166,190530.96,,38,of
screen,html.Screen,0_4_1_0_1_39,2021-11-19T13:58:24.241Z,,,,,,,,,,,,,,,,51,,,,,,,,,,,,,,413.33999995232443,,response,,,13,B,,,,,Space,keypress(Space),,,,lyrical,-------- -------- --- --- ---- --- --- ------ -- --------<br>---- --------- --- ------- ------------ ---------- ---------<br>--- ---------- ------- ---------- ------- -- -------- ----<br>---- --- ------ ----- ------ -- ---- --- ----- -- - -------<br>-------- -- the --- -- ----- ----------- ----- -----------<br>---- --- ---------- --- ---- --- -- ----------,190945.09999990463,190944.29999995232,190514.29,190529.5,190530.96,190947.737,,39,the
screen,html.Screen,0_4_1_0_1_40,2021-11-19T13:58:24.641Z,,,,,,,,,,,,,,,,51,,,,,,,,,,,,,,396.7630000000063,,response,,,13,B,,,,,Space,keypress(Space),,,,lyrical,-------- -------- --- --- ---- --- --- ------ -- --------<br>---- --------- --- ------- ------------ ---------- ---------<br>--- ---------- ------- ---------- ------- -- -------- ----<br>---- --- ------ ----- ------ -- ---- --- ----- -- - -------<br>-------- -- --- way -- ----- ----------- ----- -----------<br>---- --- ---------- --- ---- --- -- ----------,191345.19999992847,191344.5,190931.067,190945.29999995232,190947.737,191347.812,,40,way
screen,html.Screen,0_4_1_0_1_41,2021-11-19T13:58:25.057Z,,,,,,,,,,,,,,,,51,,,,,,,,,,,,,,412.5879999761528,,response,,,13,B,,,,,Space,keypress(Space),,,,lyrical,-------- -------- --- --- ---- --- --- ------ -- --------<br>---- --------- --- ------- ------------ ---------- ---------<br>--- ---------- ------- ---------- ------- -- -------- ----<br>---- --- ------ ----- ------ -- ---- --- ----- -- - -------<br>-------- -- --- --- in ----- ----------- ----- -----------<br>---- --- ---------- --- ---- --- -- ----------,191761.19999992847,191760.39999997616,191331.142,191345.39999997616,191347.812,191764.52,,41,in
screen,html.Screen,0_4_1_0_1_42,2021-11-19T13:58:25.497Z,,,,,,,,,,,,,,,,51,,,,,,,,,,,,,,435.77999995232676,,response,,,13,B,,,,,Space,keypress(Space),,,,lyrical,-------- -------- --- --- ---- --- --- ------ -- --------<br>---- --------- --- ------- ------------ ---------- ---------<br>--- ---------- ------- ---------- ------- -- -------- ----<br>---- --- ------ ----- ------ -- ---- --- ----- -- - -------<br>-------- -- --- --- -- which ----------- ----- -----------<br>---- --- ---------- --- ---- --- -- ----------,192201.09999990463,192200.29999995232,191747.851,191761.39999997616,191764.52,192214.738,,42,which
screen,html.Screen,0_4_1_0_1_43,2021-11-19T13:58:25.913Z,,,,,,,,,,,,,,,,51,,,,,,,,,,,,,,401.5619999523042,,response,,,13,B,,,,,Space,keypress(Space),,,,lyrical,-------- -------- --- --- ---- --- --- ------ -- --------<br>---- --------- --- ------- ------------ ---------- ---------<br>--- ---------- ------- ---------- ------- -- -------- ----<br>---- --- ------ ----- ------ -- ---- --- ----- -- - -------<br>-------- -- --- --- -- ----- bureaucrats ----- -----------<br>---- --- ---------- --- ---- --- -- ----------,192617.19999992847,192616.29999995232,192198.067,192201.39999997616,192214.738,192631.474,,43,bureaucrats
screen,html.Screen,0_4_1_0_1_44,2021-11-19T13:58:26.393Z,,,,,,,,,,,,,,,,51,,,,,,,,,,,,,,464.82599995232886,,response,,,13,B,,,,,Space,keypress(Space),,,,lyrical,-------- -------- --- --- ---- --- --- ------ -- --------<br>---- --------- --- ------- ------------ ---------- ---------<br>--- ---------- ------- ---------- ------- -- -------- ----<br>---- --- ------ ----- ------ -- ---- --- ----- -- - -------<br>-------- -- --- --- -- ----- ----------- enact -----------<br>---- --- ---------- --- ---- --- -- ----------,193097.09999990463,193096.29999995232,192614.804,192617.29999995232,192631.474,193098.247,,44,enact
screen,html.Screen,0_4_1_0_1_45,2021-11-19T13:58:26.793Z,,,,,,,,,,,,,,,,51,,,,,,,,,,,,,,398.05299995231326,,response,,,13,B,,,,,Space,keypress(Space),,,,lyrical,-------- -------- --- --- ---- --- --- ------ -- --------<br>---- --------- --- ------- ------------ ---------- ---------<br>--- ---------- ------- ---------- ------- -- -------- ----<br>---- --- ------ ----- ------ -- ---- --- ----- -- - -------<br>-------- -- --- --- -- ----- ----------- ----- regulations<br>---- --- ---------- --- ---- --- -- ----------,193497,193496.29999995232,193081.577,193097.29999995232,193098.247,193498.333,,45,regulations
screen,html.Screen,0_4_1_0_1_46,2021-11-19T13:58:27.337Z,,,,,,,,,,,,,,,,51,,,,,,,,,,,,,,541.8669999284612,,response,,,13,B,,,,,Space,keypress(Space),,,,lyrical,-------- -------- --- --- ---- --- --- ------ -- --------<br>---- --------- --- ------- ------------ ---------- ---------<br>--- ---------- ------- ---------- ------- -- -------- ----<br>---- --- ------ ----- ------ -- ---- --- ----- -- - -------<br>-------- -- --- --- -- ----- ----------- ----- -----------<br>that --- ---------- --- ---- --- -- ----------,194041.09999990463,194040.19999992847,193481.663,193497.29999995232,193498.333,194048.482,,46,that
screen,html.Screen,0_4_1_0_1_47,2021-11-19T13:58:27.745Z,,,,,,,,,,,,,,,,51,,,,,,,,,,,,,,399.71799992848537,,response,,,13,B,,,,,Space,keypress(Space),,,,lyrical,-------- -------- --- --- ---- --- --- ------ -- --------<br>---- --------- --- ------- ------------ ---------- ---------<br>--- ---------- ------- ---------- ------- -- -------- ----<br>---- --- ------ ----- ------ -- ---- --- ----- -- - -------<br>-------- -- --- --- -- ----- ----------- ----- -----------<br>---- are ---------- --- ---- --- -- ----------,194449.09999990463,194448.19999992847,194031.812,194041.29999995232,194048.482,194465.103,,47,are
screen,html.Screen,0_4_1_0_1_48,2021-11-19T13:58:28.193Z,,,,,,,,,,,,,,,,51,,,,,,,,,,,,,,431.09699992847163,,response,,,13,B,,,,,Space,keypress(Space),,,,lyrical,-------- -------- --- --- ---- --- --- ------ -- --------<br>---- --------- --- ------- ------------ ---------- ---------<br>--- ---------- ------- ---------- ------- -- -------- ----<br>---- --- ------ ----- ------ -- ---- --- ----- -- - -------<br>-------- -- --- --- -- ----- ----------- ----- -----------<br>---- --- strangling --- ---- --- -- ----------,194897,194896.19999992847,194448.435,194449.19999992847,194465.103,194898.663,,48,strangling
screen,html.Screen,0_4_1_0_1_49,2021-11-19T13:58:28.609Z,,,,,,,,,,,,,,,,51,,,,,,,,,,,,,,413.53699992847396,,response,,,13,B,,,,,Space,keypress(Space),,,,lyrical,-------- -------- --- --- ---- --- --- ------ -- --------<br>---- --------- --- ------- ------------ ---------- ---------<br>--- ---------- ------- ---------- ------- -- -------- ----<br>---- --- ------ ----- ------ -- ---- --- ----- -- - -------<br>-------- -- --- --- -- ----- ----------- ----- -----------<br>---- --- ---------- the ---- --- -- ----------,195313,195312.19999992847,194881.993,194897.19999992847,194898.663,195315.359,,49,the
screen,html.Screen,0_4_1_0_1_50,2021-11-19T13:58:29.080Z,,,,,,,,,,,,,,,,51,,,,,,,,,,,,,,468.7409999046358,,response,,,13,B,,,,,Space,keypress(Space),,,,lyrical,-------- -------- --- --- ---- --- --- ------ -- --------<br>---- --------- --- ------- ------------ ---------- ---------<br>--- ---------- ------- ---------- ------- -- -------- ----<br>---- --- ------ ----- ------ -- ---- --- ----- -- - -------<br>-------- -- --- --- -- ----- ----------- ----- -----------<br>---- --- ---------- --- life --- -- ----------,195784.79999995232,195784.09999990463,195298.69,195313.19999992847,195315.359,195798.854,,50,life
