sender,sender_type,sender_id,timestamp,meta,,Blues,Classical,Country,Dance,Electronic,Folk,Gospel,Hip-Hop,Jazz,Latin,Musical/Film,New-age,Pop,Provo_ID,R&B,Rap,Reggae,Religious,Rock,Soul,Swing,Traditional,age,artist_name,correct,correctResponse,distraction,duration,education,ended_on,familiarity,gender,item,list,music_frequency,offensiveness,pleasantness,preference,response,response_action,snippet_file,song_name,song_rating,sound,text,time_commit,time_end,time_render,time_run,time_show,time_switch,url,word,word_ID
Instructions,html.Page,0_0,2021-10-22T10:56:53.385Z,"{""labjs_version"":""20.2.3"",""labjs_build"":{""flavor"":""production"",""commit"":""7ea907d66ca8aeef8054924ca5d82ffbe11e34e5""},""location"":""https://run.pavlovia.org/mvasilev/lab_music_a/"",""userAgent"":""Mozilla/5.0 (Windows NT 6.1; Win64; x64) AppleWebKit/537.36 (KHTML, like Gecko) Chrome/94.0.4606.71 Safari/537.36"",""platform"":""Win32"",""language"":""en-US"",""locale"":""en-US"",""timeZone"":""Europe/London"",""timezoneOffset"":-60,""screen_width"":1920,""screen_height"":1080,""scroll_width"":1920,""scroll_height"":959,""window_innerWidth"":1920,""window_innerHeight"":1007,""devicePixelRatio"":1}",,,,,,,,,,,,,,,,,,,,,,,,,,,,,14384.122999982119,,form submission,,,,,,,,,,,,,,,,27679.5,27678.29999998212,13277.507,13293.699999988079,13294.177,27681.753,{},,
Headphones,html.Page,0_1,2021-10-22T10:56:56.339Z,,,,,,,,,,,,,,,,,,,,,,,,,,,,,,2951.046999982118,,form submission,,,,,,,,,,,,,,,,30633.29999998212,30632.79999998212,27665.076,27680.19999998808,27681.753,30648.633,,,
Holding screen,html.Screen,0_2_0_0,2021-10-22T10:57:06.346Z,,,,,,,,,,,,,,,,,,,,,,,,,,,,,,10035.866999999998,,timeout,,,,,,,,,,,,,,,,40640.09999999404,40634.493,30631.964,30633.69999998808,30648.633,40684.5,,,
screen,html.Screen,0_2_0_1_0,2021-10-22T10:57:07.435Z,,,,,,,,,,,,,,,,53,,,,,,,,,,,,,,1043,,response,,,99,,,,,,Space,keypress(Space),,,,,When -- ----- -- ------ - ------- --- ----------<br>------------- ------ ------ ---- ---- ------- ----- -- ----<br>-------- ------- -- ---------- --- - --- ----- ----- ----<br>---- --- --- ----- --- ---- ---- ------- ----- ---- -------<br>--- --- -- ----- -- --- ---- -- --- ---- -- ------ ------<br>--- ----- -- ----,41729.19999998808,41727.5,40634.493,40640.5,40684.5,41734.985,,0,When
screen,html.Screen,0_2_0_1_1,2021-10-22T10:57:07.922Z,,,,,,,,,,,,,,,,53,,,,,,,,,,,,,,479.9150000059599,,response,,,99,,,,,,Space,keypress(Space),,,,,---- it ----- -- ------ - ------- --- ----------<br>------------- ------ ------ ---- ---- ------- ----- -- ----<br>-------- ------- -- ---------- --- - --- ----- ----- ----<br>---- --- --- ----- --- ---- ---- ------- ----- ---- -------<br>--- --- -- ----- -- --- ---- -- --- ---- -- ------ ------<br>--- ----- -- ----,42215.69999998808,42214.90000000596,41718.314,41729.59999999404,41734.985,42218.487,,1,it
screen,html.Screen,0_2_0_1_2,2021-10-22T10:57:08.466Z,,,,,,,,,,,,,,,,53,,,,,,,,,,,,,,540.4130000059595,,response,,,99,,,,,,Space,keypress(Space),,,,,---- -- comes -- ------ - ------- --- ----------<br>------------- ------ ------ ---- ---- ------- ----- -- ----<br>-------- ------- -- ---------- --- - --- ----- ----- ----<br>---- --- --- ----- --- ---- ---- ------- ----- ---- -------<br>--- --- -- ----- -- --- ---- -- --- ---- -- ------ ------<br>--- ----- -- ----,42759.79999998212,42758.90000000596,42201.816,42216.09999999404,42218.487,42768.564,,2,comes
screen,html.Screen,0_2_0_1_3,2021-10-22T10:57:08.914Z,,,,,,,,,,,,,,,,53,,,,,,,,,,,,,,438.2359999821201,,response,,,99,,,,,,Space,keypress(Space),,,,,---- -- ----- to ------ - ------- --- ----------<br>------------- ------ ------ ---- ---- ------- ----- -- ----<br>-------- ------- -- ---------- --- - --- ----- ----- ----<br>---- --- --- ----- --- ---- ---- ------- ----- ---- -------<br>--- --- -- ----- -- --- ---- -- --- ---- -- ------ ------<br>--- ----- -- ----,43207.59999999404,43206.79999998212,42751.894,42760.09999999404,42768.564,43218.684,,3,to
screen,html.Screen,0_2_0_1_4,2021-10-22T10:57:09.370Z,,,,,,,,,,,,,,,,53,,,,,,,,,,,,,,444.1159999821175,,response,,,99,,,,,,Space,keypress(Space),,,,,---- -- ----- -- having - ------- --- ----------<br>------------- ------ ------ ---- ---- ------- ----- -- ----<br>-------- ------- -- ---------- --- - --- ----- ----- ----<br>---- --- --- ----- --- ---- ---- ------- ----- ---- -------<br>--- --- -- ----- -- --- ---- -- --- ---- -- ------ ------<br>--- ----- -- ----,43664,43662.79999998212,43202.014,43208.09999999404,43218.684,43668.687,,4,having
screen,html.Screen,0_2_0_1_5,2021-10-22T10:57:10.058Z,,,,,,,,,,,,,,,,53,,,,,,,,,,,,,,682.1129999821205,,response,,,99,,,,,,Space,keypress(Space),,,,,---- -- ----- -- ------ a ------- --- ----------<br>------------- ------ ------ ---- ---- ------- ----- -- ----<br>-------- ------- -- ---------- --- - --- ----- ----- ----<br>---- --- --- ----- --- ---- ---- ------- ----- ---- -------<br>--- --- -- ----- -- --- ---- -- --- ---- -- ------ ------<br>--- ----- -- ----,44351.69999998808,44350.79999998212,43652.018,43664.29999998212,43668.687,44368.914,,5,a
screen,html.Screen,0_2_0_1_6,2021-10-22T10:57:10.578Z,,,,,,,,,,,,,,,,53,,,,,,,,,,,,,,501.78599998808204,,response,,,99,,,,,,Space,keypress(Space),,,,,---- -- ----- -- ------ - lasting --- ----------<br>------------- ------ ------ ---- ---- ------- ----- -- ----<br>-------- ------- -- ---------- --- - --- ----- ----- ----<br>---- --- --- ----- --- ---- ---- ------- ----- ---- -------<br>--- --- -- ----- -- --- ---- -- --- ---- -- ------ ------<br>--- ----- -- ----,44871.59999999404,44870.69999998808,44352.244,44352.19999998808,44368.914,44885.878,,6,lasting
screen,html.Screen,0_2_0_1_7,2021-10-22T10:57:11.034Z,,,,,,,,,,,,,,,,53,,,,,,,,,,,,,,440.8219999880821,,response,,,99,,,,,,Space,keypress(Space),,,,,---- -- ----- -- ------ - ------- and ----------<br>------------- ------ ------ ---- ---- ------- ----- -- ----<br>-------- ------- -- ---------- --- - --- ----- ----- ----<br>---- --- --- ----- --- ---- ---- ------- ----- ---- -------<br>--- --- -- ----- -- --- ---- -- --- ---- -- ------ ------<br>--- ----- -- ----,45327.59999999404,45326.69999998808,44869.206,44872,44885.878,45335.78,,7,and
screen,html.Screen,0_2_0_1_8,2021-10-22T10:57:11.506Z,,,,,,,,,,,,,,,,53,,,,,,,,,,,,,,462.91999998808024,,response,,,99,,,,,,Space,keypress(Space),,,,,---- -- ----- -- ------ - ------- --- fulfilling<br>------------- ------ ------ ---- ---- ------- ----- -- ----<br>-------- ------- -- ---------- --- - --- ----- ----- ----<br>---- --- --- ----- --- ---- ---- ------- ----- ---- -------<br>--- --- -- ----- -- --- ---- -- --- ---- -- ------ ------<br>--- ----- -- ----,45799.69999998808,45798.69999998808,45319.111,45328,45335.78,45802.769,,8,fulfilling
screen,html.Screen,0_2_0_1_9,2021-10-22T10:57:11.946Z,,,,,,,,,,,,,,,,53,,,,,,,,,,,,,,435.8309999940393,,response,,,99,,,,,,Space,keypress(Space),,,,,"---- -- ----- -- ------ - ------- --- ----------<br>relationship, ------ ------ ---- ---- ------- ----- -- ----<br>-------- ------- -- ---------- --- - --- ----- ----- ----<br>---- --- --- ----- --- ---- ---- ------- ----- ---- -------<br>--- --- -- ----- -- --- ---- -- --- ---- -- ------ ------<br>--- ----- -- ----",46239.59999999404,46238.59999999404,45786.097,45800,45802.769,46252.762,,9,"relationship,"
screen,html.Screen,0_2_0_1_10,2021-10-22T10:57:12.641Z,,,,,,,,,,,,,,,,53,,,,,,,,,,,,,,681.8379999940371,,response,,,99,,,,,,Space,keypress(Space),,,,,---- -- ----- -- ------ - ------- --- ----------<br>------------- common ------ ---- ---- ------- ----- -- ----<br>-------- ------- -- ---------- --- - --- ----- ----- ----<br>---- --- --- ----- --- ---- ---- ------- ----- ---- -------<br>--- --- -- ----- -- --- ---- -- --- ---- -- ------ ------<br>--- ----- -- ----,46935.5,46934.59999999404,46236.092,46239.79999998212,46252.762,46952.931,,10,common
screen,html.Screen,0_2_0_1_11,2021-10-22T10:57:13.185Z,,,,,,,,,,,,,,,,53,,,,,,,,,,,,,,525.5690000000031,,response,,,99,,,,,,Space,keypress(Space),,,,,---- -- ----- -- ------ - ------- --- ----------<br>------------- ------ wisdom ---- ---- ------- ----- -- ----<br>-------- ------- -- ---------- --- - --- ----- ----- ----<br>---- --- --- ----- --- ---- ---- ------- ----- ---- -------<br>--- --- -- ----- -- --- ---- -- --- ---- -- ------ ------<br>--- ----- -- ----,47479.29999998212,47478.5,46936.261,46935.79999998212,46952.931,47486.458,,11,wisdom
screen,html.Screen,0_2_0_1_12,2021-10-22T10:57:13.745Z,,,,,,,,,,,,,,,,53,,,,,,,,,,,,,,552.0420000000013,,response,,,99,,,,,,Space,keypress(Space),,,,,---- -- ----- -- ------ - ------- --- ----------<br>------------- ------ ------ says ---- ------- ----- -- ----<br>-------- ------- -- ---------- --- - --- ----- ----- ----<br>---- --- --- ----- --- ---- ---- ------- ----- ---- -------<br>--- --- -- ----- -- --- ---- -- --- ---- -- ------ ------<br>--- ----- -- ----,48039.29999998212,48038.5,47469.787,47479.59999999404,47486.458,48053.227,,12,says
screen,html.Screen,0_2_0_1_13,2021-10-22T10:57:14.241Z,,,,,,,,,,,,,,,,53,,,,,,,,,,,,,,481.1730000059615,,response,,,99,,,,,,Space,keypress(Space),,,,,---- -- ----- -- ------ - ------- --- ----------<br>------------- ------ ------ ---- that ------- ----- -- ----<br>-------- ------- -- ---------- --- - --- ----- ----- ----<br>---- --- --- ----- --- ---- ---- ------- ----- ---- -------<br>--- --- -- ----- -- --- ---- -- --- ---- -- ------ ------<br>--- ----- -- ----,48535.29999998212,48534.40000000596,48036.557,48039.69999998808,48053.227,48536.681,,13,that
screen,html.Screen,0_2_0_1_14,2021-10-22T10:57:14.793Z,,,,,,,,,,,,,,,,53,,,,,,,,,,,,,,549.7190000059636,,response,,,99,,,,,,Space,keypress(Space),,,,,---- -- ----- -- ------ - ------- --- ----------<br>------------- ------ ------ ---- ---- feeling ----- -- ----<br>-------- ------- -- ---------- --- - --- ----- ----- ----<br>---- --- --- ----- --- ---- ---- ------- ----- ---- -------<br>--- --- -- ----- -- --- ---- -- --- ---- -- ------ ------<br>--- ----- -- ----,49087.19999998808,49086.40000000596,48520.011,48535.40000000596,48536.681,49103.402,,14,feeling
screen,html.Screen,0_2_0_1_15,2021-10-22T10:57:15.281Z,,,,,,,,,,,,,,,,53,,,,,,,,,,,,,,470.89799998211674,,response,,,99,,,,,,Space,keypress(Space),,,,,---- -- ----- -- ------ - ------- --- ----------<br>------------- ------ ------ ---- ---- ------- close -- ----<br>-------- ------- -- ---------- --- - --- ----- ----- ----<br>---- --- --- ----- --- ---- ---- ------- ----- ---- -------<br>--- --- -- ----- -- --- ---- -- --- ---- -- ------ ------<br>--- ----- -- ----,49575.19999998808,49574.29999998212,49086.733,49087.5,49103.402,49586.969,,15,close
screen,html.Screen,0_2_0_1_16,2021-10-22T10:57:15.729Z,,,,,,,,,,,,,,,,53,,,,,,,,,,,,,,435.3309999821213,,response,,,99,,,,,,Space,keypress(Space),,,,,---- -- ----- -- ------ - ------- --- ----------<br>------------- ------ ------ ---- ---- ------- ----- to ----<br>-------- ------- -- ---------- --- - --- ----- ----- ----<br>---- --- --- ----- --- ---- ---- ------- ----- ---- -------<br>--- --- -- ----- -- --- ---- -- --- ---- -- ------ ------<br>--- ----- -- ----,50023.19999998808,50022.29999998212,49570.298,49575.5,49586.969,50037.045,,16,to
screen,html.Screen,0_2_0_1_17,2021-10-22T10:57:16.177Z,,,,,,,,,,,,,,,,53,,,,,,,,,,,,,,433.3550000059622,,response,,,99,,,,,,Space,keypress(Space),,,,,---- -- ----- -- ------ - ------- --- ----------<br>------------- ------ ------ ---- ---- ------- ----- -- your<br>-------- ------- -- ---------- --- - --- ----- ----- ----<br>---- --- --- ----- --- ---- ---- ------- ----- ---- -------<br>--- --- -- ----- -- --- ---- -- --- ---- -- ------ ------<br>--- ----- -- ----,50471.19999998808,50470.40000000596,50020.375,50023.5,50037.045,50487.162,,17,your
screen,html.Screen,0_2_0_1_18,2021-10-22T10:57:16.697Z,,,,,,,,,,,,,,,,53,,,,,,,,,,,,,,503.137999982122,,response,,,99,,,,,,Space,keypress(Space),,,,,---- -- ----- -- ------ - ------- --- ----------<br>------------- ------ ------ ---- ---- ------- ----- -- ----<br>romantic ------- -- ---------- --- - --- ----- ----- ----<br>---- --- --- ----- --- ---- ---- ------- ----- ---- -------<br>--- --- -- ----- -- --- ---- -- --- ---- -- ------ ------<br>--- ----- -- ----,50991.09999999404,50990.29999998212,50470.492,50471.40000000596,50487.162,51003.954,,18,romantic
screen,html.Screen,0_2_0_1_19,2021-10-22T10:57:17.169Z,,,,,,,,,,,,,,,,53,,,,,,,,,,,,,,458.3459999821207,,response,,,99,,,,,,Space,keypress(Space),,,,,---- -- ----- -- ------ - ------- --- ----------<br>------------- ------ ------ ---- ---- ------- ----- -- ----<br>-------- partner -- ---------- --- - --- ----- ----- ----<br>---- --- --- ----- --- ---- ---- ------- ----- ---- -------<br>--- --- -- ----- -- --- ---- -- --- ---- -- ------ ------<br>--- ----- -- ----,51463.09999999404,51462.29999998212,50987.284,50991.29999998212,51003.954,51470.626,,19,partner
screen,html.Screen,0_2_0_1_20,2021-10-22T10:57:17.721Z,,,,,,,,,,,,,,,,53,,,,,,,,,,,,,,544.0739999880825,,response,,,99,,,,,,Space,keypress(Space),,,,,---- -- ----- -- ------ - ------- --- ----------<br>------------- ------ ------ ---- ---- ------- ----- -- ----<br>-------- ------- is ---------- --- - --- ----- ----- ----<br>---- --- --- ----- --- ---- ---- ------- ----- ---- -------<br>--- --- -- ----- -- --- ---- -- --- ---- -- ------ ------<br>--- ----- -- ----,52015.5,52014.69999998808,51453.957,51463.40000000596,51470.626,52020.932,,20,is
screen,html.Screen,0_2_0_1_21,2021-10-22T10:57:18.225Z,,,,,,,,,,,,,,,,53,,,,,,,,,,,,,,497.3679999821179,,response,,,99,,,,,,Space,keypress(Space),,,,,---- -- ----- -- ------ - ------- --- ----------<br>------------- ------ ------ ---- ---- ------- ----- -- ----<br>-------- ------- -- paramount. --- - --- ----- ----- ----<br>---- --- --- ----- --- ---- ---- ------- ----- ---- -------<br>--- --- -- ----- -- --- ---- -- --- ---- -- ------ ------<br>--- ----- -- ----,52519,52518.29999998212,52004.261,52015.79999998212,52020.932,52521.04,,21,paramount.
screen,html.Screen,0_2_0_1_22,2021-10-22T10:57:19.033Z,,,,,,,,,,,,,,,,53,,,,,,,,,,,,,,805.1599999880782,,response,,,99,,,,,,Space,keypress(Space),,,,,---- -- ----- -- ------ - ------- --- ----------<br>------------- ------ ------ ---- ---- ------- ----- -- ----<br>-------- ------- -- ---------- But - --- ----- ----- ----<br>---- --- --- ----- --- ---- ---- ------- ----- ---- -------<br>--- --- -- ----- -- --- ---- -- --- ---- -- ------ ------<br>--- ----- -- ----,53327,53326.19999998808,52504.369,52519.5,52521.04,53337.859,,22,But
screen,html.Screen,0_2_0_1_23,2021-10-22T10:57:19.473Z,,,,,,,,,,,,,,,,53,,,,,,,,,,,,,,428.34099998808233,,response,,,99,,,,,,Space,keypress(Space),,,,,---- -- ----- -- ------ - ------- --- ----------<br>------------- ------ ------ ---- ---- ------- ----- -- ----<br>-------- ------- -- ---------- --- a --- ----- ----- ----<br>---- --- --- ----- --- ---- ---- ------- ----- ---- -------<br>--- --- -- ----- -- --- ---- -- --- ---- -- ------ ------<br>--- ----- -- ----,53767,53766.19999998808,53321.189,53327.19999998808,53337.859,53771.291,,23,a
screen,html.Screen,0_2_0_1_24,2021-10-22T10:57:20.017Z,,,,,,,,,,,,,,,,53,,,,,,,,,,,,,,538.8089999940421,,response,,,99,,,,,,Space,keypress(Space),,,,,---- -- ----- -- ------ - ------- --- ----------<br>------------- ------ ------ ---- ---- ------- ----- -- ----<br>-------- ------- -- ---------- --- - new ----- ----- ----<br>---- --- --- ----- --- ---- ---- ------- ----- ---- -------<br>--- --- -- ----- -- --- ---- -- --- ---- -- ------ ------<br>--- ----- -- ----,54310.90000000596,54310.09999999404,53754.621,53767.19999998808,53771.291,54321.493,,24,new
screen,html.Screen,0_2_0_1_25,2021-10-22T10:57:20.529Z,,,,,,,,,,,,,,,,53,,,,,,,,,,,,,,500.6069999940373,,response,,,99,,,,,,Space,keypress(Space),,,,,---- -- ----- -- ------ - ------- --- ----------<br>------------- ------ ------ ---- ---- ------- ----- -- ----<br>-------- ------- -- ---------- --- - --- study ----- ----<br>---- --- --- ----- --- ---- ---- ------- ----- ---- -------<br>--- --- -- ----- -- --- ---- -- --- ---- -- ------ ------<br>--- ----- -- ----,54822.90000000596,54822.09999999404,54304.822,54311.09999999404,54321.493,54838.234,,25,study
screen,html.Screen,0_2_0_1_26,2021-10-22T10:57:20.985Z,,,,,,,,,,,,,,,,53,,,,,,,,,,,,,,439.8659999940428,,response,,,99,,,,,,Space,keypress(Space),,,,,---- -- ----- -- ------ - ------- --- ----------<br>------------- ------ ------ ---- ---- ------- ----- -- ----<br>-------- ------- -- ---------- --- - --- ----- finds ----<br>---- --- --- ----- --- ---- ---- ------- ----- ---- -------<br>--- --- -- ----- -- --- ---- -- --- ---- -- ------ ------<br>--- ----- -- ----,55278.79999998212,55278.09999999404,54821.564,54823.19999998808,54838.234,55288.341,,26,finds
screen,html.Screen,0_2_0_1_27,2021-10-22T10:57:21.505Z,,,,,,,,,,,,,,,,53,,,,,,,,,,,,,,509.7589999940392,,response,,,99,,,,,,Space,keypress(Space),,,,,---- -- ----- -- ------ - ------- --- ----------<br>------------- ------ ------ ---- ---- ------- ----- -- ----<br>-------- ------- -- ---------- --- - --- ----- ----- that<br>---- --- --- ----- --- ---- ---- ------- ----- ---- -------<br>--- --- -- ----- -- --- ---- -- --- ---- -- ------ ------<br>--- ----- -- ----,55798.79999998212,55798.09999999404,55271.671,55279,55288.341,55805.19,,27,that
screen,html.Screen,0_2_0_1_28,2021-10-22T10:57:22.113Z,,,,,,,,,,,,,,,,53,,,,,,,,,,,,,,600.7100000059581,,response,,,99,,,,,,Space,keypress(Space),,,,,---- -- ----- -- ------ - ------- --- ----------<br>------------- ------ ------ ---- ---- ------- ----- -- ----<br>-------- ------- -- ---------- --- - --- ----- ----- ----<br>it's --- --- ----- --- ---- ---- ------- ----- ---- -------<br>--- --- -- ----- -- --- ---- -- --- ---- -- ------ ------<br>--- ----- -- ----,56406.79999998212,56405.90000000596,55788.519,55799,55805.19,56421.966,,28,it's
screen,html.Screen,0_2_0_1_29,2021-10-22T10:57:22.641Z,,,,,,,,,,,,,,,,53,,,,,,,,,,,,,,512.0339999999997,,response,,,99,,,,,,Space,keypress(Space),,,,,---- -- ----- -- ------ - ------- --- ----------<br>------------- ------ ------ ---- ---- ------- ----- -- ----<br>-------- ------- -- ---------- --- - --- ----- ----- ----<br>---- not --- ----- --- ---- ---- ------- ----- ---- -------<br>--- --- -- ----- -- --- ---- -- --- ---- -- ------ ------<br>--- ----- -- ----,56934.79999998212,56934,56405.296,56407,56421.966,56938.763,,29,not
screen,html.Screen,0_2_0_1_30,2021-10-22T10:57:23.121Z,,,,,,,,,,,,,,,,53,,,,,,,,,,,,,,475.13700000596145,,response,,,99,,,,,,Space,keypress(Space),,,,,---- -- ----- -- ------ - ------- --- ----------<br>------------- ------ ------ ---- ---- ------- ----- -- ----<br>-------- ------- -- ---------- --- - --- ----- ----- ----<br>---- --- how ----- --- ---- ---- ------- ----- ---- -------<br>--- --- -- ----- -- --- ---- -- --- ---- -- ------ ------<br>--- ----- -- ----,57414.69999998808,57413.90000000596,56922.093,56935.09999999404,56938.763,57422.218,,30,how
screen,html.Screen,0_2_0_1_31,2021-10-22T10:57:23.641Z,,,,,,,,,,,,,,,,53,,,,,,,,,,,,,,511.6820000059597,,response,,,99,,,,,,Space,keypress(Space),,,,,---- -- ----- -- ------ - ------- --- ----------<br>------------- ------ ------ ---- ---- ------- ----- -- ----<br>-------- ------- -- ---------- --- - --- ----- ----- ----<br>---- --- --- close --- ---- ---- ------- ----- ---- -------<br>--- --- -- ----- -- --- ---- -- --- ---- -- ------ ------<br>--- ----- -- ----,57934.59999999404,57933.90000000596,57405.548,57415,57422.218,57939.01,,31,close
screen,html.Screen,0_2_0_1_32,2021-10-22T10:57:24.105Z,,,,,,,,,,,,,,,,53,,,,,,,,,,,,,,458.8900000059584,,response,,,99,,,,,,Space,keypress(Space),,,,,---- -- ----- -- ------ - ------- --- ----------<br>------------- ------ ------ ---- ---- ------- ----- -- ----<br>-------- ------- -- ---------- --- - --- ----- ----- ----<br>---- --- --- ----- you ---- ---- ------- ----- ---- -------<br>--- --- -- ----- -- --- ---- -- --- ---- -- ------ ------<br>--- ----- -- ----,58398.59999999404,58397.90000000596,57922.34,57935,57939.01,58405.842,,32,you
screen,html.Screen,0_2_0_1_33,2021-10-22T10:57:24.633Z,,,,,,,,,,,,,,,,53,,,,,,,,,,,,,,519.9579999821217,,response,,,99,,,,,,Space,keypress(Space),,,,,---- -- ----- -- ------ - ------- --- ----------<br>------------- ------ ------ ---- ---- ------- ----- -- ----<br>-------- ------- -- ---------- --- - --- ----- ----- ----<br>---- --- --- ----- --- feel ---- ------- ----- ---- -------<br>--- --- -- ----- -- --- ---- -- --- ---- -- ------ ------<br>--- ----- -- ----,58926.59999999404,58925.79999998212,58389.171,58398.90000000596,58405.842,58939.252,,33,feel
screen,html.Screen,0_2_0_1_34,2021-10-22T10:57:25.105Z,,,,,,,,,,,,,,,,53,,,,,,,,,,,,,,458.5479999821182,,response,,,99,,,,,,Space,keypress(Space),,,,,---- -- ----- -- ------ - ------- --- ----------<br>------------- ------ ------ ---- ---- ------- ----- -- ----<br>-------- ------- -- ---------- --- - --- ----- ----- ----<br>---- --- --- ----- --- ---- that ------- ----- ---- -------<br>--- --- -- ----- -- --- ---- -- --- ---- -- ------ ------<br>--- ----- -- ----,59398.69999998808,59397.79999998212,58922.582,58926.90000000596,58939.252,59406.046,,34,that
screen,html.Screen,0_2_0_1_35,2021-10-22T10:57:25.585Z,,,,,,,,,,,,,,,,53,,,,,,,,,,,,,,471.7539999821165,,response,,,99,,,,,,Space,keypress(Space),,,,,---- -- ----- -- ------ - ------- --- ----------<br>------------- ------ ------ ---- ---- ------- ----- -- ----<br>-------- ------- -- ---------- --- - --- ----- ----- ----<br>---- --- --- ----- --- ---- ---- matters ----- ---- -------<br>--- --- -- ----- -- --- ---- -- --- ---- -- ------ ------<br>--- ----- -- ----,59878.79999998212,59877.79999998212,59389.376,59398.79999998212,59406.046,59889.487,,35,matters
screen,html.Screen,0_2_0_1_36,2021-10-22T10:57:26.101Z,,,,,,,,,,,,,,,,53,,,,,,,,,,,,,,500.3129999821176,,response,,,99,,,,,,Space,keypress(Space),,,,,"---- -- ----- -- ------ - ------- --- ----------<br>------------- ------ ------ ---- ---- ------- ----- -- ----<br>-------- ------- -- ---------- --- - --- ----- ----- ----<br>---- --- --- ----- --- ---- ---- ------- most, ---- -------<br>--- --- -- ----- -- --- ---- -- --- ---- -- ------ ------<br>--- ----- -- ----",60390.79999998212,60389.79999998212,59872.817,59879,59889.487,60406.286,,36,"most,"
screen,html.Screen,0_2_0_1_37,2021-10-22T10:57:26.540Z,,,,,,,,,,,,,,,,53,,,,,,,,,,,,,,423.413999988079,,response,,,99,,,,,,Space,keypress(Space),,,,,---- -- ----- -- ------ - ------- --- ----------<br>------------- ------ ------ ---- ---- ------- ----- -- ----<br>-------- ------- -- ---------- --- - --- ----- ----- ----<br>---- --- --- ----- --- ---- ---- ------- ----- it's -------<br>--- --- -- ----- -- --- ---- -- --- ---- -- ------ ------<br>--- ----- -- ----,60830.40000000596,60829.69999998808,60389.616,60391.09999999404,60406.286,60839.702,,37,it's
screen,html.Screen,0_2_0_1_38,2021-10-22T10:57:26.980Z,,,,,,,,,,,,,,,,53,,,,,,,,,,,,,,429.9979999880816,,response,,,99,,,,,,Space,keypress(Space),,,,,---- -- ----- -- ------ - ------- --- ----------<br>------------- ------ ------ ---- ---- ------- ----- -- ----<br>-------- ------- -- ---------- --- - --- ----- ----- ----<br>---- --- --- ----- --- ---- ---- ------- ----- ---- whether<br>--- --- -- ----- -- --- ---- -- --- ---- -- ------ ------<br>--- ----- -- ----,61270.5,61269.69999998808,60823.032,60830.69999998808,60839.702,61273.207,,38,whether
screen,html.Screen,0_2_0_1_39,2021-10-22T10:57:27.396Z,,,,,,,,,,,,,,,,53,,,,,,,,,,,,,,412.3929999940374,,response,,,99,,,,,,Space,keypress(Space),,,,,---- -- ----- -- ------ - ------- --- ----------<br>------------- ------ ------ ---- ---- ------- ----- -- ----<br>-------- ------- -- ---------- --- - --- ----- ----- ----<br>---- --- --- ----- --- ---- ---- ------- ----- ---- -------<br>you --- -- ----- -- --- ---- -- --- ---- -- ------ ------<br>--- ----- -- ----,61686.40000000596,61685.59999999404,61256.536,61270.69999998808,61273.207,61689.986,,39,you
screen,html.Screen,0_2_0_1_40,2021-10-22T10:57:27.853Z,,,,,,,,,,,,,,,,53,,,,,,,,,,,,,,451.9140000059633,,response,,,99,,,,,,Space,keypress(Space),,,,,---- -- ----- -- ------ - ------- --- ----------<br>------------- ------ ------ ---- ---- ------- ----- -- ----<br>-------- ------- -- ---------- --- - --- ----- ----- ----<br>---- --- --- ----- --- ---- ---- ------- ----- ---- -------<br>--- are -- ----- -- --- ---- -- --- ---- -- ------ ------<br>--- ----- -- ----,62142.79999998212,62141.90000000596,61673.315,61686.69999998808,61689.986,62156.739,,40,are
screen,html.Screen,0_2_0_1_41,2021-10-22T10:57:28.340Z,,,,,,,,,,,,,,,,53,,,,,,,,,,,,,,472.86099999403814,,response,,,99,,,,,,Space,keypress(Space),,,,,---- -- ----- -- ------ - ------- --- ----------<br>------------- ------ ------ ---- ---- ------- ----- -- ----<br>-------- ------- -- ---------- --- - --- ----- ----- ----<br>---- --- --- ----- --- ---- ---- ------- ----- ---- -------<br>--- --- as ----- -- --- ---- -- --- ---- -- ------ ------<br>--- ----- -- ----,62630.40000000596,62629.59999999404,62140.069,62143,62156.739,62640.164,,41,as
screen,html.Screen,0_2_0_1_42,2021-10-22T10:57:28.796Z,,,,,,,,,,,,,,,,53,,,,,,,,,,,,,,445.4359999940425,,response,,,99,,,,,,Space,keypress(Space),,,,,---- -- ----- -- ------ - ------- --- ----------<br>------------- ------ ------ ---- ---- ------- ----- -- ----<br>-------- ------- -- ---------- --- - --- ----- ----- ----<br>---- --- --- ----- --- ---- ---- ------- ----- ---- -------<br>--- --- -- close -- --- ---- -- --- ---- -- ------ ------<br>--- ----- -- ----,63086.40000000596,63085.59999999404,62623.494,62630.69999998808,62640.164,63090.295,,42,close
screen,html.Screen,0_2_0_1_43,2021-10-22T10:57:29.220Z,,,,,,,,,,,,,,,,53,,,,,,,,,,,,,,419.20500000000175,,response,,,99,,,,,,Space,keypress(Space),,,,,---- -- ----- -- ------ - ------- --- ----------<br>------------- ------ ------ ---- ---- ------- ----- -- ----<br>-------- ------- -- ---------- --- - --- ----- ----- ----<br>---- --- --- ----- --- ---- ---- ------- ----- ---- -------<br>--- --- -- ----- as --- ---- -- --- ---- -- ------ ------<br>--- ----- -- ----,63510.40000000596,63509.5,63073.625,63086.59999999404,63090.295,63523.645,,43,as
screen,html.Screen,0_2_0_1_44,2021-10-22T10:57:29.636Z,,,,,,,,,,,,,,,,53,,,,,,,,,,,,,,401.8550000000032,,response,,,99,,,,,,Space,keypress(Space),,,,,---- -- ----- -- ------ - ------- --- ----------<br>------------- ------ ------ ---- ---- ------- ----- -- ----<br>-------- ------- -- ---------- --- - --- ----- ----- ----<br>---- --- --- ----- --- ---- ---- ------- ----- ---- -------<br>--- --- -- ----- -- you ---- -- --- ---- -- ------ ------<br>--- ----- -- ----,63926.29999998212,63925.5,63506.976,63510.59999999404,63523.645,63940.59,,44,you
screen,html.Screen,0_2_0_1_45,2021-10-22T10:57:30.076Z,,,,,,,,,,,,,,,,53,,,,,,,,,,,,,,424.81000000596396,,response,,,99,,,,,,Space,keypress(Space),,,,,---- -- ----- -- ------ - ------- --- ----------<br>------------- ------ ------ ---- ---- ------- ----- -- ----<br>-------- ------- -- ---------- --- - --- ----- ----- ----<br>---- --- --- ----- --- ---- ---- ------- ----- ---- -------<br>--- --- -- ----- -- --- want -- --- ---- -- ------ ------<br>--- ----- -- ----,64366.29999998212,64365.40000000596,63923.918,63926.59999999404,63940.59,64373.93,,45,want
screen,html.Screen,0_2_0_1_46,2021-10-22T10:57:30.484Z,,,,,,,,,,,,,,,,53,,,,,,,,,,,,,,399.4700000059602,,response,,,99,,,,,,Space,keypress(Space),,,,,---- -- ----- -- ------ - ------- --- ----------<br>------------- ------ ------ ---- ---- ------- ----- -- ----<br>-------- ------- -- ---------- --- - --- ----- ----- ----<br>---- --- --- ----- --- ---- ---- ------- ----- ---- -------<br>--- --- -- ----- -- --- ---- to --- ---- -- ------ ------<br>--- ----- -- ----,64774.40000000596,64773.40000000596,64357.26,64366.59999999404,64373.93,64790.716,,46,to
screen,html.Screen,0_2_0_1_47,2021-10-22T10:57:30.900Z,,,,,,,,,,,,,,,,53,,,,,,,,,,,,,,398.6840000059601,,response,,,99,,,,,,Space,keypress(Space),,,,,"---- -- ----- -- ------ - ------- --- ----------<br>------------- ------ ------ ---- ---- ------- ----- -- ----<br>-------- ------- -- ---------- --- - --- ----- ----- ----<br>---- --- --- ----- --- ---- ---- ------- ----- ---- -------<br>--- --- -- ----- -- --- ---- -- be, ---- -- ------ ------<br>--- ----- -- ----",65190.19999998808,65189.40000000596,64774.046,64774.5,64790.716,65207.486,,47,"be,"
screen,html.Screen,0_2_0_1_48,2021-10-22T10:57:31.340Z,,,,,,,,,,,,,,,,53,,,,,,,,,,,,,,421.9140000059633,,response,,,99,,,,,,Space,keypress(Space),,,,,---- -- ----- -- ------ - ------- --- ----------<br>------------- ------ ------ ---- ---- ------- ----- -- ----<br>-------- ------- -- ---------- --- - --- ----- ----- ----<br>---- --- --- ----- --- ---- ---- ------- ----- ---- -------<br>--- --- -- ----- -- --- ---- -- --- even -- ------ ------<br>--- ----- -- ----,65630.09999999404,65629.40000000596,65190.816,65190.40000000596,65207.486,65640.978,,48,even
screen,html.Screen,0_2_0_1_49,2021-10-22T10:57:31.772Z,,,,,,,,,,,,,,,,53,,,,,,,,,,,,,,420.3219999821158,,response,,,99,,,,,,Space,keypress(Space),,,,,---- -- ----- -- ------ - ------- --- ----------<br>------------- ------ ------ ---- ---- ------- ----- -- ----<br>-------- ------- -- ---------- --- - --- ----- ----- ----<br>---- --- --- ----- --- ---- ---- ------- ----- ---- -------<br>--- --- -- ----- -- --- ---- -- --- ---- if ------ ------<br>--- ----- -- ----,66062.09999999404,66061.29999998212,65624.307,65630.29999998212,65640.978,66074.365,,49,if
screen,html.Screen,0_2_0_1_50,2021-10-22T10:57:32.196Z,,,,,,,,,,,,,,,,53,,,,,,,,,,,,,,410.93499998211337,,response,,,99,,,,,,Space,keypress(Space),,,,,---- -- ----- -- ------ - ------- --- ----------<br>------------- ------ ------ ---- ---- ------- ----- -- ----<br>-------- ------- -- ---------- --- - --- ----- ----- ----<br>---- --- --- ----- --- ---- ---- ------- ----- ---- -------<br>--- --- -- ----- -- --- ---- -- --- ---- -- that's ------<br>--- ----- -- ----,66486,66485.29999998212,66057.695,66062.29999998212,66074.365,66491.187,,50,that's
screen,html.Screen,0_2_0_1_51,2021-10-22T10:57:32.604Z,,,,,,,,,,,,,,,,53,,,,,,,,,,,,,,402.11299998211325,,response,,,99,,,,,,Space,keypress(Space),,,,,---- -- ----- -- ------ - ------- --- ----------<br>------------- ------ ------ ---- ---- ------- ----- -- ----<br>-------- ------- -- ---------- --- - --- ----- ----- ----<br>---- --- --- ----- --- ---- ---- ------- ----- ---- -------<br>--- --- -- ----- -- --- ---- -- --- ---- -- ------ really<br>--- ----- -- ----,66894,66893.29999998212,66474.516,66486.19999998808,66491.187,66907.777,,51,really
screen,html.Screen,0_2_0_1_52,2021-10-22T10:57:33.060Z,,,,,,,,,,,,,,,,53,,,,,,,,,,,,,,441.52299998211674,,response,,,99,,,,,,Space,keypress(Space),,,,,---- -- ----- -- ------ - ------- --- ----------<br>------------- ------ ------ ---- ---- ------- ----- -- ----<br>-------- ------- -- ---------- --- - --- ----- ----- ----<br>---- --- --- ----- --- ---- ---- ------- ----- ---- -------<br>--- --- -- ----- -- --- ---- -- --- ---- -- ------ ------<br>not ----- -- ----,67350,67349.29999998212,66891.109,66894.29999998212,66907.777,67358.109,,52,not
screen,html.Screen,0_2_0_1_53,2021-10-22T10:57:33.436Z,,,,,,,,,,,,,,,,53,,,,,,,,,,,,,,367.19099998212187,,response,,,99,,,,,,Space,keypress(Space),,,,,---- -- ----- -- ------ - ------- --- ----------<br>------------- ------ ------ ---- ---- ------- ----- -- ----<br>-------- ------- -- ---------- --- - --- ----- ----- ----<br>---- --- --- ----- --- ---- ---- ------- ----- ---- -------<br>--- --- -- ----- -- --- ---- -- --- ---- -- ------ ------<br>--- close -- ----,67726,67725.29999998212,67341.437,67350.29999998212,67358.109,67741.494,,53,close
screen,html.Screen,0_2_0_1_54,2021-10-22T10:57:33.804Z,,,,,,,,,,,,,,,,53,,,,,,,,,,,,,,351.705999988073,,response,,,99,,,,,,Space,keypress(Space),,,,,---- -- ----- -- ------ - ------- --- ----------<br>------------- ------ ------ ---- ---- ------- ----- -- ----<br>-------- ------- -- ---------- --- - --- ----- ----- ----<br>---- --- --- ----- --- ---- ---- ------- ----- ---- -------<br>--- --- -- ----- -- --- ---- -- --- ---- -- ------ ------<br>--- ----- at ----,68094,68093.19999998808,67724.823,67726.19999998808,67741.494,68108.09,,54,at
screen,html.Screen,0_2_0_1_55,2021-10-22T10:57:34.252Z,,,,,,,,,,,,,,,,53,,,,,,,,,,,,,,433.10999998808256,,response,,,99,,,,,,Space,keypress(Space),,,,,---- -- ----- -- ------ - ------- --- ----------<br>------------- ------ ------ ---- ---- ------- ----- -- ----<br>-------- ------- -- ---------- --- - --- ----- ----- ----<br>---- --- --- ----- --- ---- ---- ------- ----- ---- -------<br>--- --- -- ----- -- --- ---- -- --- ---- -- ------ ------<br>--- ----- -- all.,68542.09999999404,68541.19999998808,68091.422,68094.19999998808,68108.09,68558.425,,55,all.
Item 99,flow.Loop,0_2_0_1,2021-10-22T10:57:34.256Z,,,,,,,,,,,,,,,,,,,,,,,,,,,,,,27856.69999998808,,completion,,,,A,,,,,,,,,,silence,,68546.40000000596,68541.19999998808,40634.493,40640.40000000596,40684.5,68558.425,,,
Question 1,html.Screen,0_2_0_2,2021-10-22T10:57:39.500Z,,,,,,,,,,,,,,,,,,,,,,,,,,,true,FALSE,,5230.274999988076,,response,,,99,A,,,,,FALSE,click #choice-2,,,,silence,,73790.09999999404,73788.69999998808,68541.753,68546.69999998808,68558.425,73792.962,,,
Question 2,html.Screen,0_2_0_3,2021-10-22T10:57:45.396Z,,,,,,,,,,,,,,,,,,,,,,,,,,,true,TRUE,,5891.337999982119,,response,,,99,A,,,,,TRUE,click #choice-1,,,,silence,,79685.59999999404,79684.29999998212,73776.292,73790.40000000596,73792.962,79694.419,,,
Item 99,flow.Sequence,0_2_0,2021-10-22T10:57:45.396Z,,,,,,,,,,,,,,,,,,,,,,,,,,,,,,49035.66699998212,,completion,,,,,,,,,,,,,,,,79686,79684.29999998212,30631.964,30633.59999999404,30648.633,79694.419,,,
Holding screen,html.Screen,0_2_1_0,2021-10-22T10:57:55.391Z,,,,,,,,,,,,,,,,,,,,,,,,,,,,,,10002.404999999999,,timeout,,,,,,,,,,,,,,,,89681.29999998212,89680.154,79677.749,79686.29999998212,79694.419,89696.824,,,
screen,html.Screen,0_2_1_1_0,2021-10-22T10:57:56.115Z,,,,,,,,,,,,,,,,54,,,,,,,,,,,,,,707.4759999821254,,response,,,100,,,,,,Space,keypress(Space),,,,,At --- ---- --- ------ ----- ------- ---- -- --- ------- --<br>------- ---------- ------ -- ----- -- ----- -- ---- ------<br>--- ----- --- --- ------ -------- ----- --- ------ ----- --<br>----- ----- ---------- --- --- ------ ------ ---- -- ------<br>------- --- ------ ----- --- ---- ------- -- ---- --- --<br>------- ------,90405.19999998808,90404.29999998212,89680.154,89681.59999999404,89696.824,90413.836,,0,At
screen,html.Screen,0_2_1_1_1,2021-10-22T10:57:56.506Z,,,,,,,,,,,,,,,,54,,,,,,,,,,,,,,381.9639999821229,,response,,,100,,,,,,Space,keypress(Space),,,,,-- the ---- --- ------ ----- ------- ---- -- --- ------- --<br>------- ---------- ------ -- ----- -- ----- -- ---- ------<br>--- ----- --- --- ------ -------- ----- --- ------ ----- --<br>----- ----- ---------- --- --- ------ ------ ---- -- ------<br>------- --- ------ ----- --- ---- ------- -- ---- --- --<br>------- ------,90796.59999999404,90795.79999998212,90397.165,90405.5,90413.836,90813.835,,1,the
screen,html.Screen,0_2_1_1_2,2021-10-22T10:57:56.971Z,,,,,,,,,,,,,,,,54,,,,,,,,,,,,,,445.9649999821122,,response,,,100,,,,,,Space,keypress(Space),,,,,-- --- time --- ------ ----- ------- ---- -- --- ------- --<br>------- ---------- ------ -- ----- -- ----- -- ---- ------<br>--- ----- --- --- ------ -------- ----- --- ------ ----- --<br>----- ----- ---------- --- --- ------ ------ ---- -- ------<br>------- --- ------ ----- --- ---- ------- -- ---- --- --<br>------- ------,91260.59999999404,91259.79999998212,90797.165,90796.69999998808,90813.835,91264.007,,2,time
screen,html.Screen,0_2_1_1_3,2021-10-22T10:57:57.371Z,,,,,,,,,,,,,,,,54,,,,,,,,,,,,,,395.6929999880813,,response,,,100,,,,,,Space,keypress(Space),,,,,-- --- ---- the ------ ----- ------- ---- -- --- ------- --<br>------- ---------- ------ -- ----- -- ----- -- ---- ------<br>--- ----- --- --- ------ -------- ----- --- ------ ----- --<br>----- ----- ---------- --- --- ------ ------ ---- -- ------<br>------- --- ------ ----- --- ---- ------- -- ---- --- --<br>------- ------,91660.5,91659.69999998808,91247.336,91260.79999998212,91264.007,91663.943,,3,the
screen,html.Screen,0_2_1_1_4,2021-10-22T10:57:57.842Z,,,,,,,,,,,,,,,,54,,,,,,,,,,,,,,467.65699999404023,,response,,,100,,,,,,Space,keypress(Space),,,,,-- --- ---- --- French ----- ------- ---- -- --- ------- --<br>------- ---------- ------ -- ----- -- ----- -- ---- ------<br>--- ----- --- --- ------ -------- ----- --- ------ ----- --<br>----- ----- ---------- --- --- ------ ------ ---- -- ------<br>------- --- ------ ----- --- ---- ------- -- ---- --- --<br>------- ------,92132.40000000596,92131.59999999404,91647.275,91660.69999998808,91663.943,92147.618,,4,French
screen,html.Screen,0_2_1_1_5,2021-10-22T10:57:58.235Z,,,,,,,,,,,,,,,,54,,,,,,,,,,,,,,376.08199998807686,,response,,,100,,,,,,Space,keypress(Space),,,,,-- --- ---- --- ------ crown ------- ---- -- --- ------- --<br>------- ---------- ------ -- ----- -- ----- -- ---- ------<br>--- ----- --- --- ------ -------- ----- --- ------ ----- --<br>----- ----- ---------- --- --- ------ ------ ---- -- ------<br>------- --- ------ ----- --- ---- ------- -- ---- --- --<br>------- ------,92524.69999998808,92523.69999998808,92130.946,92132.69999998808,92147.618,92531.001,,5,crown
screen,html.Screen,0_2_1_1_6,2021-10-22T10:57:58.602Z,,,,,,,,,,,,,,,,54,,,,,,,,,,,,,,360.69899998807523,,response,,,100,,,,,,Space,keypress(Space),,,,,-- --- ---- --- ------ ----- secured ---- -- --- ------- --<br>------- ---------- ------ -- ----- -- ----- -- ---- ------<br>--- ----- --- --- ------ -------- ----- --- ------ ----- --<br>----- ----- ---------- --- --- ------ ------ ---- -- ------<br>------- --- ------ ----- --- ---- ------- -- ---- --- --<br>------- ------,92892.5,92891.69999998808,92514.33,92525,92531.001,92897.568,,6,secured
screen,html.Screen,0_2_1_1_7,2021-10-22T10:57:58.986Z,,,,,,,,,,,,,,,,54,,,,,,,,,,,,,,378.13199998807977,,response,,,100,,,,,,Space,keypress(Space),,,,,-- --- ---- --- ------ ----- ------- much -- --- ------- --<br>------- ---------- ------ -- ----- -- ----- -- ---- ------<br>--- ----- --- --- ------ -------- ----- --- ------ ----- --<br>----- ----- ---------- --- --- ------ ------ ---- -- ------<br>------- --- ------ ----- --- ---- ------- -- ---- --- --<br>------- ------,93276.40000000596,93275.69999998808,92880.9,92892.69999998808,92897.568,93281.229,,7,much
screen,html.Screen,0_2_1_1_8,2021-10-22T10:57:59.466Z,,,,,,,,,,,,,,,,54,,,,,,,,,,,,,,474.3709999940329,,response,,,100,,,,,,Space,keypress(Space),,,,,-- --- ---- --- ------ ----- ------- ---- of --- ------- --<br>------- ---------- ------ -- ----- -- ----- -- ---- ------<br>--- ----- --- --- ------ -------- ----- --- ------ ----- --<br>----- ----- ---------- --- --- ------ ------ ---- -- ------<br>------- --- ------ ----- --- ---- ------- -- ---- --- --<br>------- ------,93756.40000000596,93755.59999999404,93264.557,93276.69999998808,93281.229,93764.634,,8,of
screen,html.Screen,0_2_1_1_9,2021-10-22T10:57:59.826Z,,,,,,,,,,,,,,,,54,,,,,,,,,,,,,,350.86599999999453,,response,,,100,,,,,,Space,keypress(Space),,,,,-- --- ---- --- ------ ----- ------- ---- -- its ------- --<br>------- ---------- ------ -- ----- -- ----- -- ---- ------<br>--- ----- --- --- ------ -------- ----- --- ------ ----- --<br>----- ----- ---------- --- --- ------ ------ ---- -- ------<br>------- --- ------ ----- --- ---- ------- -- ---- --- --<br>------- ------,94116.29999998212,94115.5,93747.963,93756.69999998808,93764.634,94131.281,,9,its
screen,html.Screen,0_2_1_1_10,2021-10-22T10:58:00.186Z,,,,,,,,,,,,,,,,54,,,,,,,,,,,,,,344.2189999999973,,response,,,100,,,,,,Space,keypress(Space),,,,,-- --- ---- --- ------ ----- ------- ---- -- --- revenue --<br>------- ---------- ------ -- ----- -- ----- -- ---- ------<br>--- ----- --- --- ------ -------- ----- --- ------ ----- --<br>----- ----- ---------- --- --- ------ ------ ---- -- ------<br>------- --- ------ ----- --- ---- ------- -- ---- --- --<br>------- ------,94476.29999998212,94475.5,94114.612,94116.59999999404,94131.281,94481.485,,10,revenue
screen,html.Screen,0_2_1_1_11,2021-10-22T10:58:00.642Z,,,,,,,,,,,,,,,,54,,,,,,,,,,,,,,450.11499999403895,,response,,,100,,,,,,Space,keypress(Space),,,,,-- --- ---- --- ------ ----- ------- ---- -- --- ------- by<br>------- ---------- ------ -- ----- -- ----- -- ---- ------<br>--- ----- --- --- ------ -------- ----- --- ------ ----- --<br>----- ----- ---------- --- --- ------ ------ ---- -- ------<br>------- --- ------ ----- --- ---- ------- -- ---- --- --<br>------- ------,94932.40000000596,94931.59999999404,94464.814,94476.59999999404,94481.485,94948.224,,11,by
screen,html.Screen,0_2_1_1_12,2021-10-22T10:58:01.066Z,,,,,,,,,,,,,,,,54,,,,,,,,,,,,,,407.275999999998,,response,,,100,,,,,,Space,keypress(Space),,,,,-- --- ---- --- ------ ----- ------- ---- -- --- ------- --<br>issuing ---------- ------ -- ----- -- ----- -- ---- ------<br>--- ----- --- --- ------ -------- ----- --- ------ ----- --<br>----- ----- ---------- --- --- ------ ------ ---- -- ------<br>------- --- ------ ----- --- ---- ------- -- ---- --- --<br>------- ------,95356.29999998212,95355.5,94931.554,94932.69999998808,94948.224,95364.981,,12,issuing
screen,html.Screen,0_2_1_1_13,2021-10-22T10:58:01.450Z,,,,,,,,,,,,,,,,54,,,,,,,,,,,,,,374.4190000059607,,response,,,100,,,,,,Space,keypress(Space),,,,,-- --- ---- --- ------ ----- ------- ---- -- --- ------- --<br>------- government ------ -- ----- -- ----- -- ---- ------<br>--- ----- --- --- ------ -------- ----- --- ------ ----- --<br>----- ----- ---------- --- --- ------ ------ ---- -- ------<br>------- --- ------ ----- --- ---- ------- -- ---- --- --<br>------- ------,95740.29999998212,95739.40000000596,95348.311,95356.5,95364.981,95748.455,,13,government
screen,html.Screen,0_2_1_1_14,2021-10-22T10:58:01.818Z,,,,,,,,,,,,,,,,54,,,,,,,,,,,,,,359.04499999999825,,response,,,100,,,,,,Space,keypress(Space),,,,,-- --- ---- --- ------ ----- ------- ---- -- --- ------- --<br>------- ---------- bonds. -- ----- -- ----- -- ---- ------<br>--- ----- --- --- ------ -------- ----- --- ------ ----- --<br>----- ----- ---------- --- --- ------ ------ ---- -- ------<br>------- --- ------ ----- --- ---- ------- -- ---- --- --<br>------- ------,96108.19999998808,96107.5,95731.784,95740.5,95748.455,96115.187,,14,bonds.
screen,html.Screen,0_2_1_1_15,2021-10-22T10:58:02.338Z,,,,,,,,,,,,,,,,54,,,,,,,,,,,,,,512.2130000059551,,response,,,100,,,,,,Space,keypress(Space),,,,,-- --- ---- --- ------ ----- ------- ---- -- --- ------- --<br>------- ---------- ------ In ----- -- ----- -- ---- ------<br>--- ----- --- --- ------ -------- ----- --- ------ ----- --<br>----- ----- ---------- --- --- ------ ------ ---- -- ------<br>------- --- ------ ----- --- ---- ------- -- ---- --- --<br>------- ------,96628.19999998808,96627.40000000596,96098.517,96108.40000000596,96115.187,96631.979,,15,In
screen,html.Screen,0_2_1_1_16,2021-10-22T10:58:02.674Z,,,,,,,,,,,,,,,,54,,,,,,,,,,,,,,331.42100000595383,,response,,,100,,,,,,Space,keypress(Space),,,,,"-- --- ---- --- ------ ----- ------- ---- -- --- ------- --<br>------- ---------- ------ -- 1727, -- ----- -- ---- ------<br>--- ----- --- --- ------ -------- ----- --- ------ ----- --<br>----- ----- ---------- --- --- ------ ------ ---- -- ------<br>------- --- ------ ----- --- ---- ------- -- ---- --- --<br>------- ------",96964.19999998808,96963.40000000596,96615.309,96628.5,96631.979,96965.243,,16,"1727,"
screen,html.Screen,0_2_1_1_17,2021-10-22T10:58:04.130Z,,,,,,,,,,,,,,,,54,,,,,,,,,,,,,,1454.0569999821164,,response,,,100,,,,,,Space,keypress(Space),,,,,-- --- ---- --- ------ ----- ------- ---- -- --- ------- --<br>------- ---------- ------ -- ----- in ----- -- ---- ------<br>--- ----- --- --- ------ -------- ----- --- ------ ----- --<br>----- ----- ---------- --- --- ------ ------ ---- -- ------<br>------- --- ------ ----- --- ---- ------- -- ---- --- --<br>------- ------,98420.09999999404,98419.29999998212,96948.575,96964.40000000596,96965.243,98432.582,,17,in
screen,html.Screen,0_2_1_1_18,2021-10-22T10:58:04.562Z,,,,,,,,,,,,,,,,54,,,,,,,,,,,,,,418.6179999880842,,response,,,100,,,,,,Space,keypress(Space),,,,,-- --- ---- --- ------ ----- ------- ---- -- --- ------- --<br>------- ---------- ------ -- ----- -- order -- ---- ------<br>--- ----- --- --- ------ -------- ----- --- ------ ----- --<br>----- ----- ---------- --- --- ------ ------ ---- -- ------<br>------- --- ------ ----- --- ---- ------- -- ---- --- --<br>------- ------,98852.19999998808,98851.19999998808,98415.91,98420.29999998212,98432.582,98865.833,,18,order
screen,html.Screen,0_2_1_1_19,2021-10-22T10:58:04.970Z,,,,,,,,,,,,,,,,54,,,,,,,,,,,,,,393.36699998808035,,response,,,100,,,,,,Space,keypress(Space),,,,,-- --- ---- --- ------ ----- ------- ---- -- --- ------- --<br>------- ---------- ------ -- ----- -- ----- to ---- ------<br>--- ----- --- --- ------ -------- ----- --- ------ ----- --<br>----- ----- ---------- --- --- ------ ------ ---- -- ------<br>------- --- ------ ----- --- ---- ------- -- ---- --- --<br>------- ------,99260.09999999404,99259.19999998808,98849.163,98852.40000000596,98865.833,99265.897,,19,to
screen,html.Screen,0_2_1_1_20,2021-10-22T10:58:05.442Z,,,,,,,,,,,,,,,,54,,,,,,,,,,,,,,465.4029999821214,,response,,,100,,,,,,Space,keypress(Space),,,,,-- --- ---- --- ------ ----- ------- ---- -- --- ------- --<br>------- ---------- ------ -- ----- -- ----- -- save ------<br>--- ----- --- --- ------ -------- ----- --- ------ ----- --<br>----- ----- ---------- --- --- ------ ------ ---- -- ------<br>------- --- ------ ----- --- ---- ------- -- ---- --- --<br>------- ------,99732,99731.29999998212,99249.227,99260.40000000596,99265.897,99749.512,,20,save
screen,html.Screen,0_2_1_1_21,2021-10-22T10:58:05.922Z,,,,,,,,,,,,,,,,54,,,,,,,,,,,,,,461.5879999940371,,response,,,100,,,,,,Space,keypress(Space),,,,,"-- --- ---- --- ------ ----- ------- ---- -- --- ------- --<br>------- ---------- ------ -- ----- -- ----- -- ---- money,<br>--- ----- --- --- ------ -------- ----- --- ------ ----- --<br>----- ----- ---------- --- --- ------ ------ ---- -- ------<br>------- --- ------ ----- --- ---- ------- -- ---- --- --<br>------- ------",100212,100211.09999999404,99732.84,99732.29999998212,99749.512,100216.264,,21,"money,"
screen,html.Screen,0_2_1_1_22,2021-10-22T10:58:06.434Z,,,,,,,,,,,,,,,,54,,,,,,,,,,,,,,507.33599999404396,,response,,,100,,,,,,Space,keypress(Space),,,,,-- --- ---- --- ------ ----- ------- ---- -- --- ------- --<br>------- ---------- ------ -- ----- -- ----- -- ---- ------<br>the ----- --- --- ------ -------- ----- --- ------ ----- --<br>----- ----- ---------- --- --- ------ ------ ---- -- ------<br>------- --- ------ ----- --- ---- ------- -- ---- --- --<br>------- ------,100724.40000000596,100723.59999999404,100199.593,100212.40000000596,100216.264,100732.989,,22,the
screen,html.Screen,0_2_1_1_23,2021-10-22T10:58:06.810Z,,,,,,,,,,,,,,,,54,,,,,,,,,,,,,,366.11099999403814,,response,,,100,,,,,,Space,keypress(Space),,,,,-- --- ---- --- ------ ----- ------- ---- -- --- ------- --<br>------- ---------- ------ -- ----- -- ----- -- ---- ------<br>--- state --- --- ------ -------- ----- --- ------ ----- --<br>----- ----- ---------- --- --- ------ ------ ---- -- ------<br>------- --- ------ ----- --- ---- ------- -- ---- --- --<br>------- ------,101099.90000000596,101099.09999999404,100716.319,100724.79999998212,100732.989,101116.412,,23,state
screen,html.Screen,0_2_1_1_24,2021-10-22T10:58:07.202Z,,,,,,,,,,,,,,,,54,,,,,,,,,,,,,,374.48800000596384,,response,,,100,,,,,,Space,keypress(Space),,,,,-- --- ---- --- ------ ----- ------- ---- -- --- ------- --<br>------- ---------- ------ -- ----- -- ----- -- ---- ------<br>--- ----- cut --- ------ -------- ----- --- ------ ----- --<br>----- ----- ---------- --- --- ------ ------ ---- -- ------<br>------- --- ------ ----- --- ---- ------- -- ---- --- --<br>------- ------,101492,101490.90000000596,101099.742,101100.19999998808,101116.412,101499.893,,24,cut
screen,html.Screen,0_2_1_1_25,2021-10-22T10:58:07.594Z,,,,,,,,,,,,,,,,54,,,,,,,,,,,,,,383.1070000000036,,response,,,100,,,,,,Space,keypress(Space),,,,,-- --- ---- --- ------ ----- ------- ---- -- --- ------- --<br>------- ---------- ------ -- ----- -- ----- -- ---- ------<br>--- ----- --- the ------ -------- ----- --- ------ ----- --<br>----- ----- ---------- --- --- ------ ------ ---- -- ------<br>------- --- ------ ----- --- ---- ------- -- ---- --- --<br>------- ------,101883.79999998212,101883,101483.222,101492.29999998212,101499.893,101899.94,,25,the
screen,html.Screen,0_2_1_1_26,2021-10-22T10:58:08.034Z,,,,,,,,,,,,,,,,54,,,,,,,,,,,,,,423.0599999999977,,response,,,100,,,,,,Space,keypress(Space),,,,,-- --- ---- --- ------ ----- ------- ---- -- --- ------- --<br>------- ---------- ------ -- ----- -- ----- -- ---- ------<br>--- ----- --- --- bonds' -------- ----- --- ------ ----- --<br>----- ----- ---------- --- --- ------ ------ ---- -- ------<br>------- --- ------ ----- --- ---- ------- -- ---- --- --<br>------- ------,102323.79999998212,102323,101883.27,101884.19999998808,101899.94,102333.432,,26,bonds'
screen,html.Screen,0_2_1_1_27,2021-10-22T10:58:08.490Z,,,,,,,,,,,,,,,,54,,,,,,,,,,,,,,445.5679999999993,,response,,,100,,,,,,Space,keypress(Space),,,,,-- --- ---- --- ------ ----- ------- ---- -- --- ------- --<br>------- ---------- ------ -- ----- -- ----- -- ---- ------<br>--- ----- --- --- ------ interest ----- --- ------ ----- --<br>----- ----- ---------- --- --- ------ ------ ---- -- ------<br>------- --- ------ ----- --- ---- ------- -- ---- --- --<br>------- ------,102779.79999998212,102779,102316.761,102324.09999999404,102333.432,102783.413,,27,interest
screen,html.Screen,0_2_1_1_28,2021-10-22T10:58:08.898Z,,,,,,,,,,,,,,,,54,,,,,,,,,,,,,,403.48700000596,,response,,,100,,,,,,Space,keypress(Space),,,,,-- --- ---- --- ------ ----- ------- ---- -- --- ------- --<br>------- ---------- ------ -- ----- -- ----- -- ---- ------<br>--- ----- --- --- ------ -------- rate. --- ------ ----- --<br>----- ----- ---------- --- --- ------ ------ ---- -- ------<br>------- --- ------ ----- --- ---- ------- -- ---- --- --<br>------- ------,103187.79999998212,103186.90000000596,102766.744,102780.09999999404,102783.413,103200.339,,28,rate.
screen,html.Screen,0_2_1_1_29,2021-10-22T10:58:09.314Z,,,,,,,,,,,,,,,,54,,,,,,,,,,,,,,402.6609999999928,,response,,,100,,,,,,Space,keypress(Space),,,,,-- --- ---- --- ------ ----- ------- ---- -- --- ------- --<br>------- ---------- ------ -- ----- -- ----- -- ---- ------<br>--- ----- --- --- ------ -------- ----- The ------ ----- --<br>----- ----- ---------- --- --- ------ ------ ---- -- ------<br>------- --- ------ ----- --- ---- ------- -- ---- --- --<br>------- ------,103603.79999998212,103603,103183.668,103188.09999999404,103200.339,103617.055,,29,The
screen,html.Screen,0_2_1_1_30,2021-10-22T10:58:09.762Z,,,,,,,,,,,,,,,,54,,,,,,,,,,,,,,433.945000000007,,response,,,100,,,,,,Space,keypress(Space),,,,,-- --- ---- --- ------ ----- ------- ---- -- --- ------- --<br>------- ---------- ------ -- ----- -- ----- -- ---- ------<br>--- ----- --- --- ------ -------- ----- --- market ----- --<br>----- ----- ---------- --- --- ------ ------ ---- -- ------<br>------- --- ------ ----- --- ---- ------- -- ---- --- --<br>------- ------,104051.69999998808,104051,103600.385,103604.09999999404,103617.055,104067.149,,30,market
screen,html.Screen,0_2_1_1_31,2021-10-22T10:58:10.162Z,,,,,,,,,,,,,,,,54,,,,,,,,,,,,,,383.8509999999951,,response,,,100,,,,,,Space,keypress(Space),,,,,-- --- ---- --- ------ ----- ------- ---- -- --- ------- --<br>------- ---------- ------ -- ----- -- ----- -- ---- ------<br>--- ----- --- --- ------ -------- ----- --- ------ value --<br>----- ----- ---------- --- --- ------ ------ ---- -- ------<br>------- --- ------ ----- --- ---- ------- -- ---- --- --<br>------- ------,104451.79999998212,104451,104050.479,104052,104067.149,104467.295,,31,value
screen,html.Screen,0_2_1_1_32,2021-10-22T10:58:10.602Z,,,,,,,,,,,,,,,,54,,,,,,,,,,,,,,423.6050000059622,,response,,,100,,,,,,Space,keypress(Space),,,,,-- --- ---- --- ------ ----- ------- ---- -- --- ------- --<br>------- ---------- ------ -- ----- -- ----- -- ---- ------<br>--- ----- --- --- ------ -------- ----- --- ------ ----- of<br>----- ----- ---------- --- --- ------ ------ ---- -- ------<br>------- --- ------ ----- --- ---- ------- -- ---- --- --<br>------- ------,104891.59999999404,104890.90000000596,104450.624,104452.09999999404,104467.295,104900.688,,32,of
screen,html.Screen,0_2_1_1_33,2021-10-22T10:58:11.050Z,,,,,,,,,,,,,,,,54,,,,,,,,,,,,,,438.11199998212396,,response,,,100,,,,,,Space,keypress(Space),,,,,-- --- ---- --- ------ ----- ------- ---- -- --- ------- --<br>------- ---------- ------ -- ----- -- ----- -- ---- ------<br>--- ----- --- --- ------ -------- ----- --- ------ ----- --<br>these ----- ---------- --- --- ------ ------ ---- -- ------<br>------- --- ------ ----- --- ---- ------- -- ---- --- --<br>------- ------,105339.59999999404,105338.79999998212,104884.018,104891.90000000596,104900.688,105350.848,,33,these
screen,html.Screen,0_2_1_1_34,2021-10-22T10:58:11.498Z,,,,,,,,,,,,,,,,54,,,,,,,,,,,,,,436.0520000059623,,response,,,100,,,,,,Space,keypress(Space),,,,,-- --- ---- --- ------ ----- ------- ---- -- --- ------- --<br>------- ---------- ------ -- ----- -- ----- -- ---- ------<br>--- ----- --- --- ------ -------- ----- --- ------ ----- --<br>----- bonds ---------- --- --- ------ ------ ---- -- ------<br>------- --- ------ ----- --- ---- ------- -- ---- --- --<br>------- ------,105787.59999999404,105786.90000000596,105334.177,105339.79999998212,105350.848,105800.855,,34,bonds
screen,html.Screen,0_2_1_1_35,2021-10-22T10:58:11.922Z,,,,,,,,,,,,,,,,54,,,,,,,,,,,,,,410.04500000596454,,response,,,100,,,,,,Space,keypress(Space),,,,,"-- --- ---- --- ------ ----- ------- ---- -- --- ------- --<br>------- ---------- ------ -- ----- -- ----- -- ---- ------<br>--- ----- --- --- ------ -------- ----- --- ------ ----- --<br>----- ----- plummeted, --- --- ------ ------ ---- -- ------<br>------- --- ------ ----- --- ---- ------- -- ---- --- --<br>------- ------",106211.69999998808,106210.90000000596,105784.186,105787.79999998212,105800.855,106217.716,,35,"plummeted,"
screen,html.Screen,0_2_1_1_36,2021-10-22T10:58:12.362Z,,,,,,,,,,,,,,,,54,,,,,,,,,,,,,,433.08399998211826,,response,,,100,,,,,,Space,keypress(Space),,,,,-- --- ---- --- ------ ----- ------- ---- -- --- ------- --<br>------- ---------- ------ -- ----- -- ----- -- ---- ------<br>--- ----- --- --- ------ -------- ----- --- ------ ----- --<br>----- ----- ---------- and --- ------ ------ ---- -- ------<br>------- --- ------ ----- --- ---- ------- -- ---- --- --<br>------- ------,106651.59999999404,106650.79999998212,106201.045,106211.90000000596,106217.716,106667.835,,36,and
screen,html.Screen,0_2_1_1_37,2021-10-22T10:58:12.746Z,,,,,,,,,,,,,,,,54,,,,,,,,,,,,,,366.9649999821122,,response,,,100,,,,,,Space,keypress(Space),,,,,-- --- ---- --- ------ ----- ------- ---- -- --- ------- --<br>------- ---------- ------ -- ----- -- ----- -- ---- ------<br>--- ----- --- --- ------ -------- ----- --- ------ ----- --<br>----- ----- ---------- --- the ------ ------ ---- -- ------<br>------- --- ------ ----- --- ---- ------- -- ---- --- --<br>------- ------,107035.59999999404,107034.79999998212,106651.164,106652,106667.835,107051.235,,37,the
screen,html.Screen,0_2_1_1_38,2021-10-22T10:58:13.202Z,,,,,,,,,,,,,,,,54,,,,,,,,,,,,,,439.564999982118,,response,,,100,,,,,,Space,keypress(Space),,,,,-- --- ---- --- ------ ----- ------- ---- -- --- ------- --<br>------- ---------- ------ -- ----- -- ----- -- ---- ------<br>--- ----- --- --- ------ -------- ----- --- ------ ----- --<br>----- ----- ---------- --- --- market ------ ---- -- ------<br>------- --- ------ ----- --- ---- ------- -- ---- --- --<br>------- ------,107491.5,107490.79999998212,107034.565,107035.79999998212,107051.235,107501.315,,38,market
screen,html.Screen,0_2_1_1_39,2021-10-22T10:58:13.617Z,,,,,,,,,,,,,,,,54,,,,,,,,,,,,,,405.38499998807674,,response,,,100,,,,,,Space,keypress(Space),,,,,-- --- ---- --- ------ ----- ------- ---- -- --- ------- --<br>------- ---------- ------ -- ----- -- ----- -- ---- ------<br>--- ----- --- --- ------ -------- ----- --- ------ ----- --<br>----- ----- ---------- --- --- ------ became ---- -- ------<br>------- --- ------ ----- --- ---- ------- -- ---- --- --<br>------- ------,107907.5,107906.69999998808,107484.645,107491.79999998212,107501.315,107918.171,,39,became
screen,html.Screen,0_2_1_1_40,2021-10-22T10:58:14.057Z,,,,,,,,,,,,,,,,54,,,,,,,,,,,,,,428.528999988077,,response,,,100,,,,,,Space,keypress(Space),,,,,-- --- ---- --- ------ ----- ------- ---- -- --- ------- --<br>------- ---------- ------ -- ----- -- ----- -- ---- ------<br>--- ----- --- --- ------ -------- ----- --- ------ ----- --<br>----- ----- ---------- --- --- ------ ------ wary -- ------<br>------- --- ------ ----- --- ---- ------- -- ---- --- --<br>------- ------,108347.5,108346.69999998808,107901.5,107907.69999998808,107918.171,108351.563,,40,wary
screen,html.Screen,0_2_1_1_41,2021-10-22T10:58:14.457Z,,,,,,,,,,,,,,,,54,,,,,,,,,,,,,,395.1369999880844,,response,,,100,,,,,,Space,keypress(Space),,,,,-- --- ---- --- ------ ----- ------- ---- -- --- ------- --<br>------- ---------- ------ -- ----- -- ----- -- ---- ------<br>--- ----- --- --- ------ -------- ----- --- ------ ----- --<br>----- ----- ---------- --- --- ------ ------ ---- of ------<br>------- --- ------ ----- --- ---- ------- -- ---- --- --<br>------- ------,108747.5,108746.69999998808,108334.893,108347.69999998808,108351.563,108751.649,,41,of
screen,html.Screen,0_2_1_1_42,2021-10-22T10:58:14.833Z,,,,,,,,,,,,,,,,54,,,,,,,,,,,,,,370.95099999403465,,response,,,100,,,,,,Space,keypress(Space),,,,,-- --- ---- --- ------ ----- ------- ---- -- --- ------- --<br>------- ---------- ------ -- ----- -- ----- -- ---- ------<br>--- ----- --- --- ------ -------- ----- --- ------ ----- --<br>----- ----- ---------- --- --- ------ ------ ---- -- French<br>------- --- ------ ----- --- ---- ------- -- ---- --- --<br>------- ------,109123.40000000596,109122.59999999404,108734.979,108747.69999998808,108751.649,109135.085,,42,French
screen,html.Screen,0_2_1_1_43,2021-10-22T10:58:15.281Z,,,,,,,,,,,,,,,,54,,,,,,,,,,,,,,435.51499999403313,,response,,,100,,,,,,Space,keypress(Space),,,,,-- --- ---- --- ------ ----- ------- ---- -- --- ------- --<br>------- ---------- ------ -- ----- -- ----- -- ---- ------<br>--- ----- --- --- ------ -------- ----- --- ------ ----- --<br>----- ----- ---------- --- --- ------ ------ ---- -- ------<br>credit. --- ------ ----- --- ---- ------- -- ---- --- --<br>------- ------,109571.5,109570.59999999404,109118.415,109123.59999999404,109135.085,109585.061,,43,credit.
screen,html.Screen,0_2_1_1_44,2021-10-22T10:58:15.785Z,,,,,,,,,,,,,,,,54,,,,,,,,,,,,,,489.538999994038,,response,,,100,,,,,,Space,keypress(Space),,,,,-- --- ---- --- ------ ----- ------- ---- -- --- ------- --<br>------- ---------- ------ -- ----- -- ----- -- ---- ------<br>--- ----- --- --- ------ -------- ----- --- ------ ----- --<br>----- ----- ---------- --- --- ------ ------ ---- -- ------<br>------- The ------ ----- --- ---- ------- -- ---- --- --<br>------- ------,110075.29999998212,110074.59999999404,109568.393,109571.69999998808,109585.061,110085.421,,44,The
screen,html.Screen,0_2_1_1_45,2021-10-22T10:58:16.297Z,,,,,,,,,,,,,,,,54,,,,,,,,,,,,,,501.0789999999979,,response,,,100,,,,,,Space,keypress(Space),,,,,-- --- ---- --- ------ ----- ------- ---- -- --- ------- --<br>------- ---------- ------ -- ----- -- ----- -- ---- ------<br>--- ----- --- --- ------ -------- ----- --- ------ ----- --<br>----- ----- ---------- --- --- ------ ------ ---- -- ------<br>------- --- French ----- --- ---- ------- -- ---- --- --<br>------- ------,110587.29999998212,110586.5,110068.749,110075.5,110085.421,110602.114,,45,French
screen,html.Screen,0_2_1_1_46,2021-10-22T10:58:16.810Z,,,,,,,,,,,,,,,,54,,,,,,,,,,,,,,496.78600000595907,,response,,,100,,,,,,Space,keypress(Space),,,,,-- --- ---- --- ------ ----- ------- ---- -- --- ------- --<br>------- ---------- ------ -- ----- -- ----- -- ---- ------<br>--- ----- --- --- ------ -------- ----- --- ------ ----- --<br>----- ----- ---------- --- --- ------ ------ ---- -- ------<br>------- --- ------ state --- ---- ------- -- ---- --- --<br>------- ------,111099.69999998808,111098.90000000596,110585.444,110587.69999998808,110602.114,111102.226,,46,state
screen,html.Screen,0_2_1_1_47,2021-10-22T10:58:17.257Z,,,,,,,,,,,,,,,,54,,,,,,,,,,,,,,444.2740000000049,,response,,,100,,,,,,Space,keypress(Space),,,,,-- --- ---- --- ------ ----- ------- ---- -- --- ------- --<br>------- ---------- ------ -- ----- -- ----- -- ---- ------<br>--- ----- --- --- ------ -------- ----- --- ------ ----- --<br>----- ----- ---------- --- --- ------ ------ ---- -- ------<br>------- --- ------ ----- was ---- ------- -- ---- --- --<br>------- ------,111547.29999998212,111546.5,111085.556,111100,111102.226,111552.349,,47,was
screen,html.Screen,0_2_1_1_48,2021-10-22T10:58:17.657Z,,,,,,,,,,,,,,,,54,,,,,,,,,,,,,,394.0510000059585,,response,,,100,,,,,,Space,keypress(Space),,,,,-- --- ---- --- ------ ----- ------- ---- -- --- ------- --<br>------- ---------- ------ -- ----- -- ----- -- ---- ------<br>--- ----- --- --- ------ -------- ----- --- ------ ----- --<br>----- ----- ---------- --- --- ------ ------ ---- -- ------<br>------- --- ------ ----- --- left ------- -- ---- --- --<br>------- ------,111947.29999998212,111946.40000000596,111535.679,111547.5,111552.349,111952.488,,48,left
screen,html.Screen,0_2_1_1_49,2021-10-22T10:58:18.105Z,,,,,,,,,,,,,,,,54,,,,,,,,,,,,,,441.9120000059629,,response,,,100,,,,,,Space,keypress(Space),,,,,-- --- ---- --- ------ ----- ------- ---- -- --- ------- --<br>------- ---------- ------ -- ----- -- ----- -- ---- ------<br>--- ----- --- --- ------ -------- ----- --- ------ ----- --<br>----- ----- ---------- --- --- ------ ------ ---- -- ------<br>------- --- ------ ----- --- ---- without -- ---- --- --<br>------- ------,112395.29999998212,112394.40000000596,111935.817,111947.59999999404,111952.488,112402.607,,49,without
screen,html.Screen,0_2_1_1_50,2021-10-22T10:58:18.489Z,,,,,,,,,,,,,,,,54,,,,,,,,,,,,,,375.79300000595686,,response,,,100,,,,,,Space,keypress(Space),,,,,-- --- ---- --- ------ ----- ------- ---- -- --- ------- --<br>------- ---------- ------ -- ----- -- ----- -- ---- ------<br>--- ----- --- --- ------ -------- ----- --- ------ ----- --<br>----- ----- ---------- --- --- ------ ------ ---- -- ------<br>------- --- ------ ----- --- ---- ------- an ---- --- --<br>------- ------,112779.19999998808,112778.40000000596,112385.936,112395.5,112402.607,112785.98,,50,an
screen,html.Screen,0_2_1_1_51,2021-10-22T10:58:18.889Z,,,,,,,,,,,,,,,,54,,,,,,,,,,,,,,392.3199999821227,,response,,,100,,,,,,Space,keypress(Space),,,,,-- --- ---- --- ------ ----- ------- ---- -- --- ------- --<br>------- ---------- ------ -- ----- -- ----- -- ---- ------<br>--- ----- --- --- ------ -------- ----- --- ------ ----- --<br>----- ----- ---------- --- --- ------ ------ ---- -- ------<br>------- --- ------ ----- --- ---- ------- -- easy --- --<br>------- ------,113179.19999998808,113178.29999998212,112769.31,112779.5,112785.98,113186.132,,51,easy
screen,html.Screen,0_2_1_1_52,2021-10-22T10:58:19.273Z,,,,,,,,,,,,,,,,54,,,,,,,,,,,,,,376.2680000059627,,response,,,100,,,,,,Space,keypress(Space),,,,,-- --- ---- --- ------ ----- ------- ---- -- --- ------- --<br>------- ---------- ------ -- ----- -- ----- -- ---- ------<br>--- ----- --- --- ------ -------- ----- --- ------ ----- --<br>----- ----- ---------- --- --- ------ ------ ---- -- ------<br>------- --- ------ ----- --- ---- ------- -- ---- way --<br>------- ------,113563.09999999404,113562.40000000596,113169.461,113179.40000000596,113186.132,113569.384,,52,way
screen,html.Screen,0_2_1_1_53,2021-10-22T10:58:19.641Z,,,,,,,,,,,,,,,,54,,,,,,,,,,,,,,360.91599998211314,,response,,,100,,,,,,Space,keypress(Space),,,,,-- --- ---- --- ------ ----- ------- ---- -- --- ------- --<br>------- ---------- ------ -- ----- -- ----- -- ---- ------<br>--- ----- --- --- ------ -------- ----- --- ------ ----- --<br>----- ----- ---------- --- --- ------ ------ ---- -- ------<br>------- --- ------ ----- --- ---- ------- -- ---- --- of<br>------- ------,113931.09999999404,113930.29999998212,113552.716,113563.40000000596,113569.384,113936.354,,53,of
screen,html.Screen,0_2_1_1_54,2021-10-22T10:58:20.057Z,,,,,,,,,,,,,,,,54,,,,,,,,,,,,,,409.94599998211197,,response,,,100,,,,,,Space,keypress(Space),,,,,-- --- ---- --- ------ ----- ------- ---- -- --- ------- --<br>------- ---------- ------ -- ----- -- ----- -- ---- ------<br>--- ----- --- --- ------ -------- ----- --- ------ ----- --<br>----- ----- ---------- --- --- ------ ------ ---- -- ------<br>------- --- ------ ----- --- ---- ------- -- ---- --- --<br>raising ------,114347.09999999404,114346.29999998212,113919.682,113931.29999998212,113936.354,114353.095,,54,raising
screen,html.Screen,0_2_1_1_55,2021-10-22T10:58:20.481Z,,,,,,,,,,,,,,,,54,,,,,,,,,,,,,,417.1049999880779,,response,,,100,,,,,,Space,keypress(Space),,,,,-- --- ---- --- ------ ----- ------- ---- -- --- ------- --<br>------- ---------- ------ -- ----- -- ----- -- ---- ------<br>--- ----- --- --- ------ -------- ----- --- ------ ----- --<br>----- ----- ---------- --- --- ------ ------ ---- -- ------<br>------- --- ------ ----- --- ---- ------- -- ---- --- --<br>------- money.,114771,114770.19999998808,114336.424,114347.29999998212,114353.095,114786.34,,55,money.
Item 100,flow.Loop,0_2_1_1,2021-10-22T10:58:20.481Z,,,,,,,,,,,,,,,,,,,,,,,,,,,,,,25073.375999988086,,completion,,,,A,,,,,,,,,,silence,,114771.5,114770.19999998808,89680.154,89681.5,89696.824,114786.34,,,
Question 1,html.Screen,0_2_1_2,2021-10-22T10:58:22.849Z,,,,,,,,,,,,,,,,,,,,,,,,,,,true,TRUE,,2351.6600000000035,,response,,,100,A,,,,,TRUE,click #choice-1,,,,silence,,117139.09999999404,117138,114769.672,114771.69999998808,114786.34,117153.726,,,
Question 2,html.Screen,0_2_1_3,2021-10-22T10:58:26.804Z,,,,,,,,,,,,,,,,,,,,,,,,,,,true,FALSE,,3935.8739999940444,,response,,,100,A,,,,,FALSE,click #choice-2,,,,silence,,121090.90000000596,121089.59999999404,117137.056,117139.40000000596,117153.726,121104.731,,,
Item 100,flow.Sequence,0_2_1,2021-10-22T10:58:26.805Z,,,,,,,,,,,,,,,,,,,,,,,,,,,,,,41395.180999994045,,completion,,,,,,,,,,,,,,,,121091.29999998212,121089.59999999404,79677.749,79686.09999999404,79694.419,121104.731,,,
End of Practice,html.Page,0_2_2,2021-10-22T10:58:32.141Z,,,,,,,,,,,,,,,,,,,,,,,,,,,,,,5322.068999982119,,form submission,,,,,,,,,,,,,,,,126427.29999998212,126426.79999998212,121088.061,121091.5,121104.731,126439.769,,,
Practice,flow.Sequence,0_2,2021-10-22T10:58:32.141Z,,,,,,,,,,,,,,,,,,,,,,,,,,,,,,95778.16699998212,,completion,,,,,,,,,,,,,,,,126427.90000000596,126426.79999998212,30631.964,30633.59999999404,30648.633,126439.769,,,
Trap_instruction,html.Page,0_3_0,2021-10-22T10:58:36.964Z,,,,,,,,,,,,,,,,,,,,,,,,,,,,,,4810.731,,form submission,,,,,,,,,,,,,,,,131250.90000000596,131250.5,126423.086,126428.29999998212,126439.769,131305.736,,,
trap_trial,html.Screen,0_3_1,2021-10-22T10:58:40.051Z,,,,,,,,,,,,,,,,,,,,,,,,,,,true,1,,3031.164000005956,,response,,,,,,,,,1,click #choice-1,,,,,,134338,134336.90000000596,131239.076,131251.19999998808,131305.736,134353.673,,,
end of trap trial,html.Page,0_3_2,2021-10-22T10:58:42.012Z,,,,,,,,,,,,,,,,,,,,,,,,,,,,,,1944.3269999999902,,form submission,,,,,,,,,,,,,,,,136298.5,136298,134337.027,134338.29999998212,134353.673,136308.455,,,
Trap 1,flow.Sequence,0_3,2021-10-22T10:58:42.012Z,,,,,,,,,,,,,,,,,,,,,,,,,,,,,,9858.231,,completion,,,,,,,,,,,,,,,,136299,136298,126423.086,126428.19999998808,126439.769,136308.455,,,
Standby,html.Page,0_4_0,2021-10-22T10:58:50.008Z,,,,,,,,,,,,,,,,,,,,,,,,,,,,,,8001.635000000009,,timeout,,,,,,,,,,,,,,,,144295.09999999404,144293.42,136291.785,136299.40000000596,136308.455,144310.09,,,
Holding screen,html.Screen,0_4_1_0_0,2021-10-22T10:58:57.010Z,,,,,,,,,,,,,,,,,,,,,,,,,,,,,,7002.201000000001,,timeout,,,,,,,,,,,,,,,,151296.79999998212,151295.62,144293.42,144295.5,144310.09,151312.291,,,
screen,html.Screen,0_4_1_0_1_0,2021-10-22T10:58:58.187Z,,,,,,,,,,,,,,,,15,,,,,,,,,,,,,,1160.0089999821212,,response,,,7,A,,,,,Space,keypress(Space),,,,silence,Greg --------- ---------- - --- ------- -- --- ------------<br>----- -- -------- ------- ---- ------ - -------- ---- -----<br>--- ------- ---- -- --- -------- --- - ----- ------ ---- --<br>-------- --- -------- -------- --- -------- ---- -- ----- -<br>-------- ---- --- ---------- --------- -- ------- ------ -<br>--------- ----- -----,152473.40000000596,152472.29999998212,151295.62,151297.19999998808,151312.291,152479.154,,0,Greg
screen,html.Screen,0_4_1_0_1_1,2021-10-22T10:58:58.562Z,,,,,,,,,,,,,,,,15,,,,,,,,,,,,,,368.64599998210906,,response,,,7,A,,,,,Space,keypress(Space),,,,silence,"---- Anderson, ---------- - --- ------- -- --- ------------<br>----- -- -------- ------- ---- ------ - -------- ---- -----<br>--- ------- ---- -- --- -------- --- - ----- ------ ---- --<br>-------- --- -------- -------- --- -------- ---- -- ----- -<br>-------- ---- --- ---------- --------- -- ------- ------ -<br>--------- ----- -----",152848.59999999404,152847.79999998212,152462.484,152473.69999998808,152479.154,152862.59,,1,"Anderson,"
screen,html.Screen,0_4_1_0_1_2,2021-10-22T10:58:59.066Z,,,,,,,,,,,,,,,,15,,,,,,,,,,,,,,489.2099999821221,,response,,,7,A,,,,,Space,keypress(Space),,,,silence,---- --------- considered - --- ------- -- --- ------------<br>----- -- -------- ------- ---- ------ - -------- ---- -----<br>--- ------- ---- -- --- -------- --- - ----- ------ ---- --<br>-------- --- -------- -------- --- -------- ---- -- ----- -<br>-------- ---- --- ---------- --------- -- ------- ------ -<br>--------- ----- -----,153352.69999998808,153351.79999998212,152845.92,152848.90000000596,152862.59,153362.788,,2,considered
screen,html.Screen,0_4_1_0_1_3,2021-10-22T10:58:59.530Z,,,,,,,,,,,,,,,,15,,,,,,,,,,,,,,453.01199998211814,,response,,,7,A,,,,,Space,keypress(Space),,,,silence,---- --------- ---------- a --- ------- -- --- ------------<br>----- -- -------- ------- ---- ------ - -------- ---- -----<br>--- ------- ---- -- --- -------- --- - ----- ------ ---- --<br>-------- --- -------- -------- --- -------- ---- -- ----- -<br>-------- ---- --- ---------- --------- -- ------- ------ -<br>--------- ----- -----,153816.59999999404,153815.79999998212,153346.117,153352.90000000596,153362.788,153829.58,,3,a
screen,html.Screen,0_4_1_0_1_4,2021-10-22T10:58:59.906Z,,,,,,,,,,,,,,,,15,,,,,,,,,,,,,,362.2199999821314,,response,,,7,A,,,,,Space,keypress(Space),,,,silence,---- --------- ---------- - key ------- -- --- ------------<br>----- -- -------- ------- ---- ------ - -------- ---- -----<br>--- ------- ---- -- --- -------- --- - ----- ------ ---- --<br>-------- --- -------- -------- --- -------- ---- -- ----- -<br>-------- ---- --- ---------- --------- -- ------- ------ -<br>--------- ----- -----,154192.59999999404,154191.79999998212,153812.909,153817,153829.58,154196.308,,4,key
screen,html.Screen,0_4_1_0_1_5,2021-10-22T10:59:00.322Z,,,,,,,,,,,,,,,,15,,,,,,,,,,,,,,411.29199999404955,,response,,,7,A,,,,,Space,keypress(Space),,,,silence,---- --------- ---------- - --- witness -- --- ------------<br>----- -- -------- ------- ---- ------ - -------- ---- -----<br>--- ------- ---- -- --- -------- --- - ----- ------ ---- --<br>-------- --- -------- -------- --- -------- ---- -- ----- -<br>-------- ---- --- ---------- --------- -- ------- ------ -<br>--------- ----- -----,154608.5,154607.59999999404,154179.638,154192.90000000596,154196.308,154613.074,,5,witness
screen,html.Screen,0_4_1_0_1_6,2021-10-22T10:59:00.714Z,,,,,,,,,,,,,,,,15,,,,,,,,,,,,,,386.6259999880858,,response,,,7,A,,,,,Space,keypress(Space),,,,silence,---- --------- ---------- - --- ------- by --- ------------<br>----- -- -------- ------- ---- ------ - -------- ---- -----<br>--- ------- ---- -- --- -------- --- - ----- ------ ---- --<br>-------- --- -------- -------- --- -------- ---- -- ----- -<br>-------- ---- --- ---------- --------- -- ------- ------ -<br>--------- ----- -----,155000.40000000596,154999.69999998808,154596.404,154608.79999998212,154613.074,155013.159,,6,by
screen,html.Screen,0_4_1_0_1_7,2021-10-22T10:59:01.090Z,,,,,,,,,,,,,,,,15,,,,,,,,,,,,,,362.54099998806487,,response,,,7,A,,,,,Space,keypress(Space),,,,silence,---- --------- ---------- - --- ------- -- the ------------<br>----- -- -------- ------- ---- ------ - -------- ---- -----<br>--- ------- ---- -- --- -------- --- - ----- ------ ---- --<br>-------- --- -------- -------- --- -------- ---- -- ----- -<br>-------- ---- --- ---------- --------- -- ------- ------ -<br>--------- ----- -----,155376.5,155375.69999998808,154996.489,155000.59999999404,155013.159,155379.928,,7,the
screen,html.Screen,0_4_1_0_1_8,2021-10-22T10:59:01.474Z,,,,,,,,,,,,,,,,15,,,,,,,,,,,,,,379.6719999940251,,response,,,7,A,,,,,Space,keypress(Space),,,,silence,"---- --------- ---------- - --- ------- -- --- prosecution,<br>----- -- -------- ------- ---- ------ - -------- ---- -----<br>--- ------- ---- -- --- -------- --- - ----- ------ ---- --<br>-------- --- -------- -------- --- -------- ---- -- ----- -<br>-------- ---- --- ---------- --------- -- ------- ------ -<br>--------- ----- -----",155760.5,155759.59999999404,155363.258,155376.69999998808,155379.928,155763.39,,8,"prosecution,"
screen,html.Screen,0_4_1_0_1_9,2021-10-22T10:59:01.946Z,,,,,,,,,,,,,,,,15,,,,,,,,,,,,,,468.10999999998603,,response,,,7,A,,,,,Space,keypress(Space),,,,silence,---- --------- ---------- - --- ------- -- --- ------------<br>vowed -- -------- ------- ---- ------ - -------- ---- -----<br>--- ------- ---- -- --- -------- --- - ----- ------ ---- --<br>-------- --- -------- -------- --- -------- ---- -- ----- -<br>-------- ---- --- ---------- --------- -- ------- ------ -<br>--------- ----- -----,156232.40000000596,156231.5,155746.719,155760.69999998808,155763.39,156246.811,,9,vowed
screen,html.Screen,0_4_1_0_1_10,2021-10-22T10:59:02.362Z,,,,,,,,,,,,,,,,15,,,,,,,,,,,,,,400.68900000001304,,response,,,7,A,,,,,Space,keypress(Space),,,,silence,---- --------- ---------- - --- ------- -- --- ------------<br>----- he -------- ------- ---- ------ - -------- ---- -----<br>--- ------- ---- -- --- -------- --- - ----- ------ ---- --<br>-------- --- -------- -------- --- -------- ---- -- ----- -<br>-------- ---- --- ---------- --------- -- ------- ------ -<br>--------- ----- -----,156648.29999998212,156647.5,156230.141,156232.79999998212,156246.811,156663.581,,10,he
screen,html.Screen,0_4_1_0_1_11,2021-10-22T10:59:02.762Z,,,,,,,,,,,,,,,,15,,,,,,,,,,,,,,384.01899999403395,,response,,,7,A,,,,,Space,keypress(Space),,,,silence,---- --------- ---------- - --- ------- -- --- ------------<br>----- -- wouldn't ------- ---- ------ - -------- ---- -----<br>--- ------- ---- -- --- -------- --- - ----- ------ ---- --<br>-------- --- -------- -------- --- -------- ---- -- ----- -<br>-------- ---- --- ---------- --------- -- ------- ------ -<br>--------- ----- -----,157048.5,157047.59999999404,156646.911,156648.59999999404,156663.581,157063.668,,11,wouldn't
screen,html.Screen,0_4_1_0_1_12,2021-10-22T10:59:03.154Z,,,,,,,,,,,,,,,,15,,,,,,,,,,,,,,375.8319999999949,,response,,,7,A,,,,,Space,keypress(Space),,,,silence,---- --------- ---------- - --- ------- -- --- ------------<br>----- -- -------- testify ---- ------ - -------- ---- -----<br>--- ------- ---- -- --- -------- --- - ----- ------ ---- --<br>-------- --- -------- -------- --- -------- ---- -- ----- -<br>-------- ---- --- ---------- --------- -- ------- ------ -<br>--------- ----- -----,157440.40000000596,157439.5,157046.998,157048.69999998808,157063.668,157447.025,,12,testify
screen,html.Screen,0_4_1_0_1_13,2021-10-22T10:59:03.594Z,,,,,,,,,,,,,,,,15,,,,,,,,,,,,,,432.57499999404536,,response,,,7,A,,,,,Space,keypress(Space),,,,silence,---- --------- ---------- - --- ------- -- --- ------------<br>----- -- -------- ------- when ------ - -------- ---- -----<br>--- ------- ---- -- --- -------- --- - ----- ------ ---- --<br>-------- --- -------- -------- --- -------- ---- -- ----- -<br>-------- ---- --- ---------- --------- -- ------- ------ -<br>--------- ----- -----,157880.40000000596,157879.59999999404,157430.356,157440.59999999404,157447.025,157897.308,,13,when
screen,html.Screen,0_4_1_0_1_14,2021-10-22T10:59:03.970Z,,,,,,,,,,,,,,,,15,,,,,,,,,,,,,,358.19200000001,,response,,,7,A,,,,,Space,keypress(Space),,,,silence,---- --------- ---------- - --- ------- -- --- ------------<br>----- -- -------- ------- ---- served - -------- ---- -----<br>--- ------- ---- -- --- -------- --- - ----- ------ ---- --<br>-------- --- -------- -------- --- -------- ---- -- ----- -<br>-------- ---- --- ---------- --------- -- ------- ------ -<br>--------- ----- -----,158256.40000000596,158255.5,157880.636,157880.59999999404,157897.308,158263.968,,14,served
screen,html.Screen,0_4_1_0_1_15,2021-10-22T10:59:04.362Z,,,,,,,,,,,,,,,,15,,,,,,,,,,,,,,383.5320000000065,,response,,,7,A,,,,,Space,keypress(Space),,,,silence,---- --------- ---------- - --- ------- -- --- ------------<br>----- -- -------- ------- ---- ------ a -------- ---- -----<br>--- ------- ---- -- --- -------- --- - ----- ------ ---- --<br>-------- --- -------- -------- --- -------- ---- -- ----- -<br>-------- ---- --- ---------- --------- -- ------- ------ -<br>--------- ----- -----,158648.29999998212,158647.5,158247.298,158256.59999999404,158263.968,158664.127,,15,a
screen,html.Screen,0_4_1_0_1_16,2021-10-22T10:59:04.730Z,,,,,,,,,,,,,,,,15,,,,,,,,,,,,,,351.3729999999923,,response,,,7,A,,,,,Space,keypress(Space),,,,silence,---- --------- ---------- - --- ------- -- --- ------------<br>----- -- -------- ------- ---- ------ - subpoena ---- -----<br>--- ------- ---- -- --- -------- --- - ----- ------ ---- --<br>-------- --- -------- -------- --- -------- ---- -- ----- -<br>-------- ---- --- ---------- --------- -- ------- ------ -<br>--------- ----- -----,159016.29999998212,159015.5,158647.456,158648.59999999404,158664.127,159030.786,,16,subpoena
screen,html.Screen,0_4_1_0_1_17,2021-10-22T10:59:05.298Z,,,,,,,,,,,,,,,,15,,,,,,,,,,,,,,552.6140000059677,,response,,,7,A,,,,,Space,keypress(Space),,,,silence,---- --------- ---------- - --- ------- -- --- ------------<br>----- -- -------- ------- ---- ------ - -------- last -----<br>--- ------- ---- -- --- -------- --- - ----- ------ ---- --<br>-------- --- -------- -------- --- -------- ---- -- ----- -<br>-------- ---- --- ---------- --------- -- ------- ------ -<br>--------- ----- -----,159584.29999998212,159583.40000000596,159014.117,159016.5,159030.786,159597.674,,17,last
screen,html.Screen,0_4_1_0_1_18,2021-10-22T10:59:05.706Z,,,,,,,,,,,,,,,,15,,,,,,,,,,,,,,393.7260000059614,,response,,,7,A,,,,,Space,keypress(Space),,,,silence,---- --------- ---------- - --- ------- -- --- ------------<br>----- -- -------- ------- ---- ------ - -------- ---- week.<br>--- ------- ---- -- --- -------- --- - ----- ------ ---- --<br>-------- --- -------- -------- --- -------- ---- -- ----- -<br>-------- ---- --- ---------- --------- -- ------- ------ -<br>--------- ----- -----,159992.29999998212,159991.40000000596,159581.003,159584.5,159597.674,159997.743,,18,week.
screen,html.Screen,0_4_1_0_1_19,2021-10-22T10:59:06.217Z,,,,,,,,,,,,,,,,15,,,,,,,,,,,,,,505.6570000059728,,response,,,7,A,,,,,Space,keypress(Space),,,,silence,---- --------- ---------- - --- ------- -- --- ------------<br>----- -- -------- ------- ---- ------ - -------- ---- -----<br>His ------- ---- -- --- -------- --- - ----- ------ ---- --<br>-------- --- -------- -------- --- -------- ---- -- ----- -<br>-------- ---- --- ---------- --------- -- ------- ------ -<br>--------- ----- -----,160504.09999999404,160503.40000000596,159981.073,159992.5,159997.743,160514.538,,19,His
screen,html.Screen,0_4_1_0_1_20,2021-10-22T10:59:06.641Z,,,,,,,,,,,,,,,,15,,,,,,,,,,,,,,412.86200000596,,response,,,7,A,,,,,Space,keypress(Space),,,,silence,---- --------- ---------- - --- ------- -- --- ------------<br>----- -- -------- ------- ---- ------ - -------- ---- -----<br>--- lawyers ---- -- --- -------- --- - ----- ------ ---- --<br>-------- --- -------- -------- --- -------- ---- -- ----- -<br>-------- ---- --- ---------- --------- -- ------- ------ -<br>--------- ----- -----,160928.09999999404,160927.40000000596,160497.868,160504.29999998212,160514.538,160931.225,,20,lawyers
screen,html.Screen,0_4_1_0_1_21,2021-10-22T10:59:07.049Z,,,,,,,,,,,,,,,,15,,,,,,,,,,,,,,404.0749999821128,,response,,,7,A,,,,,Space,keypress(Space),,,,silence,---- --------- ---------- - --- ------- -- --- ------------<br>----- -- -------- ------- ---- ------ - -------- ---- -----<br>--- ------- said -- --- -------- --- - ----- ------ ---- --<br>-------- --- -------- -------- --- -------- ---- -- ----- -<br>-------- ---- --- ---------- --------- -- ------- ------ -<br>--------- ----- -----,161336.19999998808,161335.29999998212,160914.556,160928.40000000596,160931.225,161348.129,,21,said
screen,html.Screen,0_4_1_0_1_22,2021-10-22T10:59:07.417Z,,,,,,,,,,,,,,,,15,,,,,,,,,,,,,,355.17099998213234,,response,,,7,A,,,,,Space,keypress(Space),,,,silence,---- --------- ---------- - --- ------- -- --- ------------<br>----- -- -------- ------- ---- ------ - -------- ---- -----<br>--- ------- ---- he --- -------- --- - ----- ------ ---- --<br>-------- --- -------- -------- --- -------- ---- -- ----- -<br>-------- ---- --- ---------- --------- -- ------- ------ -<br>--------- ----- -----,161704.09999999404,161703.29999998212,161331.458,161336.40000000596,161348.129,161714.844,,22,he
screen,html.Screen,0_4_1_0_1_23,2021-10-22T10:59:07.817Z,,,,,,,,,,,,,,,,15,,,,,,,,,,,,,,388.3559999880672,,response,,,7,A,,,,,Space,keypress(Space),,,,silence,---- --------- ---------- - --- ------- -- --- ------------<br>----- -- -------- ------- ---- ------ - -------- ---- -----<br>--- ------- ---- -- was -------- --- - ----- ------ ---- --<br>-------- --- -------- -------- --- -------- ---- -- ----- -<br>-------- ---- --- ---------- --------- -- ------- ------ -<br>--------- ----- -----,162104.09999999404,162103.19999998808,161698.174,161704.40000000596,161714.844,162114.94,,23,was
screen,html.Screen,0_4_1_0_1_24,2021-10-22T10:59:08.129Z,,,,,,,,,,,,,,,,15,,,,,,,,,,,,,,300.3599999821163,,response,,,7,A,,,,,Space,keypress(Space),,,,silence,---- --------- ---------- - --- ------- -- --- ------------<br>----- -- -------- ------- ---- ------ - -------- ---- -----<br>--- ------- ---- -- --- prepared --- - ----- ------ ---- --<br>-------- --- -------- -------- --- -------- ---- -- ----- -<br>-------- ---- --- ---------- --------- -- ------- ------ -<br>--------- ----- -----,162416.09999999404,162415.29999998212,162098.27,162104.29999998212,162114.94,162431.72,,24,prepared
screen,html.Screen,0_4_1_0_1_25,2021-10-22T10:59:08.514Z,,,,,,,,,,,,,,,,15,,,,,,,,,,,,,,367.87999999403837,,response,,,7,A,,,,,Space,keypress(Space),,,,silence,---- --------- ---------- - --- ------- -- --- ------------<br>----- -- -------- ------- ---- ------ - -------- ---- -----<br>--- ------- ---- -- --- -------- for - ----- ------ ---- --<br>-------- --- -------- -------- --- -------- ---- -- ----- -<br>-------- ---- --- ---------- --------- -- ------- ------ -<br>--------- ----- -----,162800.29999998212,162799.59999999404,162415.049,162416.40000000596,162431.72,162815.097,,25,for
screen,html.Screen,0_4_1_0_1_26,2021-10-22T10:59:08.873Z,,,,,,,,,,,,,,,,15,,,,,,,,,,,,,,344.20299998210976,,response,,,7,A,,,,,Space,keypress(Space),,,,silence,---- --------- ---------- - --- ------- -- --- ------------<br>----- -- -------- ------- ---- ------ - -------- ---- -----<br>--- ------- ---- -- --- -------- --- a ----- ------ ---- --<br>-------- --- -------- -------- --- -------- ---- -- ----- -<br>-------- ---- --- ---------- --------- -- ------- ------ -<br>--------- ----- -----,163160,163159.29999998212,162798.427,162800.59999999404,162815.097,163165.239,,26,a
screen,html.Screen,0_4_1_0_1_27,2021-10-22T10:59:09.225Z,,,,,,,,,,,,,,,,15,,,,,,,,,,,,,,345.86099999403814,,response,,,7,A,,,,,Space,keypress(Space),,,,silence,---- --------- ---------- - --- ------- -- --- ------------<br>----- -- -------- ------- ---- ------ - -------- ---- -----<br>--- ------- ---- -- --- -------- --- - third ------ ---- --<br>-------- --- -------- -------- --- -------- ---- -- ----- -<br>-------- ---- --- ---------- --------- -- ------- ------ -<br>--------- ----- -----,163511.90000000596,163511.09999999404,163148.568,163160.40000000596,163165.239,163515.327,,27,third
screen,html.Screen,0_4_1_0_1_28,2021-10-22T10:59:09.561Z,,,,,,,,,,,,,,,,15,,,,,,,,,,,,,,331.7729999940493,,response,,,7,A,,,,,Space,keypress(Space),,,,silence,---- --------- ---------- - --- ------- -- --- ------------<br>----- -- -------- ------- ---- ------ - -------- ---- -----<br>--- ------- ---- -- --- -------- --- - ----- prison ---- --<br>-------- --- -------- -------- --- -------- ---- -- ----- -<br>-------- ---- --- ---------- --------- -- ------- ------ -<br>--------- ----- -----,163847.90000000596,163847.09999999404,163498.656,163512.09999999404,163515.327,163865.334,,28,prison
screen,html.Screen,0_4_1_0_1_29,2021-10-22T10:59:09.921Z,,,,,,,,,,,,,,,,15,,,,,,,,,,,,,,341.765999994037,,response,,,7,A,,,,,Space,keypress(Space),,,,silence,---- --------- ---------- - --- ------- -- --- ------------<br>----- -- -------- ------- ---- ------ - -------- ---- -----<br>--- ------- ---- -- --- -------- --- - ----- ------ stay --<br>-------- --- -------- -------- --- -------- ---- -- ----- -<br>-------- ---- --- ---------- --------- -- ------- ------ -<br>--------- ----- -----,164207.90000000596,164207.09999999404,163848.665,163848.19999998808,163865.334,164215.491,,29,stay
screen,html.Screen,0_4_1_0_1_30,2021-10-22T10:59:10.329Z,,,,,,,,,,,,,,,,15,,,,,,,,,,,,,,399.60899999403046,,response,,,7,A,,,,,Space,keypress(Space),,,,silence,---- --------- ---------- - --- ------- -- --- ------------<br>----- -- -------- ------- ---- ------ - -------- ---- -----<br>--- ------- ---- -- --- -------- --- - ----- ------ ---- to<br>-------- --- -------- -------- --- -------- ---- -- ----- -<br>-------- ---- --- ---------- --------- -- ------- ------ -<br>--------- ----- -----,164615.90000000596,164615.09999999404,164198.82,164208.09999999404,164215.491,164632.17,,30,to
screen,html.Screen,0_4_1_0_1_31,2021-10-22T10:59:10.673Z,,,,,,,,,,,,,,,,15,,,,,,,,,,,,,,326.73000000594766,,response,,,7,A,,,,,Space,keypress(Space),,,,silence,---- --------- ---------- - --- ------- -- --- ------------<br>----- -- -------- ------- ---- ------ - -------- ---- -----<br>--- ------- ---- -- --- -------- --- - ----- ------ ---- --<br>maintain --- -------- -------- --- -------- ---- -- ----- -<br>-------- ---- --- ---------- --------- -- ------- ------ -<br>--------- ----- -----,164959.79999998212,164958.90000000596,164615.501,164616.19999998808,164632.17,164965.677,,31,maintain
screen,html.Screen,0_4_1_0_1_32,2021-10-22T10:59:11.009Z,,,,,,,,,,,,,,,,15,,,,,,,,,,,,,,329.4229999940435,,response,,,7,A,,,,,Space,keypress(Space),,,,silence,---- --------- ---------- - --- ------- -- --- ------------<br>----- -- -------- ------- ---- ------ - -------- ---- -----<br>--- ------- ---- -- --- -------- --- - ----- ------ ---- --<br>-------- his -------- -------- --- -------- ---- -- ----- -<br>-------- ---- --- ---------- --------- -- ------- ------ -<br>--------- ----- -----,165295.79999998212,165295.09999999404,164949.006,164960.09999999404,164965.677,165299.108,,32,his
screen,html.Screen,0_4_1_0_1_33,2021-10-22T10:59:11.337Z,,,,,,,,,,,,,,,,15,,,,,,,,,,,,,,323.9919999940321,,response,,,7,A,,,,,Space,keypress(Space),,,,silence,---- --------- ---------- - --- ------- -- --- ------------<br>----- -- -------- ------- ---- ------ - -------- ---- -----<br>--- ------- ---- -- --- -------- --- - ----- ------ ---- --<br>-------- --- silence. -------- --- -------- ---- -- ----- -<br>-------- ---- --- ---------- --------- -- ------- ------ -<br>--------- ----- -----,165623.79999998212,165623.09999999404,165282.437,165296.09999999404,165299.108,165632.365,,33,silence.
screen,html.Screen,0_4_1_0_1_34,2021-10-22T10:59:11.753Z,,,,,,,,,,,,,,,,15,,,,,,,,,,,,,,406.6350000000093,,response,,,7,A,,,,,Space,keypress(Space),,,,silence,---- --------- ---------- - --- ------- -- --- ------------<br>----- -- -------- ------- ---- ------ - -------- ---- -----<br>--- ------- ---- -- --- -------- --- - ----- ------ ---- --<br>-------- --- -------- Anderson --- -------- ---- -- ----- -<br>-------- ---- --- ---------- --------- -- ------- ------ -<br>--------- ----- -----,166039.90000000596,166039,165615.697,165624,165632.365,166049.339,,34,Anderson
screen,html.Screen,0_4_1_0_1_35,2021-10-22T10:59:12.153Z,,,,,,,,,,,,,,,,15,,,,,,,,,,,,,,389.6609999999928,,response,,,7,A,,,,,Space,keypress(Space),,,,silence,---- --------- ---------- - --- ------- -- --- ------------<br>----- -- -------- ------- ---- ------ - -------- ---- -----<br>--- ------- ---- -- --- -------- --- - ----- ------ ---- --<br>-------- --- -------- -------- was -------- ---- -- ----- -<br>-------- ---- --- ---------- --------- -- ------- ------ -<br>--------- ----- -----,166439.69999998808,166439,166032.667,166040.09999999404,166049.339,166449.34,,35,was
screen,html.Screen,0_4_1_0_1_36,2021-10-22T10:59:12.513Z,,,,,,,,,,,,,,,,15,,,,,,,,,,,,,,349.6600000000035,,response,,,7,A,,,,,Space,keypress(Space),,,,silence,---- --------- ---------- - --- ------- -- --- ------------<br>----- -- -------- ------- ---- ------ - -------- ---- -----<br>--- ------- ---- -- --- -------- --- - ----- ------ ---- --<br>-------- --- -------- -------- --- released ---- -- ----- -<br>-------- ---- --- ---------- --------- -- ------- ------ -<br>--------- ----- -----,166799.69999998808,166799,166432.67,166440,166449.34,166816.106,,36,released
screen,html.Screen,0_4_1_0_1_37,2021-10-22T10:59:12.897Z,,,,,,,,,,,,,,,,15,,,,,,,,,,,,,,366.89400000000023,,response,,,7,A,,,,,Space,keypress(Space),,,,silence,---- --------- ---------- - --- ------- -- --- ------------<br>----- -- -------- ------- ---- ------ - -------- ---- -----<br>--- ------- ---- -- --- -------- --- - ----- ------ ---- --<br>-------- --- -------- -------- --- -------- July -- ----- -<br>-------- ---- --- ---------- --------- -- ------- ------ -<br>--------- ----- -----,167183.69999998808,167183,166799.436,166799.90000000596,166816.106,167199.511,,37,July
screen,html.Screen,0_4_1_0_1_38,2021-10-22T10:59:13.273Z,,,,,,,,,,,,,,,,15,,,,,,,,,,,,,,359.38900000596186,,response,,,7,A,,,,,Space,keypress(Space),,,,silence,---- --------- ---------- - --- ------- -- --- ------------<br>----- -- -------- ------- ---- ------ - -------- ---- -----<br>--- ------- ---- -- --- -------- --- - ----- ------ ---- --<br>-------- --- -------- -------- --- -------- ---- 20 ----- -<br>-------- ---- --- ---------- --------- -- ------- ------ -<br>--------- ----- -----,167559.59999999404,167558.90000000596,167182.841,167183.90000000596,167199.511,167566.345,,38,20
screen,html.Screen,0_4_1_0_1_39,2021-10-22T10:59:13.721Z,,,,,,,,,,,,,,,,15,,,,,,,,,,,,,,440.5550000059593,,response,,,7,A,,,,,Space,keypress(Space),,,,silence,---- --------- ---------- - --- ------- -- --- ------------<br>----- -- -------- ------- ---- ------ - -------- ---- -----<br>--- ------- ---- -- --- -------- --- - ----- ------ ---- --<br>-------- --- -------- -------- --- -------- ---- -- after -<br>-------- ---- --- ---------- --------- -- ------- ------ -<br>--------- ----- -----,168007.59999999404,168006.90000000596,167549.674,167559.90000000596,167566.345,168016.399,,39,after
screen,html.Screen,0_4_1_0_1_40,2021-10-22T10:59:14.217Z,,,,,,,,,,,,,,,,15,,,,,,,,,,,,,,486.5010000059556,,response,,,7,A,,,,,Space,keypress(Space),,,,silence,---- --------- ---------- - --- ------- -- --- ------------<br>----- -- -------- ------- ---- ------ - -------- ---- -----<br>--- ------- ---- -- --- -------- --- - ----- ------ ---- --<br>-------- --- -------- -------- --- -------- ---- -- ----- a<br>-------- ---- --- ---------- --------- -- ------- ------ -<br>--------- ----- -----,168503.59999999404,168502.90000000596,167999.729,168007.90000000596,168016.399,168516.569,,40,a
screen,html.Screen,0_4_1_0_1_41,2021-10-22T10:59:14.617Z,,,,,,,,,,,,,,,,15,,,,,,,,,,,,,,386.3310000059719,,response,,,7,A,,,,,Space,keypress(Space),,,,silence,---- --------- ---------- - --- ------- -- --- ------------<br>----- -- -------- ------- ---- ------ - -------- ---- -----<br>--- ------- ---- -- --- -------- --- - ----- ------ ---- --<br>-------- --- -------- -------- --- -------- ---- -- ----- -<br>two-week ---- --- ---------- --------- -- ------- ------ -<br>--------- ----- -----,168903.69999998808,168902.90000000596,168499.898,168503.79999998212,168516.569,168916.606,,41,two-week
screen,html.Screen,0_4_1_0_1_42,2021-10-22T10:59:15.081Z,,,,,,,,,,,,,,,,15,,,,,,,,,,,,,,450.2940000059607,,response,,,7,A,,,,,Space,keypress(Space),,,,silence,---- --------- ---------- - --- ------- -- --- ------------<br>----- -- -------- ------- ---- ------ - -------- ---- -----<br>--- ------- ---- -- --- -------- --- - ----- ------ ---- --<br>-------- --- -------- -------- --- -------- ---- -- ----- -<br>-------- stay --- ---------- --------- -- ------- ------ -<br>--------- ----- -----,169367.59999999404,169366.90000000596,168899.936,168903.79999998212,168916.606,169383.445,,42,stay
screen,html.Screen,0_4_1_0_1_43,2021-10-22T10:59:15.489Z,,,,,,,,,,,,,,,,15,,,,,,,,,,,,,,391.2549999880721,,response,,,7,A,,,,,Space,keypress(Space),,,,silence,---- --------- ---------- - --- ------- -- --- ------------<br>----- -- -------- ------- ---- ------ - -------- ---- -----<br>--- ------- ---- -- --- -------- --- - ----- ------ ---- --<br>-------- --- -------- -------- --- -------- ---- -- ----- -<br>-------- ---- for ---------- --------- -- ------- ------ -<br>--------- ----- -----,169775.5,169774.69999998808,169366.774,169367.79999998212,169383.445,169783.499,,43,for
screen,html.Screen,0_4_1_0_1_44,2021-10-22T10:59:15.897Z,,,,,,,,,,,,,,,,15,,,,,,,,,,,,,,399.20099998806836,,response,,,7,A,,,,,Space,keypress(Space),,,,silence,---- --------- ---------- - --- ------- -- --- ------------<br>----- -- -------- ------- ---- ------ - -------- ---- -----<br>--- ------- ---- -- --- -------- --- - ----- ------ ---- --<br>-------- --- -------- -------- --- -------- ---- -- ----- -<br>-------- ---- --- previously --------- -- ------- ------ -<br>--------- ----- -----,170183.5,170182.69999998808,169766.829,169775.69999998808,169783.499,170200.267,,44,previously
screen,html.Screen,0_4_1_0_1_45,2021-10-22T10:59:16.289Z,,,,,,,,,,,,,,,,15,,,,,,,,,,,,,,374.4329999880865,,response,,,7,A,,,,,Space,keypress(Space),,,,silence,---- --------- ---------- - --- ------- -- --- ------------<br>----- -- -------- ------- ---- ------ - -------- ---- -----<br>--- ------- ---- -- --- -------- --- - ----- ------ ---- --<br>-------- --- -------- -------- --- -------- ---- -- ----- -<br>-------- ---- --- ---------- declining -- ------- ------ -<br>--------- ----- -----,170575.5,170574.69999998808,170183.597,170183.79999998212,170200.267,170583.757,,45,declining
screen,html.Screen,0_4_1_0_1_46,2021-10-22T10:59:16.689Z,,,,,,,,,,,,,,,,15,,,,,,,,,,,,,,390.94299998806673,,response,,,7,A,,,,,Space,keypress(Space),,,,silence,---- --------- ---------- - --- ------- -- --- ------------<br>----- -- -------- ------- ---- ------ - -------- ---- -----<br>--- ------- ---- -- --- -------- --- - ----- ------ ---- --<br>-------- --- -------- -------- --- -------- ---- -- ----- -<br>-------- ---- --- ---------- --------- to ------- ------ -<br>--------- ----- -----,170975.5,170974.69999998808,170567.086,170575.69999998808,170583.757,170983.665,,46,to
screen,html.Screen,0_4_1_0_1_47,2021-10-22T10:59:17.097Z,,,,,,,,,,,,,,,,15,,,,,,,,,,,,,,399.0349999880709,,response,,,7,A,,,,,Space,keypress(Space),,,,silence,---- --------- ---------- - --- ------- -- --- ------------<br>----- -- -------- ------- ---- ------ - -------- ---- -----<br>--- ------- ---- -- --- -------- --- - ----- ------ ---- --<br>-------- --- -------- -------- --- -------- ---- -- ----- -<br>-------- ---- --- ---------- --------- -- testify ------ -<br>--------- ----- -----,171383.40000000596,171382.69999998808,170966.997,170975.69999998808,170983.665,171400.534,,47,testify
screen,html.Screen,0_4_1_0_1_48,2021-10-22T10:59:17.433Z,,,,,,,,,,,,,,,,15,,,,,,,,,,,,,,318.16599998806487,,response,,,7,A,,,,,Space,keypress(Space),,,,silence,---- --------- ---------- - --- ------- -- --- ------------<br>----- -- -------- ------- ---- ------ - -------- ---- -----<br>--- ------- ---- -- --- -------- --- - ----- ------ ---- --<br>-------- --- -------- -------- --- -------- ---- -- ----- -<br>-------- ---- --- ---------- --------- -- ------- before -<br>--------- ----- -----,171719.40000000596,171718.69999998808,171383.864,171383.59999999404,171400.534,171734.078,,48,before
screen,html.Screen,0_4_1_0_1_49,2021-10-22T10:59:17.793Z,,,,,,,,,,,,,,,,15,,,,,,,,,,,,,,344.5219999940309,,response,,,7,A,,,,,Space,keypress(Space),,,,silence,---- --------- ---------- - --- ------- -- --- ------------<br>----- -- -------- ------- ---- ------ - -------- ---- -----<br>--- ------- ---- -- --- -------- --- - ----- ------ ---- --<br>-------- --- -------- -------- --- -------- ---- -- ----- -<br>-------- ---- --- ---------- --------- -- ------- ------ a<br>--------- ----- -----,172079.5,172078.59999999404,171717.406,171719.59999999404,171734.078,172084.116,,49,a
screen,html.Screen,0_4_1_0_1_50,2021-10-22T10:59:18.217Z,,,,,,,,,,,,,,,,15,,,,,,,,,,,,,,418.48399999403046,,response,,,7,A,,,,,Space,keypress(Space),,,,silence,---- --------- ---------- - --- ------- -- --- ------------<br>----- -- -------- ------- ---- ------ - -------- ---- -----<br>--- ------- ---- -- --- -------- --- - ----- ------ ---- --<br>-------- --- -------- -------- --- -------- ---- -- ----- -<br>-------- ---- --- ---------- --------- -- ------- ------ -<br>different ----- -----,172503.29999998212,172502.59999999404,172067.445,172079.79999998212,172084.116,172517.564,,50,different
screen,html.Screen,0_4_1_0_1_51,2021-10-22T10:59:18.641Z,,,,,,,,,,,,,,,,15,,,,,,,,,,,,,,409.3360000059474,,response,,,7,A,,,,,Space,keypress(Space),,,,silence,---- --------- ---------- - --- ------- -- --- ------------<br>----- -- -------- ------- ---- ------ - -------- ---- -----<br>--- ------- ---- -- --- -------- --- - ----- ------ ---- --<br>-------- --- -------- -------- --- -------- ---- -- ----- -<br>-------- ---- --- ---------- --------- -- ------- ------ -<br>--------- grand -----,172927.69999998808,172926.90000000596,172500.893,172503.5,172517.564,172934.288,,51,grand
screen,html.Screen,0_4_1_0_1_52,2021-10-22T10:59:19.129Z,,,,,,,,,,,,,,,,15,,,,,,,,,,,,,,480.21199999999953,,response,,,7,A,,,,,Space,keypress(Space),,,,silence,---- --------- ---------- - --- ------- -- --- ------------<br>----- -- -------- ------- ---- ------ - -------- ---- -----<br>--- ------- ---- -- --- -------- --- - ----- ------ ---- --<br>-------- --- -------- -------- --- -------- ---- -- ----- -<br>-------- ---- --- ---------- --------- -- ------- ------ -<br>--------- ----- jury.,173415.29999998212,173414.5,172917.618,172927.90000000596,172934.288,173417.733,,52,jury.
Item 7,flow.Loop,0_4_1_0_1,2021-10-22T10:59:19.129Z,,,,,,,,,,,,,,,,,,,,,,,,,,,,,,22102.209000000003,,completion,,,,,,,,,,,,,,,,173415.69999998808,173414.5,151295.62,151297.19999998808,151312.291,173417.733,,,
