sender,sender_type,sender_id,timestamp,meta,,Blues,Classical,Country,Dance,Electronic,Folk,Gospel,Hip-Hop,Jazz,Latin,Musical/Film,New-age,Pop,Provo_ID,R&B,Rap,Reggae,Religious,Rock,Soul,Swing,Traditional,age,artist_name,correct,correctResponse,distraction,duration,education,ended_on,familiarity,gender,item,list,music_frequency,offensiveness,pleasantness,preference,response,response_action,snippet_file,song_name,song_rating,sound,text,time_commit,time_end,time_render,time_run,time_show,time_switch,url,word,word_ID
Instructions,html.Page,0_0,2021-11-19T11:18:13.402Z,"{""labjs_version"":""20.2.3"",""labjs_build"":{""flavor"":""production"",""commit"":""7ea907d66ca8aeef8054924ca5d82ffbe11e34e5""},""location"":""https://run.pavlovia.org/mvasilev/lab_music_f/"",""userAgent"":""Mozilla/5.0 (Windows NT 6.1; Win64; x64) AppleWebKit/537.36 (KHTML, like Gecko) Chrome/96.0.4664.45 Safari/537.36"",""platform"":""Win32"",""language"":""en-US"",""locale"":""en-US"",""timeZone"":""Europe/London"",""timezoneOffset"":0,""screen_width"":1920,""screen_height"":1080,""scroll_width"":1920,""scroll_height"":959,""window_innerWidth"":1920,""window_innerHeight"":1007,""devicePixelRatio"":1}",,,,,,,,,,,,,,,,,,,,,,,,,,,,,32831.572,,form submission,,,,,,,,,,,,,,,,42849.60000014305,42848.5,10000.257,10006.700000047684,10016.928,42845.119,{},,
Headphones,html.Page,0_1,2021-11-19T11:18:19.179Z,,,,,,,,,,,,,,,,,,,,,,,,,,,,,,5780.681000190736,,form submission,,,,,,,,,,,,,,,,48626,48625.800000190735,42828.446,42850.40000009537,42845.119,48627.406,,,
Holding screen,html.Screen,0_2_0_0,2021-11-19T11:18:29.172Z,,,,,,,,,,,,,,,,,,,,,,,,,,,,,,10002.384999999995,,timeout,,,,,,,,,,,,,,,,58619.200000047684,58613.122,48610.735,48626.200000047684,48627.406,58629.791,,,
screen,html.Screen,0_2_0_1_0,2021-11-19T11:18:30.116Z,,,,,,,,,,,,,,,,53,,,,,,,,,,,,,,931.8090001430537,,response,,,99,,,,,,Space,keypress(Space),,,,,When -- ----- -- ------ - ------- --- ----------<br>------------- ------ ------ ---- ---- ------- ----- -- ----<br>-------- ------- -- ---------- --- - --- ----- ----- ----<br>---- --- --- ----- --- ---- ---- ------- ----- ---- -------<br>--- --- -- ----- -- --- ---- -- --- ---- -- ------ ------<br>--- ----- -- ----,59563,59561.60000014305,58613.122,58619.700000047684,58629.791,59580.4,,0,When
screen,html.Screen,0_2_0_1_1,2021-11-19T11:18:30.846Z,,,,,,,,,,,,,,,,53,,,,,,,,,,,,,,708.8000000476823,,response,,,99,,,,,,Space,keypress(Space),,,,,---- it ----- -- ------ - ------- --- ----------<br>------------- ------ ------ ---- ---- ------- ----- -- ----<br>-------- ------- -- ---------- --- - --- ----- ----- ----<br>---- --- --- ----- --- ---- ---- ------- ----- ---- -------<br>--- --- -- ----- -- --- ---- -- --- ---- -- ------ ------<br>--- ----- -- ----,60290,60289.200000047684,59563.729,59563.300000190735,59580.4,60297.14,,1,it
screen,html.Screen,0_2_0_1_2,2021-11-19T11:18:31.502Z,,,,,,,,,,,,,,,,53,,,,,,,,,,,,,,647.9600001430517,,response,,,99,,,,,,Space,keypress(Space),,,,,---- -- comes -- ------ - ------- --- ----------<br>------------- ------ ------ ---- ---- ------- ----- -- ----<br>-------- ------- -- ---------- --- - --- ----- ----- ----<br>---- --- --- ----- --- ---- ---- ------- ----- ---- -------<br>--- --- -- ----- -- --- ---- -- --- ---- -- ------ ------<br>--- ----- -- ----,60945.90000009537,60945.10000014305,60280.47,60290.300000190735,60297.14,60947.405,,2,comes
screen,html.Screen,0_2_0_1_3,2021-11-19T11:18:32.486Z,,,,,,,,,,,,,,,,53,,,,,,,,,,,,,,981.6950001430523,,response,,,99,,,,,,Space,keypress(Space),,,,,---- -- ----- to ------ - ------- --- ----------<br>------------- ------ ------ ---- ---- ------- ----- -- ----<br>-------- ------- -- ---------- --- - --- ----- ----- ----<br>---- --- --- ----- --- ---- ---- ------- ----- ---- -------<br>--- --- -- ----- -- --- ---- -- --- ---- -- ------ ------<br>--- ----- -- ----,61930,61929.10000014305,60930.734,60946.200000047684,60947.405,61947.448,,3,to
screen,html.Screen,0_2_0_1_4,2021-11-19T11:18:33.166Z,,,,,,,,,,,,,,,,53,,,,,,,,,,,,,,661.5520000000033,,response,,,99,,,,,,Space,keypress(Space),,,,,---- -- ----- -- having - ------- --- ----------<br>------------- ------ ------ ---- ---- ------- ----- -- ----<br>-------- ------- -- ---------- --- - --- ----- ----- ----<br>---- --- --- ----- --- ---- ---- ------- ----- ---- -------<br>--- --- -- ----- -- --- ---- -- --- ---- -- ------ ------<br>--- ----- -- ----,62610.200000047684,62609,61930.779,61930.5,61947.448,62614.549,,4,having
screen,html.Screen,0_2_0_1_5,2021-11-19T11:18:33.662Z,,,,,,,,,,,,,,,,53,,,,,,,,,,,,,,490.5510001430521,,response,,,99,,,,,,Space,keypress(Space),,,,,---- -- ----- -- ------ a ------- --- ----------<br>------------- ------ ------ ---- ---- ------- ----- -- ----<br>-------- ------- -- ---------- --- - --- ----- ----- ----<br>---- --- --- ----- --- ---- ---- ------- ----- ---- -------<br>--- --- -- ----- -- --- ---- -- --- ---- -- ------ ------<br>--- ----- -- ----,63106,63105.10000014305,62597.878,62610.40000009537,62614.549,63114.66,,5,a
screen,html.Screen,0_2_0_1_6,2021-11-19T11:18:34.262Z,,,,,,,,,,,,,,,,53,,,,,,,,,,,,,,590.3399999999965,,response,,,99,,,,,,Space,keypress(Space),,,,,---- -- ----- -- ------ - lasting --- ----------<br>------------- ------ ------ ---- ---- ------- ----- -- ----<br>-------- ------- -- ---------- --- - --- ----- ----- ----<br>---- --- --- ----- --- ---- ---- ------- ----- ---- -------<br>--- --- -- ----- -- --- ---- -- --- ---- -- ------ ------<br>--- ----- -- ----,63705.90000009537,63705,63097.989,63106.40000009537,63114.66,63714.734,,6,lasting
screen,html.Screen,0_2_0_1_7,2021-11-19T11:18:34.902Z,,,,,,,,,,,,,,,,53,,,,,,,,,,,,,,630.2660000000033,,response,,,99,,,,,,Space,keypress(Space),,,,,---- -- ----- -- ------ - ------- and ----------<br>------------- ------ ------ ---- ---- ------- ----- -- ----<br>-------- ------- -- ---------- --- - --- ----- ----- ----<br>---- --- --- ----- --- ---- ---- ------- ----- ---- -------<br>--- --- -- ----- -- --- ---- -- --- ---- -- ------ ------<br>--- ----- -- ----,64345.800000190735,64345,63698.064,63706.200000047684,63714.734,64348.301,,7,and
screen,html.Screen,0_2_0_1_8,2021-11-19T11:18:35.542Z,,,,,,,,,,,,,,,,53,,,,,,,,,,,,,,636.599000095368,,response,,,99,,,,,,Space,keypress(Space),,,,,---- -- ----- -- ------ - ------- --- fulfilling<br>------------- ------ ------ ---- ---- ------- ----- -- ----<br>-------- ------- -- ---------- --- - --- ----- ----- ----<br>---- --- --- ----- --- ---- ---- ------- ----- ---- -------<br>--- --- -- ----- -- --- ---- -- --- ---- -- ------ ------<br>--- ----- -- ----,64986,64984.90000009537,64331.63,64346.10000014305,64348.301,64998.475,,8,fulfilling
screen,html.Screen,0_2_0_1_9,2021-11-19T11:18:36.342Z,,,,,,,,,,,,,,,,53,,,,,,,,,,,,,,786.4250000953689,,response,,,99,,,,,,Space,keypress(Space),,,,,"---- -- ----- -- ------ - ------- --- ----------<br>relationship, ------ ------ ---- ---- ------- ----- -- ----<br>-------- ------- -- ---------- --- - --- ----- ----- ----<br>---- --- --- ----- --- ---- ---- ------- ----- ---- -------<br>--- --- -- ----- -- --- ---- -- --- ---- -- ------ ------<br>--- ----- -- ----",65785.80000019073,65784.90000009537,64981.804,64986.300000190735,64998.475,65798.617,,9,"relationship,"
screen,html.Screen,0_2_0_1_10,2021-11-19T11:18:37.038Z,,,,,,,,,,,,,,,,53,,,,,,,,,,,,,,682.2830000953691,,response,,,99,,,,,,Space,keypress(Space),,,,,---- -- ----- -- ------ - ------- --- ----------<br>------------- common ------ ---- ---- ------- ----- -- ----<br>-------- ------- -- ---------- --- - --- ----- ----- ----<br>---- --- --- ----- --- ---- ---- ------- ----- ---- -------<br>--- --- -- ----- -- --- ---- -- --- ---- -- ------ ------<br>--- ----- -- ----,66481.80000019073,66480.90000009537,65781.947,65786,65798.617,66498.893,,10,common
screen,html.Screen,0_2_0_1_11,2021-11-19T11:18:37.790Z,,,,,,,,,,,,,,,,53,,,,,,,,,,,,,,733.9070001907385,,response,,,99,,,,,,Space,keypress(Space),,,,,---- -- ----- -- ------ - ------- --- ----------<br>------------- ------ wisdom ---- ---- ------- ----- -- ----<br>-------- ------- -- ---------- --- - --- ----- ----- ----<br>---- --- --- ----- --- ---- ---- ------- ----- ---- -------<br>--- --- -- ----- -- --- ---- -- --- ---- -- ------ ------<br>--- ----- -- ----,67233.70000004768,67232.80000019073,66482.222,66482.10000014305,66498.893,67249.082,,11,wisdom
screen,html.Screen,0_2_0_1_12,2021-11-19T11:18:38.381Z,,,,,,,,,,,,,,,,53,,,,,,,,,,,,,,575.71800019074,,response,,,99,,,,,,Space,keypress(Space),,,,,---- -- ----- -- ------ - ------- --- ----------<br>------------- ------ ------ says ---- ------- ----- -- ----<br>-------- ------- -- ---------- --- - --- ----- ----- ----<br>---- --- --- ----- --- ---- ---- ------- ----- ---- -------<br>--- --- -- ----- -- --- ---- -- --- ---- -- ------ ------<br>--- ----- -- ----,67825.60000014305,67824.80000019073,67232.411,67234,67249.082,67832.579,,12,says
screen,html.Screen,0_2_0_1_13,2021-11-19T11:18:38.837Z,,,,,,,,,,,,,,,,53,,,,,,,,,,,,,,448.22100019073696,,response,,,99,,,,,,Space,keypress(Space),,,,,---- -- ----- -- ------ - ------- --- ----------<br>------------- ------ ------ ---- that ------- ----- -- ----<br>-------- ------- -- ---------- --- - --- ----- ----- ----<br>---- --- --- ----- --- ---- ---- ------- ----- ---- -------<br>--- --- -- ----- -- --- ---- -- --- ---- -- ------ ------<br>--- ----- -- ----,68281.60000014305,68280.80000019073,67815.908,67825.80000019073,67832.579,68282.655,,13,that
screen,html.Screen,0_2_0_1_14,2021-11-19T11:18:39.509Z,,,,,,,,,,,,,,,,53,,,,,,,,,,,,,,670.0450000476849,,response,,,99,,,,,,Space,keypress(Space),,,,,---- -- ----- -- ------ - ------- --- ----------<br>------------- ------ ------ ---- ---- feeling ----- -- ----<br>-------- ------- -- ---------- --- - --- ----- ----- ----<br>---- --- --- ----- --- ---- ---- ------- ----- ---- -------<br>--- --- -- ----- -- --- ---- -- --- ---- -- ------ ------<br>--- ----- -- ----,68953.60000014305,68952.70000004768,68265.985,68281.80000019073,68282.655,68966.212,,14,feeling
screen,html.Screen,0_2_0_1_15,2021-11-19T11:18:39.989Z,,,,,,,,,,,,,,,,53,,,,,,,,,,,,,,466.58800019073533,,response,,,99,,,,,,Space,keypress(Space),,,,,---- -- ----- -- ------ - ------- --- ----------<br>------------- ------ ------ ---- ---- ------- close -- ----<br>-------- ------- -- ---------- --- - --- ----- ----- ----<br>---- --- --- ----- --- ---- ---- ------- ----- ---- -------<br>--- --- -- ----- -- --- ---- -- --- ---- -- ------ ------<br>--- ----- -- ----,69433.60000014305,69432.80000019073,68949.541,68953.80000019073,68966.212,69449.675,,15,close
screen,html.Screen,0_2_0_1_16,2021-11-19T11:18:40.366Z,,,,,,,,,,,,,,,,53,,,,,,,,,,,,,,359.42500014304824,,response,,,99,,,,,,Space,keypress(Space),,,,,---- -- ----- -- ------ - ------- --- ----------<br>------------- ------ ------ ---- ---- ------- ----- to ----<br>-------- ------- -- ---------- --- - --- ----- ----- ----<br>---- --- --- ----- --- ---- ---- ------- ----- ---- -------<br>--- --- -- ----- -- --- ---- -- --- ---- -- ------ ------<br>--- ----- -- ----,69809.90000009537,69809.10000014305,69433.004,69433.80000019073,69449.675,69816.445,,16,to
screen,html.Screen,0_2_0_1_17,2021-11-19T11:18:40.870Z,,,,,,,,,,,,,,,,53,,,,,,,,,,,,,,496.45500009536045,,response,,,99,,,,,,Space,keypress(Space),,,,,---- -- ----- -- ------ - ------- --- ----------<br>------------- ------ ------ ---- ---- ------- ----- -- your<br>-------- ------- -- ---------- --- - --- ----- ----- ----<br>---- --- --- ----- --- ---- ---- ------- ----- ---- -------<br>--- --- -- ----- -- --- ---- -- --- ---- -- ------ ------<br>--- ----- -- ----,70313.70000004768,70312.90000009537,69799.774,69810.10000014305,69816.445,70316.595,,17,your
screen,html.Screen,0_2_0_1_18,2021-11-19T11:18:41.405Z,,,,,,,,,,,,,,,,53,,,,,,,,,,,,,,532.1050000476826,,response,,,99,,,,,,Space,keypress(Space),,,,,---- -- ----- -- ------ - ------- --- ----------<br>------------- ------ ------ ---- ---- ------- ----- -- ----<br>romantic ------- -- ---------- --- - --- ----- ----- ----<br>---- --- --- ----- --- ---- ---- ------- ----- ---- -------<br>--- --- -- ----- -- --- ---- -- --- ---- -- ------ ------<br>--- ----- -- ----,70849.40000009537,70848.70000004768,70299.924,70313.90000009537,70316.595,70866.661,,18,romantic
screen,html.Screen,0_2_0_1_19,2021-11-19T11:18:41.901Z,,,,,,,,,,,,,,,,53,,,,,,,,,,,,,,478.03900004769093,,response,,,99,,,,,,Space,keypress(Space),,,,,---- -- ----- -- ------ - ------- --- ----------<br>------------- ------ ------ ---- ---- ------- ----- -- ----<br>-------- partner -- ---------- --- - --- ----- ----- ----<br>---- --- --- ----- --- ---- ---- ------- ----- ---- -------<br>--- --- -- ----- -- --- ---- -- --- ---- -- ------ ------<br>--- ----- -- ----,71345.40000009537,71344.70000004768,70849.991,70849.80000019073,70866.661,71350.202,,19,partner
screen,html.Screen,0_2_0_1_20,2021-11-19T11:18:42.269Z,,,,,,,,,,,,,,,,53,,,,,,,,,,,,,,362.49800004767894,,response,,,99,,,,,,Space,keypress(Space),,,,,---- -- ----- -- ------ - ------- --- ----------<br>------------- ------ ------ ---- ---- ------- ----- -- ----<br>-------- ------- is ---------- --- - --- ----- ----- ----<br>---- --- --- ----- --- ---- ---- ------- ----- ---- -------<br>--- --- -- ----- -- --- ---- -- --- ---- -- ------ ------<br>--- ----- -- ----,71713.5,71712.70000004768,71333.531,71345.70000004768,71350.202,71716.959,,20,is
screen,html.Screen,0_2_0_1_21,2021-11-19T11:18:42.653Z,,,,,,,,,,,,,,,,53,,,,,,,,,,,,,,379.6410001430486,,response,,,99,,,,,,Space,keypress(Space),,,,,---- -- ----- -- ------ - ------- --- ----------<br>------------- ------ ------ ---- ---- ------- ----- -- ----<br>-------- ------- -- paramount. --- - --- ----- ----- ----<br>---- --- --- ----- --- ---- ---- ------- ----- ---- -------<br>--- --- -- ----- -- --- ---- -- --- ---- -- ------ ------<br>--- ----- -- ----,72097.40000009537,72096.60000014305,71700.288,71713.70000004768,71716.959,72100.409,,21,paramount.
screen,html.Screen,0_2_0_1_22,2021-11-19T11:18:43.149Z,,,,,,,,,,,,,,,,53,,,,,,,,,,,,,,492.1910001430515,,response,,,99,,,,,,Space,keypress(Space),,,,,---- -- ----- -- ------ - ------- --- ----------<br>------------- ------ ------ ---- ---- ------- ----- -- ----<br>-------- ------- -- ---------- But - --- ----- ----- ----<br>---- --- --- ----- --- ---- ---- ------- ----- ---- -------<br>--- --- -- ----- -- --- ---- -- --- ---- -- ------ ------<br>--- ----- -- ----,72593.40000009537,72592.60000014305,72083.738,72097.70000004768,72100.409,72617.151,,22,But
screen,html.Screen,0_2_0_1_23,2021-11-19T11:18:43.525Z,,,,,,,,,,,,,,,,53,,,,,,,,,,,,,,351.4490001430531,,response,,,99,,,,,,Space,keypress(Space),,,,,---- -- ----- -- ------ - ------- --- ----------<br>------------- ------ ------ ---- ---- ------- ----- -- ----<br>-------- ------- -- ---------- --- a --- ----- ----- ----<br>---- --- --- ----- --- ---- ---- ------- ----- ---- -------<br>--- --- -- ----- -- --- ---- -- --- ---- -- ------ ------<br>--- ----- -- ----,72969.40000009537,72968.60000014305,72600.481,72593.60000014305,72617.151,72983.853,,23,a
screen,html.Screen,0_2_0_1_24,2021-11-19T11:18:44.013Z,,,,,,,,,,,,,,,,53,,,,,,,,,,,,,,472.6469999999972,,response,,,99,,,,,,Space,keypress(Space),,,,,---- -- ----- -- ------ - ------- --- ----------<br>------------- ------ ------ ---- ---- ------- ----- -- ----<br>-------- ------- -- ---------- --- - new ----- ----- ----<br>---- --- --- ----- --- ---- ---- ------- ----- ---- -------<br>--- --- -- ----- -- --- ---- -- --- ---- -- ------ ------<br>--- ----- -- ----,73457.40000009537,73456.5,72967.184,72969.60000014305,72983.853,73467.482,,24,new
screen,html.Screen,0_2_0_1_25,2021-11-19T11:18:44.461Z,,,,,,,,,,,,,,,,53,,,,,,,,,,,,,,437.0179999999964,,response,,,99,,,,,,Space,keypress(Space),,,,,---- -- ----- -- ------ - ------- --- ----------<br>------------- ------ ------ ---- ---- ------- ----- -- ----<br>-------- ------- -- ---------- --- - --- study ----- ----<br>---- --- --- ----- --- ---- ---- ------- ----- ---- -------<br>--- --- -- ----- -- --- ---- -- --- ---- -- ------ ------<br>--- ----- -- ----,73905.30000019073,73904.5,73450.81,73457.60000014305,73467.482,73917.566,,25,study
screen,html.Screen,0_2_0_1_26,2021-11-19T11:18:44.909Z,,,,,,,,,,,,,,,,53,,,,,,,,,,,,,,434.93399999999383,,response,,,99,,,,,,Space,keypress(Space),,,,,---- -- ----- -- ------ - ------- --- ----------<br>------------- ------ ------ ---- ---- ------- ----- -- ----<br>-------- ------- -- ---------- --- - --- ----- finds ----<br>---- --- --- ----- --- ---- ---- ------- ----- ---- -------<br>--- --- -- ----- -- --- ---- -- --- ---- -- ------ ------<br>--- ----- -- ----,74353.30000019073,74352.5,73900.895,73905.5,73917.566,74367.635,,26,finds
screen,html.Screen,0_2_0_1_27,2021-11-19T11:18:45.357Z,,,,,,,,,,,,,,,,53,,,,,,,,,,,,,,432.86500000000524,,response,,,99,,,,,,Space,keypress(Space),,,,,---- -- ----- -- ------ - ------- --- ----------<br>------------- ------ ------ ---- ---- ------- ----- -- ----<br>-------- ------- -- ---------- --- - --- ----- ----- that<br>---- --- --- ----- --- ---- ---- ------- ----- ---- -------<br>--- --- -- ----- -- --- ---- -- --- ---- -- ------ ------<br>--- ----- -- ----,74801.30000019073,74800.5,74350.965,74353.5,74367.635,74817.749,,27,that
screen,html.Screen,0_2_0_1_28,2021-11-19T11:18:45.861Z,,,,,,,,,,,,,,,,53,,,,,,,,,,,,,,486.6510000953713,,response,,,99,,,,,,Space,keypress(Space),,,,,---- -- ----- -- ------ - ------- --- ----------<br>------------- ------ ------ ---- ---- ------- ----- -- ----<br>-------- ------- -- ---------- --- - --- ----- ----- ----<br>it's --- --- ----- --- ---- ---- ------- ----- ---- -------<br>--- --- -- ----- -- --- ---- -- --- ---- -- ------ ------<br>--- ----- -- ----,75305.30000019073,75304.40000009537,74801.079,74801.5,74817.749,75317.946,,28,it's
screen,html.Screen,0_2_0_1_29,2021-11-19T11:18:46.269Z,,,,,,,,,,,,,,,,53,,,,,,,,,,,,,,394.45400009537116,,response,,,99,,,,,,Space,keypress(Space),,,,,---- -- ----- -- ------ - ------- --- ----------<br>------------- ------ ------ ---- ---- ------- ----- -- ----<br>-------- ------- -- ---------- --- - --- ----- ----- ----<br>---- not --- ----- --- ---- ---- ------- ----- ---- -------<br>--- --- -- ----- -- --- ---- -- --- ---- -- ------ ------<br>--- ----- -- ----,75713.20000004768,75712.40000009537,75301.275,75305.40000009537,75317.946,75717.985,,29,not
screen,html.Screen,0_2_0_1_30,2021-11-19T11:18:46.661Z,,,,,,,,,,,,,,,,53,,,,,,,,,,,,,,386.3150001907343,,response,,,99,,,,,,Space,keypress(Space),,,,,---- -- ----- -- ------ - ------- --- ----------<br>------------- ------ ------ ---- ---- ------- ----- -- ----<br>-------- ------- -- ---------- --- - --- ----- ----- ----<br>---- --- how ----- --- ---- ---- ------- ----- ---- -------<br>--- --- -- ----- -- --- ---- -- --- ---- -- ------ ------<br>--- ----- -- ----,76105.30000019073,76104.30000019073,75701.315,75713.5,75717.985,76118.151,,30,how
screen,html.Screen,0_2_0_1_31,2021-11-19T11:18:47.101Z,,,,,,,,,,,,,,,,53,,,,,,,,,,,,,,426.2490000953694,,response,,,99,,,,,,Space,keypress(Space),,,,,---- -- ----- -- ------ - ------- --- ----------<br>------------- ------ ------ ---- ---- ------- ----- -- ----<br>-------- ------- -- ---------- --- - --- ----- ----- ----<br>---- --- --- close --- ---- ---- ------- ----- ---- -------<br>--- --- -- ----- -- --- ---- -- --- ---- -- ------ ------<br>--- ----- -- ----,76545.10000014305,76544.40000009537,76101.48,76105.5,76118.151,76551.541,,31,close
screen,html.Screen,0_2_0_1_32,2021-11-19T11:18:47.549Z,,,,,,,,,,,,,,,,53,,,,,,,,,,,,,,440.95900000000256,,response,,,99,,,,,,Space,keypress(Space),,,,,---- -- ----- -- ------ - ------- --- ----------<br>------------- ------ ------ ---- ---- ------- ----- -- ----<br>-------- ------- -- ---------- --- - --- ----- ----- ----<br>---- --- --- ----- you ---- ---- ------- ----- ---- -------<br>--- --- -- ----- -- --- ---- -- --- ---- -- ------ ------<br>--- ----- -- ----,76993.30000019073,76992.5,76534.871,76545.30000019073,76551.541,77001.648,,32,you
screen,html.Screen,0_2_0_1_33,2021-11-19T11:18:47.909Z,,,,,,,,,,,,,,,,53,,,,,,,,,,,,,,350.6520001907338,,response,,,99,,,,,,Space,keypress(Space),,,,,---- -- ----- -- ------ - ------- --- ----------<br>------------- ------ ------ ---- ---- ------- ----- -- ----<br>-------- ------- -- ---------- --- - --- ----- ----- ----<br>---- --- --- ----- --- feel ---- ------- ----- ---- -------<br>--- --- -- ----- -- --- ---- -- --- ---- -- ------ ------<br>--- ----- -- ----,77353.10000014305,77352.30000019073,76984.978,76993.5,77001.648,77368.469,,33,feel
screen,html.Screen,0_2_0_1_34,2021-11-19T11:18:48.285Z,,,,,,,,,,,,,,,,53,,,,,,,,,,,,,,359.83100019073754,,response,,,99,,,,,,Space,keypress(Space),,,,,---- -- ----- -- ------ - ------- --- ----------<br>------------- ------ ------ ---- ---- ------- ----- -- ----<br>-------- ------- -- ---------- --- - --- ----- ----- ----<br>---- --- --- ----- --- ---- that ------- ----- ---- -------<br>--- --- -- ----- -- --- ---- -- --- ---- -- ------ ------<br>--- ----- -- ----,77729.20000004768,77728.30000019073,77351.798,77353.40000009537,77368.469,77735.076,,34,that
screen,html.Screen,0_2_0_1_35,2021-11-19T11:18:48.725Z,,,,,,,,,,,,,,,,53,,,,,,,,,,,,,,433.22400019073393,,response,,,99,,,,,,Space,keypress(Space),,,,,---- -- ----- -- ------ - ------- --- ----------<br>------------- ------ ------ ---- ---- ------- ----- -- ----<br>-------- ------- -- ---------- --- - --- ----- ----- ----<br>---- --- --- ----- --- ---- ---- matters ----- ---- -------<br>--- --- -- ----- -- --- ---- -- --- ---- -- ------ ------<br>--- ----- -- ----,78169.10000014305,78168.30000019073,77718.408,77729.40000009537,77735.076,78185.46,,35,matters
screen,html.Screen,0_2_0_1_36,2021-11-19T11:18:49.269Z,,,,,,,,,,,,,,,,53,,,,,,,,,,,,,,526.8400001907285,,response,,,99,,,,,,Space,keypress(Space),,,,,"---- -- ----- -- ------ - ------- --- ----------<br>------------- ------ ------ ---- ---- ------- ----- -- ----<br>-------- ------- -- ---------- --- - --- ----- ----- ----<br>---- --- --- ----- --- ---- ---- ------- most, ---- -------<br>--- --- -- ----- -- --- ---- -- --- ---- -- ------ ------<br>--- ----- -- ----",78713.30000019073,78712.30000019073,78168.787,78169.30000019073,78185.46,78718.851,,36,"most,"
screen,html.Screen,0_2_0_1_37,2021-11-19T11:18:49.757Z,,,,,,,,,,,,,,,,53,,,,,,,,,,,,,,481.44900019073975,,response,,,99,,,,,,Space,keypress(Space),,,,,---- -- ----- -- ------ - ------- --- ----------<br>------------- ------ ------ ---- ---- ------- ----- -- ----<br>-------- ------- -- ---------- --- - --- ----- ----- ----<br>---- --- --- ----- --- ---- ---- ------- ----- it's -------<br>--- --- -- ----- -- --- ---- -- --- ---- -- ------ ------<br>--- ----- -- ----,79201.10000014305,79200.30000019073,78702.18,78713.60000014305,78718.851,79202.241,,37,it's
screen,html.Screen,0_2_0_1_38,2021-11-19T11:18:50.181Z,,,,,,,,,,,,,,,,53,,,,,,,,,,,,,,422.05900019074033,,response,,,99,,,,,,Space,keypress(Space),,,,,---- -- ----- -- ------ - ------- --- ----------<br>------------- ------ ------ ---- ---- ------- ----- -- ----<br>-------- ------- -- ---------- --- - --- ----- ----- ----<br>---- --- --- ----- --- ---- ---- ------- ----- ---- whether<br>--- --- -- ----- -- --- ---- -- --- ---- -- ------ ------<br>--- ----- -- ----,79625.10000014305,79624.30000019073,79185.571,79201.20000004768,79202.241,79635.758,,38,whether
screen,html.Screen,0_2_0_1_39,2021-11-19T11:18:50.645Z,,,,,,,,,,,,,,,,53,,,,,,,,,,,,,,452.9420000476821,,response,,,99,,,,,,Space,keypress(Space),,,,,---- -- ----- -- ------ - ------- --- ----------<br>------------- ------ ------ ---- ---- ------- ----- -- ----<br>-------- ------- -- ---------- --- - --- ----- ----- ----<br>---- --- --- ----- --- ---- ---- ------- ----- ---- -------<br>you --- -- ----- -- --- ---- -- --- ---- -- ------ ------<br>--- ----- -- ----,80089.5,80088.70000004768,79619.087,79625.30000019073,79635.758,80102.557,,39,you
screen,html.Screen,0_2_0_1_40,2021-11-19T11:18:51.077Z,,,,,,,,,,,,,,,,53,,,,,,,,,,,,,,417.74300019073416,,response,,,99,,,,,,Space,keypress(Space),,,,,---- -- ----- -- ------ - ------- --- ----------<br>------------- ------ ------ ---- ---- ------- ----- -- ----<br>-------- ------- -- ---------- --- - --- ----- ----- ----<br>---- --- --- ----- --- ---- ---- ------- ----- ---- -------<br>--- are -- ----- -- --- ---- -- --- ---- -- ------ ------<br>--- ----- -- ----,80521.10000014305,80520.30000019073,80085.886,80089.70000004768,80102.557,80535.961,,40,are
screen,html.Screen,0_2_0_1_41,2021-11-19T11:18:51.485Z,,,,,,,,,,,,,,,,53,,,,,,,,,,,,,,392.33900019073917,,response,,,99,,,,,,Space,keypress(Space),,,,,---- -- ----- -- ------ - ------- --- ----------<br>------------- ------ ------ ---- ---- ------- ----- -- ----<br>-------- ------- -- ---------- --- - --- ----- ----- ----<br>---- --- --- ----- --- ---- ---- ------- ----- ---- -------<br>--- --- as ----- -- --- ---- -- --- ---- -- ------ ------<br>--- ----- -- ----,80929.10000014305,80928.30000019073,80519.291,80521.30000019073,80535.961,80936.063,,41,as
screen,html.Screen,0_2_0_1_42,2021-11-19T11:18:51.973Z,,,,,,,,,,,,,,,,53,,,,,,,,,,,,,,480.13700004768907,,response,,,99,,,,,,Space,keypress(Space),,,,,---- -- ----- -- ------ - ------- --- ----------<br>------------- ------ ------ ---- ---- ------- ----- -- ----<br>-------- ------- -- ---------- --- - --- ----- ----- ----<br>---- --- --- ----- --- ---- ---- ------- ----- ---- -------<br>--- --- -- close -- --- ---- -- --- ---- -- ------ ------<br>--- ----- -- ----,81417,81416.20000004768,80919.393,80929.30000019073,80936.063,81419.569,,42,close
screen,html.Screen,0_2_0_1_43,2021-11-19T11:18:52.469Z,,,,,,,,,,,,,,,,53,,,,,,,,,,,,,,492.6310000476806,,response,,,99,,,,,,Space,keypress(Space),,,,,---- -- ----- -- ------ - ------- --- ----------<br>------------- ------ ------ ---- ---- ------- ----- -- ----<br>-------- ------- -- ---------- --- - --- ----- ----- ----<br>---- --- --- ----- --- ---- ---- ------- ----- ---- -------<br>--- --- -- ----- as --- ---- -- --- ---- -- ------ ------<br>--- ----- -- ----,81913,81912.20000004768,81402.898,81417.20000004768,81419.569,81919.703,,43,as
screen,html.Screen,0_2_0_1_44,2021-11-19T11:18:52.901Z,,,,,,,,,,,,,,,,53,,,,,,,,,,,,,,424.49700004768965,,response,,,99,,,,,,Space,keypress(Space),,,,,---- -- ----- -- ------ - ------- --- ----------<br>------------- ------ ------ ---- ---- ------- ----- -- ----<br>-------- ------- -- ---------- --- - --- ----- ----- ----<br>---- --- --- ----- --- ---- ---- ------- ----- ---- -------<br>--- --- -- ----- -- you ---- -- --- ---- -- ------ ------<br>--- ----- -- ----,82345,82344.20000004768,81903.032,81913.20000004768,81919.703,82353.108,,44,you
screen,html.Screen,0_2_0_1_45,2021-11-19T11:18:53.357Z,,,,,,,,,,,,,,,,53,,,,,,,,,,,,,,447.0920000476908,,response,,,99,,,,,,Space,keypress(Space),,,,,---- -- ----- -- ------ - ------- --- ----------<br>------------- ------ ------ ---- ---- ------- ----- -- ----<br>-------- ------- -- ---------- --- - --- ----- ----- ----<br>---- --- --- ----- --- ---- ---- ------- ----- ---- -------<br>--- --- -- ----- -- --- want -- --- ---- -- ------ ------<br>--- ----- -- ----,82800.90000009537,82800.20000004768,82336.438,82345.20000004768,82353.108,82803.261,,45,want
screen,html.Screen,0_2_0_1_46,2021-11-19T11:18:53.789Z,,,,,,,,,,,,,,,,53,,,,,,,,,,,,,,428.9390000476851,,response,,,99,,,,,,Space,keypress(Space),,,,,---- -- ----- -- ------ - ------- --- ----------<br>------------- ------ ------ ---- ---- ------- ----- -- ----<br>-------- ------- -- ---------- --- - --- ----- ----- ----<br>---- --- --- ----- --- ---- ---- ------- ----- ---- -------<br>--- --- -- ----- -- --- ---- to --- ---- -- ------ ------<br>--- ----- -- ----,83232.90000009537,83232.20000004768,82786.59,82801.10000014305,82803.261,83236.728,,46,to
screen,html.Screen,0_2_0_1_47,2021-11-19T11:18:54.253Z,,,,,,,,,,,,,,,,53,,,,,,,,,,,,,,459.37200014304835,,response,,,99,,,,,,Space,keypress(Space),,,,,"---- -- ----- -- ------ - ------- --- ----------<br>------------- ------ ------ ---- ---- ------- ----- -- ----<br>-------- ------- -- ---------- --- - --- ----- ----- ----<br>---- --- --- ----- --- ---- ---- ------- ----- ---- -------<br>--- --- -- ----- -- --- ---- -- be, ---- -- ------ ------<br>--- ----- -- ----",83696.90000009537,83696.10000014305,83220.057,83233.10000014305,83236.728,83703.526,,47,"be,"
screen,html.Screen,0_2_0_1_48,2021-11-19T11:18:54.733Z,,,,,,,,,,,,,,,,53,,,,,,,,,,,,,,472.5740001430531,,response,,,99,,,,,,Space,keypress(Space),,,,,---- -- ----- -- ------ - ------- --- ----------<br>------------- ------ ------ ---- ---- ------- ----- -- ----<br>-------- ------- -- ---------- --- - --- ----- ----- ----<br>---- --- --- ----- --- ---- ---- ------- ----- ---- -------<br>--- --- -- ----- -- --- ---- -- --- even -- ------ ------<br>--- ----- -- ----,84176.90000009537,84176.10000014305,83686.855,83697.10000014305,83703.526,84186.925,,48,even
screen,html.Screen,0_2_0_1_49,2021-11-19T11:18:55.149Z,,,,,,,,,,,,,,,,53,,,,,,,,,,,,,,405.17500014304824,,response,,,99,,,,,,Space,keypress(Space),,,,,---- -- ----- -- ------ - ------- --- ----------<br>------------- ------ ------ ---- ---- ------- ----- -- ----<br>-------- ------- -- ---------- --- - --- ----- ----- ----<br>---- --- --- ----- --- ---- ---- ------- ----- ---- -------<br>--- --- -- ----- -- --- ---- -- --- ---- if ------ ------<br>--- ----- -- ----,84592.80000019073,84592.10000014305,84170.255,84177.10000014305,84186.925,84603.615,,49,if
screen,html.Screen,0_2_0_1_50,2021-11-19T11:18:55.717Z,,,,,,,,,,,,,,,,53,,,,,,,,,,,,,,556.4850001430459,,response,,,99,,,,,,Space,keypress(Space),,,,,---- -- ----- -- ------ - ------- --- ----------<br>------------- ------ ------ ---- ---- ------- ----- -- ----<br>-------- ------- -- ---------- --- - --- ----- ----- ----<br>---- --- --- ----- --- ---- ---- ------- ----- ---- -------<br>--- --- -- ----- -- --- ---- -- --- ---- -- that's ------<br>--- ----- -- ----,85160.70000004768,85160.10000014305,84586.946,84593,84603.615,85170.652,,50,that's
screen,html.Screen,0_2_0_1_51,2021-11-19T11:18:56.253Z,,,,,,,,,,,,,,,,53,,,,,,,,,,,,,,525.3479999999981,,response,,,99,,,,,,Space,keypress(Space),,,,,---- -- ----- -- ------ - ------- --- ----------<br>------------- ------ ------ ---- ---- ------- ----- -- ----<br>-------- ------- -- ---------- --- - --- ----- ----- ----<br>---- --- --- ----- --- ---- ---- ------- ----- ---- -------<br>--- --- -- ----- -- --- ---- -- --- ---- -- ------ really<br>--- ----- -- ----,85696.70000004768,85696,85153.98,85161,85170.652,85704.004,,51,really
screen,html.Screen,0_2_0_1_52,2021-11-19T11:18:56.661Z,,,,,,,,,,,,,,,,53,,,,,,,,,,,,,,399.9959999999992,,response,,,99,,,,,,Space,keypress(Space),,,,,---- -- ----- -- ------ - ------- --- ----------<br>------------- ------ ------ ---- ---- ------- ----- -- ----<br>-------- ------- -- ---------- --- - --- ----- ----- ----<br>---- --- --- ----- --- ---- ---- ------- ----- ---- -------<br>--- --- -- ----- -- --- ---- -- --- ---- -- ------ ------<br>not ----- -- ----,86104.70000004768,86104,85687.334,85697,85704.004,86120.824,,52,not
screen,html.Screen,0_2_0_1_53,2021-11-19T11:18:57.125Z,,,,,,,,,,,,,,,,53,,,,,,,,,,,,,,447.17600000000675,,response,,,99,,,,,,Space,keypress(Space),,,,,---- -- ----- -- ------ - ------- --- ----------<br>------------- ------ ------ ---- ---- ------- ----- -- ----<br>-------- ------- -- ---------- --- - --- ----- ----- ----<br>---- --- --- ----- --- ---- ---- ------- ----- ---- -------<br>--- --- -- ----- -- --- ---- -- --- ---- -- ------ ------<br>--- close -- ----,86568.70000004768,86568,86104.153,86105,86120.824,86570.909,,53,close
screen,html.Screen,0_2_0_1_54,2021-11-19T11:18:57.525Z,,,,,,,,,,,,,,,,53,,,,,,,,,,,,,,397.09100000000035,,response,,,99,,,,,,Space,keypress(Space),,,,,---- -- ----- -- ------ - ------- --- ----------<br>------------- ------ ------ ---- ---- ------- ----- -- ----<br>-------- ------- -- ---------- --- - --- ----- ----- ----<br>---- --- --- ----- --- ---- ---- ------- ----- ---- -------<br>--- --- -- ----- -- --- ---- -- --- ---- -- ------ ------<br>--- ----- at ----,86968.70000004768,86968,86554.239,86569,86570.909,86971.05,,54,at
screen,html.Screen,0_2_0_1_55,2021-11-19T11:18:58.317Z,,,,,,,,,,,,,,,,53,,,,,,,,,,,,,,788.8500000953645,,response,,,99,,,,,,Space,keypress(Space),,,,,---- -- ----- -- ------ - ------- --- ----------<br>------------- ------ ------ ---- ---- ------- ----- -- ----<br>-------- ------- -- ---------- --- - --- ----- ----- ----<br>---- --- --- ----- --- ---- ---- ------- ----- ---- -------<br>--- --- -- ----- -- --- ---- -- --- ---- -- ------ ------<br>--- ----- -- all.,87760.60000014305,87759.90000009537,86954.379,86969,86971.05,87771.267,,55,all.
Item 99,flow.Loop,0_2_0_1,2021-11-19T11:18:58.321Z,,,,,,,,,,,,,,,,,,,,,,,,,,,,,,29130.10900009537,,completion,,,,F,,,,,,,,,,silence,,87765,87759.90000009537,58613.122,58619.60000014305,58629.791,87771.267,,,
Question 1,html.Screen,0_2_0_2,2021-11-19T11:19:01.389Z,,,,,,,,,,,,,,,,,,,,,,,,,,,true,FALSE,,3060.333000143044,,response,,,99,F,,,,,FALSE,click #choice-2,,,,silence,,90832.90000009537,90831.60000014305,87754.596,87765.30000019073,87771.267,90838.719,,,
Question 2,html.Screen,0_2_0_3,2021-11-19T11:19:07.228Z,,,,,,,,,,,,,,,,,,,,,,,,,,,true,TRUE,,5832.68100009537,,response,,,99,F,,,,,TRUE,click #choice-1,,,,silence,,96672.5,96671.40000009537,90822.049,90833.20000004768,90838.719,96673.656,,,
Item 99,flow.Sequence,0_2_0,2021-11-19T11:19:07.229Z,,,,,,,,,,,,,,,,,,,,,,,,,,,,,,48043.994000095365,,completion,,,,,,,,,,,,,,,,96672.90000009537,96671.40000009537,48610.735,48626.200000047684,48627.406,96673.656,,,
Holding screen,html.Screen,0_2_1_0,2021-11-19T11:19:17.217Z,,,,,,,,,,,,,,,,,,,,,,,,,,,,,,10002.622000000003,,timeout,,,,,,,,,,,,,,,,106660.90000009537,106659.607,96656.985,96673.20000004768,96673.656,106676.278,,,
screen,html.Screen,0_2_1_1_0,2021-11-19T11:19:18.148Z,,,,,,,,,,,,,,,,54,,,,,,,,,,,,,,915.2219999999943,,response,,,100,,,,,,Space,keypress(Space),,,,,At --- ---- --- ------ ----- ------- ---- -- --- ------- --<br>------- ---------- ------ -- ----- -- ----- -- ---- ------<br>--- ----- --- --- ------ -------- ----- --- ------ ----- --<br>----- ----- ---------- --- --- ------ ------ ---- -- ------<br>------- --- ------ ----- --- ---- ------- -- ---- --- --<br>------- ------,107592.40000009537,107591.5,106659.607,106661.30000019073,106676.278,107593.301,,0,At
screen,html.Screen,0_2_1_1_1,2021-11-19T11:19:18.636Z,,,,,,,,,,,,,,,,54,,,,,,,,,,,,,,485.69899999999325,,response,,,100,,,,,,Space,keypress(Space),,,,,-- the ---- --- ------ ----- ------- ---- -- --- ------- --<br>------- ---------- ------ -- ----- -- ----- -- ---- ------<br>--- ----- --- --- ------ -------- ----- --- ------ ----- --<br>----- ----- ---------- --- --- ------ ------ ---- -- ------<br>------- --- ------ ----- --- ---- ------- -- ---- --- --<br>------- ------,108079.80000019073,108079,107576.63,107592.70000004768,107593.301,108093.39,,1,the
screen,html.Screen,0_2_1_1_2,2021-11-19T11:19:19.212Z,,,,,,,,,,,,,,,,54,,,,,,,,,,,,,,561.6100000000006,,response,,,100,,,,,,Space,keypress(Space),,,,,-- --- time --- ------ ----- ------- ---- -- --- ------- --<br>------- ---------- ------ -- ----- -- ----- -- ---- ------<br>--- ----- --- --- ------ -------- ----- --- ------ ----- --<br>----- ----- ---------- --- --- ------ ------ ---- -- ------<br>------- --- ------ ----- --- ---- ------- -- ---- --- --<br>------- ------,108655.80000019073,108655,108076.719,108080.10000014305,108093.39,108660.21,,2,time
screen,html.Screen,0_2_1_1_3,2021-11-19T11:19:19.788Z,,,,,,,,,,,,,,,,54,,,,,,,,,,,,,,570.7899999999936,,response,,,100,,,,,,Space,keypress(Space),,,,,-- --- ---- the ------ ----- ------- ---- -- --- ------- --<br>------- ---------- ------ -- ----- -- ----- -- ---- ------<br>--- ----- --- --- ------ -------- ----- --- ------ ----- --<br>----- ----- ---------- --- --- ------ ------ ---- -- ------<br>------- --- ------ ----- --- ---- ------- -- ---- --- --<br>------- ------,109231.80000019073,109231,108643.539,108656.10000014305,108660.21,109243.722,,3,the
screen,html.Screen,0_2_1_1_4,2021-11-19T11:19:20.404Z,,,,,,,,,,,,,,,,54,,,,,,,,,,,,,,603.1780000953731,,response,,,100,,,,,,Space,keypress(Space),,,,,-- --- ---- --- French ----- ------- ---- -- --- ------- --<br>------- ---------- ------ -- ----- -- ----- -- ---- ------<br>--- ----- --- --- ------ -------- ----- --- ------ ----- --<br>----- ----- ---------- --- --- ------ ------ ---- -- ------<br>------- --- ------ ----- --- ---- ------- -- ---- --- --<br>------- ------,109847.80000019073,109846.90000009537,109227.051,109232,109243.722,109860.491,,4,French
screen,html.Screen,0_2_1_1_5,2021-11-19T11:19:20.900Z,,,,,,,,,,,,,,,,54,,,,,,,,,,,,,,482.30900019074033,,response,,,100,,,,,,Space,keypress(Space),,,,,-- --- ---- --- ------ crown ------- ---- -- --- ------- --<br>------- ---------- ------ -- ----- -- ----- -- ---- ------<br>--- ----- --- --- ------ -------- ----- --- ------ ----- --<br>----- ----- ---------- --- --- ------ ------ ---- -- ------<br>------- --- ------ ----- --- ---- ------- -- ---- --- --<br>------- ------,110343.80000019073,110342.80000019073,109843.821,109848,109860.491,110360.626,,5,crown
screen,html.Screen,0_2_1_1_6,2021-11-19T11:19:21.435Z,,,,,,,,,,,,,,,,54,,,,,,,,,,,,,,518.174000190731,,response,,,100,,,,,,Space,keypress(Space),,,,,-- --- ---- --- ------ ----- secured ---- -- --- ------- --<br>------- ---------- ------ -- ----- -- ----- -- ---- ------<br>--- ----- --- --- ------ -------- ----- --- ------ ----- --<br>----- ----- ---------- --- --- ------ ------ ---- -- ------<br>------- --- ------ ----- --- ---- ------- -- ---- --- --<br>------- ------,110879.5,110878.80000019073,110343.956,110344,110360.626,110894.072,,6,secured
screen,html.Screen,0_2_1_1_7,2021-11-19T11:19:22.019Z,,,,,,,,,,,,,,,,54,,,,,,,,,,,,,,568.7280001907347,,response,,,100,,,,,,Space,keypress(Space),,,,,-- --- ---- --- ------ ----- ------- much -- --- ------- --<br>------- ---------- ------ -- ----- -- ----- -- ---- ------<br>--- ----- --- --- ------ -------- ----- --- ------ ----- --<br>----- ----- ---------- --- --- ------ ------ ---- -- ------<br>------- --- ------ ----- --- ---- ------- -- ---- --- --<br>------- ------,111463.5,111462.80000019073,110877.402,110879.80000019073,110894.072,111477.67,,7,much
screen,html.Screen,0_2_1_1_8,2021-11-19T11:19:22.499Z,,,,,,,,,,,,,,,,54,,,,,,,,,,,,,,465.1300001907366,,response,,,100,,,,,,Space,keypress(Space),,,,,-- --- ---- --- ------ ----- ------- ---- of --- ------- --<br>------- ---------- ------ -- ----- -- ----- -- ---- ------<br>--- ----- --- --- ------ -------- ----- --- ------ ----- --<br>----- ----- ---------- --- --- ------ ------ ---- -- ------<br>------- --- ------ ----- --- ---- ------- -- ---- --- --<br>------- ------,111943.60000014305,111942.80000019073,111460.999,111463.80000019073,111477.67,111944.433,,8,of
screen,html.Screen,0_2_1_1_9,2021-11-19T11:19:22.923Z,,,,,,,,,,,,,,,,54,,,,,,,,,,,,,,422.3670001907303,,response,,,100,,,,,,Space,keypress(Space),,,,,-- --- ---- --- ------ ----- ------- ---- -- its ------- --<br>------- ---------- ------ -- ----- -- ----- -- ---- ------<br>--- ----- --- --- ------ -------- ----- --- ------ ----- --<br>----- ----- ---------- --- --- ------ ------ ---- -- ------<br>------- --- ------ ----- --- ---- ------- -- ---- --- --<br>------- ------,112367.60000014305,112366.80000019073,111927.762,111943.80000019073,111944.433,112377.843,,9,its
screen,html.Screen,0_2_1_1_10,2021-11-19T11:19:23.323Z,,,,,,,,,,,,,,,,54,,,,,,,,,,,,,,388.9570001907414,,response,,,100,,,,,,Space,keypress(Space),,,,,-- --- ---- --- ------ ----- ------- ---- -- --- revenue --<br>------- ---------- ------ -- ----- -- ----- -- ---- ------<br>--- ----- --- --- ------ -------- ----- --- ------ ----- --<br>----- ----- ---------- --- --- ------ ------ ---- -- ------<br>------- --- ------ ----- --- ---- ------- -- ---- --- --<br>------- ------,112767.60000014305,112766.80000019073,112361.173,112367.80000019073,112377.843,112778,,10,revenue
screen,html.Screen,0_2_1_1_11,2021-11-19T11:19:23.731Z,,,,,,,,,,,,,,,,54,,,,,,,,,,,,,,396.90000009536743,,response,,,100,,,,,,Space,keypress(Space),,,,,-- --- ---- --- ------ ----- ------- ---- -- --- ------- by<br>------- ---------- ------ -- ----- -- ----- -- ---- ------<br>--- ----- --- --- ------ -------- ----- --- ------ ----- --<br>----- ----- ---------- --- --- ------ ------ ---- -- ------<br>------- --- ------ ----- --- ---- ------- -- ---- --- --<br>------- ------,113175.5,113174.90000009537,112761.329,112767.90000009537,112778,113178.047,,11,by
screen,html.Screen,0_2_1_1_12,2021-11-19T11:19:24.123Z,,,,,,,,,,,,,,,,54,,,,,,,,,,,,,,388.7530001907289,,response,,,100,,,,,,Space,keypress(Space),,,,,-- --- ---- --- ------ ----- ------- ---- -- --- ------- --<br>issuing ---------- ------ -- ----- -- ----- -- ---- ------<br>--- ----- --- --- ------ -------- ----- --- ------ ----- --<br>----- ----- ---------- --- --- ------ ------ ---- -- ------<br>------- --- ------ ----- --- ---- ------- -- ---- --- --<br>------- ------,113567.60000014305,113566.80000019073,113161.377,113175.90000009537,113178.047,113578.215,,12,issuing
screen,html.Screen,0_2_1_1_13,2021-11-19T11:19:24.459Z,,,,,,,,,,,,,,,,54,,,,,,,,,,,,,,324.58500019073836,,response,,,100,,,,,,Space,keypress(Space),,,,,-- --- ---- --- ------ ----- ------- ---- -- --- ------- --<br>------- government ------ -- ----- -- ----- -- ---- ------<br>--- ----- --- --- ------ -------- ----- --- ------ ----- --<br>----- ----- ---------- --- --- ------ ------ ---- -- ------<br>------- --- ------ ----- --- ---- ------- -- ---- --- --<br>------- ------,113903.60000014305,113902.80000019073,113561.544,113567.90000009537,113578.215,113911.601,,13,government
screen,html.Screen,0_2_1_1_14,2021-11-19T11:19:24.875Z,,,,,,,,,,,,,,,,54,,,,,,,,,,,,,,407.19900019073975,,response,,,100,,,,,,Space,keypress(Space),,,,,-- --- ---- --- ------ ----- ------- ---- -- --- ------- --<br>------- ---------- bonds. -- ----- -- ----- -- ---- ------<br>--- ----- --- --- ------ -------- ----- --- ------ ----- --<br>----- ----- ---------- --- --- ------ ------ ---- -- ------<br>------- --- ------ ----- --- ---- ------- -- ---- --- --<br>------- ------,114319.5,114318.80000019073,113894.931,113903.70000004768,113911.601,114328.403,,14,bonds.
screen,html.Screen,0_2_1_1_15,2021-11-19T11:19:25.387Z,,,,,,,,,,,,,,,,54,,,,,,,,,,,,,,502.297000047678,,response,,,100,,,,,,Space,keypress(Space),,,,,-- --- ---- --- ------ ----- ------- ---- -- --- ------- --<br>------- ---------- ------ In ----- -- ----- -- ---- ------<br>--- ----- --- --- ------ -------- ----- --- ------ ----- --<br>----- ----- ---------- --- --- ------ ------ ---- -- ------<br>------- --- ------ ----- --- ---- ------- -- ---- --- --<br>------- ------,114831.60000014305,114830.70000004768,114311.732,114319.70000004768,114328.403,114845.217,,15,In
screen,html.Screen,0_2_1_1_16,2021-11-19T11:19:25.907Z,,,,,,,,,,,,,,,,54,,,,,,,,,,,,,,505.4830000476795,,response,,,100,,,,,,Space,keypress(Space),,,,,"-- --- ---- --- ------ ----- ------- ---- -- --- ------- --<br>------- ---------- ------ -- 1727, -- ----- -- ---- ------<br>--- ----- --- --- ------ -------- ----- --- ------ ----- --<br>----- ----- ---------- --- --- ------ ------ ---- -- ------<br>------- --- ------ ----- --- ---- ------- -- ---- --- --<br>------- ------",115351.5,115350.70000004768,114828.546,114831.80000019073,114845.217,115362.023,,16,"1727,"
screen,html.Screen,0_2_1_1_17,2021-11-19T11:19:26.451Z,,,,,,,,,,,,,,,,54,,,,,,,,,,,,,,532.6770000476827,,response,,,100,,,,,,Space,keypress(Space),,,,,-- --- ---- --- ------ ----- ------- ---- -- --- ------- --<br>------- ---------- ------ -- ----- in ----- -- ---- ------<br>--- ----- --- --- ------ -------- ----- --- ------ ----- --<br>----- ----- ---------- --- --- ------ ------ ---- -- ------<br>------- --- ------ ----- --- ---- ------- -- ---- --- --<br>------- ------,115895.5,115894.70000004768,115345.352,115351.70000004768,115362.023,115912.118,,17,in
screen,html.Screen,0_2_1_1_18,2021-11-19T11:19:26.851Z,,,,,,,,,,,,,,,,54,,,,,,,,,,,,,,382.5820000476815,,response,,,100,,,,,,Space,keypress(Space),,,,,-- --- ---- --- ------ ----- ------- ---- -- --- ------- --<br>------- ---------- ------ -- ----- -- order -- ---- ------<br>--- ----- --- --- ------ -------- ----- --- ------ ----- --<br>----- ----- ---------- --- --- ------ ------ ---- -- ------<br>------- --- ------ ----- --- ---- ------- -- ---- --- --<br>------- ------,116295.40000009537,116294.70000004768,115895.448,115895.70000004768,115912.118,116312.271,,18,order
screen,html.Screen,0_2_1_1_19,2021-11-19T11:19:27.243Z,,,,,,,,,,,,,,,,54,,,,,,,,,,,,,,374.3290001430578,,response,,,100,,,,,,Space,keypress(Space),,,,,-- --- ---- --- ------ ----- ------- ---- -- --- ------- --<br>------- ---------- ------ -- ----- -- ----- to ---- ------<br>--- ----- --- --- ------ -------- ----- --- ------ ----- --<br>----- ----- ---------- --- --- ------ ------ ---- -- ------<br>------- --- ------ ----- --- ---- ------- -- ---- --- --<br>------- ------,116687.5,116686.60000014305,116295.6,116295.70000004768,116312.271,116695.711,,19,to
screen,html.Screen,0_2_1_1_20,2021-11-19T11:19:27.699Z,,,,,,,,,,,,,,,,54,,,,,,,,,,,,,,446.7890000000043,,response,,,100,,,,,,Space,keypress(Space),,,,,-- --- ---- --- ------ ----- ------- ---- -- --- ------- --<br>------- ---------- ------ -- ----- -- ----- -- save ------<br>--- ----- --- --- ------ -------- ----- --- ------ ----- --<br>----- ----- ---------- --- --- ------ ------ ---- -- ------<br>------- --- ------ ----- --- ---- ------- -- ---- --- --<br>------- ------,117143.5,117142.5,116679.04,116687.70000004768,116695.711,117145.837,,20,save
screen,html.Screen,0_2_1_1_21,2021-11-19T11:19:28.212Z,,,,,,,,,,,,,,,,54,,,,,,,,,,,,,,509.2630001430516,,response,,,100,,,,,,Space,keypress(Space),,,,,"-- --- ---- --- ------ ----- ------- ---- -- --- ------- --<br>------- ---------- ------ -- ----- -- ----- -- ---- money,<br>--- ----- --- --- ------ -------- ----- --- ------ ----- --<br>----- ----- ---------- --- --- ------ ------ ---- -- ------<br>------- --- ------ ----- --- ---- ------- -- ---- --- --<br>------- ------",117655.80000019073,117655.10000014305,117129.166,117143.70000004768,117145.837,117662.598,,21,"money,"
screen,html.Screen,0_2_1_1_22,2021-11-19T11:19:28.627Z,,,,,,,,,,,,,,,,54,,,,,,,,,,,,,,408.1020000476856,,response,,,100,,,,,,Space,keypress(Space),,,,,-- --- ---- --- ------ ----- ------- ---- -- --- ------- --<br>------- ---------- ------ -- ----- -- ----- -- ---- ------<br>the ----- --- --- ------ -------- ----- --- ------ ----- --<br>----- ----- ---------- --- --- ------ ------ ---- -- ------<br>------- --- ------ ----- --- ---- ------- -- ---- --- --<br>------- ------,118071.30000019073,118070.70000004768,117645.928,117656.10000014305,117662.598,118079.259,,22,the
screen,html.Screen,0_2_1_1_23,2021-11-19T11:19:29.043Z,,,,,,,,,,,,,,,,54,,,,,,,,,,,,,,407.3410001430457,,response,,,100,,,,,,Space,keypress(Space),,,,,-- --- ---- --- ------ ----- ------- ---- -- --- ------- --<br>------- ---------- ------ -- ----- -- ----- -- ---- ------<br>--- state --- --- ------ -------- ----- --- ------ ----- --<br>----- ----- ---------- --- --- ------ ------ ---- -- ------<br>------- --- ------ ----- --- ---- ------- -- ---- --- --<br>------- ------,118487.5,118486.60000014305,118062.59,118071.60000014305,118079.259,118496.236,,23,state
screen,html.Screen,0_2_1_1_24,2021-11-19T11:19:29.523Z,,,,,,,,,,,,,,,,54,,,,,,,,,,,,,,470.3640001430467,,response,,,100,,,,,,Space,keypress(Space),,,,,-- --- ---- --- ------ ----- ------- ---- -- --- ------- --<br>------- ---------- ------ -- ----- -- ----- -- ---- ------<br>--- ----- cut --- ------ -------- ----- --- ------ ----- --<br>----- ----- ---------- --- --- ------ ------ ---- -- ------<br>------- --- ------ ----- --- ---- ------- -- ---- --- --<br>------- ------,118967.30000019073,118966.60000014305,118479.564,118487.70000004768,118496.236,118979.661,,24,cut
screen,html.Screen,0_2_1_1_25,2021-11-19T11:19:29.987Z,,,,,,,,,,,,,,,,54,,,,,,,,,,,,,,450.8390000000072,,response,,,100,,,,,,Space,keypress(Space),,,,,-- --- ---- --- ------ ----- ------- ---- -- --- ------- --<br>------- ---------- ------ -- ----- -- ----- -- ---- ------<br>--- ----- --- the ------ -------- ----- --- ------ ----- --<br>----- ----- ---------- --- --- ------ ------ ---- -- ------<br>------- --- ------ ----- --- ---- ------- -- ---- --- --<br>------- ------,119431.20000004768,119430.5,118962.99,118967.5,118979.661,119446.261,,25,the
screen,html.Screen,0_2_1_1_26,2021-11-19T11:19:30.459Z,,,,,,,,,,,,,,,,54,,,,,,,,,,,,,,456.33900014305254,,response,,,100,,,,,,Space,keypress(Space),,,,,-- --- ---- --- ------ ----- ------- ---- -- --- ------- --<br>------- ---------- ------ -- ----- -- ----- -- ---- ------<br>--- ----- --- --- bonds' -------- ----- --- ------ ----- --<br>----- ----- ---------- --- --- ------ ------ ---- -- ------<br>------- --- ------ ----- --- ---- ------- -- ---- --- --<br>------- ------,119903.30000019073,119902.60000014305,119429.593,119431.40000009537,119446.261,119913.209,,26,bonds'
screen,html.Screen,0_2_1_1_27,2021-11-19T11:19:30.886Z,,,,,,,,,,,,,,,,54,,,,,,,,,,,,,,413.29099999999744,,response,,,100,,,,,,Space,keypress(Space),,,,,-- --- ---- --- ------ ----- ------- ---- -- --- ------- --<br>------- ---------- ------ -- ----- -- ----- -- ---- ------<br>--- ----- --- --- ------ interest ----- --- ------ ----- --<br>----- ----- ---------- --- --- ------ ------ ---- -- ------<br>------- --- ------ ----- --- ---- ------- -- ---- --- --<br>------- ------,120327.30000019073,120326.5,119896.538,119903.60000014305,119913.209,120329.922,,27,interest
screen,html.Screen,0_2_1_1_28,2021-11-19T11:19:31.766Z,,,,,,,,,,,,,,,,54,,,,,,,,,,,,,,876.5779999999941,,response,,,100,,,,,,Space,keypress(Space),,,,,-- --- ---- --- ------ ----- ------- ---- -- --- ------- --<br>------- ---------- ------ -- ----- -- ----- -- ---- ------<br>--- ----- --- --- ------ -------- rate. --- ------ ----- --<br>----- ----- ---------- --- --- ------ ------ ---- -- ------<br>------- --- ------ ----- --- ---- ------- -- ---- --- --<br>------- ------,121207.30000019073,121206.5,120313.252,120327.5,120329.922,121213.755,,28,rate.
screen,html.Screen,0_2_1_1_29,2021-11-19T11:19:32.158Z,,,,,,,,,,,,,,,,54,,,,,,,,,,,,,,384.6450000953628,,response,,,100,,,,,,Space,keypress(Space),,,,,-- --- ---- --- ------ ----- ------- ---- -- --- ------- --<br>------- ---------- ------ -- ----- -- ----- -- ---- ------<br>--- ----- --- --- ------ -------- ----- The ------ ----- --<br>----- ----- ---------- --- --- ------ ------ ---- -- ------<br>------- --- ------ ----- --- ---- ------- -- ---- --- --<br>------- ------,121599.20000004768,121598.40000009537,121197.082,121207.5,121213.755,121613.61,,29,The
screen,html.Screen,0_2_1_1_30,2021-11-19T11:19:32.598Z,,,,,,,,,,,,,,,,54,,,,,,,,,,,,,,424.8899999999994,,response,,,100,,,,,,Space,keypress(Space),,,,,-- --- ---- --- ------ ----- ------- ---- -- --- ------- --<br>------- ---------- ------ -- ----- -- ----- -- ---- ------<br>--- ----- --- --- ------ -------- ----- --- market ----- --<br>----- ----- ---------- --- --- ------ ------ ---- -- ------<br>------- --- ------ ----- --- ---- ------- -- ---- --- --<br>------- ------,122039.20000004768,122038.5,121596.94,121599.40000009537,121613.61,122047.153,,30,market
screen,html.Screen,0_2_1_1_31,2021-11-19T11:19:33.102Z,,,,,,,,,,,,,,,,54,,,,,,,,,,,,,,495.2470000953617,,response,,,100,,,,,,Space,keypress(Space),,,,,-- --- ---- --- ------ ----- ------- ---- -- --- ------- --<br>------- ---------- ------ -- ----- -- ----- -- ---- ------<br>--- ----- --- --- ------ -------- ----- --- ------ value --<br>----- ----- ---------- --- --- ------ ------ ---- -- ------<br>------- --- ------ ----- --- ---- ------- -- ---- --- --<br>------- ------,122543.20000004768,122542.40000009537,122030.482,122039.40000009537,122047.153,122547.07,,31,value
screen,html.Screen,0_2_1_1_32,2021-11-19T11:19:33.574Z,,,,,,,,,,,,,,,,54,,,,,,,,,,,,,,467.33000009536045,,response,,,100,,,,,,Space,keypress(Space),,,,,-- --- ---- --- ------ ----- ------- ---- -- --- ------- --<br>------- ---------- ------ -- ----- -- ----- -- ---- ------<br>--- ----- --- --- ------ -------- ----- --- ------ ----- of<br>----- ----- ---------- --- --- ------ ------ ---- -- ------<br>------- --- ------ ----- --- ---- ------- -- ---- --- --<br>------- ------,123015.20000004768,123014.40000009537,122530.402,122543.40000009537,122547.07,123030.808,,32,of
screen,html.Screen,0_2_1_1_33,2021-11-19T11:19:34.142Z,,,,,,,,,,,,,,,,54,,,,,,,,,,,,,,551.5920000953629,,response,,,100,,,,,,Space,keypress(Space),,,,,-- --- ---- --- ------ ----- ------- ---- -- --- ------- --<br>------- ---------- ------ -- ----- -- ----- -- ---- ------<br>--- ----- --- --- ------ -------- ----- --- ------ ----- --<br>these ----- ---------- --- --- ------ ------ ---- -- ------<br>------- --- ------ ----- --- ---- ------- -- ---- --- --<br>------- ------,123583.10000014305,123582.40000009537,123014.136,123015.40000009537,123030.808,123597.558,,33,these
screen,html.Screen,0_2_1_1_34,2021-11-19T11:19:34.454Z,,,,,,,,,,,,,,,,54,,,,,,,,,,,,,,296.8420000953629,,response,,,100,,,,,,Space,keypress(Space),,,,,-- --- ---- --- ------ ----- ------- ---- -- --- ------- --<br>------- ---------- ------ -- ----- -- ----- -- ---- ------<br>--- ----- --- --- ------ -------- ----- --- ------ ----- --<br>----- bonds ---------- --- --- ------ ------ ---- -- ------<br>------- --- ------ ----- --- ---- ------- -- ---- --- --<br>------- ------,123895.10000014305,123894.40000009537,123580.887,123583.30000019073,123597.558,123897.606,,34,bonds
screen,html.Screen,0_2_1_1_35,2021-11-19T11:19:34.822Z,,,,,,,,,,,,,,,,54,,,,,,,,,,,,,,364.6940001907351,,response,,,100,,,,,,Space,keypress(Space),,,,,"-- --- ---- --- ------ ----- ------- ---- -- --- ------- --<br>------- ---------- ------ -- ----- -- ----- -- ---- ------<br>--- ----- --- --- ------ -------- ----- --- ------ ----- --<br>----- ----- plummeted, --- --- ------ ------ ---- -- ------<br>------- --- ------ ----- --- ---- ------- -- ---- --- --<br>------- ------",124263.10000014305,124262.30000019073,123880.936,123895.30000019073,123897.606,124264.434,,35,"plummeted,"
screen,html.Screen,0_2_1_1_36,2021-11-19T11:19:35.302Z,,,,,,,,,,,,,,,,54,,,,,,,,,,,,,,477.86600019074103,,response,,,100,,,,,,Space,keypress(Space),,,,,-- --- ---- --- ------ ----- ------- ---- -- --- ------- --<br>------- ---------- ------ -- ----- -- ----- -- ---- ------<br>--- ----- --- --- ------ -------- ----- --- ------ ----- --<br>----- ----- ---------- and --- ------ ------ ---- -- ------<br>------- --- ------ ----- --- ---- ------- -- ---- --- --<br>------- ------,124743.10000014305,124742.30000019073,124247.763,124263.30000019073,124264.434,124747.832,,36,and
screen,html.Screen,0_2_1_1_37,2021-11-19T11:19:35.654Z,,,,,,,,,,,,,,,,54,,,,,,,,,,,,,,346.46800019074,,response,,,100,,,,,,Space,keypress(Space),,,,,-- --- ---- --- ------ ----- ------- ---- -- --- ------- --<br>------- ---------- ------ -- ----- -- ----- -- ---- ------<br>--- ----- --- --- ------ -------- ----- --- ------ ----- --<br>----- ----- ---------- --- the ------ ------ ---- -- ------<br>------- --- ------ ----- --- ---- ------- -- ---- --- --<br>------- ------,125095.10000014305,125094.30000019073,124731.162,124743.40000009537,124747.832,125097.968,,37,the
screen,html.Screen,0_2_1_1_38,2021-11-19T11:19:36.030Z,,,,,,,,,,,,,,,,54,,,,,,,,,,,,,,372.23200004769024,,response,,,100,,,,,,Space,keypress(Space),,,,,-- --- ---- --- ------ ----- ------- ---- -- --- ------- --<br>------- ---------- ------ -- ----- -- ----- -- ---- ------<br>--- ----- --- --- ------ -------- ----- --- ------ ----- --<br>----- ----- ---------- --- --- market ------ ---- -- ------<br>------- --- ------ ----- --- ---- ------- -- ---- --- --<br>------- ------,125471,125470.20000004768,125081.297,125095.30000019073,125097.968,125481.434,,38,market
screen,html.Screen,0_2_1_1_39,2021-11-19T11:19:36.590Z,,,,,,,,,,,,,,,,54,,,,,,,,,,,,,,548.866000190741,,response,,,100,,,,,,Space,keypress(Space),,,,,-- --- ---- --- ------ ----- ------- ---- -- --- ------- --<br>------- ---------- ------ -- ----- -- ----- -- ---- ------<br>--- ----- --- --- ------ -------- ----- --- ------ ----- --<br>----- ----- ---------- --- --- ------ became ---- -- ------<br>------- --- ------ ----- --- ---- ------- -- ---- --- --<br>------- ------,126031.10000014305,126030.30000019073,125464.763,125471.30000019073,125481.434,126048.171,,39,became
screen,html.Screen,0_2_1_1_40,2021-11-19T11:19:36.958Z,,,,,,,,,,,,,,,,54,,,,,,,,,,,,,,350.0290000476816,,response,,,100,,,,,,Space,keypress(Space),,,,,-- --- ---- --- ------ ----- ------- ---- -- --- ------- --<br>------- ---------- ------ -- ----- -- ----- -- ---- ------<br>--- ----- --- --- ------ -------- ----- --- ------ ----- --<br>----- ----- ---------- --- --- ------ ------ wary -- ------<br>------- --- ------ ----- --- ---- ------- -- ---- --- --<br>------- ------,126399,126398.20000004768,126031.501,126031.30000019073,126048.171,126414.993,,40,wary
screen,html.Screen,0_2_1_1_41,2021-11-19T11:19:37.374Z,,,,,,,,,,,,,,,,54,,,,,,,,,,,,,,399.2070000476815,,response,,,100,,,,,,Space,keypress(Space),,,,,-- --- ---- --- ------ ----- ------- ---- -- --- ------- --<br>------- ---------- ------ -- ----- -- ----- -- ---- ------<br>--- ----- --- --- ------ -------- ----- --- ------ ----- --<br>----- ----- ---------- --- --- ------ ------ ---- of ------<br>------- --- ------ ----- --- ---- ------- -- ---- --- --<br>------- ------,126815,126814.20000004768,126398.322,126399.30000019073,126414.993,126831.731,,41,of
screen,html.Screen,0_2_1_1_42,2021-11-19T11:19:37.942Z,,,,,,,,,,,,,,,,54,,,,,,,,,,,,,,550.5690001907351,,response,,,100,,,,,,Space,keypress(Space),,,,,-- --- ---- --- ------ ----- ------- ---- -- --- ------- --<br>------- ---------- ------ -- ----- -- ----- -- ---- ------<br>--- ----- --- --- ------ -------- ----- --- ------ ----- --<br>----- ----- ---------- --- --- ------ ------ ---- -- French<br>------- --- ------ ----- --- ---- ------- -- ---- --- --<br>------- ------,127383,127382.30000019073,126815.061,126816.30000019073,126831.731,127398.596,,42,French
screen,html.Screen,0_2_1_1_43,2021-11-19T11:19:38.406Z,,,,,,,,,,,,,,,,54,,,,,,,,,,,,,,448.00400014304614,,response,,,100,,,,,,Space,keypress(Space),,,,,-- --- ---- --- ------ ----- ------- ---- -- --- ------- --<br>------- ---------- ------ -- ----- -- ----- -- ---- ------<br>--- ----- --- --- ------ -------- ----- --- ------ ----- --<br>----- ----- ---------- --- --- ------ ------ ---- -- ------<br>credit. --- ------ ----- --- ---- ------- -- ---- --- --<br>------- ------,127847.40000009537,127846.60000014305,127381.925,127383.20000004768,127398.596,127848.558,,43,credit.
screen,html.Screen,0_2_1_1_44,2021-11-19T11:19:38.846Z,,,,,,,,,,,,,,,,54,,,,,,,,,,,,,,437.5420001430466,,response,,,100,,,,,,Space,keypress(Space),,,,,-- --- ---- --- ------ ----- ------- ---- -- --- ------- --<br>------- ---------- ------ -- ----- -- ----- -- ---- ------<br>--- ----- --- --- ------ -------- ----- --- ------ ----- --<br>----- ----- ---------- --- --- ------ ------ ---- -- ------<br>------- The ------ ----- --- ---- ------- -- ---- --- --<br>------- ------,128286.90000009537,128286.10000014305,127831.889,127847.60000014305,127848.558,128298.891,,44,The
screen,html.Screen,0_2_1_1_45,2021-11-19T11:19:39.918Z,,,,,,,,,,,,,,,,54,,,,,,,,,,,,,,1059.209000143048,,response,,,100,,,,,,Space,keypress(Space),,,,,-- --- ---- --- ------ ----- ------- ---- -- --- ------- --<br>------- ---------- ------ -- ----- -- ----- -- ---- ------<br>--- ----- --- --- ------ -------- ----- --- ------ ----- --<br>----- ----- ---------- --- --- ------ ------ ---- -- ------<br>------- --- French ----- --- ---- ------- -- ---- --- --<br>------- ------,129358.80000019073,129358.10000014305,128282.219,128287.10000014305,128298.891,129365.702,,45,French
screen,html.Screen,0_2_1_1_46,2021-11-19T11:19:40.942Z,,,,,,,,,,,,,,,,54,,,,,,,,,,,,,,1016.2979999999952,,response,,,100,,,,,,Space,keypress(Space),,,,,-- --- ---- --- ------ ----- ------- ---- -- --- ------- --<br>------- ---------- ------ -- ----- -- ----- -- ---- ------<br>--- ----- --- --- ------ -------- ----- --- ------ ----- --<br>----- ----- ---------- --- --- ------ ------ ---- -- ------<br>------- --- ------ state --- ---- ------- -- ---- --- --<br>------- ------,130382.90000009537,130382,129349.032,129359,129365.702,130399.245,,46,state
screen,html.Screen,0_2_1_1_47,2021-11-19T11:19:41.598Z,,,,,,,,,,,,,,,,54,,,,,,,,,,,,,,638.8550001430558,,response,,,100,,,,,,Space,keypress(Space),,,,,-- --- ---- --- ------ ----- ------- ---- -- --- ------- --<br>------- ---------- ------ -- ----- -- ----- -- ---- ------<br>--- ----- --- --- ------ -------- ----- --- ------ ----- --<br>----- ----- ---------- --- --- ------ ------ ---- -- ------<br>------- --- ------ ----- was ---- ------- -- ---- --- --<br>------- ------,131038.80000019073,131038.10000014305,130382.575,130383,130399.245,131049.561,,47,was
screen,html.Screen,0_2_1_1_48,2021-11-19T11:19:42.166Z,,,,,,,,,,,,,,,,54,,,,,,,,,,,,,,556.4389999999985,,response,,,100,,,,,,Space,keypress(Space),,,,,-- --- ---- --- ------ ----- ------- ---- -- --- ------- --<br>------- ---------- ------ -- ----- -- ----- -- ---- ------<br>--- ----- --- --- ------ -------- ----- --- ------ ----- --<br>----- ----- ---------- --- --- ------ ------ ---- -- ------<br>------- --- ------ ----- --- left ------- -- ---- --- --<br>------- ------,131606.80000019073,131606,131032.89,131039,131049.561,131616.382,,48,left
screen,html.Screen,0_2_1_1_49,2021-11-19T11:19:42.798Z,,,,,,,,,,,,,,,,54,,,,,,,,,,,,,,621.4180001907225,,response,,,100,,,,,,Space,keypress(Space),,,,,-- --- ---- --- ------ ----- ------- ---- -- --- ------- --<br>------- ---------- ------ -- ----- -- ----- -- ---- ------<br>--- ----- --- --- ------ -------- ----- --- ------ ----- --<br>----- ----- ---------- --- --- ------ ------ ---- -- ------<br>------- --- ------ ----- --- ---- without -- ---- --- --<br>------- ------,132238.70000004768,132237.80000019073,131599.711,131606.90000009537,131616.382,132249.886,,49,without
screen,html.Screen,0_2_1_1_50,2021-11-19T11:19:44.502Z,,,,,,,,,,,,,,,,54,,,,,,,,,,,,,,1692.0140000953688,,response,,,100,,,,,,Space,keypress(Space),,,,,-- --- ---- --- ------ ----- ------- ---- -- --- ------- --<br>------- ---------- ------ -- ----- -- ----- -- ---- ------<br>--- ----- --- --- ------ -------- ----- --- ------ ----- --<br>----- ----- ---------- --- --- ------ ------ ---- -- ------<br>------- --- ------ ----- --- ---- ------- an ---- --- --<br>------- ------,133942.90000009537,133941.90000009537,132233.215,132238.90000009537,132249.886,133950.338,,50,an
screen,html.Screen,0_2_1_1_51,2021-11-19T11:19:45.254Z,,,,,,,,,,,,,,,,54,,,,,,,,,,,,,,743.5620000953786,,response,,,100,,,,,,Space,keypress(Space),,,,,-- --- ---- --- ------ ----- ------- ---- -- --- ------- --<br>------- ---------- ------ -- ----- -- ----- -- ---- ------<br>--- ----- --- --- ------ -------- ----- --- ------ ----- --<br>----- ----- ---------- --- --- ------ ------ ---- -- ------<br>------- --- ------ ----- --- ---- ------- -- easy --- --<br>------- ------,134694.80000019073,134693.90000009537,133933.667,133943.10000014305,133950.338,134700.456,,51,easy
screen,html.Screen,0_2_1_1_52,2021-11-19T11:19:45.694Z,,,,,,,,,,,,,,,,54,,,,,,,,,,,,,,433.44400009536184,,response,,,100,,,,,,Space,keypress(Space),,,,,-- --- ---- --- ------ ----- ------- ---- -- --- ------- --<br>------- ---------- ------ -- ----- -- ----- -- ---- ------<br>--- ----- --- --- ------ -------- ----- --- ------ ----- --<br>----- ----- ---------- --- --- ------ ------ ---- -- ------<br>------- --- ------ ----- --- ---- ------- -- ---- way --<br>------- ------,135134.60000014305,135133.90000009537,134683.786,134695,134700.456,135150.667,,52,way
screen,html.Screen,0_2_1_1_53,2021-11-19T11:19:46.158Z,,,,,,,,,,,,,,,,54,,,,,,,,,,,,,,447.2330000953807,,response,,,100,,,,,,Space,keypress(Space),,,,,-- --- ---- --- ------ ----- ------- ---- -- --- ------- --<br>------- ---------- ------ -- ----- -- ----- -- ---- ------<br>--- ----- --- --- ------ -------- ----- --- ------ ----- --<br>----- ----- ---------- --- --- ------ ------ ---- -- ------<br>------- --- ------ ----- --- ---- ------- -- ---- --- of<br>------- ------,135598.70000004768,135597.90000009537,135133.996,135134.80000019073,135150.667,135600.789,,53,of
screen,html.Screen,0_2_1_1_54,2021-11-19T11:19:46.766Z,,,,,,,,,,,,,,,,54,,,,,,,,,,,,,,605.0110001907451,,response,,,100,,,,,,Space,keypress(Space),,,,,-- --- ---- --- ------ ----- ------- ---- -- --- ------- --<br>------- ---------- ------ -- ----- -- ----- -- ---- ------<br>--- ----- --- --- ------ -------- ----- --- ------ ----- --<br>----- ----- ---------- --- --- ------ ------ ---- -- ------<br>------- --- ------ ----- --- ---- ------- -- ---- --- --<br>raising ------,136206.60000014305,136205.80000019073,135584.118,135598.90000009537,135600.789,136217.618,,54,raising
screen,html.Screen,0_2_1_1_55,2021-11-19T11:19:47.422Z,,,,,,,,,,,,,,,,54,,,,,,,,,,,,,,644.1820001907472,,response,,,100,,,,,,Space,keypress(Space),,,,,-- --- ---- --- ------ ----- ------- ---- -- --- ------- --<br>------- ---------- ------ -- ----- -- ----- -- ---- ------<br>--- ----- --- --- ------ -------- ----- --- ------ ----- --<br>----- ----- ---------- --- --- ------ ------ ---- -- ------<br>------- --- ------ ----- --- ---- ------- -- ---- --- --<br>------- money.,136862.60000014305,136861.80000019073,136200.947,136206.90000009537,136217.618,136867.808,,55,money.
Item 100,flow.Loop,0_2_1_1,2021-11-19T11:19:47.422Z,,,,,,,,,,,,,,,,,,,,,,,,,,,,,,30185.52200019073,,completion,,,,F,,,,,,,,,,silence,,136863,136861.80000019073,106659.607,106661.20000004768,106676.278,136867.808,,,
Question 1,html.Screen,0_2_1_2,2021-11-19T11:19:50.318Z,,,,,,,,,,,,,,,,,,,,,,,,,,,true,TRUE,,2889.69200000001,,response,,,100,F,,,,,TRUE,click #choice-1,,,,silence,,139758.80000019073,139757.5,136851.137,136863.20000004768,136867.808,139768.581,,,
Question 2,html.Screen,0_2_1_3,2021-11-19T11:19:52.494Z,,,,,,,,,,,,,,,,,,,,,,,,,,,true,FALSE,,2164.819000095362,,response,,,100,F,,,,,FALSE,click #choice-2,,,,silence,,141934.60000014305,141933.40000009537,139751.91,139759,139768.581,141935.468,,,
Item 100,flow.Sequence,0_2_1,2021-11-19T11:19:52.494Z,,,,,,,,,,,,,,,,,,,,,,,,,,,,,,45259.744000095365,,completion,,,,,,,,,,,,,,,,141935,141933.40000009537,96656.985,96673.10000014305,96673.656,141935.468,,,
End of Practice,html.Page,0_2_2,2021-11-19T11:19:55.871Z,,,,,,,,,,,,,,,,,,,,,,,,,,,,,,3375.432000095374,,form submission,,,,,,,,,,,,,,,,145311.5,145310.90000009537,141918.819,141935.20000004768,141935.468,145319.918,,,
Practice,flow.Sequence,0_2,2021-11-19T11:19:55.871Z,,,,,,,,,,,,,,,,,,,,,,,,,,,,,,96683.49400009536,,completion,,,,,,,,,,,,,,,,145312,145310.90000009537,48610.735,48626.10000014305,48627.406,145319.918,,,
Trap_instruction,html.Page,0_3_0,2021-11-19T11:20:00.526Z,,,,,,,,,,,,,,,,,,,,,,,,,,,,,,4646.682000143046,,form submission,,,,,,,,,,,,,,,,149967.10000014305,149966.60000014305,145303.248,145312.40000009537,145319.918,149987.945,,,
trap_trial,html.Screen,0_3_1,2021-11-19T11:20:03.229Z,,,,,,,,,,,,,,,,,,,,,,,,,,,true,1,,2680.9550000953604,,response,,,,,,,,,1,click #choice-1,,,,,,152670,152668.90000009537,149954.603,149967.30000019073,149987.945,152679.345,,,
end of trap trial,html.Page,0_3_2,2021-11-19T11:20:05.086Z,,,,,,,,,,,,,,,,,,,,,,,,,,,,,,1846.8550000476826,,form submission,,,,,,,,,,,,,,,,154526.80000019073,154526.20000004768,152662.627,152670.30000019073,152679.345,154539.094,,,
Trap 1,flow.Sequence,0_3,2021-11-19T11:20:05.086Z,,,,,,,,,,,,,,,,,,,,,,,,,,,,,,9206.282000047679,,completion,,,,,,,,,,,,,,,,154527.30000019073,154526.20000004768,145303.248,145312.20000004768,145319.918,154539.094,,,
Standby,html.Page,0_4_0,2021-11-19T11:20:13.085Z,,,,,,,,,,,,,,,,,,,,,,,,,,,,,,8002.207999999984,,timeout,,,,,,,,,,,,,,,,162526.30000019073,162524.631,154522.424,154527.5,154539.094,162541.302,,,
Holding screen,html.Screen,0_4_1_0_0,2021-11-19T11:20:20.087Z,,,,,,,,,,,,,,,,,,,,,,,,,,,,,,7001.893000000011,,timeout,,,,,,,,,,,,,,,,169528,169526.524,162524.631,162526.80000019073,162541.302,169543.195,,,
screen,html.Screen,0_4_1_0_1_0,2021-11-19T11:20:21.197Z,,,,,,,,,,,,,,,,48,,,,,,,,,,,,,,1093.4050001430442,,response,,,10,F,,,,,Space,keypress(Space),,,,instrumental,As -- --- ------ ------- --------- ----------- --------<br>--------- -------- --- ------- -- ------- ---- -- ------<br>-- --- -------- -------- ---------- ---- ---- ---- ------<br>-- --------- -- ---- -- --- -- --- ------- -- - -----<br>---------- -- -- -- ---- ----- -- ------ -- --- ------<br>-------,170637.5,170636.60000014305,169526.524,169528.5,169543.195,170643.369,,0,As
screen,html.Screen,0_4_1_0_1_1,2021-11-19T11:20:21.636Z,,,,,,,,,,,,,,,,48,,,,,,,,,,,,,,432.7310001430451,,response,,,10,F,,,,,Space,keypress(Space),,,,instrumental,-- in --- ------ ------- --------- ----------- --------<br>--------- -------- --- ------- -- ------- ---- -- ------<br>-- --- -------- -------- ---------- ---- ---- ---- ------<br>-- --------- -- ---- -- --- -- --- ------- -- - -----<br>---------- -- -- -- ---- ----- -- ------ -- --- ------<br>-------,171077,171076.10000014305,170626.699,170637.80000019073,170643.369,171093.626,,1,in
screen,html.Screen,0_4_1_0_1_2,2021-11-19T11:20:22.068Z,,,,,,,,,,,,,,,,48,,,,,,,,,,,,,,414.6740001907456,,response,,,10,F,,,,,Space,keypress(Space),,,,instrumental,-- -- the ------ ------- --------- ----------- --------<br>--------- -------- --- ------- -- ------- ---- -- ------<br>-- --- -------- -------- ---------- ---- ---- ---- ------<br>-- --------- -- ---- -- --- -- --- ------- -- - -----<br>---------- -- -- -- ---- ----- -- ------ -- --- ------<br>-------,171509.10000014305,171508.30000019073,171076.955,171077.30000019073,171093.626,171510.443,,2,the
screen,html.Screen,0_4_1_0_1_3,2021-11-19T11:20:22.612Z,,,,,,,,,,,,,,,,48,,,,,,,,,,,,,,541.8570001907356,,response,,,10,F,,,,,Space,keypress(Space),,,,instrumental,-- -- --- United ------- --------- ----------- --------<br>--------- -------- --- ------- -- ------- ---- -- ------<br>-- --- -------- -------- ---------- ---- ---- ---- ------<br>-- --------- -- ---- -- --- -- --- ------- -- - -----<br>---------- -- -- -- ---- ----- -- ------ -- --- ------<br>-------,172053.10000014305,172052.30000019073,171493.772,171509.40000009537,171510.443,172060.434,,3,United
screen,html.Screen,0_4_1_0_1_4,2021-11-19T11:20:23.172Z,,,,,,,,,,,,,,,,48,,,,,,,,,,,,,,551.8660001907265,,response,,,10,F,,,,,Space,keypress(Space),,,,instrumental,"-- -- --- ------ States, --------- ----------- --------<br>--------- -------- --- ------- -- ------- ---- -- ------<br>-- --- -------- -------- ---------- ---- ---- ---- ------<br>-- --------- -- ---- -- --- -- --- ------- -- - -----<br>---------- -- -- -- ---- ----- -- ------ -- --- ------<br>-------",172612.90000009537,172612.30000019073,172043.765,172053.5,172060.434,172627.284,,4,"States,"
screen,html.Screen,0_4_1_0_1_5,2021-11-19T11:20:23.892Z,,,,,,,,,,,,,,,,48,,,,,,,,,,,,,,704.9160000476695,,response,,,10,F,,,,,Space,keypress(Space),,,,instrumental,-- -- --- ------ ------- Colombian ----------- --------<br>--------- -------- --- ------- -- ------- ---- -- ------<br>-- --- -------- -------- ---------- ---- ---- ---- ------<br>-- --------- -- ---- -- --- -- --- ------- -- - -----<br>---------- -- -- -- ---- ----- -- ------ -- --- ------<br>-------,173332.90000009537,173332.20000004768,172610.614,172613.20000004768,172627.284,173344.367,,5,Colombian
screen,html.Screen,0_4_1_0_1_6,2021-11-19T11:20:24.844Z,,,,,,,,,,,,,,,,48,,,,,,,,,,,,,,939.8330000476853,,response,,,10,F,,,,,Space,keypress(Space),,,,instrumental,-- -- --- ------ ------- --------- legislation --------<br>--------- -------- --- ------- -- ------- ---- -- ------<br>-- --- -------- -------- ---------- ---- ---- ---- ------<br>-- --------- -- ---- -- --- -- --- ------- -- - -----<br>---------- -- -- -- ---- ----- -- ------ -- --- ------<br>-------,174284.90000009537,174284.20000004768,173327.695,173333.20000004768,173344.367,174294.523,,6,legislation
screen,html.Screen,0_4_1_0_1_7,2021-11-19T11:20:25.612Z,,,,,,,,,,,,,,,,48,,,,,,,,,,,,,,757.5770001430647,,response,,,10,F,,,,,Space,keypress(Space),,,,instrumental,-- -- --- ------ ------- --------- ----------- requires<br>--------- -------- --- ------- -- ------- ---- -- ------<br>-- --- -------- -------- ---------- ---- ---- ---- ------<br>-- --------- -- ---- -- --- -- --- ------- -- - -----<br>---------- -- -- -- ---- ----- -- ------ -- --- ------<br>-------,175052.80000019073,175052.10000014305,174277.852,174285.10000014305,174294.523,175061.326,,7,requires
screen,html.Screen,0_4_1_0_1_8,2021-11-19T11:20:26.436Z,,,,,,,,,,,,,,,,48,,,,,,,,,,,,,,814.5740000953665,,response,,,10,F,,,,,Space,keypress(Space),,,,instrumental,-- -- --- ------ ------- --------- ----------- --------<br>travelers -------- --- ------- -- ------- ---- -- ------<br>-- --- -------- -------- ---------- ---- ---- ---- ------<br>-- --------- -- ---- -- --- -- --- ------- -- - -----<br>---------- -- -- -- ---- ----- -- ------ -- --- ------<br>-------,175876.70000004768,175875.90000009537,175044.656,175053.10000014305,175061.326,175878.268,,8,travelers
screen,html.Screen,0_4_1_0_1_9,2021-11-19T11:20:27.212Z,,,,,,,,,,,,,,,,48,,,,,,,,,,,,,,773.8320001430402,,response,,,10,F,,,,,Space,keypress(Space),,,,instrumental,-- -- --- ------ ------- --------- ----------- --------<br>--------- entering --- ------- -- ------- ---- -- ------<br>-- --- -------- -------- ---------- ---- ---- ---- ------<br>-- --------- -- ---- -- --- -- --- ------- -- - -----<br>---------- -- -- -- ---- ----- -- ------ -- --- ------<br>-------,176652.90000009537,176652.10000014305,175861.597,175877,175878.268,176661.683,,9,entering
screen,html.Screen,0_4_1_0_1_10,2021-11-19T11:20:27.692Z,,,,,,,,,,,,,,,,48,,,,,,,,,,,,,,470.31700000001,,response,,,10,F,,,,,Space,keypress(Space),,,,instrumental,-- -- --- ------ ------- --------- ----------- --------<br>--------- -------- the ------- -- ------- ---- -- ------<br>-- --- -------- -------- ---------- ---- ---- ---- ------<br>-- --------- -- ---- -- --- -- --- ------- -- - -----<br>---------- -- -- -- ---- ----- -- ------ -- --- ------<br>-------,177132.80000019073,177132,176645.013,176653,176661.683,177145.327,,10,the
screen,html.Screen,0_4_1_0_1_11,2021-11-19T11:20:28.308Z,,,,,,,,,,,,,,,,48,,,,,,,,,,,,,,602.7730001430609,,response,,,10,F,,,,,Space,keypress(Space),,,,instrumental,-- -- --- ------ ------- --------- ----------- --------<br>--------- -------- --- country -- ------- ---- -- ------<br>-- --- -------- -------- ---------- ---- ---- ---- ------<br>-- --------- -- ---- -- --- -- --- ------- -- - -----<br>---------- -- -- -- ---- ----- -- ------ -- --- ------<br>-------,177748.80000019073,177748.10000014305,177128.656,177133.10000014305,177145.327,177762.069,,11,country
screen,html.Screen,0_4_1_0_1_12,2021-11-19T11:20:28.764Z,,,,,,,,,,,,,,,,48,,,,,,,,,,,,,,441.7310001907463,,response,,,10,F,,,,,Space,keypress(Space),,,,instrumental,-- -- --- ------ ------- --------- ----------- --------<br>--------- -------- --- ------- to ------- ---- -- ------<br>-- --- -------- -------- ---------- ---- ---- ---- ------<br>-- --------- -- ---- -- --- -- --- ------- -- - -----<br>---------- -- -- -- ---- ----- -- ------ -- --- ------<br>-------,178204.60000014305,178203.80000019073,177745.399,177749.10000014305,177762.069,178212.194,,12,to
screen,html.Screen,0_4_1_0_1_13,2021-11-19T11:20:29.268Z,,,,,,,,,,,,,,,,48,,,,,,,,,,,,,,495.8060000000114,,response,,,10,F,,,,,Space,keypress(Space),,,,instrumental,-- -- --- ------ ------- --------- ----------- --------<br>--------- -------- --- ------- -- declare ---- -- ------<br>-- --- -------- -------- ---------- ---- ---- ---- ------<br>-- --------- -- ---- -- --- -- --- ------- -- - -----<br>---------- -- -- -- ---- ----- -- ------ -- --- ------<br>-------,178708.90000009537,178708,178195.524,178204.90000009537,178212.194,178712.372,,13,declare
screen,html.Screen,0_4_1_0_1_14,2021-11-19T11:20:29.772Z,,,,,,,,,,,,,,,,48,,,,,,,,,,,,,,499.627999999997,,response,,,10,F,,,,,Space,keypress(Space),,,,instrumental,-- -- --- ------ ------- --------- ----------- --------<br>--------- -------- --- ------- -- ------- cash -- ------<br>-- --- -------- -------- ---------- ---- ---- ---- ------<br>-- --------- -- ---- -- --- -- --- ------- -- - -----<br>---------- -- -- -- ---- ----- -- ------ -- --- ------<br>-------,179212.70000004768,179212,178695.701,178709.10000014305,178712.372,179229.023,,14,cash
screen,html.Screen,0_4_1_0_1_15,2021-11-19T11:20:30.244Z,,,,,,,,,,,,,,,,48,,,,,,,,,,,,,,454.77700019074837,,response,,,10,F,,,,,Space,keypress(Space),,,,instrumental,-- -- --- ------ ------- --------- ----------- --------<br>--------- -------- --- ------- -- ------- ---- in ------<br>-- --- -------- -------- ---------- ---- ---- ---- ------<br>-- --------- -- ---- -- --- -- --- ------- -- - -----<br>---------- -- -- -- ---- ----- -- ------ -- --- ------<br>-------,179684.60000014305,179683.80000019073,179212.354,179212.90000009537,179229.023,179696.029,,15,in
screen,html.Screen,0_4_1_0_1_16,2021-11-19T11:20:30.804Z,,,,,,,,,,,,,,,,48,,,,,,,,,,,,,,547.6710000476742,,response,,,10,F,,,,,Space,keypress(Space),,,,instrumental,-- -- --- ------ ------- --------- ----------- --------<br>--------- -------- --- ------- -- ------- ---- -- excess<br>-- --- -------- -------- ---------- ---- ---- ---- ------<br>-- --------- -- ---- -- --- -- --- ------- -- - -----<br>---------- -- -- -- ---- ----- -- ------ -- --- ------<br>-------,180244.5,180243.70000004768,179679.357,179684.90000009537,179696.029,180246.128,,16,excess
screen,html.Screen,0_4_1_0_1_17,2021-11-19T11:20:31.281Z,,,,,,,,,,,,,,,,48,,,,,,,,,,,,,,478.1720001907379,,response,,,10,F,,,,,Space,keypress(Space),,,,instrumental,-- -- --- ------ ------- --------- ----------- --------<br>--------- -------- --- ------- -- ------- ---- -- ------<br>of --- -------- -------- ---------- ---- ---- ---- ------<br>-- --------- -- ---- -- --- -- --- ------- -- - -----<br>---------- -- -- -- ---- ----- -- ------ -- --- ------<br>-------,180725.10000014305,180724.30000019073,180229.457,180244.80000019073,180246.128,180729.583,,17,of
screen,html.Screen,0_4_1_0_1_18,2021-11-19T11:20:31.800Z,,,,,,,,,,,,,,,,48,,,,,,,,,,,,,,514.0170001430379,,response,,,10,F,,,,,Space,keypress(Space),,,,instrumental,-- -- --- ------ ------- --------- ----------- --------<br>--------- -------- --- ------- -- ------- ---- -- ------<br>-- ten -------- -------- ---------- ---- ---- ---- ------<br>-- --------- -- ---- -- --- -- --- ------- -- - -----<br>---------- -- -- -- ---- ----- -- ------ -- --- ------<br>-------,181244.5,181243.60000014305,180712.912,180725.20000004768,180729.583,181246.392,,18,ten
screen,html.Screen,0_4_1_0_1_19,2021-11-19T11:20:32.384Z,,,,,,,,,,,,,,,,48,,,,,,,,,,,,,,581.4080001907423,,response,,,10,F,,,,,Space,keypress(Space),,,,instrumental,-- -- --- ------ ------- --------- ----------- --------<br>--------- -------- --- ------- -- ------- ---- -- ------<br>-- --- thousand -------- ---------- ---- ---- ---- ------<br>-- --------- -- ---- -- --- -- --- ------- -- - -----<br>---------- -- -- -- ---- ----- -- ------ -- --- ------<br>-------,181828.60000014305,181827.80000019073,181229.721,181244.70000004768,181246.392,181829.712,,19,thousand
screen,html.Screen,0_4_1_0_1_20,2021-11-19T11:20:33.216Z,,,,,,,,,,,,,,,,48,,,,,,,,,,,,,,830.0880001907353,,response,,,10,F,,,,,Space,keypress(Space),,,,instrumental,-- -- --- ------ ------- --------- ----------- --------<br>--------- -------- --- ------- -- ------- ---- -- ------<br>-- --- -------- dollars. ---------- ---- ---- ---- ------<br>-- --------- -- ---- -- --- -- --- ------- -- - -----<br>---------- -- -- -- ---- ----- -- ------ -- --- ------<br>-------,182660.60000014305,182659.80000019073,181813.043,181828.80000019073,181829.712,182663.548,,20,dollars.
screen,html.Screen,0_4_1_0_1_21,2021-11-19T11:20:34.080Z,,,,,,,,,,,,,,,,48,,,,,,,,,,,,,,860.1520000476739,,response,,,10,F,,,,,Space,keypress(Space),,,,instrumental,-- -- --- ------ ------- --------- ----------- --------<br>--------- -------- --- ------- -- ------- ---- -- ------<br>-- --- -------- -------- Concealing ---- ---- ---- ------<br>-- --------- -- ---- -- --- -- --- ------- -- - -----<br>---------- -- -- -- ---- ----- -- ------ -- --- ------<br>-------,183524.60000014305,183523.70000004768,182646.876,182660.80000019073,182663.548,183530.335,,21,Concealing
screen,html.Screen,0_4_1_0_1_22,2021-11-19T11:20:34.792Z,,,,,,,,,,,,,,,,48,,,,,,,,,,,,,,705.3650000476919,,response,,,10,F,,,,,Space,keypress(Space),,,,instrumental,-- -- --- ------ ------- --------- ----------- --------<br>--------- -------- --- ------- -- ------- ---- -- ------<br>-- --- -------- -------- ---------- more ---- ---- ------<br>-- --------- -- ---- -- --- -- --- ------- -- - -----<br>---------- -- -- -- ---- ----- -- ------ -- --- ------<br>-------,184236.40000009537,184235.70000004768,183513.664,183524.80000019073,183530.335,184247.066,,22,more
screen,html.Screen,0_4_1_0_1_23,2021-11-19T11:20:35.488Z,,,,,,,,,,,,,,,,48,,,,,,,,,,,,,,684.6340000476921,,response,,,10,F,,,,,Space,keypress(Space),,,,instrumental,-- -- --- ------ ------- --------- ----------- --------<br>--------- -------- --- ------- -- ------- ---- -- ------<br>-- --- -------- -------- ---------- ---- than ---- ------<br>-- --------- -- ---- -- --- -- --- ------- -- - -----<br>---------- -- -- -- ---- ----- -- ------ -- --- ------<br>-------,184932.5,184931.70000004768,184230.396,184236.70000004768,184247.066,184947.413,,23,than
screen,html.Screen,0_4_1_0_1_24,2021-11-19T11:20:36.072Z,,,,,,,,,,,,,,,,48,,,,,,,,,,,,,,568.1870001430507,,response,,,10,F,,,,,Space,keypress(Space),,,,instrumental,-- -- --- ------ ------- --------- ----------- --------<br>--------- -------- --- ------- -- ------- ---- -- ------<br>-- --- -------- -------- ---------- ---- ---- that ------<br>-- --------- -- ---- -- --- -- --- ------- -- - -----<br>---------- -- -- -- ---- ----- -- ------ -- --- ------<br>-------,185516.40000009537,185515.60000014305,184930.742,184932.70000004768,184947.413,185530.695,,24,that
screen,html.Screen,0_4_1_0_1_25,2021-11-19T11:20:36.600Z,,,,,,,,,,,,,,,,48,,,,,,,,,,,,,,512.9050001430442,,response,,,10,F,,,,,Space,keypress(Space),,,,instrumental,-- -- --- ------ ------- --------- ----------- --------<br>--------- -------- --- ------- -- ------- ---- -- ------<br>-- --- -------- -------- ---------- ---- ---- ---- amount<br>-- --------- -- ---- -- --- -- --- ------- -- - -----<br>---------- -- -- -- ---- ----- -- ------ -- --- ------<br>-------,186044.60000014305,186043.60000014305,185514.026,185516.60000014305,185530.695,186047.632,,25,amount
screen,html.Screen,0_4_1_0_1_26,2021-11-19T11:20:37.176Z,,,,,,,,,,,,,,,,48,,,,,,,,,,,,,,571.9680001430388,,response,,,10,F,,,,,Space,keypress(Space),,,,instrumental,-- -- --- ------ ------- --------- ----------- --------<br>--------- -------- --- ------- -- ------- ---- -- ------<br>-- --- -------- -------- ---------- ---- ---- ---- ------<br>to --------- -- ---- -- --- -- --- ------- -- - -----<br>---------- -- -- -- ---- ----- -- ------ -- --- ------<br>-------,186620.30000019073,186619.60000014305,186030.961,186044.80000019073,186047.632,186631.239,,26,to
screen,html.Screen,0_4_1_0_1_27,2021-11-19T11:20:37.752Z,,,,,,,,,,,,,,,,48,,,,,,,,,,,,,,564.2609999999986,,response,,,10,F,,,,,Space,keypress(Space),,,,instrumental,-- -- --- ------ ------- --------- ----------- --------<br>--------- -------- --- ------- -- ------- ---- -- ------<br>-- --- -------- -------- ---------- ---- ---- ---- ------<br>-- transport -- ---- -- --- -- --- ------- -- - -----<br>---------- -- -- -- ---- ----- -- ------ -- --- ------<br>-------,187196.30000019073,187195.5,186614.567,186620.70000004768,186631.239,187197.995,,27,transport
screen,html.Screen,0_4_1_0_1_28,2021-11-19T11:20:38.192Z,,,,,,,,,,,,,,,,48,,,,,,,,,,,,,,437.4050000953721,,response,,,10,F,,,,,Space,keypress(Space),,,,instrumental,-- -- --- ------ ------- --------- ----------- --------<br>--------- -------- --- ------- -- ------- ---- -- ------<br>-- --- -------- -------- ---------- ---- ---- ---- ------<br>-- --------- it ---- -- --- -- --- ------- -- - -----<br>---------- -- -- -- ---- ----- -- ------ -- --- ------<br>-------,187636.10000014305,187635.40000009537,187181.324,187196.5,187197.995,187648.074,,28,it
screen,html.Screen,0_4_1_0_1_29,2021-11-19T11:20:38.632Z,,,,,,,,,,,,,,,,48,,,,,,,,,,,,,,427.42600000000675,,response,,,10,F,,,,,Space,keypress(Space),,,,instrumental,-- -- --- ------ ------- --------- ----------- --------<br>--------- -------- --- ------- -- ------- ---- -- ------<br>-- --- -------- -------- ---------- ---- ---- ---- ------<br>-- --------- -- into -- --- -- --- ------- -- - -----<br>---------- -- -- -- ---- ----- -- ------ -- --- ------<br>-------,188076.30000019073,188075.5,187631.404,187636.40000009537,187648.074,188081.578,,29,into
screen,html.Screen,0_4_1_0_1_30,2021-11-19T11:20:39.024Z,,,,,,,,,,,,,,,,48,,,,,,,,,,,,,,385.9219999999914,,response,,,10,F,,,,,Space,keypress(Space),,,,instrumental,-- -- --- ------ ------- --------- ----------- --------<br>--------- -------- --- ------- -- ------- ---- -- ------<br>-- --- -------- -------- ---------- ---- ---- ---- ------<br>-- --------- -- ---- or --- -- --- ------- -- - -----<br>---------- -- -- -- ---- ----- -- ------ -- --- ------<br>-------,188468.30000019073,188467.5,188064.907,188076.5,188081.578,188481.492,,30,or
screen,html.Screen,0_4_1_0_1_31,2021-11-19T11:20:39.400Z,,,,,,,,,,,,,,,,48,,,,,,,,,,,,,,362.00800000000163,,response,,,10,F,,,,,Space,keypress(Space),,,,instrumental,-- -- --- ------ ------- --------- ----------- --------<br>--------- -------- --- ------- -- ------- ---- -- ------<br>-- --- -------- -------- ---------- ---- ---- ---- ------<br>-- --------- -- ---- -- out -- --- ------- -- - -----<br>---------- -- -- -- ---- ----- -- ------ -- --- ------<br>-------,188844.20000004768,188843.5,188464.824,188468.60000014305,188481.492,188848.498,,31,out
screen,html.Screen,0_4_1_0_1_32,2021-11-19T11:20:39.800Z,,,,,,,,,,,,,,,,48,,,,,,,,,,,,,,395.0020000000077,,response,,,10,F,,,,,Space,keypress(Space),,,,instrumental,-- -- --- ------ ------- --------- ----------- --------<br>--------- -------- --- ------- -- ------- ---- -- ------<br>-- --- -------- -------- ---------- ---- ---- ---- ------<br>-- --------- -- ---- -- --- of --- ------- -- - -----<br>---------- -- -- -- ---- ----- -- ------ -- --- ------<br>-------,189244.20000004768,189243.5,188831.826,188844.5,188848.498,189248.359,,32,of
screen,html.Screen,0_4_1_0_1_33,2021-11-19T11:20:40.208Z,,,,,,,,,,,,,,,,48,,,,,,,,,,,,,,403.0410000953707,,response,,,10,F,,,,,Space,keypress(Space),,,,instrumental,-- -- --- ------ ------- --------- ----------- --------<br>--------- -------- --- ------- -- ------- ---- -- ------<br>-- --- -------- -------- ---------- ---- ---- ---- ------<br>-- --------- -- ---- -- --- -- the ------- -- - -----<br>---------- -- -- -- ---- ----- -- ------ -- --- ------<br>-------,189652.30000019073,189651.40000009537,189231.691,189244.5,189248.359,189665.409,,33,the
screen,html.Screen,0_4_1_0_1_34,2021-11-19T11:20:40.704Z,,,,,,,,,,,,,,,,48,,,,,,,,,,,,,,481.99100009535323,,response,,,10,F,,,,,Space,keypress(Space),,,,instrumental,-- -- --- ------ ------- --------- ----------- --------<br>--------- -------- --- ------- -- ------- ---- -- ------<br>-- --- -------- -------- ---------- ---- ---- ---- ------<br>-- --------- -- ---- -- --- -- --- country -- - -----<br>---------- -- -- -- ---- ----- -- ------ -- --- ------<br>-------,190148.20000004768,190147.40000009537,189648.736,189652.40000009537,189665.409,190165.448,,34,country
screen,html.Screen,0_4_1_0_1_35,2021-11-19T11:20:41.048Z,,,,,,,,,,,,,,,,48,,,,,,,,,,,,,,325.9520000953635,,response,,,10,F,,,,,Space,keypress(Space),,,,instrumental,-- -- --- ------ ------- --------- ----------- --------<br>--------- -------- --- ------- -- ------- ---- -- ------<br>-- --- -------- -------- ---------- ---- ---- ---- ------<br>-- --------- -- ---- -- --- -- --- ------- is - -----<br>---------- -- -- -- ---- ----- -- ------ -- --- ------<br>-------,190492.20000004768,190491.40000009537,190148.777,190148.5,190165.448,190498.871,,35,is
screen,html.Screen,0_4_1_0_1_36,2021-11-19T11:20:41.344Z,,,,,,,,,,,,,,,,48,,,,,,,,,,,,,,289.0290000953537,,response,,,10,F,,,,,Space,keypress(Space),,,,instrumental,-- -- --- ------ ------- --------- ----------- --------<br>--------- -------- --- ------- -- ------- ---- -- ------<br>-- --- -------- -------- ---------- ---- ---- ---- ------<br>-- --------- -- ---- -- --- -- --- ------- -- a -----<br>---------- -- -- -- ---- ----- -- ------ -- --- ------<br>-------,190788.60000014305,190787.90000009537,190482.2,190492.40000009537,190498.871,190798.962,,36,a
screen,html.Screen,0_4_1_0_1_37,2021-11-19T11:20:41.824Z,,,,,,,,,,,,,,,,48,,,,,,,,,,,,,,468.53800000000047,,response,,,10,F,,,,,Space,keypress(Space),,,,instrumental,-- -- --- ------ ------- --------- ----------- --------<br>--------- -------- --- ------- -- ------- ---- -- ------<br>-- --- -------- -------- ---------- ---- ---- ---- ------<br>-- --------- -- ---- -- --- -- --- ------- -- - crime<br>---------- -- -- -- ---- ----- -- ------ -- --- ------<br>-------,191268.20000004768,191267.5,190782.291,190788.90000009537,190798.962,191282.377,,37,crime
screen,html.Screen,0_4_1_0_1_38,2021-11-19T11:20:42.328Z,,,,,,,,,,,,,,,,48,,,,,,,,,,,,,,489.02300009535975,,response,,,10,F,,,,,Space,keypress(Space),,,,instrumental,-- -- --- ------ ------- --------- ----------- --------<br>--------- -------- --- ------- -- ------- ---- -- ------<br>-- --- -------- -------- ---------- ---- ---- ---- ------<br>-- --------- -- ---- -- --- -- --- ------- -- - -----<br>punishable -- -- -- ---- ----- -- ------ -- --- ------<br>-------,191772.20000004768,191771.40000009537,191265.707,191268.40000009537,191282.377,191782.563,,38,punishable
screen,html.Screen,0_4_1_0_1_39,2021-11-19T11:20:42.632Z,,,,,,,,,,,,,,,,48,,,,,,,,,,,,,,292.63700004768907,,response,,,10,F,,,,,Space,keypress(Space),,,,instrumental,-- -- --- ------ ------- --------- ----------- --------<br>--------- -------- --- ------- -- ------- ---- -- ------<br>-- --- -------- -------- ---------- ---- ---- ---- ------<br>-- --------- -- ---- -- --- -- --- ------- -- - -----<br>---------- by -- -- ---- ----- -- ------ -- --- ------<br>-------,192076,192075.20000004768,191765.892,191772.40000009537,191782.563,192082.635,,39,by
screen,html.Screen,0_4_1_0_1_40,2021-11-19T11:20:42.896Z,,,,,,,,,,,,,,,,48,,,,,,,,,,,,,,257.0650000476744,,response,,,10,F,,,,,Space,keypress(Space),,,,instrumental,-- -- --- ------ ------- --------- ----------- --------<br>--------- -------- --- ------- -- ------- ---- -- ------<br>-- --- -------- -------- ---------- ---- ---- ---- ------<br>-- --------- -- ---- -- --- -- --- ------- -- - -----<br>---------- -- up -- ---- ----- -- ------ -- --- ------<br>-------,192340.30000019073,192339.70000004768,192065.964,192076.20000004768,192082.635,192349.385,,40,up
screen,html.Screen,0_4_1_0_1_41,2021-11-19T11:20:43.185Z,,,,,,,,,,,,,,,,48,,,,,,,,,,,,,,278.0150000953581,,response,,,10,F,,,,,Space,keypress(Space),,,,instrumental,-- -- --- ------ ------- --------- ----------- --------<br>--------- -------- --- ------- -- ------- ---- -- ------<br>-- --- -------- -------- ---------- ---- ---- ---- ------<br>-- --------- -- ---- -- --- -- --- ------- -- - -----<br>---------- -- -- to ---- ----- -- ------ -- --- ------<br>-------,192629.10000014305,192627.40000009537,192332.714,192340.60000014305,192349.385,192632.752,,41,to
screen,html.Screen,0_4_1_0_1_42,2021-11-19T11:20:43.448Z,,,,,,,,,,,,,,,,48,,,,,,,,,,,,,,258.64800009535975,,response,,,10,F,,,,,Space,keypress(Space),,,,instrumental,-- -- --- ------ ------- --------- ----------- --------<br>--------- -------- --- ------- -- ------- ---- -- ------<br>-- --- -------- -------- ---------- ---- ---- ---- ------<br>-- --------- -- ---- -- --- -- --- ------- -- - -----<br>---------- -- -- -- five ----- -- ------ -- --- ------<br>-------,192892.10000014305,192891.40000009537,192616.082,192629.40000009537,192632.752,192899.539,,42,five
screen,html.Screen,0_4_1_0_1_43,2021-11-19T11:20:43.768Z,,,,,,,,,,,,,,,,48,,,,,,,,,,,,,,311.8610000953777,,response,,,10,F,,,,,Space,keypress(Space),,,,instrumental,-- -- --- ------ ------- --------- ----------- --------<br>--------- -------- --- ------- -- ------- ---- -- ------<br>-- --- -------- -------- ---------- ---- ---- ---- ------<br>-- --------- -- ---- -- --- -- --- ------- -- - -----<br>---------- -- -- -- ---- years -- ------ -- --- ------<br>-------,193212.10000014305,193211.40000009537,192882.868,192892.40000009537,192899.539,193216.285,,43,years
screen,html.Screen,0_4_1_0_1_44,2021-11-19T11:20:44.160Z,,,,,,,,,,,,,,,,48,,,,,,,,,,,,,,387.01500019073137,,response,,,10,F,,,,,Space,keypress(Space),,,,instrumental,-- -- --- ------ ------- --------- ----------- --------<br>--------- -------- --- ------- -- ------- ---- -- ------<br>-- --- -------- -------- ---------- ---- ---- ---- ------<br>-- --------- -- ---- -- --- -- --- ------- -- - -----<br>---------- -- -- -- ---- ----- in ------ -- --- ------<br>-------,193604.20000004768,193603.30000019073,193199.614,193212.40000009537,193216.285,193616.341,,44,in
screen,html.Screen,0_4_1_0_1_45,2021-11-19T11:20:44.544Z,,,,,,,,,,,,,,,,48,,,,,,,,,,,,,,370.95900019074907,,response,,,10,F,,,,,Space,keypress(Space),,,,instrumental,-- -- --- ------ ------- --------- ----------- --------<br>--------- -------- --- ------- -- ------- ---- -- ------<br>-- --- -------- -------- ---------- ---- ---- ---- ------<br>-- --------- -- ---- -- --- -- --- ------- -- - -----<br>---------- -- -- -- ---- ----- -- prison -- --- ------<br>-------,193988.10000014305,193987.30000019073,193599.671,193604.5,193616.341,193999.816,,45,prison
screen,html.Screen,0_4_1_0_1_46,2021-11-19T11:20:44.880Z,,,,,,,,,,,,,,,,48,,,,,,,,,,,,,,323.48400019074325,,response,,,10,F,,,,,Space,keypress(Space),,,,instrumental,-- -- --- ------ ------- --------- ----------- --------<br>--------- -------- --- ------- -- ------- ---- -- ------<br>-- --- -------- -------- ---------- ---- ---- ---- ------<br>-- --------- -- ---- -- --- -- --- ------- -- - -----<br>---------- -- -- -- ---- ----- -- ------ in --- ------<br>-------,194324.10000014305,194323.30000019073,193983.145,193988.30000019073,193999.816,194333.089,,46,in
screen,html.Screen,0_4_1_0_1_47,2021-11-19T11:20:45.264Z,,,,,,,,,,,,,,,,48,,,,,,,,,,,,,,374.21100019072765,,response,,,10,F,,,,,Space,keypress(Space),,,,instrumental,-- -- --- ------ ------- --------- ----------- --------<br>--------- -------- --- ------- -- ------- ---- -- ------<br>-- --- -------- -------- ---------- ---- ---- ---- ------<br>-- --------- -- ---- -- --- -- --- ------- -- - -----<br>---------- -- -- -- ---- ----- -- ------ -- the ------<br>-------,194708,194707.30000019073,194316.421,194324.30000019073,194333.089,194716.766,,47,the
screen,html.Screen,0_4_1_0_1_48,2021-11-19T11:20:45.831Z,,,,,,,,,,,,,,,,48,,,,,,,,,,,,,,558.3340001430479,,response,,,10,F,,,,,Space,keypress(Space),,,,instrumental,-- -- --- ------ ------- --------- ----------- --------<br>--------- -------- --- ------- -- ------- ---- -- ------<br>-- --- -------- -------- ---------- ---- ---- ---- ------<br>-- --------- -- ---- -- --- -- --- ------- -- - -----<br>---------- -- -- -- ---- ----- -- ------ -- --- United<br>-------,195275.90000009537,195275.10000014305,194700.093,194708.20000004768,194716.766,195283.495,,48,United
screen,html.Screen,0_4_1_0_1_49,2021-11-19T11:20:46.439Z,,,,,,,,,,,,,,,,48,,,,,,,,,,,,,,599.6050001430558,,response,,,10,F,,,,,Space,keypress(Space),,,,instrumental,-- -- --- ------ ------- --------- ----------- --------<br>--------- -------- --- ------- -- ------- ---- -- ------<br>-- --- -------- -------- ---------- ---- ---- ---- ------<br>-- --------- -- ---- -- --- -- --- ------- -- - -----<br>---------- -- -- -- ---- ----- -- ------ -- --- ------<br>States.,195883.90000009537,195883.10000014305,195266.824,195276.10000014305,195283.495,195900.327,,49,States.
Item 10,flow.Loop,0_4_1_0_1,2021-11-19T11:20:46.440Z,,,,,,,,,,,,,,,,,,,,,,,,,,,,,,26339.905000143044,,completion,,,,,,,,,,,,,,,,195884.30000019073,195883.10000014305,169526.524,169528.40000009537,169543.195,195900.327,,,
Question 1,html.Screen,0_4_1_0_2,2021-11-19T11:20:48.320Z,,,,,,,,,,,,,,,,,,,,,,,,,,,false,TRUE,,1862.5730000953772,,response,,,10,F,,,,,FALSE,click #choice-2,,,,instrumental,,197764,197762.90000009537,195883.656,195884.5,195900.327,197767.464,,,
Question 2,html.Screen,0_4_1_0_3,2021-11-19T11:20:49.208Z,,,,,,,,,,,,,,,,,,,,,,,,,,,false,TRUE,,883.4360000953602,,response,,,10,F,,,,,FALSE,click #choice-2,,,,instrumental,,198652,198650.90000009537,197750.793,197764.20000004768,197767.464,198667.835,,,
Item 10,flow.Sequence,0_4_1_0,2021-11-19T11:20:49.208Z,,,,,,,,,,,,,,,,,,,,,,,,,,,,,,36109.59800009537,,completion,,,,,,,,,,,,,,,,198652.40000009537,198650.90000009537,162524.631,162526.70000004768,162541.302,198667.835,,,
Holding screen,html.Screen,0_4_1_1_0,2021-11-19T11:20:56.218Z,,,,,,,,,,,,,,,,,,,,,,,,,,,,,,7001.774999999994,,timeout,,,,,,,,,,,,,,,,205662.10000014305,205652.939,198651.162,198652.70000004768,198667.835,205669.61,,,
screen,html.Screen,0_4_1_1_1_0,2021-11-19T11:20:57.239Z,,,,,,,,,,,,,,,,11,,,,,,,,,,,,,,1013.4900001430651,,response,,,4,F,,,,,Space,keypress(Space),,,,instrumental,Known -- ---- --- -- --- -------- ------------ ---------- --<br>- ------- ------ --------- -- ------------ -- --- ---- -----<br>------ ---- ---- ------ ------ ------- --- ----- ---------<br>---- --- -------- -------- --- --- -- ------- --- --- -----<br>-- --- ------ ------- --- --- -------- ---- --------- --<br>---------- -- -------- ----------------,206684,206683.10000014305,205652.939,205662.40000009537,205669.61,206686.372,,0,Known
screen,html.Screen,0_4_1_1_1_1,2021-11-19T11:20:57.655Z,,,,,,,,,,,,,,,,11,,,,,,,,,,,,,,412.3280000476807,,response,,,4,F,,,,,Space,keypress(Space),,,,instrumental,----- as ---- --- -- --- -------- ------------ ---------- --<br>- ------- ------ --------- -- ------------ -- --- ---- -----<br>------ ---- ---- ------ ------ ------- --- ----- ---------<br>---- --- -------- -------- --- --- -- ------- --- --- -----<br>-- --- ------ ------- --- --- -------- ---- --------- --<br>---------- -- -------- ----------------,207099.60000014305,207098.70000004768,206669.702,206684.30000019073,206686.372,207103.228,,1,as
screen,html.Screen,0_4_1_1_1_2,2021-11-19T11:20:57.999Z,,,,,,,,,,,,,,,,11,,,,,,,,,,,,,,339.4720000476809,,response,,,4,F,,,,,Space,keypress(Space),,,,instrumental,----- -- Rapa --- -- --- -------- ------------ ---------- --<br>- ------- ------ --------- -- ------------ -- --- ---- -----<br>------ ---- ---- ------ ------ ------- --- ----- ---------<br>---- --- -------- -------- --- --- -- ------- --- --- -----<br>-- --- ------ ------- --- --- -------- ---- --------- --<br>---------- -- -------- ----------------,207443.5,207442.70000004768,207086.558,207099.80000019073,207103.228,207453.395,,2,Rapa
