sender,sender_type,sender_id,timestamp,meta,,Blues,Classical,Country,Dance,Electronic,Folk,Gospel,Hip-Hop,Jazz,Latin,Musical/Film,New-age,Pop,Provo_ID,R&B,Rap,Reggae,Religious,Rock,Soul,Swing,Traditional,age,artist_name,correct,correctResponse,distraction,duration,education,ended_on,familiarity,gender,item,list,music_frequency,offensiveness,pleasantness,preference,response,response_action,snippet_file,song_name,song_rating,sound,text,time_commit,time_end,time_render,time_run,time_show,time_switch,url,word,word_ID
Instructions,html.Page,0_0,2021-11-12T12:43:40.863Z,"{""labjs_version"":""20.2.3"",""labjs_build"":{""flavor"":""production"",""commit"":""7ea907d66ca8aeef8054924ca5d82ffbe11e34e5""},""location"":""https://run.pavlovia.org/mvasilev/lab_music_a/"",""userAgent"":""Mozilla/5.0 (Windows NT 6.1; Win64; x64) AppleWebKit/537.36 (KHTML, like Gecko) Chrome/95.0.4638.69 Safari/537.36"",""platform"":""Win32"",""language"":""en-US"",""locale"":""en-US"",""timeZone"":""Europe/London"",""timezoneOffset"":0,""screen_width"":1920,""screen_height"":1080,""scroll_width"":1920,""scroll_height"":959,""window_innerWidth"":1920,""window_innerHeight"":1007,""devicePixelRatio"":1}",,,,,,,,,,,,,,,,,,,,,,,,,,,,,17002.970000000743,,form submission,,,,,,,,,,,,,,,,28439,28437.800000000745,11401.49,11412.800000000745,11434.83,28446.412,{},,
Headphones,html.Page,0_1,2021-11-12T12:43:43.672Z,,,,,,,,,,,,,,,,,,,,,,,,,,,,,,2802.0879999999997,,form submission,,,,,,,,,,,,,,,,31249,31248.5,28429.754,28439.800000000745,28446.412,31251.016,,,
Holding screen,html.Screen,0_2_0_0,2021-11-12T12:43:53.672Z,,,,,,,,,,,,,,,,,,,,,,,,,,,,,,10007.772999999997,,timeout,,,,,,,,,,,,,,,,41248.60000000149,41242.12,31234.37,31249.60000000149,31251.016,41258.789,,,
screen,html.Screen,0_2_0_1_0,2021-11-12T12:43:54.480Z,,,,,,,,,,,,,,,,53,,,,,,,,,,,,,,796.211000000003,,response,,,99,,,,,,Space,keypress(Space),,,,,When -- ----- -- ------ - ------- --- ----------<br>------------- ------ ------ ---- ---- ------- ----- -- ----<br>-------- ------- -- ---------- --- - --- ----- ----- ----<br>---- --- --- ----- --- ---- ---- ------- ----- ---- -------<br>--- --- -- ----- -- --- ---- -- --- ---- -- ------ ------<br>--- ----- -- ----,42056.40000000037,42055,41242.12,41249,41258.789,42059.319,,0,When
screen,html.Screen,0_2_0_1_1,2021-11-12T12:43:55.039Z,,,,,,,,,,,,,,,,53,,,,,,,,,,,,,,555.1809999999969,,response,,,99,,,,,,Space,keypress(Space),,,,,---- it ----- -- ------ - ------- --- ----------<br>------------- ------ ------ ---- ---- ------- ----- -- ----<br>-------- ------- -- ---------- --- - --- ----- ----- ----<br>---- --- --- ----- --- ---- ---- ------- ----- ---- -------<br>--- --- -- ----- -- --- ---- -- --- ---- -- ------ ------<br>--- ----- -- ----,42615.5,42614.5,42042.648,42056.800000000745,42059.319,42626.011,,1,it
screen,html.Screen,0_2_0_1_2,2021-11-12T12:43:55.463Z,,,,,,,,,,,,,,,,53,,,,,,,,,,,,,,412.5890000014915,,response,,,99,,,,,,Space,keypress(Space),,,,,---- -- comes -- ------ - ------- --- ----------<br>------------- ------ ------ ---- ---- ------- ----- -- ----<br>-------- ------- -- ---------- --- - --- ----- ----- ----<br>---- --- --- ----- --- ---- ---- ------- ----- ---- -------<br>--- --- -- ----- -- --- ---- -- --- ---- -- ------ ------<br>--- ----- -- ----,43039.60000000149,43038.60000000149,42609.341,42615.90000000037,42626.011,43042.79,,2,comes
screen,html.Screen,0_2_0_1_3,2021-11-12T12:43:55.831Z,,,,,,,,,,,,,,,,53,,,,,,,,,,,,,,363.81000000148924,,response,,,99,,,,,,Space,keypress(Space),,,,,---- -- ----- to ------ - ------- --- ----------<br>------------- ------ ------ ---- ---- ------- ----- -- ----<br>-------- ------- -- ---------- --- - --- ----- ----- ----<br>---- --- --- ----- --- ---- ---- ------- ----- ---- -------<br>--- --- -- ----- -- --- ---- -- --- ---- -- ------ ------<br>--- ----- -- ----,43407.5,43406.60000000149,43026.12,43039.90000000037,43042.79,43409.551,,3,to
screen,html.Screen,0_2_0_1_4,2021-11-12T12:43:56.231Z,,,,,,,,,,,,,,,,53,,,,,,,,,,,,,,396.9490000000005,,response,,,99,,,,,,Space,keypress(Space),,,,,---- -- ----- -- having - ------- --- ----------<br>------------- ------ ------ ---- ---- ------- ----- -- ----<br>-------- ------- -- ---------- --- - --- ----- ----- ----<br>---- --- --- ----- --- ---- ---- ------- ----- ---- -------<br>--- --- -- ----- -- --- ---- -- --- ---- -- ------ ------<br>--- ----- -- ----,43807.70000000112,43806.5,43392.881,43408,43409.551,43809.707,,4,having
screen,html.Screen,0_2_0_1_5,2021-11-12T12:43:56.527Z,,,,,,,,,,,,,,,,53,,,,,,,,,,,,,,292.79299999999785,,response,,,99,,,,,,Space,keypress(Space),,,,,---- -- ----- -- ------ a ------- --- ----------<br>------------- ------ ------ ---- ---- ------- ----- -- ----<br>-------- ------- -- ---------- --- - --- ----- ----- ----<br>---- --- --- ----- --- ---- ---- ------- ----- ---- -------<br>--- --- -- ----- -- --- ---- -- --- ---- -- ------ ------<br>--- ----- -- ----,44103.40000000037,44102.5,43793.036,43808,43809.707,44109.72,,5,a
screen,html.Screen,0_2_0_1_6,2021-11-12T12:43:57.087Z,,,,,,,,,,,,,,,,53,,,,,,,,,,,,,,552.6800000003714,,response,,,99,,,,,,Space,keypress(Space),,,,,---- -- ----- -- ------ - lasting --- ----------<br>------------- ------ ------ ---- ---- ------- ----- -- ----<br>-------- ------- -- ---------- --- - --- ----- ----- ----<br>---- --- --- ----- --- ---- ---- ------- ----- ---- -------<br>--- --- -- ----- -- --- ---- -- --- ---- -- ------ ------<br>--- ----- -- ----,44663.40000000037,44662.40000000037,44093.05,44103.90000000037,44109.72,44676.528,,6,lasting
screen,html.Screen,0_2_0_1_7,2021-11-12T12:43:57.583Z,,,,,,,,,,,,,,,,53,,,,,,,,,,,,,,481.8720000003741,,response,,,99,,,,,,Space,keypress(Space),,,,,---- -- ----- -- ------ - ------- and ----------<br>------------- ------ ------ ---- ---- ------- ----- -- ----<br>-------- ------- -- ---------- --- - --- ----- ----- ----<br>---- --- --- ----- --- ---- ---- ------- ----- ---- -------<br>--- --- -- ----- -- --- ---- -- --- ---- -- ------ ------<br>--- ----- -- ----,45159.40000000037,45158.40000000037,44659.858,44663.70000000112,44676.528,45176.667,,7,and
screen,html.Screen,0_2_0_1_8,2021-11-12T12:43:58.175Z,,,,,,,,,,,,,,,,53,,,,,,,,,,,,,,573.7330000003712,,response,,,99,,,,,,Space,keypress(Space),,,,,---- -- ----- -- ------ - ------- --- fulfilling<br>------------- ------ ------ ---- ---- ------- ----- -- ----<br>-------- ------- -- ---------- --- - --- ----- ----- ----<br>---- --- --- ----- --- ---- ---- ------- ----- ---- -------<br>--- --- -- ----- -- --- ---- -- --- ---- -- ------ ------<br>--- ----- -- ----,45751.5,45750.40000000037,45159.997,45159.60000000149,45176.667,45760.043,,8,fulfilling
screen,html.Screen,0_2_0_1_9,2021-11-12T12:43:59.431Z,,,,,,,,,,,,,,,,53,,,,,,,,,,,,,,1246.2570000007472,,response,,,99,,,,,,Space,keypress(Space),,,,,"---- -- ----- -- ------ - ------- --- ----------<br>relationship, ------ ------ ---- ---- ------- ----- -- ----<br>-------- ------- -- ---------- --- - --- ----- ----- ----<br>---- --- --- ----- --- ---- ---- ------- ----- ---- -------<br>--- --- -- ----- -- --- ---- -- --- ---- -- ------ ------<br>--- ----- -- ----",47007.300000000745,47006.300000000745,45743.374,45751.800000000745,45760.043,47010.383,,9,"relationship,"
screen,html.Screen,0_2_0_1_10,2021-11-12T12:43:59.975Z,,,,,,,,,,,,,,,,53,,,,,,,,,,,,,,539.817000001116,,response,,,99,,,,,,Space,keypress(Space),,,,,---- -- ----- -- ------ - ------- --- ----------<br>------------- common ------ ---- ---- ------- ----- -- ----<br>-------- ------- -- ---------- --- - --- ----- ----- ----<br>---- --- --- ----- --- ---- ---- ------- ----- ---- -------<br>--- --- -- ----- -- --- ---- -- --- ---- -- ------ ------<br>--- ----- -- ----,47551.20000000112,47550.20000000112,46993.713,47007.5,47010.383,47560.58,,10,common
screen,html.Screen,0_2_0_1_11,2021-11-12T12:44:00.375Z,,,,,,,,,,,,,,,,53,,,,,,,,,,,,,,389.62000000111584,,response,,,99,,,,,,Space,keypress(Space),,,,,---- -- ----- -- ------ - ------- --- ----------<br>------------- ------ wisdom ---- ---- ------- ----- -- ----<br>-------- ------- -- ---------- --- - --- ----- ----- ----<br>---- --- --- ----- --- ---- ---- ------- ----- ---- -------<br>--- --- -- ----- -- --- ---- -- --- ---- -- ------ ------<br>--- ----- -- ----,47951.20000000112,47950.20000000112,47543.91,47551.5,47560.58,47960.642,,11,wisdom
screen,html.Screen,0_2_0_1_12,2021-11-12T12:44:00.703Z,,,,,,,,,,,,,,,,53,,,,,,,,,,,,,,317.55800000111776,,response,,,99,,,,,,Space,keypress(Space),,,,,---- -- ----- -- ------ - ------- --- ----------<br>------------- ------ ------ says ---- ------- ----- -- ----<br>-------- ------- -- ---------- --- - --- ----- ----- ----<br>---- --- --- ----- --- ---- ---- ------- ----- ---- -------<br>--- --- -- ----- -- --- ---- -- --- ---- -- ------ ------<br>--- ----- -- ----,48279,48278.20000000112,47943.972,47951.5,47960.642,48294.068,,12,says
screen,html.Screen,0_2_0_1_13,2021-11-12T12:44:01.070Z,,,,,,,,,,,,,,,,53,,,,,,,,,,,,,,352.1320000011183,,response,,,99,,,,,,Space,keypress(Space),,,,,---- -- ----- -- ------ - ------- --- ----------<br>------------- ------ ------ ---- that ------- ----- -- ----<br>-------- ------- -- ---------- --- - --- ----- ----- ----<br>---- --- --- ----- --- ---- ---- ------- ----- ---- -------<br>--- --- -- ----- -- --- ---- -- --- ---- -- ------ ------<br>--- ----- -- ----,48647,48646.20000000112,48277.398,48279.300000000745,48294.068,48660.848,,13,that
screen,html.Screen,0_2_0_1_14,2021-11-12T12:44:01.630Z,,,,,,,,,,,,,,,,53,,,,,,,,,,,,,,545.3520000011194,,response,,,99,,,,,,Space,keypress(Space),,,,,---- -- ----- -- ------ - ------- --- ----------<br>------------- ------ ------ ---- ---- feeling ----- -- ----<br>-------- ------- -- ---------- --- - --- ----- ----- ----<br>---- --- --- ----- --- ---- ---- ------- ----- ---- -------<br>--- --- -- ----- -- --- ---- -- --- ---- -- ------ ------<br>--- ----- -- ----,49207,49206.20000000112,48644.178,48647.300000000745,48660.848,49210.968,,14,feeling
screen,html.Screen,0_2_0_1_15,2021-11-12T12:44:02.046Z,,,,,,,,,,,,,,,,53,,,,,,,,,,,,,,411.03199999999924,,response,,,99,,,,,,Space,keypress(Space),,,,,---- -- ----- -- ------ - ------- --- ----------<br>------------- ------ ------ ---- ---- ------- close -- ----<br>-------- ------- -- ---------- --- - --- ----- ----- ----<br>---- --- --- ----- --- ---- ---- ------- ----- ---- -------<br>--- --- -- ----- -- --- ---- -- --- ---- -- ------ ------<br>--- ----- -- ----,49622.90000000037,49622,49194.298,49207.300000000745,49210.968,49627.724,,15,close
screen,html.Screen,0_2_0_1_16,2021-11-12T12:44:02.326Z,,,,,,,,,,,,,,,,53,,,,,,,,,,,,,,274.275999999998,,response,,,99,,,,,,Space,keypress(Space),,,,,---- -- ----- -- ------ - ------- --- ----------<br>------------- ------ ------ ---- ---- ------- ----- to ----<br>-------- ------- -- ---------- --- - --- ----- ----- ----<br>---- --- --- ----- --- ---- ---- ------- ----- ---- -------<br>--- --- -- ----- -- --- ---- -- --- ---- -- ------ ------<br>--- ----- -- ----,49902.90000000037,49902,49611.054,49623.20000000112,49627.724,49911.156,,16,to
screen,html.Screen,0_2_0_1_17,2021-11-12T12:44:02.726Z,,,,,,,,,,,,,,,,53,,,,,,,,,,,,,,390.8439999999973,,response,,,99,,,,,,Space,keypress(Space),,,,,---- -- ----- -- ------ - ------- --- ----------<br>------------- ------ ------ ---- ---- ------- ----- -- your<br>-------- ------- -- ---------- --- - --- ----- ----- ----<br>---- --- --- ----- --- ---- ---- ------- ----- ---- -------<br>--- --- -- ----- -- --- ---- -- --- ---- -- ------ ------<br>--- ----- -- ----,50302.70000000112,50302,49894.486,49903.10000000149,49911.156,50311.232,,17,your
screen,html.Screen,0_2_0_1_18,2021-11-12T12:44:03.166Z,,,,,,,,,,,,,,,,53,,,,,,,,,,,,,,430.6680000003689,,response,,,99,,,,,,Space,keypress(Space),,,,,---- -- ----- -- ------ - ------- --- ----------<br>------------- ------ ------ ---- ---- ------- ----- -- ----<br>romantic ------- -- ---------- --- - --- ----- ----- ----<br>---- --- --- ----- --- ---- ---- ------- ----- ---- -------<br>--- --- -- ----- -- --- ---- -- --- ---- -- ------ ------<br>--- ----- -- ----,50742.800000000745,50741.90000000037,50294.562,50303.10000000149,50311.232,50744.663,,18,romantic
screen,html.Screen,0_2_0_1_19,2021-11-12T12:44:03.542Z,,,,,,,,,,,,,,,,53,,,,,,,,,,,,,,373.33699999999953,,response,,,99,,,,,,Space,keypress(Space),,,,,---- -- ----- -- ------ - ------- --- ----------<br>------------- ------ ------ ---- ---- ------- ----- -- ----<br>-------- partner -- ---------- --- - --- ----- ----- ----<br>---- --- --- ----- --- ---- ---- ------- ----- ---- -------<br>--- --- -- ----- -- --- ---- -- --- ---- -- ------ ------<br>--- ----- -- ----,51118.90000000037,51118,50727.993,50743,50744.663,51128.105,,19,partner
screen,html.Screen,0_2_0_1_20,2021-11-12T12:44:03.894Z,,,,,,,,,,,,,,,,53,,,,,,,,,,,,,,341.7950000003693,,response,,,99,,,,,,Space,keypress(Space),,,,,---- -- ----- -- ------ - ------- --- ----------<br>------------- ------ ------ ---- ---- ------- ----- -- ----<br>-------- ------- is ---------- --- - --- ----- ----- ----<br>---- --- --- ----- --- ---- ---- ------- ----- ---- -------<br>--- --- -- ----- -- --- ---- -- --- ---- -- ------ ------<br>--- ----- -- ----,51470.70000000112,51469.90000000037,51111.435,51119.10000000149,51128.105,51478.207,,20,is
screen,html.Screen,0_2_0_1_21,2021-11-12T12:44:04.222Z,,,,,,,,,,,,,,,,53,,,,,,,,,,,,,,319.6930000003704,,response,,,99,,,,,,Space,keypress(Space),,,,,---- -- ----- -- ------ - ------- --- ----------<br>------------- ------ ------ ---- ---- ------- ----- -- ----<br>-------- ------- -- paramount. --- - --- ----- ----- ----<br>---- --- --- ----- --- ---- ---- ------- ----- ---- -------<br>--- --- -- ----- -- --- ---- -- --- ---- -- ------ ------<br>--- ----- -- ----,51798.800000000745,51797.90000000037,51461.537,51471,51478.207,51811.589,,21,paramount.
screen,html.Screen,0_2_0_1_22,2021-11-12T12:44:05.111Z,,,,,,,,,,,,,,,,53,,,,,,,,,,,,,,874.6110000011176,,response,,,99,,,,,,Space,keypress(Space),,,,,---- -- ----- -- ------ - ------- --- ----------<br>------------- ------ ------ ---- ---- ------- ----- -- ----<br>-------- ------- -- ---------- But - --- ----- ----- ----<br>---- --- --- ----- --- ---- ---- ------- ----- ---- -------<br>--- --- -- ----- -- --- ---- -- --- ---- -- ------ ------<br>--- ----- -- ----,52687.10000000149,52686.20000000112,51794.919,51799.20000000112,51811.589,52695.126,,22,But
screen,html.Screen,0_2_0_1_23,2021-11-12T12:44:05.550Z,,,,,,,,,,,,,,,,53,,,,,,,,,,,,,,430.6740000007485,,response,,,99,,,,,,Space,keypress(Space),,,,,---- -- ----- -- ------ - ------- --- ----------<br>------------- ------ ------ ---- ---- ------- ----- -- ----<br>-------- ------- -- ---------- --- a --- ----- ----- ----<br>---- --- --- ----- --- ---- ---- ------- ----- ---- -------<br>--- --- -- ----- -- --- ---- -- --- ---- -- ------ ------<br>--- ----- -- ----,53126.70000000112,53125.800000000745,52678.456,52687.300000000745,52695.126,53128.544,,23,a
screen,html.Screen,0_2_0_1_24,2021-11-12T12:44:05.870Z,,,,,,,,,,,,,,,,53,,,,,,,,,,,,,,317.25600000074337,,response,,,99,,,,,,Space,keypress(Space),,,,,---- -- ----- -- ------ - ------- --- ----------<br>------------- ------ ------ ---- ---- ------- ----- -- ----<br>-------- ------- -- ---------- --- - new ----- ----- ----<br>---- --- --- ----- --- ---- ---- ------- ----- ---- -------<br>--- --- -- ----- -- --- ---- -- --- ---- -- ------ ------<br>--- ----- -- ----,53446.60000000149,53445.800000000745,53111.874,53126.90000000037,53128.544,53462.017,,24,new
screen,html.Screen,0_2_0_1_25,2021-11-12T12:44:06.246Z,,,,,,,,,,,,,,,,53,,,,,,,,,,,,,,359.68300000111776,,response,,,99,,,,,,Space,keypress(Space),,,,,---- -- ----- -- ------ - ------- --- ----------<br>------------- ------ ------ ---- ---- ------- ----- -- ----<br>-------- ------- -- ---------- --- - --- study ----- ----<br>---- --- --- ----- --- ---- ---- ------- ----- ---- -------<br>--- --- -- ----- -- --- ---- -- --- ---- -- ------ ------<br>--- ----- -- ----,53822.60000000149,53821.70000000112,53445.347,53446.800000000745,53462.017,53828.763,,25,study
screen,html.Screen,0_2_0_1_26,2021-11-12T12:44:06.686Z,,,,,,,,,,,,,,,,53,,,,,,,,,,,,,,432.9370000011186,,response,,,99,,,,,,Space,keypress(Space),,,,,---- -- ----- -- ------ - ------- --- ----------<br>------------- ------ ------ ---- ---- ------- ----- -- ----<br>-------- ------- -- ---------- --- - --- ----- finds ----<br>---- --- --- ----- --- ---- ---- ------- ----- ---- -------<br>--- --- -- ----- -- --- ---- -- --- ---- -- ------ ------<br>--- ----- -- ----,54262.60000000149,54261.70000000112,53812.093,53822.800000000745,53828.763,54278.87,,26,finds
screen,html.Screen,0_2_0_1_27,2021-11-12T12:44:07.230Z,,,,,,,,,,,,,,,,53,,,,,,,,,,,,,,526.7300000014875,,response,,,99,,,,,,Space,keypress(Space),,,,,---- -- ----- -- ------ - ------- --- ----------<br>------------- ------ ------ ---- ---- ------- ----- -- ----<br>-------- ------- -- ---------- --- - --- ----- ----- that<br>---- --- --- ----- --- ---- ---- ------- ----- ---- -------<br>--- --- -- ----- -- --- ---- -- --- ---- -- ------ ------<br>--- ----- -- ----,54806.40000000037,54805.60000000149,54262.2,54262.90000000037,54278.87,54812.229,,27,that
screen,html.Screen,0_2_0_1_28,2021-11-12T12:44:07.854Z,,,,,,,,,,,,,,,,53,,,,,,,,,,,,,,617.4710000011182,,response,,,99,,,,,,Space,keypress(Space),,,,,---- -- ----- -- ------ - ------- --- ----------<br>------------- ------ ------ ---- ---- ------- ----- -- ----<br>-------- ------- -- ---------- --- - --- ----- ----- ----<br>it's --- --- ----- --- ---- ---- ------- ----- ---- -------<br>--- --- -- ----- -- --- ---- -- --- ---- -- ------ ------<br>--- ----- -- ----,55430.40000000037,55429.70000000112,54795.56,54806.70000000112,54812.229,55445.873,,28,it's
screen,html.Screen,0_2_0_1_29,2021-11-12T12:44:08.222Z,,,,,,,,,,,,,,,,53,,,,,,,,,,,,,,351.7270000014905,,response,,,99,,,,,,Space,keypress(Space),,,,,---- -- ----- -- ------ - ------- --- ----------<br>------------- ------ ------ ---- ---- ------- ----- -- ----<br>-------- ------- -- ---------- --- - --- ----- ----- ----<br>---- not --- ----- --- ---- ---- ------- ----- ---- -------<br>--- --- -- ----- -- --- ---- -- --- ---- -- ------ ------<br>--- ----- -- ----,55798.40000000037,55797.60000000149,55429.202,55430.70000000112,55445.873,55812.572,,29,not
screen,html.Screen,0_2_0_1_30,2021-11-12T12:44:08.542Z,,,,,,,,,,,,,,,,53,,,,,,,,,,,,,,305.02800000149,,response,,,99,,,,,,Space,keypress(Space),,,,,---- -- ----- -- ------ - ------- --- ----------<br>------------- ------ ------ ---- ---- ------- ----- -- ----<br>-------- ------- -- ---------- --- - --- ----- ----- ----<br>---- --- how ----- --- ---- ---- ------- ----- ---- -------<br>--- --- -- ----- -- --- ---- -- --- ---- -- ------ ------<br>--- ----- -- ----,56118.40000000037,56117.60000000149,55795.902,55798.70000000112,55812.572,56129.322,,30,how
screen,html.Screen,0_2_0_1_31,2021-11-12T12:44:08.966Z,,,,,,,,,,,,,,,,53,,,,,,,,,,,,,,412.27800000149,,response,,,99,,,,,,Space,keypress(Space),,,,,---- -- ----- -- ------ - ------- --- ----------<br>------------- ------ ------ ---- ---- ------- ----- -- ----<br>-------- ------- -- ---------- --- - --- ----- ----- ----<br>---- --- --- close --- ---- ---- ------- ----- ---- -------<br>--- --- -- ----- -- --- ---- -- --- ---- -- ------ ------<br>--- ----- -- ----,56542.5,56541.60000000149,56112.652,56118.800000000745,56129.322,56546.077,,31,close
screen,html.Screen,0_2_0_1_32,2021-11-12T12:44:09.262Z,,,,,,,,,,,,,,,,53,,,,,,,,,,,,,,291.5230000014926,,response,,,99,,,,,,Space,keypress(Space),,,,,---- -- ----- -- ------ - ------- --- ----------<br>------------- ------ ------ ---- ---- ------- ----- -- ----<br>-------- ------- -- ---------- --- - --- ----- ----- ----<br>---- --- --- ----- you ---- ---- ------- ----- ---- -------<br>--- --- -- ----- -- --- ---- -- --- ---- -- ------ ------<br>--- ----- -- ----,56838.40000000037,56837.60000000149,56529.407,56542.800000000745,56546.077,56846.216,,32,you
screen,html.Screen,0_2_0_1_33,2021-11-12T12:44:09.614Z,,,,,,,,,,,,,,,,53,,,,,,,,,,,,,,343.38400000148977,,response,,,99,,,,,,Space,keypress(Space),,,,,---- -- ----- -- ------ - ------- --- ----------<br>------------- ------ ------ ---- ---- ------- ----- -- ----<br>-------- ------- -- ---------- --- - --- ----- ----- ----<br>---- --- --- ----- --- feel ---- ------- ----- ---- -------<br>--- --- -- ----- -- --- ---- -- --- ---- -- ------ ------<br>--- ----- -- ----,57190.60000000149,57189.60000000149,56829.545,56838.70000000112,56846.216,57196.234,,33,feel
screen,html.Screen,0_2_0_1_34,2021-11-12T12:44:09.966Z,,,,,,,,,,,,,,,,53,,,,,,,,,,,,,,345.3660000014934,,response,,,99,,,,,,Space,keypress(Space),,,,,---- -- ----- -- ------ - ------- --- ----------<br>------------- ------ ------ ---- ---- ------- ----- -- ----<br>-------- ------- -- ---------- --- - --- ----- ----- ----<br>---- --- --- ----- --- ---- that ------- ----- ---- -------<br>--- --- -- ----- -- --- ---- -- --- ---- -- ------ ------<br>--- ----- -- ----,57542.60000000149,57541.60000000149,57179.564,57193.300000000745,57196.234,57546.341,,34,that
screen,html.Screen,0_2_0_1_35,2021-11-12T12:44:10.318Z,,,,,,,,,,,,,,,,53,,,,,,,,,,,,,,347.15899999999965,,response,,,99,,,,,,Space,keypress(Space),,,,,---- -- ----- -- ------ - ------- --- ----------<br>------------- ------ ------ ---- ---- ------- ----- -- ----<br>-------- ------- -- ---------- --- - --- ----- ----- ----<br>---- --- --- ----- --- ---- ---- matters ----- ---- -------<br>--- --- -- ----- -- --- ---- -- --- ---- -- ------ ------<br>--- ----- -- ----,57894.300000000745,57893.5,57529.671,57542.90000000037,57546.341,57896.398,,35,matters
screen,html.Screen,0_2_0_1_36,2021-11-12T12:44:11.102Z,,,,,,,,,,,,,,,,53,,,,,,,,,,,,,,781.101999999999,,response,,,99,,,,,,Space,keypress(Space),,,,,"---- -- ----- -- ------ - ------- --- ----------<br>------------- ------ ------ ---- ---- ------- ----- -- ----<br>-------- ------- -- ---------- --- - --- ----- ----- ----<br>---- --- --- ----- --- ---- ---- ------- most, ---- -------<br>--- --- -- ----- -- --- ---- -- --- ---- -- ------ ------<br>--- ----- -- ----",58678.300000000745,58677.5,57879.728,57894.60000000149,57896.398,58679.985,,36,"most,"
screen,html.Screen,0_2_0_1_37,2021-11-12T12:44:11.470Z,,,,,,,,,,,,,,,,53,,,,,,,,,,,,,,365.5149999999994,,response,,,99,,,,,,Space,keypress(Space),,,,,---- -- ----- -- ------ - ------- --- ----------<br>------------- ------ ------ ---- ---- ------- ----- -- ----<br>-------- ------- -- ---------- --- - --- ----- ----- ----<br>---- --- --- ----- --- ---- ---- ------- ----- it's -------<br>--- --- -- ----- -- --- ---- -- --- ---- -- ------ ------<br>--- ----- -- ----,59046.300000000745,59045.5,58663.314,58678.5,58679.985,59063.35,,37,it's
screen,html.Screen,0_2_0_1_38,2021-11-12T12:44:12.110Z,,,,,,,,,,,,,,,,53,,,,,,,,,,,,,,622.050000000374,,response,,,99,,,,,,Space,keypress(Space),,,,,---- -- ----- -- ------ - ------- --- ----------<br>------------- ------ ------ ---- ---- ------- ----- -- ----<br>-------- ------- -- ---------- --- - --- ----- ----- ----<br>---- --- --- ----- --- ---- ---- ------- ----- ---- whether<br>--- --- -- ----- -- --- ---- -- --- ---- -- ------ ------<br>--- ----- -- ----,59686.20000000112,59685.40000000037,59046.68,59046.5,59063.35,59696.846,,38,whether
screen,html.Screen,0_2_0_1_39,2021-11-12T12:44:12.954Z,,,,,,,,,,,,,,,,53,,,,,,,,,,,,,,828.5540000003748,,response,,,99,,,,,,Space,keypress(Space),,,,,---- -- ----- -- ------ - ------- --- ----------<br>------------- ------ ------ ---- ---- ------- ----- -- ----<br>-------- ------- -- ---------- --- - --- ----- ----- ----<br>---- --- --- ----- --- ---- ---- ------- ----- ---- -------<br>you --- -- ----- -- --- ---- -- --- ---- -- ------ ------<br>--- ----- -- ----,60526.20000000112,60525.40000000037,59680.176,59686.5,59696.846,60530.172,,39,you
screen,html.Screen,0_2_0_1_40,2021-11-12T12:44:13.362Z,,,,,,,,,,,,,,,,53,,,,,,,,,,,,,,403.1280000007464,,response,,,99,,,,,,Space,keypress(Space),,,,,---- -- ----- -- ------ - ------- --- ----------<br>------------- ------ ------ ---- ---- ------- ----- -- ----<br>-------- ------- -- ---------- --- - --- ----- ----- ----<br>---- --- --- ----- --- ---- ---- ------- ----- ---- -------<br>--- are -- ----- -- --- ---- -- --- ---- -- ------ ------<br>--- ----- -- ----,60934.20000000112,60933.300000000745,60513.504,60526.40000000037,60530.172,60947.222,,40,are
screen,html.Screen,0_2_0_1_41,2021-11-12T12:44:13.778Z,,,,,,,,,,,,,,,,53,,,,,,,,,,,,,,402.0780000007435,,response,,,99,,,,,,Space,keypress(Space),,,,,---- -- ----- -- ------ - ------- --- ----------<br>------------- ------ ------ ---- ---- ------- ----- -- ----<br>-------- ------- -- ---------- --- - --- ----- ----- ----<br>---- --- --- ----- --- ---- ---- ------- ----- ---- -------<br>--- --- as ----- -- --- ---- -- --- ---- -- ------ ------<br>--- ----- -- ----,61350.10000000149,61349.300000000745,60930.551,60934.300000000745,60947.222,61363.912,,41,as
screen,html.Screen,0_2_0_1_42,2021-11-12T12:44:14.218Z,,,,,,,,,,,,,,,,53,,,,,,,,,,,,,,425.38800000074843,,response,,,99,,,,,,Space,keypress(Space),,,,,---- -- ----- -- ------ - ------- --- ----------<br>------------- ------ ------ ---- ---- ------- ----- -- ----<br>-------- ------- -- ---------- --- - --- ----- ----- ----<br>---- --- --- ----- --- ---- ---- ------- ----- ---- -------<br>--- --- -- close -- --- ---- -- --- ---- -- ------ ------<br>--- ----- -- ----,61790,61789.300000000745,61347.242,61350.300000000745,61363.912,61797.409,,42,close
screen,html.Screen,0_2_0_1_43,2021-11-12T12:44:14.650Z,,,,,,,,,,,,,,,,53,,,,,,,,,,,,,,423.79100000111794,,response,,,99,,,,,,Space,keypress(Space),,,,,---- -- ----- -- ------ - ------- --- ----------<br>------------- ------ ------ ---- ---- ------- ----- -- ----<br>-------- ------- -- ---------- --- - --- ----- ----- ----<br>---- --- --- ----- --- ---- ---- ------- ----- ---- -------<br>--- --- -- ----- as --- ---- -- --- ---- -- ------ ------<br>--- ----- -- ----,62222.10000000149,62221.20000000112,61780.738,61790.300000000745,61797.409,62230.784,,43,as
screen,html.Screen,0_2_0_1_44,2021-11-12T12:44:14.962Z,,,,,,,,,,,,,,,,53,,,,,,,,,,,,,,302.41600000111794,,response,,,99,,,,,,Space,keypress(Space),,,,,---- -- ----- -- ------ - ------- --- ----------<br>------------- ------ ------ ---- ---- ------- ----- -- ----<br>-------- ------- -- ---------- --- - --- ----- ----- ----<br>---- --- --- ----- --- ---- ---- ------- ----- ---- -------<br>--- --- -- ----- -- you ---- -- --- ---- -- ------ ------<br>--- ----- -- ----,62534,62533.20000000112,62214.114,62222.300000000745,62230.784,62547.545,,44,you
screen,html.Screen,0_2_0_1_45,2021-11-12T12:44:15.370Z,,,,,,,,,,,,,,,,53,,,,,,,,,,,,,,393.95500000000175,,response,,,99,,,,,,Space,keypress(Space),,,,,---- -- ----- -- ------ - ------- --- ----------<br>------------- ------ ------ ---- ---- ------- ----- -- ----<br>-------- ------- -- ---------- --- - --- ----- ----- ----<br>---- --- --- ----- --- ---- ---- ------- ----- ---- -------<br>--- --- -- ----- -- --- want -- --- ---- -- ------ ------<br>--- ----- -- ----,62942.300000000745,62941.5,62530.875,62534.20000000112,62547.545,62947.653,,45,want
screen,html.Screen,0_2_0_1_46,2021-11-12T12:44:15.706Z,,,,,,,,,,,,,,,,53,,,,,,,,,,,,,,329.4470000014917,,response,,,99,,,,,,Space,keypress(Space),,,,,---- -- ----- -- ------ - ------- --- ----------<br>------------- ------ ------ ---- ---- ------- ----- -- ----<br>-------- ------- -- ---------- --- - --- ----- ----- ----<br>---- --- --- ----- --- ---- ---- ------- ----- ---- -------<br>--- --- -- ----- -- --- ---- to --- ---- -- ------ ------<br>--- ----- -- ----,63277.90000000037,63277.10000000149,62930.983,62942.60000000149,62947.653,63281.04,,46,to
screen,html.Screen,0_2_0_1_47,2021-11-12T12:44:16.106Z,,,,,,,,,,,,,,,,53,,,,,,,,,,,,,,396.06000000148924,,response,,,99,,,,,,Space,keypress(Space),,,,,"---- -- ----- -- ------ - ------- --- ----------<br>------------- ------ ------ ---- ---- ------- ----- -- ----<br>-------- ------- -- ---------- --- - --- ----- ----- ----<br>---- --- --- ----- --- ---- ---- ------- ----- ---- -------<br>--- --- -- ----- -- --- ---- -- be, ---- -- ------ ------<br>--- ----- -- ----",63678,63677.10000000149,63264.37,63278.20000000112,63281.04,63681.074,,47,"be,"
screen,html.Screen,0_2_0_1_48,2021-11-12T12:44:16.714Z,,,,,,,,,,,,,,,,53,,,,,,,,,,,,,,604.0260000014896,,response,,,99,,,,,,Space,keypress(Space),,,,,---- -- ----- -- ------ - ------- --- ----------<br>------------- ------ ------ ---- ---- ------- ----- -- ----<br>-------- ------- -- ---------- --- - --- ----- ----- ----<br>---- --- --- ----- --- ---- ---- ------- ----- ---- -------<br>--- --- -- ----- -- --- ---- -- --- even -- ------ ------<br>--- ----- -- ----,64285.90000000037,64285.10000000149,63664.405,63678.10000000149,63681.074,64298.086,,48,even
screen,html.Screen,0_2_0_1_49,2021-11-12T12:44:17.090Z,,,,,,,,,,,,,,,,53,,,,,,,,,,,,,,363.01400000148715,,response,,,99,,,,,,Space,keypress(Space),,,,,---- -- ----- -- ------ - ------- --- ----------<br>------------- ------ ------ ---- ---- ------- ----- -- ----<br>-------- ------- -- ---------- --- - --- ----- ----- ----<br>---- --- --- ----- --- ---- ---- ------- ----- ---- -------<br>--- --- -- ----- -- --- ---- -- --- ---- if ------ ------<br>--- ----- -- ----,64661.800000000745,64661.10000000149,64281.414,64286.10000000149,64298.086,64664.73,,49,if
screen,html.Screen,0_2_0_1_50,2021-11-12T12:44:17.482Z,,,,,,,,,,,,,,,,53,,,,,,,,,,,,,,388.2699999999968,,response,,,99,,,,,,Space,keypress(Space),,,,,---- -- ----- -- ------ - ------- --- ----------<br>------------- ------ ------ ---- ---- ------- ----- -- ----<br>-------- ------- -- ---------- --- - --- ----- ----- ----<br>---- --- --- ----- --- ---- ---- ------- ----- ---- -------<br>--- --- -- ----- -- --- ---- -- --- ---- -- that's ------<br>--- ----- -- ----,65053.800000000745,65053,64648.06,64662,64664.73,65064.814,,50,that's
screen,html.Screen,0_2_0_1_51,2021-11-12T12:44:17.889Z,,,,,,,,,,,,,,,,53,,,,,,,,,,,,,,396.1860000000015,,response,,,99,,,,,,Space,keypress(Space),,,,,---- -- ----- -- ------ - ------- --- ----------<br>------------- ------ ------ ---- ---- ------- ----- -- ----<br>-------- ------- -- ---------- --- - --- ----- ----- ----<br>---- --- --- ----- --- ---- ---- ------- ----- ---- -------<br>--- --- -- ----- -- --- ---- -- --- ---- -- ------ really<br>--- ----- -- ----,65461.800000000745,65461,65048.144,65054.10000000149,65064.814,65464.891,,51,really
screen,html.Screen,0_2_0_1_52,2021-11-12T12:44:18.289Z,,,,,,,,,,,,,,,,53,,,,,,,,,,,,,,396.10899999999674,,response,,,99,,,,,,Space,keypress(Space),,,,,---- -- ----- -- ------ - ------- --- ----------<br>------------- ------ ------ ---- ---- ------- ----- -- ----<br>-------- ------- -- ---------- --- - --- ----- ----- ----<br>---- --- --- ----- --- ---- ---- ------- ----- ---- -------<br>--- --- -- ----- -- --- ---- -- --- ---- -- ------ ------<br>not ----- -- ----,65861.70000000112,65861,65448.221,65462,65464.891,65865.051,,52,not
screen,html.Screen,0_2_0_1_53,2021-11-12T12:44:18.705Z,,,,,,,,,,,,,,,,53,,,,,,,,,,,,,,411.8490000003658,,response,,,99,,,,,,Space,keypress(Space),,,,,---- -- ----- -- ------ - ------- --- ----------<br>------------- ------ ------ ---- ---- ------- ----- -- ----<br>-------- ------- -- ---------- --- - --- ----- ----- ----<br>---- --- --- ----- --- ---- ---- ------- ----- ---- -------<br>--- --- -- ----- -- --- ---- -- --- ---- -- ------ ------<br>--- close -- ----,66277.80000000075,66276.90000000037,65848.38,65862,65865.051,66281.779,,53,close
screen,html.Screen,0_2_0_1_54,2021-11-12T12:44:19.057Z,,,,,,,,,,,,,,,,53,,,,,,,,,,,,,,347.12100000037753,,response,,,99,,,,,,Space,keypress(Space),,,,,---- -- ----- -- ------ - ------- --- ----------<br>------------- ------ ------ ---- ---- ------- ----- -- ----<br>-------- ------- -- ---------- --- - --- ----- ----- ----<br>---- --- --- ----- --- ---- ---- ------- ----- ---- -------<br>--- --- -- ----- -- --- ---- -- --- ---- -- ------ ------<br>--- ----- at ----,66629.80000000075,66628.90000000037,66265.109,66278,66281.779,66631.884,,54,at
screen,html.Screen,0_2_0_1_55,2021-11-12T12:44:19.697Z,,,,,,,,,,,,,,,,53,,,,,,,,,,,,,,637.0160000003671,,response,,,99,,,,,,Space,keypress(Space),,,,,---- -- ----- -- ------ - ------- --- ----------<br>------------- ------ ------ ---- ---- ------- ----- -- ----<br>-------- ------- -- ---------- --- - --- ----- ----- ----<br>---- --- --- ----- --- ---- ---- ------- ----- ---- -------<br>--- --- -- ----- -- --- ---- -- --- ---- -- ------ ------<br>--- ----- -- all.,67269.70000000112,67268.90000000037,66615.214,66630,66631.884,67281.996,,55,all.
Item 99,flow.Loop,0_2_0_1,2021-11-12T12:44:19.702Z,,,,,,,,,,,,,,,,,,,,,,,,,,,,,,26010.111000000375,,completion,,,,A,,,,,,,,,,silence,,67274.10000000149,67268.90000000037,41242.12,41248.90000000037,41258.789,67281.996,,,
Question 1,html.Screen,0_2_0_2,2021-11-12T12:44:29.737Z,,,,,,,,,,,,,,,,,,,,,,,,,,,true,FALSE,,10025.904000000373,,response,,,99,A,,,,,FALSE,click #choice-2,,,,silence,,77309.40000000037,77307.90000000037,67265.326,67274.30000000075,67281.996,77334.454,,,
Question 2,html.Screen,0_2_0_3,2021-11-12T12:44:40.512Z,,,,,,,,,,,,,,,,,,,,,,,,,,,true,TRUE,,10748.74600000112,,response,,,99,A,,,,,TRUE,click #choice-1,,,,silence,,88084.5,88083.20000000112,77317.784,77309.60000000149,77334.454,88087.138,,,
Item 99,flow.Sequence,0_2_0,2021-11-12T12:44:40.513Z,,,,,,,,,,,,,,,,,,,,,,,,,,,,,,56832.184000001114,,completion,,,,,,,,,,,,,,,,88085.10000000149,88083.20000000112,31234.37,31249.400000000373,31251.016,88087.138,,,
Holding screen,html.Screen,0_2_1_0,2021-11-12T12:44:50.502Z,,,,,,,,,,,,,,,,,,,,,,,,,,,,,,10002.262999999992,,timeout,,,,,,,,,,,,,,,,98074.40000000037,98072.731,88070.467,88085.5,88087.138,98089.401,,,
screen,html.Screen,0_2_1_1_0,2021-11-12T12:44:52.872Z,,,,,,,,,,,,,,,,54,,,,,,,,,,,,,,2353.599000000002,,response,,,100,,,,,,Space,keypress(Space),,,,,At --- ---- --- ------ ----- ------- ---- -- --- ------- --<br>------- ---------- ------ -- ----- -- ----- -- ---- ------<br>--- ----- --- --- ------ -------- ----- --- ------ ----- --<br>----- ----- ---------- --- --- ------ ------ ---- -- ------<br>------- --- ------ ----- --- ---- ------- -- ---- --- --<br>------- ------,100444.10000000149,100443,98072.731,98074.80000000075,98089.401,100456.623,,0,At
screen,html.Screen,0_2_1_1_1,2021-11-12T12:44:53.199Z,,,,,,,,,,,,,,,,54,,,,,,,,,,,,,,313.87699999999313,,response,,,100,,,,,,Space,keypress(Space),,,,,-- the ---- --- ------ ----- ------- ---- -- --- ------- --<br>------- ---------- ------ -- ----- -- ----- -- ---- ------<br>--- ----- --- --- ------ -------- ----- --- ------ ----- --<br>----- ----- ---------- --- --- ------ ------ ---- -- ------<br>------- --- ------ ----- --- ---- ------- -- ---- --- --<br>------- ------,100771.30000000075,100770.5,100439.953,100444.40000000037,100456.623,100773.439,,1,the
screen,html.Screen,0_2_1_1_2,2021-11-12T12:44:53.487Z,,,,,,,,,,,,,,,,54,,,,,,,,,,,,,,285.0610000000015,,response,,,100,,,,,,Space,keypress(Space),,,,,-- --- time --- ------ ----- ------- ---- -- --- ------- --<br>------- ---------- ------ -- ----- -- ----- -- ---- ------<br>--- ----- --- --- ------ -------- ----- --- ------ ----- --<br>----- ----- ---------- --- --- ------ ------ ---- -- ------<br>------- --- ------ ----- --- ---- ------- -- ---- --- --<br>------- ------,101059.40000000037,101058.5,100756.769,100771.60000000149,100773.439,101073.591,,2,time
screen,html.Screen,0_2_1_1_3,2021-11-12T12:44:53.775Z,,,,,,,,,,,,,,,,54,,,,,,,,,,,,,,272.90899999999965,,response,,,100,,,,,,Space,keypress(Space),,,,,-- --- ---- the ------ ----- ------- ---- -- --- ------- --<br>------- ---------- ------ -- ----- -- ----- -- ---- ------<br>--- ----- --- --- ------ -------- ----- --- ------ ----- --<br>----- ----- ---------- --- --- ------ ------ ---- -- ------<br>------- --- ------ ----- --- ---- ------- -- ---- --- --<br>------- ------,101347.30000000075,101346.5,101056.921,101059.60000000149,101073.591,101356.943,,3,the
screen,html.Screen,0_2_1_1_4,2021-11-12T12:44:54.143Z,,,,,,,,,,,,,,,,54,,,,,,,,,,,,,,357.5570000000007,,response,,,100,,,,,,Space,keypress(Space),,,,,-- --- ---- --- French ----- ------- ---- -- --- ------- --<br>------- ---------- ------ -- ----- -- ----- -- ---- ------<br>--- ----- --- --- ------ -------- ----- --- ------ ----- --<br>----- ----- ---------- --- --- ------ ------ ---- -- ------<br>------- --- ------ ----- --- ---- ------- -- ---- --- --<br>------- ------,101715.30000000075,101714.5,101340.274,101347.5,101356.943,101723.762,,4,French
screen,html.Screen,0_2_1_1_5,2021-11-12T12:44:54.543Z,,,,,,,,,,,,,,,,54,,,,,,,,,,,,,,390.73799999999756,,response,,,100,,,,,,Space,keypress(Space),,,,,-- --- ---- --- ------ crown ------- ---- -- --- ------- --<br>------- ---------- ------ -- ----- -- ----- -- ---- ------<br>--- ----- --- --- ------ -------- ----- --- ------ ----- --<br>----- ----- ---------- --- --- ------ ------ ---- -- ------<br>------- --- ------ ----- --- ---- ------- -- ---- --- --<br>------- ------,102115.40000000037,102114.5,101707.091,101715.5,101723.762,102123.819,,5,crown
screen,html.Screen,0_2_1_1_6,2021-11-12T12:44:54.975Z,,,,,,,,,,,,,,,,54,,,,,,,,,,,,,,422.5810000003694,,response,,,100,,,,,,Space,keypress(Space),,,,,-- --- ---- --- ------ ----- secured ---- -- --- ------- --<br>------- ---------- ------ -- ----- -- ----- -- ---- ------<br>--- ----- --- --- ------ -------- ----- --- ------ ----- --<br>----- ----- ---------- --- --- ------ ------ ---- -- ------<br>------- --- ------ ----- --- ---- ------- -- ---- --- --<br>------- ------,102547.30000000075,102546.40000000037,102107.149,102115.60000000149,102123.819,102557.257,,6,secured
screen,html.Screen,0_2_1_1_7,2021-11-12T12:44:55.399Z,,,,,,,,,,,,,,,,54,,,,,,,,,,,,,,413.14300000037474,,response,,,100,,,,,,Space,keypress(Space),,,,,-- --- ---- --- ------ ----- ------- much -- --- ------- --<br>------- ---------- ------ -- ----- -- ----- -- ---- ------<br>--- ----- --- --- ------ -------- ----- --- ------ ----- --<br>----- ----- ---------- --- --- ------ ------ ---- -- ------<br>------- --- ------ ----- --- ---- ------- -- ---- --- --<br>------- ------,102971.10000000149,102970.40000000037,102540.587,102547.40000000037,102557.257,102974.023,,7,much
screen,html.Screen,0_2_1_1_8,2021-11-12T12:44:55.815Z,,,,,,,,,,,,,,,,54,,,,,,,,,,,,,,412.277000000744,,response,,,100,,,,,,Space,keypress(Space),,,,,-- --- ---- --- ------ ----- ------- ---- of --- ------- --<br>------- ---------- ------ -- ----- -- ----- -- ---- ------<br>--- ----- --- --- ------ -------- ----- --- ------ ----- --<br>----- ----- ---------- --- --- ------ ------ ---- -- ------<br>------- --- ------ ----- --- ---- ------- -- ---- --- --<br>------- ------,103387.10000000149,103386.30000000075,102957.353,102971.40000000037,102974.023,103390.662,,8,of
screen,html.Screen,0_2_1_1_9,2021-11-12T12:44:56.127Z,,,,,,,,,,,,,,,,54,,,,,,,,,,,,,,307.63800000074843,,response,,,100,,,,,,Space,keypress(Space),,,,,-- --- ---- --- ------ ----- ------- ---- -- its ------- --<br>------- ---------- ------ -- ----- -- ----- -- ---- ------<br>--- ----- --- --- ------ -------- ----- --- ------ ----- --<br>----- ----- ---------- --- --- ------ ------ ---- -- ------<br>------- --- ------ ----- --- ---- ------- -- ---- --- --<br>------- ------,103699.10000000149,103698.30000000075,103373.994,103387.40000000037,103390.662,103707.626,,9,its
screen,html.Screen,0_2_1_1_10,2021-11-12T12:44:56.495Z,,,,,,,,,,,,,,,,54,,,,,,,,,,,,,,358.57400000111375,,response,,,100,,,,,,Space,keypress(Space),,,,,-- --- ---- --- ------ ----- ------- ---- -- --- revenue --<br>------- ---------- ------ -- ----- -- ----- -- ---- ------<br>--- ----- --- --- ------ -------- ----- --- ------ ----- --<br>----- ----- ---------- --- --- ------ ------ ---- -- ------<br>------- --- ------ ----- --- ---- ------- -- ---- --- --<br>------- ------,104067,104066.20000000112,103690.954,103699.40000000037,103707.626,104074.297,,10,revenue
screen,html.Screen,0_2_1_1_11,2021-11-12T12:44:57.071Z,,,,,,,,,,,,,,,,54,,,,,,,,,,,,,,567.9030000011116,,response,,,100,,,,,,Space,keypress(Space),,,,,-- --- ---- --- ------ ----- ------- ---- -- --- ------- by<br>------- ---------- ------ -- ----- -- ----- -- ---- ------<br>--- ----- --- --- ------ -------- ----- --- ------ ----- --<br>----- ----- ---------- --- --- ------ ------ ---- -- ------<br>------- --- ------ ----- --- ---- ------- -- ---- --- --<br>------- ------,104643,104642.20000000112,104057.627,104067.30000000075,104074.297,104657.693,,11,by
screen,html.Screen,0_2_1_1_12,2021-11-12T12:44:57.463Z,,,,,,,,,,,,,,,,54,,,,,,,,,,,,,,376.5070000011183,,response,,,100,,,,,,Space,keypress(Space),,,,,-- --- ---- --- ------ ----- ------- ---- -- --- ------- --<br>issuing ---------- ------ -- ----- -- ----- -- ---- ------<br>--- ----- --- --- ------ -------- ----- --- ------ ----- --<br>----- ----- ---------- --- --- ------ ------ ---- -- ------<br>------- --- ------ ----- --- ---- ------- -- ---- --- --<br>------- ------,105035,105034.20000000112,104641.024,104643.30000000075,104657.693,105041.118,,12,issuing
screen,html.Screen,0_2_1_1_13,2021-11-12T12:44:57.855Z,,,,,,,,,,,,,,,,54,,,,,,,,,,,,,,385.0820000011154,,response,,,100,,,,,,Space,keypress(Space),,,,,-- --- ---- --- ------ ----- ------- ---- -- --- ------- --<br>------- government ------ -- ----- -- ----- -- ---- ------<br>--- ----- --- --- ------ -------- ----- --- ------ ----- --<br>----- ----- ---------- --- --- ------ ------ ---- -- ------<br>------- --- ------ ----- --- ---- ------- -- ---- --- --<br>------- ------,105427,105426.20000000112,105024.449,105035.20000000112,105041.118,105441.359,,13,government
screen,html.Screen,0_2_1_1_14,2021-11-12T12:44:58.239Z,,,,,,,,,,,,,,,,54,,,,,,,,,,,,,,368.84100000112085,,response,,,100,,,,,,Space,keypress(Space),,,,,-- --- ---- --- ------ ----- ------- ---- -- --- ------- --<br>------- ---------- bonds. -- ----- -- ----- -- ---- ------<br>--- ----- --- --- ------ -------- ----- --- ------ ----- --<br>----- ----- ---------- --- --- ------ ------ ---- -- ------<br>------- --- ------ ----- --- ---- ------- -- ---- --- --<br>------- ------,105810.90000000037,105810.20000000112,105424.688,105427.20000000112,105441.359,105824.737,,14,bonds.
screen,html.Screen,0_2_1_1_15,2021-11-12T12:44:59.415Z,,,,,,,,,,,,,,,,54,,,,,,,,,,,,,,1161.3630000014964,,response,,,100,,,,,,Space,keypress(Space),,,,,-- --- ---- --- ------ ----- ------- ---- -- --- ------- --<br>------- ---------- ------ In ----- -- ----- -- ---- ------<br>--- ----- --- --- ------ -------- ----- --- ------ ----- --<br>----- ----- ---------- --- --- ------ ------ ---- -- ------<br>------- --- ------ ----- --- ---- ------- -- ---- --- --<br>------- ------,106986.90000000037,106986.10000000149,105808.067,105811.20000000112,105824.737,106991.641,,15,In
screen,html.Screen,0_2_1_1_16,2021-11-12T12:44:59.767Z,,,,,,,,,,,,,,,,54,,,,,,,,,,,,,,346.45900000148686,,response,,,100,,,,,,Space,keypress(Space),,,,,"-- --- ---- --- ------ ----- ------- ---- -- --- ------- --<br>------- ---------- ------ -- 1727, -- ----- -- ---- ------<br>--- ----- --- --- ------ -------- ----- --- ------ ----- --<br>----- ----- ---------- --- --- ------ ------ ---- -- ------<br>------- --- ------ ----- --- ---- ------- -- ---- --- --<br>------- ------",107338.90000000037,107338.10000000149,106974.971,106987.20000000112,106991.641,107341.766,,16,"1727,"
screen,html.Screen,0_2_1_1_17,2021-11-12T12:45:00.679Z,,,,,,,,,,,,,,,,54,,,,,,,,,,,,,,908.2339999999967,,response,,,100,,,,,,Space,keypress(Space),,,,,-- --- ---- --- ------ ----- ------- ---- -- --- ------- --<br>------- ---------- ------ -- ----- in ----- -- ---- ------<br>--- ----- --- --- ------ -------- ----- --- ------ ----- --<br>----- ----- ---------- --- --- ------ ------ ---- -- ------<br>------- --- ------ ----- --- ---- ------- -- ---- --- --<br>------- ------,108250.80000000075,108250,107325.096,107339.10000000149,107341.766,108258.617,,17,in
screen,html.Screen,0_2_1_1_18,2021-11-12T12:45:00.982Z,,,,,,,,,,,,,,,,54,,,,,,,,,,,,,,295.38300000000163,,response,,,100,,,,,,Space,keypress(Space),,,,,-- --- ---- --- ------ ----- ------- ---- -- --- ------- --<br>------- ---------- ------ -- ----- -- order -- ---- ------<br>--- ----- --- --- ------ -------- ----- --- ------ ----- --<br>----- ----- ---------- --- --- ------ ------ ---- -- ------<br>------- --- ------ ----- --- ---- ------- -- ---- --- --<br>------- ------,108554.80000000075,108554,108241.947,108251,108258.617,108558.77,,18,order
screen,html.Screen,0_2_1_1_19,2021-11-12T12:45:01.342Z,,,,,,,,,,,,,,,,54,,,,,,,,,,,,,,355.2299999999959,,response,,,100,,,,,,Space,keypress(Space),,,,,-- --- ---- --- ------ ----- ------- ---- -- --- ------- --<br>------- ---------- ------ -- ----- -- ----- to ---- ------<br>--- ----- --- --- ------ -------- ----- --- ------ ----- --<br>----- ----- ---------- --- --- ------ ------ ---- -- ------<br>------- --- ------ ----- --- ---- ------- -- ---- --- --<br>------- ------,108914.80000000075,108914,108542.099,108555,108558.77,108925.475,,19,to
screen,html.Screen,0_2_1_1_20,2021-11-12T12:45:01.598Z,,,,,,,,,,,,,,,,54,,,,,,,,,,,,,,244.52499999999418,,response,,,100,,,,,,Space,keypress(Space),,,,,-- --- ---- --- ------ ----- ------- ---- -- --- ------- --<br>------- ---------- ------ -- ----- -- ----- -- save ------<br>--- ----- --- --- ------ -------- ----- --- ------ ----- --<br>----- ----- ---------- --- --- ------ ------ ---- -- ------<br>------- --- ------ ----- --- ---- ------- -- ---- --- --<br>------- ------,109170.70000000112,109170,108908.805,108915,108925.475,109175.548,,20,save
screen,html.Screen,0_2_1_1_21,2021-11-12T12:45:02.038Z,,,,,,,,,,,,,,,,54,,,,,,,,,,,,,,434.3520000003773,,response,,,100,,,,,,Space,keypress(Space),,,,,"-- --- ---- --- ------ ----- ------- ---- -- --- ------- --<br>------- ---------- ------ -- ----- -- ----- -- ---- money,<br>--- ----- --- --- ------ -------- ----- --- ------ ----- --<br>----- ----- ---------- --- --- ------ ------ ---- -- ------<br>------- --- ------ ----- --- ---- ------- -- ---- --- --<br>------- ------",109610.80000000075,109609.90000000037,109158.878,109171,109175.548,109625.64,,21,"money,"
screen,html.Screen,0_2_1_1_22,2021-11-12T12:45:02.510Z,,,,,,,,,,,,,,,,54,,,,,,,,,,,,,,456.3600000000006,,response,,,100,,,,,,Space,keypress(Space),,,,,-- --- ---- --- ------ ----- ------- ---- -- --- ------- --<br>------- ---------- ------ -- ----- -- ----- -- ---- ------<br>the ----- --- --- ------ -------- ----- --- ------ ----- --<br>----- ----- ---------- --- --- ------ ------ ---- -- ------<br>------- --- ------ ----- --- ---- ------- -- ---- --- --<br>------- ------,110082.70000000112,110082,109608.97,109611,109625.64,110092.423,,22,the
screen,html.Screen,0_2_1_1_23,2021-11-12T12:45:02.726Z,,,,,,,,,,,,,,,,54,,,,,,,,,,,,,,205.4770000003773,,response,,,100,,,,,,Space,keypress(Space),,,,,-- --- ---- --- ------ ----- ------- ---- -- --- ------- --<br>------- ---------- ------ -- ----- -- ----- -- ---- ------<br>--- state --- --- ------ -------- ----- --- ------ ----- --<br>----- ----- ---------- --- --- ------ ------ ---- -- ------<br>------- --- ------ ----- --- ---- ------- -- ---- --- --<br>------- ------,110298.70000000112,110297.90000000037,110075.753,110083,110092.423,110309.155,,23,state
screen,html.Screen,0_2_1_1_24,2021-11-12T12:45:03.199Z,,,,,,,,,,,,,,,,54,,,,,,,,,,,,,,461.04500000111875,,response,,,100,,,,,,Space,keypress(Space),,,,,-- --- ---- --- ------ ----- ------- ---- -- --- ------- --<br>------- ---------- ------ -- ----- -- ----- -- ---- ------<br>--- ----- cut --- ------ -------- ----- --- ------ ----- --<br>----- ----- ---------- --- --- ------ ------ ---- -- ------<br>------- --- ------ ----- --- ---- ------- -- ---- --- --<br>------- ------,110771.10000000149,110770.20000000112,110292.485,110298.90000000037,110309.155,110775.923,,24,cut
screen,html.Screen,0_2_1_1_25,2021-11-12T12:45:03.598Z,,,,,,,,,,,,,,,,54,,,,,,,,,,,,,,393.9770000003773,,response,,,100,,,,,,Space,keypress(Space),,,,,-- --- ---- --- ------ ----- ------- ---- -- --- ------- --<br>------- ---------- ------ -- ----- -- ----- -- ---- ------<br>--- ----- --- the ------ -------- ----- --- ------ ----- --<br>----- ----- ---------- --- --- ------ ------ ---- -- ------<br>------- --- ------ ----- --- ---- ------- -- ---- --- --<br>------- ------,111170.60000000149,111169.90000000037,110759.253,110771.30000000075,110775.923,111176.021,,25,the
screen,html.Screen,0_2_1_1_26,2021-11-12T12:45:04.006Z,,,,,,,,,,,,,,,,54,,,,,,,,,,,,,,401.7790000007517,,response,,,100,,,,,,Space,keypress(Space),,,,,-- --- ---- --- ------ ----- ------- ---- -- --- ------- --<br>------- ---------- ------ -- ----- -- ----- -- ---- ------<br>--- ----- --- --- bonds' -------- ----- --- ------ ----- --<br>----- ----- ---------- --- --- ------ ------ ---- -- ------<br>------- --- ------ ----- --- ---- ------- -- ---- --- --<br>------- ------,111578.60000000149,111577.80000000075,111159.351,111170.80000000075,111176.021,111592.805,,26,bonds'
screen,html.Screen,0_2_1_1_27,2021-11-12T12:45:04.446Z,,,,,,,,,,,,,,,,54,,,,,,,,,,,,,,424.99500000075204,,response,,,100,,,,,,Space,keypress(Space),,,,,-- --- ---- --- ------ ----- ------- ---- -- --- ------- --<br>------- ---------- ------ -- ----- -- ----- -- ---- ------<br>--- ----- --- --- ------ interest ----- --- ------ ----- --<br>----- ----- ---------- --- --- ------ ------ ---- -- ------<br>------- --- ------ ----- --- ---- ------- -- ---- --- --<br>------- ------,112018.60000000149,112017.80000000075,111576.135,111578.80000000075,111592.805,112026.222,,27,interest
screen,html.Screen,0_2_1_1_28,2021-11-12T12:45:04.886Z,,,,,,,,,,,,,,,,54,,,,,,,,,,,,,,431.57800000075076,,response,,,100,,,,,,Space,keypress(Space),,,,,-- --- ---- --- ------ ----- ------- ---- -- --- ------- --<br>------- ---------- ------ -- ----- -- ----- -- ---- ------<br>--- ----- --- --- ------ -------- rate. --- ------ ----- --<br>----- ----- ---------- --- --- ------ ------ ---- -- ------<br>------- --- ------ ----- --- ---- ------- -- ---- --- --<br>------- ------,112458.5,112457.80000000075,112009.552,112018.80000000075,112026.222,112459.656,,28,rate.
screen,html.Screen,0_2_1_1_29,2021-11-12T12:45:05.478Z,,,,,,,,,,,,,,,,54,,,,,,,,,,,,,,590.0440000011149,,response,,,100,,,,,,Space,keypress(Space),,,,,-- --- ---- --- ------ ----- ------- ---- -- --- ------- --<br>------- ---------- ------ -- ----- -- ----- -- ---- ------<br>--- ----- --- --- ------ -------- ----- The ------ ----- --<br>----- ----- ---------- --- --- ------ ------ ---- -- ------<br>------- --- ------ ----- --- ---- ------- -- ---- --- --<br>------- ------,113050.5,113049.70000000112,112442.986,112458.80000000075,112459.656,113059.713,,29,The
screen,html.Screen,0_2_1_1_30,2021-11-12T12:45:05.782Z,,,,,,,,,,,,,,,,54,,,,,,,,,,,,,,293.9870000011142,,response,,,100,,,,,,Space,keypress(Space),,,,,-- --- ---- --- ------ ----- ------- ---- -- --- ------- --<br>------- ---------- ------ -- ----- -- ----- -- ---- ------<br>--- ----- --- --- ------ -------- ----- --- market ----- --<br>----- ----- ---------- --- --- ------ ------ ---- -- ------<br>------- --- ------ ----- --- ---- ------- -- ---- --- --<br>------- ------,113354.5,113353.70000000112,113043.044,113050.70000000112,113059.713,113359.925,,30,market
screen,html.Screen,0_2_1_1_31,2021-11-12T12:45:06.102Z,,,,,,,,,,,,,,,,54,,,,,,,,,,,,,,313.6750000014872,,response,,,100,,,,,,Space,keypress(Space),,,,,-- --- ---- --- ------ ----- ------- ---- -- --- ------- --<br>------- ---------- ------ -- ----- -- ----- -- ---- ------<br>--- ----- --- --- ------ -------- ----- --- ------ value --<br>----- ----- ---------- --- --- ------ ------ ---- -- ------<br>------- --- ------ ----- --- ---- ------- -- ---- --- --<br>------- ------,113674.5,113673.60000000149,113343.254,113354.70000000112,113359.925,113676.644,,31,value
screen,html.Screen,0_2_1_1_32,2021-11-12T12:45:06.590Z,,,,,,,,,,,,,,,,54,,,,,,,,,,,,,,484.9560000014899,,response,,,100,,,,,,Space,keypress(Space),,,,,-- --- ---- --- ------ ----- ------- ---- -- --- ------- --<br>------- ---------- ------ -- ----- -- ----- -- ---- ------<br>--- ----- --- --- ------ -------- ----- --- ------ ----- of<br>----- ----- ---------- --- --- ------ ------ ---- -- ------<br>------- --- ------ ----- --- ---- ------- -- ---- --- --<br>------- ------,114162.5,114161.60000000149,113659.974,113674.70000000112,113676.644,114176.756,,32,of
screen,html.Screen,0_2_1_1_33,2021-11-12T12:45:06.958Z,,,,,,,,,,,,,,,,54,,,,,,,,,,,,,,352.84400000149617,,response,,,100,,,,,,Space,keypress(Space),,,,,-- --- ---- --- ------ ----- ------- ---- -- --- ------- --<br>------- ---------- ------ -- ----- -- ----- -- ---- ------<br>--- ----- --- --- ------ -------- ----- --- ------ ----- --<br>these ----- ---------- --- --- ------ ------ ---- -- ------<br>------- --- ------ ----- --- ---- ------- -- ---- --- --<br>------- ------,114530.30000000075,114529.60000000149,114160.086,114162.80000000075,114176.756,114543.49,,33,these
screen,html.Screen,0_2_1_1_34,2021-11-12T12:45:07.278Z,,,,,,,,,,,,,,,,54,,,,,,,,,,,,,,306.00999999999476,,response,,,100,,,,,,Space,keypress(Space),,,,,-- --- ---- --- ------ ----- ------- ---- -- --- ------- --<br>------- ---------- ------ -- ----- -- ----- -- ---- ------<br>--- ----- --- --- ------ -------- ----- --- ------ ----- --<br>----- bonds ---------- --- --- ------ ------ ---- -- ------<br>------- --- ------ ----- --- ---- ------- -- ---- --- --<br>------- ------,114850.40000000037,114849.5,114526.82,114530.60000000149,114543.49,114860.268,,34,bonds
screen,html.Screen,0_2_1_1_35,2021-11-12T12:45:07.558Z,,,,,,,,,,,,,,,,54,,,,,,,,,,,,,,269.2320000000036,,response,,,100,,,,,,Space,keypress(Space),,,,,"-- --- ---- --- ------ ----- ------- ---- -- --- ------- --<br>------- ---------- ------ -- ----- -- ----- -- ---- ------<br>--- ----- --- --- ------ -------- ----- --- ------ ----- --<br>----- ----- plummeted, --- --- ------ ------ ---- -- ------<br>------- --- ------ ----- --- ---- ------- -- ---- --- --<br>------- ------",115130.30000000075,115129.5,114843.598,114850.60000000149,114860.268,115143.665,,35,"plummeted,"
screen,html.Screen,0_2_1_1_36,2021-11-12T12:45:08.030Z,,,,,,,,,,,,,,,,54,,,,,,,,,,,,,,457.8350000000064,,response,,,100,,,,,,Space,keypress(Space),,,,,-- --- ---- --- ------ ----- ------- ---- -- --- ------- --<br>------- ---------- ------ -- ----- -- ----- -- ---- ------<br>--- ----- --- --- ------ -------- ----- --- ------ ----- --<br>----- ----- ---------- and --- ------ ------ ---- -- ------<br>------- --- ------ ----- --- ---- ------- -- ---- --- --<br>------- ------,115602.30000000075,115601.5,115126.995,115130.60000000149,115143.665,115610.431,,36,and
screen,html.Screen,0_2_1_1_37,2021-11-12T12:45:08.326Z,,,,,,,,,,,,,,,,54,,,,,,,,,,,,,,287.06900000000314,,response,,,100,,,,,,Space,keypress(Space),,,,,-- --- ---- --- ------ ----- ------- ---- -- --- ------- --<br>------- ---------- ------ -- ----- -- ----- -- ---- ------<br>--- ----- --- --- ------ -------- ----- --- ------ ----- --<br>----- ----- ---------- --- the ------ ------ ---- -- ------<br>------- --- ------ ----- --- ---- ------- -- ---- --- --<br>------- ------,115898.30000000075,115897.5,115593.761,115602.60000000149,115610.431,115910.491,,37,the
screen,html.Screen,0_2_1_1_38,2021-11-12T12:45:08.550Z,,,,,,,,,,,,,,,,54,,,,,,,,,,,,,,211.00900000000547,,response,,,100,,,,,,Space,keypress(Space),,,,,-- --- ---- --- ------ ----- ------- ---- -- --- ------- --<br>------- ---------- ------ -- ----- -- ----- -- ---- ------<br>--- ----- --- --- ------ -------- ----- --- ------ ----- --<br>----- ----- ---------- --- --- market ------ ---- -- ------<br>------- --- ------ ----- --- ---- ------- -- ---- --- --<br>------- ------,116122.30000000075,116121.5,115893.821,115898.5,115910.491,116127.232,,38,market
screen,html.Screen,0_2_1_1_39,2021-11-12T12:45:08.862Z,,,,,,,,,,,,,,,,54,,,,,,,,,,,,,,306.2679999999964,,response,,,100,,,,,,Space,keypress(Space),,,,,-- --- ---- --- ------ ----- ------- ---- -- --- ------- --<br>------- ---------- ------ -- ----- -- ----- -- ---- ------<br>--- ----- --- --- ------ -------- ----- --- ------ ----- --<br>----- ----- ---------- --- --- ------ became ---- -- ------<br>------- --- ------ ----- --- ---- ------- -- ---- --- --<br>------- ------,116434.20000000112,116433.5,116110.562,116122.5,116127.232,116444.015,,39,became
screen,html.Screen,0_2_1_1_40,2021-11-12T12:45:09.142Z,,,,,,,,,,,,,,,,54,,,,,,,,,,,,,,269.3850000003731,,response,,,100,,,,,,Space,keypress(Space),,,,,-- --- ---- --- ------ ----- ------- ---- -- --- ------- --<br>------- ---------- ------ -- ----- -- ----- -- ---- ------<br>--- ----- --- --- ------ -------- ----- --- ------ ----- --<br>----- ----- ---------- --- --- ------ ------ wary -- ------<br>------- --- ------ ----- --- ---- ------- -- ---- --- --<br>------- ------,116714.20000000112,116713.40000000037,116427.344,116434.40000000037,116444.015,116727.236,,40,wary
screen,html.Screen,0_2_1_1_41,2021-11-12T12:45:09.446Z,,,,,,,,,,,,,,,,54,,,,,,,,,,,,,,290.1640000003681,,response,,,100,,,,,,Space,keypress(Space),,,,,-- --- ---- --- ------ ----- ------- ---- -- --- ------- --<br>------- ---------- ------ -- ----- -- ----- -- ---- ------<br>--- ----- --- --- ------ -------- ----- --- ------ ----- --<br>----- ----- ---------- --- --- ------ ------ ---- of ------<br>------- --- ------ ----- --- ---- ------- -- ---- --- --<br>------- ------,117018.20000000112,117017.40000000037,116710.569,116714.40000000037,116727.236,117027.403,,41,of
screen,html.Screen,0_2_1_1_42,2021-11-12T12:45:09.862Z,,,,,,,,,,,,,,,,54,,,,,,,,,,,,,,405.9970000003668,,response,,,100,,,,,,Space,keypress(Space),,,,,-- --- ---- --- ------ ----- ------- ---- -- --- ------- --<br>------- ---------- ------ -- ----- -- ----- -- ---- ------<br>--- ----- --- --- ------ -------- ----- --- ------ ----- --<br>----- ----- ---------- --- --- ------ ------ ---- -- French<br>------- --- ------ ----- --- ---- ------- -- ---- --- --<br>------- ------,117434.20000000112,117433.40000000037,117010.733,117018.5,117027.403,117444.335,,42,French
screen,html.Screen,0_2_1_1_43,2021-11-12T12:45:10.174Z,,,,,,,,,,,,,,,,54,,,,,,,,,,,,,,301.0650000003661,,response,,,100,,,,,,Space,keypress(Space),,,,,-- --- ---- --- ------ ----- ------- ---- -- --- ------- --<br>------- ---------- ------ -- ----- -- ----- -- ---- ------<br>--- ----- --- --- ------ -------- ----- --- ------ ----- --<br>----- ----- ---------- --- --- ------ ------ ---- -- ------<br>credit. --- ------ ----- --- ---- ------- -- ---- --- --<br>------- ------,117746.20000000112,117745.40000000037,117427.662,117434.40000000037,117444.335,117760.942,,43,credit.
screen,html.Screen,0_2_1_1_44,2021-11-12T12:45:10.790Z,,,,,,,,,,,,,,,,54,,,,,,,,,,,,,,600.3580000007496,,response,,,100,,,,,,Space,keypress(Space),,,,,-- --- ---- --- ------ ----- ------- ---- -- --- ------- --<br>------- ---------- ------ -- ----- -- ----- -- ---- ------<br>--- ----- --- --- ------ -------- ----- --- ------ ----- --<br>----- ----- ---------- --- --- ------ ------ ---- -- ------<br>------- The ------ ----- --- ---- ------- -- ---- --- --<br>------- ------,118362,118361.30000000075,117744.272,117746.5,117760.942,118377.771,,44,The
screen,html.Screen,0_2_1_1_45,2021-11-12T12:45:11.278Z,,,,,,,,,,,,,,,,54,,,,,,,,,,,,,,471.4290000011242,,response,,,100,,,,,,Space,keypress(Space),,,,,-- --- ---- --- ------ ----- ------- ---- -- --- ------- --<br>------- ---------- ------ -- ----- -- ----- -- ---- ------<br>--- ----- --- --- ------ -------- ----- --- ------ ----- --<br>----- ----- ---------- --- --- ------ ------ ---- -- ------<br>------- --- French ----- --- ---- ------- -- ---- --- --<br>------- ------,118850.10000000149,118849.20000000112,118361.101,118362.20000000112,118377.771,118861.205,,45,French
screen,html.Screen,0_2_1_1_46,2021-11-12T12:45:11.534Z,,,,,,,,,,,,,,,,54,,,,,,,,,,,,,,244.0950000007433,,response,,,100,,,,,,Space,keypress(Space),,,,,-- --- ---- --- ------ ----- ------- ---- -- --- ------- --<br>------- ---------- ------ -- ----- -- ----- -- ---- ------<br>--- ----- --- --- ------ -------- ----- --- ------ ----- --<br>----- ----- ---------- --- --- ------ ------ ---- -- ------<br>------- --- ------ state --- ---- ------- -- ---- --- --<br>------- ------,119106,119105.30000000075,118844.535,118850.30000000075,118861.205,119111.268,,46,state
screen,html.Screen,0_2_1_1_47,2021-11-12T12:45:11.846Z,,,,,,,,,,,,,,,,54,,,,,,,,,,,,,,306.03200000074867,,response,,,100,,,,,,Space,keypress(Space),,,,,-- --- ---- --- ------ ----- ------- ---- -- --- ------- --<br>------- ---------- ------ -- ----- -- ----- -- ---- ------<br>--- ----- --- --- ------ -------- ----- --- ------ ----- --<br>----- ----- ---------- --- --- ------ ------ ---- -- ------<br>------- --- ------ ----- was ---- ------- -- ---- --- --<br>------- ------,119418.10000000149,119417.30000000075,119094.598,119106.20000000112,119111.268,119428.063,,47,was
screen,html.Screen,0_2_1_1_48,2021-11-12T12:45:12.174Z,,,,,,,,,,,,,,,,54,,,,,,,,,,,,,,317.13700000112294,,response,,,100,,,,,,Space,keypress(Space),,,,,-- --- ---- --- ------ ----- ------- ---- -- --- ------- --<br>------- ---------- ------ -- ----- -- ----- -- ---- ------<br>--- ----- --- --- ------ -------- ----- --- ------ ----- --<br>----- ----- ---------- --- --- ------ ------ ---- -- ------<br>------- --- ------ ----- --- left ------- -- ---- --- --<br>------- ------,119746,119745.20000000112,119411.392,119418.30000000075,119428.063,119761.457,,48,left
screen,html.Screen,0_2_1_1_49,2021-11-12T12:45:12.542Z,,,,,,,,,,,,,,,,54,,,,,,,,,,,,,,351.64300000149524,,response,,,100,,,,,,Space,keypress(Space),,,,,-- --- ---- --- ------ ----- ------- ---- -- --- ------- --<br>------- ---------- ------ -- ----- -- ----- -- ---- ------<br>--- ----- --- --- ------ -------- ----- --- ------ ----- --<br>----- ----- ---------- --- --- ------ ------ ---- -- ------<br>------- --- ------ ----- --- ---- without -- ---- --- --<br>------- ------,120114,120113.10000000149,119744.787,119746.30000000075,119761.457,120128.194,,49,without
screen,html.Screen,0_2_1_1_50,2021-11-12T12:45:12.830Z,,,,,,,,,,,,,,,,54,,,,,,,,,,,,,,272.906000001487,,response,,,100,,,,,,Space,keypress(Space),,,,,-- --- ---- --- ------ ----- ------- ---- -- --- ------- --<br>------- ---------- ------ -- ----- -- ----- -- ---- ------<br>--- ----- --- --- ------ -------- ----- --- ------ ----- --<br>----- ----- ---------- --- --- ------ ------ ---- -- ------<br>------- --- ------ ----- --- ---- ------- an ---- --- --<br>------- ------,120401.90000000037,120401.10000000149,120111.524,120114.20000000112,120128.194,120411.647,,50,an
screen,html.Screen,0_2_1_1_51,2021-11-12T12:45:13.105Z,,,,,,,,,,,,,,,,54,,,,,,,,,,,,,,261.4530000014929,,response,,,100,,,,,,Space,keypress(Space),,,,,-- --- ---- --- ------ ----- ------- ---- -- --- ------- --<br>------- ---------- ------ -- ----- -- ----- -- ---- ------<br>--- ----- --- --- ------ -------- ----- --- ------ ----- --<br>----- ----- ---------- --- --- ------ ------ ---- -- ------<br>------- --- ------ ----- --- ---- ------- -- easy --- --<br>------- ------,120673.90000000037,120673.10000000149,120394.976,120402.10000000149,120411.647,120678.331,,51,easy
screen,html.Screen,0_2_1_1_52,2021-11-12T12:45:13.474Z,,,,,,,,,,,,,,,,54,,,,,,,,,,,,,,363.1689999999944,,response,,,100,,,,,,Space,keypress(Space),,,,,-- --- ---- --- ------ ----- ------- ---- -- --- ------- --<br>------- ---------- ------ -- ----- -- ----- -- ---- ------<br>--- ----- --- --- ------ -------- ----- --- ------ ----- --<br>----- ----- ---------- --- --- ------ ------ ---- -- ------<br>------- --- ------ ----- --- ---- ------- -- ---- way --<br>------- ------,121042.30000000075,121041.5,120661.661,120674.20000000112,120678.331,121045.105,,52,way
screen,html.Screen,0_2_1_1_53,2021-11-12T12:45:13.833Z,,,,,,,,,,,,,,,,54,,,,,,,,,,,,,,355.9950000014942,,response,,,100,,,,,,Space,keypress(Space),,,,,-- --- ---- --- ------ ----- ------- ---- -- --- ------- --<br>------- ---------- ------ -- ----- -- ----- -- ---- ------<br>--- ----- --- --- ------ -------- ----- --- ------ ----- --<br>----- ----- ---------- --- --- ------ ------ ---- -- ------<br>------- --- ------ ----- --- ---- ------- -- ---- --- of<br>------- ------,121401.80000000075,121401.10000000149,121028.435,121042.40000000037,121045.105,121411.831,,53,of
screen,html.Screen,0_2_1_1_54,2021-11-12T12:45:14.249Z,,,,,,,,,,,,,,,,54,,,,,,,,,,,,,,405.1689999999944,,response,,,100,,,,,,Space,keypress(Space),,,,,-- --- ---- --- ------ ----- ------- ---- -- --- ------- --<br>------- ---------- ------ -- ----- -- ----- -- ---- ------<br>--- ----- --- --- ------ -------- ----- --- ------ ----- --<br>----- ----- ---------- --- --- ------ ------ ---- -- ------<br>------- --- ------ ----- --- ---- ------- -- ---- --- --<br>raising ------,121817.80000000075,121817,121395.161,121402.10000000149,121411.831,121828.522,,54,raising
screen,html.Screen,0_2_1_1_55,2021-11-12T12:45:14.801Z,,,,,,,,,,,,,,,,54,,,,,,,,,,,,,,540.5780000014929,,response,,,100,,,,,,Space,keypress(Space),,,,,-- --- ---- --- ------ ----- ------- ---- -- --- ------- --<br>------- ---------- ------ -- ----- -- ----- -- ---- ------<br>--- ----- --- --- ------ -------- ----- --- ------ ----- --<br>----- ----- ---------- --- --- ------ ------ ---- -- ------<br>------- --- ------ ----- --- ---- ------- -- ---- --- --<br>------- money.,122369.90000000037,122369.10000000149,121811.853,121818.10000000149,121828.522,122378.777,,55,money.
Item 100,flow.Loop,0_2_1_1,2021-11-12T12:45:14.802Z,,,,,,,,,,,,,,,,,,,,,,,,,,,,,,24279.699000001492,,completion,,,,A,,,,,,,,,,silence,,122370.30000000075,122369.10000000149,98072.731,98074.70000000112,98089.401,122378.777,,,
Question 1,html.Screen,0_2_1_2,2021-11-12T12:45:22.177Z,,,,,,,,,,,,,,,,,,,,,,,,,,,true,TRUE,,7365.623000000371,,response,,,100,A,,,,,TRUE,click #choice-1,,,,silence,,129745.60000000149,129744.40000000037,122362.106,122370.5,122378.777,129747.405,,,
Question 2,html.Screen,0_2_1_3,2021-11-12T12:45:24.793Z,,,,,,,,,,,,,,,,,,,,,,,,,,,false,FALSE,,2612.7950000011188,,response,,,100,A,,,,,TRUE,click #choice-1,,,,silence,,132361.30000000075,132360.20000000112,129730.726,129745.90000000037,129747.405,132381.168,,,
Item 100,flow.Sequence,0_2_1,2021-11-12T12:45:24.793Z,,,,,,,,,,,,,,,,,,,,,,,,,,,,,,44273.06200000111,,completion,,,,,,,,,,,,,,,,132361.70000000112,132360.20000000112,88070.467,88085.30000000075,88087.138,132381.168,,,
End of Practice,html.Page,0_2_2,2021-11-12T12:45:28.930Z,,,,,,,,,,,,,,,,,,,,,,,,,,,,,,4116.331999999995,,form submission,,,,,,,,,,,,,,,,136498.20000000112,136497.5,132364.498,132361.90000000037,132381.168,136498.868,,,
Practice,flow.Sequence,0_2,2021-11-12T12:45:28.930Z,,,,,,,,,,,,,,,,,,,,,,,,,,,,,,105246.484,,completion,,,,,,,,,,,,,,,,136498.70000000112,136497.5,31234.37,31249.300000000745,31251.016,136498.868,,,
Trap_instruction,html.Page,0_3_0,2021-11-12T12:45:39.105Z,,,,,,,,,,,,,,,,,,,,,,,,,,,,,,10174.032000000385,,form submission,,,,,,,,,,,,,,,,146673.5,146672.90000000037,136482.197,136499.20000000112,136498.868,146700.845,,,
trap_trial,html.Screen,0_3_1,2021-11-12T12:45:42.032Z,,,,,,,,,,,,,,,,,,,,,,,,,,,true,1,,2897.955000000744,,response,,,,,,,,,1,click #choice-1,,,,,,149600,149598.80000000075,146667.505,146673.80000000075,146700.845,149601.882,,,
end of trap trial,html.Page,0_3_2,2021-11-12T12:45:44.249Z,,,,,,,,,,,,,,,,,,,,,,,,,,,,,,2214.4180000007327,,form submission,,,,,,,,,,,,,,,,151817,151816.30000000075,149585.212,149600.40000000037,149601.882,151835.848,,,
Trap 1,flow.Sequence,0_3,2021-11-12T12:45:44.249Z,,,,,,,,,,,,,,,,,,,,,,,,,,,,,,15317.432000000757,,completion,,,,,,,,,,,,,,,,151817.5,151816.30000000075,136482.197,136499,136498.868,151835.848,,,
Standby,html.Page,0_4_0,2021-11-12T12:45:52.253Z,,,,,,,,,,,,,,,,,,,,,,,,,,,,,,8001.630999999994,,timeout,,,,,,,,,,,,,,,,159821.80000000075,159820.809,151819.178,151817.90000000037,151835.848,159837.479,,,
Holding screen,html.Screen,0_4_1_0_0,2021-11-12T12:45:59.256Z,,,,,,,,,,,,,,,,,,,,,,,,,,,,,,7002.015000000014,,timeout,,,,,,,,,,,,,,,,166824.70000000112,166822.824,159820.809,159822.1000000015,159837.479,166839.494,,,
screen,html.Screen,0_4_1_0_1_0,2021-11-12T12:46:00.471Z,,,,,,,,,,,,,,,,2,,,,,,,,,,,,,,1198.806000000739,,response,,,1,A,,,,,Space,keypress(Space),,,,silence,Two ---- ------ --- ------- ---------- ------- ----------<br>--- --------- --- ----------- ------- ----- ------- ---<br>--------- ---- -- --- ---- -- --------- -- ---- -------<br>-- --------- ------ --- ----- ------ ---- --- --------- --<br>------ - ---- -- --- ----------- ------- ---- ----- -----<br>--- -------- - ------ ---- -- ----- ---- --- --- -----------<br>-- -------,168039.40000000037,168038.30000000075,166822.824,166825,166839.494,168039.774,,0,Two
screen,html.Screen,0_4_1_0_1_1,2021-11-12T12:46:00.958Z,,,,,,,,,,,,,,,,2,,,,,,,,,,,,,,486.02600000074017,,response,,,1,A,,,,,Space,keypress(Space),,,,silence,--- days ------ --- ------- ---------- ------- ----------<br>--- --------- --- ----------- ------- ----- ------- ---<br>--------- ---- -- --- ---- -- --------- -- ---- -------<br>-- --------- ------ --- ----- ------ ---- --- --------- --<br>------ - ---- -- --- ----------- ------- ---- ----- -----<br>--- -------- - ------ ---- -- ----- ---- --- --- -----------<br>-- -------,168526.70000000112,168525.80000000075,168023.104,168039.70000000112,168039.774,168539.919,,1,days
screen,html.Screen,0_4_1_0_1_2,2021-11-12T12:46:01.398Z,,,,,,,,,,,,,,,,2,,,,,,,,,,,,,,425.88100000075065,,response,,,1,A,,,,,Space,keypress(Space),,,,silence,"--- ---- later, --- ------- ---------- ------- ----------<br>--- --------- --- ----------- ------- ----- ------- ---<br>--------- ---- -- --- ---- -- --------- -- ---- -------<br>-- --------- ------ --- ----- ------ ---- --- --------- --<br>------ - ---- -- --- ----------- ------- ---- ----- -----<br>--- -------- - ------ ---- -- ----- ---- --- --- -----------<br>-- -------",168966.80000000075,168965.80000000075,168523.249,168527.1000000015,168539.919,168973.328,,2,"later,"
screen,html.Screen,0_4_1_0_1_3,2021-11-12T12:46:02.230Z,,,,,,,,,,,,,,,,2,,,,,,,,,,,,,,824.4720000007364,,response,,,1,A,,,,,Space,keypress(Space),,,,silence,--- ---- ------ the ------- ---------- ------- ----------<br>--- --------- --- ----------- ------- ----- ------- ---<br>--------- ---- -- --- ---- -- --------- -- ---- -------<br>-- --------- ------ --- ----- ------ ---- --- --------- --<br>------ - ---- -- --- ----------- ------- ---- ----- -----<br>--- -------- - ------ ---- -- ----- ---- --- --- -----------<br>-- -------,169798.6000000015,169797.80000000075,168956.658,168967.1000000015,168973.328,169807.05,,3,the
screen,html.Screen,0_4_1_0_1_4,2021-11-12T12:46:02.726Z,,,,,,,,,,,,,,,,2,,,,,,,,,,,,,,486.65000000112923,,response,,,1,A,,,,,Space,keypress(Space),,,,silence,--- ---- ------ --- British ---------- ------- ----------<br>--- --------- --- ----------- ------- ----- ------- ---<br>--------- ---- -- --- ---- -- --------- -- ---- -------<br>-- --------- ------ --- ----- ------ ---- --- --------- --<br>------ - ---- -- --- ----------- ------- ---- ----- -----<br>--- -------- - ------ ---- -- ----- ---- --- --- -----------<br>-- -------,170294.5,170293.70000000112,169790.378,169798.90000000037,169807.05,170307.104,,4,British
screen,html.Screen,0_4_1_0_1_5,2021-11-12T12:46:03.126Z,,,,,,,,,,,,,,,,2,,,,,,,,,,,,,,386.5960000011255,,response,,,1,A,,,,,Space,keypress(Space),,,,silence,--- ---- ------ --- ------- astronomer ------- ----------<br>--- --------- --- ----------- ------- ----- ------- ---<br>--------- ---- -- --- ---- -- --------- -- ---- -------<br>-- --------- ------ --- ----- ------ ---- --- --------- --<br>------ - ---- -- --- ----------- ------- ---- ----- -----<br>--- -------- - ------ ---- -- ----- ---- --- --- -----------<br>-- -------,170694.5,170693.70000000112,170290.433,170294.80000000075,170307.104,170707.143,,5,astronomer
screen,html.Screen,0_4_1_0_1_6,2021-11-12T12:46:03.606Z,,,,,,,,,,,,,,,,2,,,,,,,,,,,,,,466.4570000014792,,response,,,1,A,,,,,Space,keypress(Space),,,,silence,--- ---- ------ --- ------- ---------- Richard ----------<br>--- --------- --- ----------- ------- ----- ------- ---<br>--------- ---- -- --- ---- -- --------- -- ---- -------<br>-- --------- ------ --- ----- ------ ---- --- --------- --<br>------ - ---- -- --- ----------- ------- ---- ----- -----<br>--- -------- - ------ ---- -- ----- ---- --- --- -----------<br>-- -------,171174.5,171173.6000000015,170690.473,170694.80000000075,170707.143,171190.612,,6,Richard
screen,html.Screen,0_4_1_0_1_7,2021-11-12T12:46:04.126Z,,,,,,,,,,,,,,,,2,,,,,,,,,,,,,,502.9880000014964,,response,,,1,A,,,,,Space,keypress(Space),,,,silence,--- ---- ------ --- ------- ---------- ------- Carrington<br>--- --------- --- ----------- ------- ----- ------- ---<br>--------- ---- -- --- ---- -- --------- -- ---- -------<br>-- --------- ------ --- ----- ------ ---- --- --------- --<br>------ - ---- -- --- ----------- ------- ---- ----- -----<br>--- -------- - ------ ---- -- ----- ---- --- --- -----------<br>-- -------,171694.40000000037,171693.6000000015,171173.942,171174.70000000112,171190.612,171707.227,,7,Carrington
screen,html.Screen,0_4_1_0_1_8,2021-11-12T12:46:04.670Z,,,,,,,,,,,,,,,,2,,,,,,,,,,,,,,530.3730000014766,,response,,,1,A,,,,,Space,keypress(Space),,,,silence,--- ---- ------ --- ------- ---------- ------- ----------<br>was --------- --- ----------- ------- ----- ------- ---<br>--------- ---- -- --- ---- -- --------- -- ---- -------<br>-- --------- ------ --- ----- ------ ---- --- --------- --<br>------ - ---- -- --- ----------- ------- ---- ----- -----<br>--- -------- - ------ ---- -- ----- ---- --- --- -----------<br>-- -------,172238.30000000075,172237.6000000015,171690.559,171694.6000000015,171707.227,172240.974,,8,was
screen,html.Screen,0_4_1_0_1_9,2021-11-12T12:46:05.054Z,,,,,,,,,,,,,,,,2,,,,,,,,,,,,,,380.5260000000126,,response,,,1,A,,,,,Space,keypress(Space),,,,silence,--- ---- ------ --- ------- ---------- ------- ----------<br>--- observing --- ----------- ------- ----- ------- ---<br>--------- ---- -- --- ---- -- --------- -- ---- -------<br>-- --------- ------ --- ----- ------ ---- --- --------- --<br>------ - ---- -- --- ----------- ------- ---- ----- -----<br>--- -------- - ------ ---- -- ----- ---- --- --- -----------<br>-- -------,172622.30000000075,172621.5,172224.302,172238.6000000015,172240.974,172624.288,,9,observing
screen,html.Screen,0_4_1_0_1_10,2021-11-12T12:46:05.454Z,,,,,,,,,,,,,,,,2,,,,,,,,,,,,,,397.21199999999953,,response,,,1,A,,,,,Space,keypress(Space),,,,silence,--- ---- ------ --- ------- ---------- ------- ----------<br>--- --------- the ----------- ------- ----- ------- ---<br>--------- ---- -- --- ---- -- --------- -- ---- -------<br>-- --------- ------ --- ----- ------ ---- --- --------- --<br>------ - ---- -- --- ----------- ------- ---- ----- -----<br>--- -------- - ------ ---- -- ----- ---- --- --- -----------<br>-- -------,173022.20000000112,173021.5,172607.618,172622.5,172624.288,173024.373,,10,the
screen,html.Screen,0_4_1_0_1_11,2021-11-12T12:46:05.982Z,,,,,,,,,,,,,,,,2,,,,,,,,,,,,,,525.1270000000077,,response,,,1,A,,,,,Space,keypress(Space),,,,silence,--- ---- ------ --- ------- ---------- ------- ----------<br>--- --------- --- interesting ------- ----- ------- ---<br>--------- ---- -- --- ---- -- --------- -- ---- -------<br>-- --------- ------ --- ----- ------ ---- --- --------- --<br>------ - ---- -- --- ----------- ------- ---- ----- -----<br>--- -------- - ------ ---- -- ----- ---- --- --- -----------<br>-- -------,173550.30000000075,173549.5,173007.703,173022.5,173024.373,173557.897,,11,interesting
screen,html.Screen,0_4_1_0_1_12,2021-11-12T12:46:06.414Z,,,,,,,,,,,,,,,,2,,,,,,,,,,,,,,423.5030000003753,,response,,,1,A,,,,,Space,keypress(Space),,,,silence,--- ---- ------ --- ------- ---------- ------- ----------<br>--- --------- --- ----------- sunspot ----- ------- ---<br>--------- ---- -- --- ---- -- --------- -- ---- -------<br>-- --------- ------ --- ----- ------ ---- --- --------- --<br>------ - ---- -- --- ----------- ------- ---- ----- -----<br>--- -------- - ------ ---- -- ----- ---- --- --- -----------<br>-- -------,173982.1000000015,173981.40000000037,173541.226,173550.5,173557.897,173991.185,,12,sunspot
screen,html.Screen,0_4_1_0_1_13,2021-11-12T12:46:07.678Z,,,,,,,,,,,,,,,,2,,,,,,,,,,,,,,1254.1150000007474,,response,,,1,A,,,,,Space,keypress(Space),,,,silence,--- ---- ------ --- ------- ---------- ------- ----------<br>--- --------- --- ----------- ------- group ------- ---<br>--------- ---- -- --- ---- -- --------- -- ---- -------<br>-- --------- ------ --- ----- ------ ---- --- --------- --<br>------ - ---- -- --- ----------- ------- ---- ----- -----<br>--- -------- - ------ ---- -- ----- ---- --- --- -----------<br>-- -------,175246.20000000112,175245.30000000075,173974.516,173982.40000000037,173991.185,175258.304,,13,group
screen,html.Screen,0_4_1_0_1_14,2021-11-12T12:46:08.086Z,,,,,,,,,,,,,,,,2,,,,,,,,,,,,,,394.89600000111386,,response,,,1,A,,,,,Space,keypress(Space),,,,silence,--- ---- ------ --- ------- ---------- ------- ----------<br>--- --------- --- ----------- ------- ----- through ---<br>--------- ---- -- --- ---- -- --------- -- ---- -------<br>-- --------- ------ --- ----- ------ ---- --- --------- --<br>------ - ---- -- --- ----------- ------- ---- ----- -----<br>--- -------- - ------ ---- -- ----- ---- --- --- -----------<br>-- -------,175654.1000000015,175653.20000000112,175241.633,175246.40000000037,175258.304,175658.422,,14,through
screen,html.Screen,0_4_1_0_1_15,2021-11-12T12:46:08.542Z,,,,,,,,,,,,,,,,2,,,,,,,,,,,,,,450.8780000007537,,response,,,1,A,,,,,Space,keypress(Space),,,,silence,--- ---- ------ --- ------- ---------- ------- ----------<br>--- --------- --- ----------- ------- ----- ------- his<br>--------- ---- -- --- ---- -- --------- -- ---- -------<br>-- --------- ------ --- ----- ------ ---- --- --------- --<br>------ - ---- -- --- ----------- ------- ---- ----- -----<br>--- -------- - ------ ---- -- ----- ---- --- --- -----------<br>-- -------,176110.1000000015,176109.30000000075,175641.751,175654.40000000037,175658.422,176125.036,,15,his
screen,html.Screen,0_4_1_0_1_16,2021-11-12T12:46:10.382Z,,,,,,,,,,,,,,,,2,,,,,,,,,,,,,,1824.1640000011248,,response,,,1,A,,,,,Space,keypress(Space),,,,silence,--- ---- ------ --- ------- ---------- ------- ----------<br>--- --------- --- ----------- ------- ----- ------- ---<br>telescope ---- -- --- ---- -- --------- -- ---- -------<br>-- --------- ------ --- ----- ------ ---- --- --------- --<br>------ - ---- -- --- ----------- ------- ---- ----- -----<br>--- -------- - ------ ---- -- ----- ---- --- --- -----------<br>-- -------,177950,177949.20000000112,176108.367,176110.5,176125.036,177959.086,,16,telescope
screen,html.Screen,0_4_1_0_1_17,2021-11-12T12:46:10.742Z,,,,,,,,,,,,,,,,2,,,,,,,,,,,,,,350.51400000147987,,response,,,1,A,,,,,Space,keypress(Space),,,,silence,--- ---- ------ --- ------- ---------- ------- ----------<br>--- --------- --- ----------- ------- ----- ------- ---<br>--------- when -- --- ---- -- --------- -- ---- -------<br>-- --------- ------ --- ----- ------ ---- --- --------- --<br>------ - ---- -- --- ----------- ------- ---- ----- -----<br>--- -------- - ------ ---- -- ----- ---- --- --- -----------<br>-- -------,178310.40000000037,178309.6000000015,177942.414,177950.30000000075,177959.086,178325.639,,17,when
screen,html.Screen,0_4_1_0_1_18,2021-11-12T12:46:11.078Z,,,,,,,,,,,,,,,,2,,,,,,,,,,,,,,319.46100000149454,,response,,,1,A,,,,,Space,keypress(Space),,,,silence,--- ---- ------ --- ------- ---------- ------- ----------<br>--- --------- --- ----------- ------- ----- ------- ---<br>--------- ---- he --- ---- -- --------- -- ---- -------<br>-- --------- ------ --- ----- ------ ---- --- --------- --<br>------ - ---- -- --- ----------- ------- ---- ----- -----<br>--- -------- - ------ ---- -- ----- ---- --- --- -----------<br>-- -------,178646,178645.1000000015,178308.968,178310.70000000112,178325.639,178659.028,,18,he
screen,html.Screen,0_4_1_0_1_19,2021-11-12T12:46:11.366Z,,,,,,,,,,,,,,,,2,,,,,,,,,,,,,,274.07200000149896,,response,,,1,A,,,,,Space,keypress(Space),,,,silence,--- ---- ------ --- ------- ---------- ------- ----------<br>--- --------- --- ----------- ------- ----- ------- ---<br>--------- ---- -- saw ---- -- --------- -- ---- -------<br>-- --------- ------ --- ----- ------ ---- --- --------- --<br>------ - ---- -- --- ----------- ------- ---- ----- -----<br>--- -------- - ------ ---- -- ----- ---- --- --- -----------<br>-- -------,178934,178933.1000000015,178642.358,178646.40000000037,178659.028,178942.637,,19,saw
screen,html.Screen,0_4_1_0_1_20,2021-11-12T12:46:11.717Z,,,,,,,,,,,,,,,,2,,,,,,,,,,,,,,342.4630000015022,,response,,,1,A,,,,,Space,keypress(Space),,,,silence,--- ---- ------ --- ------- ---------- ------- ----------<br>--- --------- --- ----------- ------- ----- ------- ---<br>--------- ---- -- --- what -- --------- -- ---- -------<br>-- --------- ------ --- ----- ------ ---- --- --------- --<br>------ - ---- -- --- ----------- ------- ---- ----- -----<br>--- -------- - ------ ---- -- ----- ---- --- --- -----------<br>-- -------,179285.90000000037,179285.1000000015,178925.963,178934.20000000112,178942.637,179292.511,,20,what
screen,html.Screen,0_4_1_0_1_21,2021-11-12T12:46:12.045Z,,,,,,,,,,,,,,,,2,,,,,,,,,,,,,,320.5890000014915,,response,,,1,A,,,,,Space,keypress(Space),,,,silence,--- ---- ------ --- ------- ---------- ------- ----------<br>--- --------- --- ----------- ------- ----- ------- ---<br>--------- ---- -- --- ---- he --------- -- ---- -------<br>-- --------- ------ --- ----- ------ ---- --- --------- --<br>------ - ---- -- --- ----------- ------- ---- ----- -----<br>--- -------- - ------ ---- -- ----- ---- --- --- -----------<br>-- -------,179613.80000000075,179613.1000000015,179275.842,179286.1000000015,179292.511,179626.018,,21,he
screen,html.Screen,0_4_1_0_1_22,2021-11-12T12:46:12.477Z,,,,,,,,,,,,,,,,2,,,,,,,,,,,,,,418.98199999998906,,response,,,1,A,,,,,Space,keypress(Space),,,,silence,--- ---- ------ --- ------- ---------- ------- ----------<br>--- --------- --- ----------- ------- ----- ------- ---<br>--------- ---- -- --- ---- -- described -- ---- -------<br>-- --------- ------ --- ----- ------ ---- --- --------- --<br>------ - ---- -- --- ----------- ------- ---- ----- -----<br>--- -------- - ------ ---- -- ----- ---- --- --- -----------<br>-- -------,180045.80000000075,180045,179609.347,179614.1000000015,179626.018,180059.415,,22,described
screen,html.Screen,0_4_1_0_1_23,2021-11-12T12:46:12.837Z,,,,,,,,,,,,,,,,2,,,,,,,,,,,,,,345.58499999999185,,response,,,1,A,,,,,Space,keypress(Space),,,,silence,--- ---- ------ --- ------- ---------- ------- ----------<br>--- --------- --- ----------- ------- ----- ------- ---<br>--------- ---- -- --- ---- -- --------- as ---- -------<br>-- --------- ------ --- ----- ------ ---- --- --------- --<br>------ - ---- -- --- ----------- ------- ---- ----- -----<br>--- -------- - ------ ---- -- ----- ---- --- --- -----------<br>-- -------,180405.80000000075,180405,180042.745,180046,180059.415,180409.421,,23,as
screen,html.Screen,0_4_1_0_1_24,2021-11-12T12:46:13.154Z,,,,,,,,,,,,,,,,2,,,,,,,,,,,,,,307.5789999999979,,response,,,1,A,,,,,Space,keypress(Space),,,,silence,"--- ---- ------ --- ------- ---------- ------- ----------<br>--- --------- --- ----------- ------- ----- ------- ---<br>--------- ---- -- --- ---- -- --------- -- ""two -------<br>-- --------- ------ --- ----- ------ ---- --- --------- --<br>------ - ---- -- --- ----------- ------- ---- ----- -----<br>--- -------- - ------ ---- -- ----- ---- --- --- -----------<br>-- -------",180717.80000000075,180717,180392.752,180406.1000000015,180409.421,180726.332,,24,"""two"
screen,html.Screen,0_4_1_0_1_25,2021-11-12T12:46:13.626Z,,,,,,,,,,,,,,,,2,,,,,,,,,,,,,,462.6680000000051,,response,,,1,A,,,,,Space,keypress(Space),,,,silence,--- ---- ------ --- ------- ---------- ------- ----------<br>--- --------- --- ----------- ------- ----- ------- ---<br>--------- ---- -- --- ---- -- --------- -- ---- patches<br>-- --------- ------ --- ----- ------ ---- --- --------- --<br>------ - ---- -- --- ----------- ------- ---- ----- -----<br>--- -------- - ------ ---- -- ----- ---- --- --- -----------<br>-- -------,181189.80000000075,181189,180709.66,180718.1000000015,180726.332,181193.017,,25,patches
screen,html.Screen,0_4_1_0_1_26,2021-11-12T12:46:14.010Z,,,,,,,,,,,,,,,,2,,,,,,,,,,,,,,379.88300000038,,response,,,1,A,,,,,Space,keypress(Space),,,,silence,--- ---- ------ --- ------- ---------- ------- ----------<br>--- --------- --- ----------- ------- ----- ------- ---<br>--------- ---- -- --- ---- -- --------- -- ---- -------<br>of --------- ------ --- ----- ------ ---- --- --------- --<br>------ - ---- -- --- ----------- ------- ---- ----- -----<br>--- -------- - ------ ---- -- ----- ---- --- --- -----------<br>-- -------,181573.80000000075,181572.90000000037,181176.347,181190,181193.017,181576.504,,26,of
screen,html.Screen,0_4_1_0_1_27,2021-11-12T12:46:14.442Z,,,,,,,,,,,,,,,,2,,,,,,,,,,,,,,428.39600000038627,,response,,,1,A,,,,,Space,keypress(Space),,,,silence,--- ---- ------ --- ------- ---------- ------- ----------<br>--- --------- --- ----------- ------- ----- ------- ---<br>--------- ---- -- --- ---- -- --------- -- ---- -------<br>-- intensely ------ --- ----- ------ ---- --- --------- --<br>------ - ---- -- --- ----------- ------- ---- ----- -----<br>--- -------- - ------ ---- -- ----- ---- --- --- -----------<br>-- -------,182005.6000000015,182004.90000000037,181559.833,181574.1000000015,181576.504,182009.888,,27,intensely
screen,html.Screen,0_4_1_0_1_28,2021-11-12T12:46:14.898Z,,,,,,,,,,,,,,,,2,,,,,,,,,,,,,,450.9120000007388,,response,,,1,A,,,,,Space,keypress(Space),,,,silence,--- ---- ------ --- ------- ---------- ------- ----------<br>--- --------- --- ----------- ------- ----- ------- ---<br>--------- ---- -- --- ---- -- --------- -- ---- -------<br>-- --------- bright --- ----- ------ ---- --- --------- --<br>------ - ---- -- --- ----------- ------- ---- ----- -----<br>--- -------- - ------ ---- -- ----- ---- --- --- -----------<br>-- -------,182461.6000000015,182460.80000000075,181993.218,182005.90000000037,182009.888,182476.686,,28,bright
screen,html.Screen,0_4_1_0_1_29,2021-11-12T12:46:15.242Z,,,,,,,,,,,,,,,,2,,,,,,,,,,,,,,328.1140000007581,,response,,,1,A,,,,,Space,keypress(Space),,,,silence,--- ---- ------ --- ------- ---------- ------- ----------<br>--- --------- --- ----------- ------- ----- ------- ---<br>--------- ---- -- --- ---- -- --------- -- ---- -------<br>-- --------- ------ and ----- ------ ---- --- --------- --<br>------ - ---- -- --- ----------- ------- ---- ----- -----<br>--- -------- - ------ ---- -- ----- ---- --- --- -----------<br>-- -------,182805.6000000015,182804.80000000075,182460.016,182461.90000000037,182476.686,182810.102,,29,and
screen,html.Screen,0_4_1_0_1_30,2021-11-12T12:46:15.602Z,,,,,,,,,,,,,,,,2,,,,,,,,,,,,,,354.69800000073155,,response,,,1,A,,,,,Space,keypress(Space),,,,silence,--- ---- ------ --- ------- ---------- ------- ----------<br>--- --------- --- ----------- ------- ----- ------- ---<br>--------- ---- -- --- ---- -- --------- -- ---- -------<br>-- --------- ------ --- white ------ ---- --- --------- --<br>------ - ---- -- --- ----------- ------- ---- ----- -----<br>--- -------- - ------ ---- -- ----- ---- --- --- -----------<br>-- -------,183165.70000000112,183164.80000000075,182793.432,182805.90000000037,182810.102,183176.847,,30,white
screen,html.Screen,0_4_1_0_1_31,2021-11-12T12:46:16.706Z,,,,,,,,,,,,,,,,2,,,,,,,,,,,,,,1091.9530000007362,,response,,,1,A,,,,,Space,keypress(Space),,,,silence,"--- ---- ------ --- ------- ---------- ------- ----------<br>--- --------- --- ----------- ------- ----- ------- ---<br>--------- ---- -- --- ---- -- --------- -- ---- -------<br>-- --------- ------ --- ----- light"" ---- --- --------- --<br>------ - ---- -- --- ----------- ------- ---- ----- -----<br>--- -------- - ------ ---- -- ----- ---- --- --- -----------<br>-- -------",184269.6000000015,184268.80000000075,183160.177,183165.90000000037,183176.847,184277.099,,31,"light"""
screen,html.Screen,0_4_1_0_1_32,2021-11-12T12:46:17.106Z,,,,,,,,,,,,,,,,2,,,,,,,,,,,,,,391.70100000075763,,response,,,1,A,,,,,Space,keypress(Space),,,,silence,--- ---- ------ --- ------- ---------- ------- ----------<br>--- --------- --- ----------- ------- ----- ------- ---<br>--------- ---- -- --- ---- -- --------- -- ---- -------<br>-- --------- ------ --- ----- ------ over --- --------- --<br>------ - ---- -- --- ----------- ------- ---- ----- -----<br>--- -------- - ------ ---- -- ----- ---- --- --- -----------<br>-- -------,184669.6000000015,184668.80000000075,184260.429,184269.90000000037,184277.099,184677.177,,32,over
screen,html.Screen,0_4_1_0_1_33,2021-11-12T12:46:17.418Z,,,,,,,,,,,,,,,,2,,,,,,,,,,,,,,303.52300000112155,,response,,,1,A,,,,,Space,keypress(Space),,,,silence,--- ---- ------ --- ------- ---------- ------- ----------<br>--- --------- --- ----------- ------- ----- ------- ---<br>--------- ---- -- --- ---- -- --------- -- ---- -------<br>-- --------- ------ --- ----- ------ ---- the --------- --<br>------ - ---- -- --- ----------- ------- ---- ----- -----<br>--- -------- - ------ ---- -- ----- ---- --- --- -----------<br>-- -------,184981.5,184980.70000000112,184660.507,184669.70000000112,184677.177,184993.948,,33,the
screen,html.Screen,0_4_1_0_1_34,2021-11-12T12:46:17.818Z,,,,,,,,,,,,,,,,2,,,,,,,,,,,,,,386.75200000111363,,response,,,1,A,,,,,Space,keypress(Space),,,,silence,--- ---- ------ --- ------- ---------- ------- ----------<br>--- --------- --- ----------- ------- ----- ------- ---<br>--------- ---- -- --- ---- -- --------- -- ---- -------<br>-- --------- ------ --- ----- ------ ---- --- sunspots. --<br>------ - ---- -- --- ----------- ------- ---- ----- -----<br>--- -------- - ------ ---- -- ----- ---- --- --- -----------<br>-- -------,185381.40000000037,185380.70000000112,184977.278,184981.80000000075,184993.948,185394.054,,34,sunspots.
screen,html.Screen,0_4_1_0_1_35,2021-11-12T12:46:18.402Z,,,,,,,,,,,,,,,,2,,,,,,,,,,,,,,570.6460000011139,,response,,,1,A,,,,,Space,keypress(Space),,,,silence,--- ---- ------ --- ------- ---------- ------- ----------<br>--- --------- --- ----------- ------- ----- ------- ---<br>--------- ---- -- --- ---- -- --------- -- ---- -------<br>-- --------- ------ --- ----- ------ ---- --- --------- He<br>------ - ---- -- --- ----------- ------- ---- ----- -----<br>--- -------- - ------ ---- -- ----- ---- --- --- -----------<br>-- -------,185965.40000000037,185964.70000000112,185377.384,185381.70000000112,185394.054,185977.355,,35,He
screen,html.Screen,0_4_1_0_1_36,2021-11-12T12:46:18.730Z,,,,,,,,,,,,,,,,2,,,,,,,,,,,,,,315.3450000011071,,response,,,1,A,,,,,Space,keypress(Space),,,,silence,--- ---- ------ --- ------- ---------- ------- ----------<br>--- --------- --- ----------- ------- ----- ------- ---<br>--------- ---- -- --- ---- -- --------- -- ---- -------<br>-- --------- ------ --- ----- ------ ---- --- --------- --<br>jotted - ---- -- --- ----------- ------- ---- ----- -----<br>--- -------- - ------ ---- -- ----- ---- --- --- -----------<br>-- -------,186293.40000000037,186292.70000000112,185960.687,185965.6000000015,185977.355,186294.249,,36,jotted
screen,html.Screen,0_4_1_0_1_37,2021-11-12T12:46:19.097Z,,,,,,,,,,,,,,,,2,,,,,,,,,,,,,,366.3510000014794,,response,,,1,A,,,,,Space,keypress(Space),,,,silence,--- ---- ------ --- ------- ---------- ------- ----------<br>--- --------- --- ----------- ------- ----- ------- ---<br>--------- ---- -- --- ---- -- --------- -- ---- -------<br>-- --------- ------ --- ----- ------ ---- --- --------- --<br>------ a ---- -- --- ----------- ------- ---- ----- -----<br>--- -------- - ------ ---- -- ----- ---- --- --- -----------<br>-- -------,186661.40000000037,186660.6000000015,186277.579,186293.6000000015,186294.249,186677.746,,37,a
screen,html.Screen,0_4_1_0_1_38,2021-11-12T12:46:19.401Z,,,,,,,,,,,,,,,,2,,,,,,,,,,,,,,286.8540000014764,,response,,,1,A,,,,,Space,keypress(Space),,,,silence,--- ---- ------ --- ------- ---------- ------- ----------<br>--- --------- --- ----------- ------- ----- ------- ---<br>--------- ---- -- --- ---- -- --------- -- ---- -------<br>-- --------- ------ --- ----- ------ ---- --- --------- --<br>------ - note -- --- ----------- ------- ---- ----- -----<br>--- -------- - ------ ---- -- ----- ---- --- --- -----------<br>-- -------,186965.40000000037,186964.6000000015,186661.075,186661.6000000015,186677.746,186977.656,,38,note
screen,html.Screen,0_4_1_0_1_39,2021-11-12T12:46:19.745Z,,,,,,,,,,,,,,,,2,,,,,,,,,,,,,,330.8440000000119,,response,,,1,A,,,,,Space,keypress(Space),,,,silence,--- ---- ------ --- ------- ---------- ------- ----------<br>--- --------- --- ----------- ------- ----- ------- ---<br>--------- ---- -- --- ---- -- --------- -- ---- -------<br>-- --------- ------ --- ----- ------ ---- --- --------- --<br>------ - ---- in --- ----------- ------- ---- ----- -----<br>--- -------- - ------ ---- -- ----- ---- --- --- -----------<br>-- -------,187309.40000000037,187308.5,186960.988,186965.70000000112,186977.656,187311.278,,39,in
screen,html.Screen,0_4_1_0_1_40,2021-11-12T12:46:20.051Z,,,,,,,,,,,,,,,,2,,,,,,,,,,,,,,301.32200000149896,,response,,,1,A,,,,,Space,keypress(Space),,,,silence,--- ---- ------ --- ------- ---------- ------- ----------<br>--- --------- --- ----------- ------- ----- ------- ---<br>--------- ---- -- --- ---- -- --------- -- ---- -------<br>-- --------- ------ --- ----- ------ ---- --- --------- --<br>------ - ---- -- his ----------- ------- ---- ----- -----<br>--- -------- - ------ ---- -- ----- ---- --- --- -----------<br>-- -------,187614.90000000037,187612.6000000015,187294.606,187309.6000000015,187311.278,187627.956,,40,his
screen,html.Screen,0_4_1_0_1_41,2021-11-12T12:46:20.505Z,,,,,,,,,,,,,,,,2,,,,,,,,,,,,,,440.44400000036694,,response,,,1,A,,,,,Space,keypress(Space),,,,silence,--- ---- ------ --- ------- ---------- ------- ----------<br>--- --------- --- ----------- ------- ----- ------- ---<br>--------- ---- -- --- ---- -- --------- -- ---- -------<br>-- --------- ------ --- ----- ------ ---- --- --------- --<br>------ - ---- -- --- painstaking ------- ---- ----- -----<br>--- -------- - ------ ---- -- ----- ---- --- --- -----------<br>-- -------,188069.20000000112,188068.40000000037,187611.286,187615.20000000112,187627.956,188077.982,,41,painstaking
screen,html.Screen,0_4_1_0_1_42,2021-11-12T12:46:21.106Z,,,,,,,,,,,,,,,,2,,,,,,,,,,,,,,590.818000000756,,response,,,1,A,,,,,Space,keypress(Space),,,,silence,--- ---- ------ --- ------- ---------- ------- ----------<br>--- --------- --- ----------- ------- ----- ------- ---<br>--------- ---- -- --- ---- -- --------- -- ---- -------<br>-- --------- ------ --- ----- ------ ---- --- --------- --<br>------ - ---- -- --- ----------- record. ---- ----- -----<br>--- -------- - ------ ---- -- ----- ---- --- --- -----------<br>-- -------,188669.5,188668.80000000075,188061.313,188069.6000000015,188077.982,188678.068,,42,record.
screen,html.Screen,0_4_1_0_1_43,2021-11-12T12:46:21.481Z,,,,,,,,,,,,,,,,2,,,,,,,,,,,,,,366.3320000003732,,response,,,1,A,,,,,Space,keypress(Space),,,,silence,--- ---- ------ --- ------- ---------- ------- ----------<br>--- --------- --- ----------- ------- ----- ------- ---<br>--------- ---- -- --- ---- -- --------- -- ---- -------<br>-- --------- ------ --- ----- ------ ---- --- --------- --<br>------ - ---- -- --- ----------- ------- That ----- -----<br>--- -------- - ------ ---- -- ----- ---- --- --- -----------<br>-- -------,189045.20000000112,189044.40000000037,188661.399,188669.80000000075,188678.068,189061.649,,43,That
screen,html.Screen,0_4_1_0_1_44,2021-11-12T12:46:21.769Z,,,,,,,,,,,,,,,,2,,,,,,,,,,,,,,270.75100000036764,,response,,,1,A,,,,,Space,keypress(Space),,,,silence,--- ---- ------ --- ------- ---------- ------- ----------<br>--- --------- --- ----------- ------- ----- ------- ---<br>--------- ---- -- --- ---- -- --------- -- ---- -------<br>-- --------- ------ --- ----- ------ ---- --- --------- --<br>------ - ---- -- --- ----------- ------- ---- night -----<br>--- -------- - ------ ---- -- ----- ---- --- --- -----------<br>-- -------,189333.20000000112,189332.40000000037,189044.978,189045.5,189061.649,189344.957,,44,night
screen,html.Screen,0_4_1_0_1_45,2021-11-12T12:46:22.513Z,,,,,,,,,,,,,,,,2,,,,,,,,,,,,,,731.3430000007502,,response,,,1,A,,,,,Space,keypress(Space),,,,silence,--- ---- ------ --- ------- ---------- ------- ----------<br>--- --------- --- ----------- ------- ----- ------- ---<br>--------- ---- -- --- ---- -- --------- -- ---- -------<br>-- --------- ------ --- ----- ------ ---- --- --------- --<br>------ - ---- -- --- ----------- ------- ---- ----- there<br>--- -------- - ------ ---- -- ----- ---- --- --- -----------<br>-- -------,190077.1000000015,190076.30000000075,189328.288,189333.40000000037,189344.957,190078.633,,45,there
screen,html.Screen,0_4_1_0_1_46,2021-11-12T12:46:22.977Z,,,,,,,,,,,,,,,,2,,,,,,,,,,,,,,461.6670000007434,,response,,,1,A,,,,,Space,keypress(Space),,,,silence,--- ---- ------ --- ------- ---------- ------- ----------<br>--- --------- --- ----------- ------- ----- ------- ---<br>--------- ---- -- --- ---- -- --------- -- ---- -------<br>-- --------- ------ --- ----- ------ ---- --- --------- --<br>------ - ---- -- --- ----------- ------- ---- ----- -----<br>was -------- - ------ ---- -- ----- ---- --- --- -----------<br>-- -------,190541.1000000015,190540.30000000075,190061.961,190077.40000000037,190078.633,190545.232,,46,was
screen,html.Screen,0_4_1_0_1_47,2021-11-12T12:46:23.393Z,,,,,,,,,,,,,,,,2,,,,,,,,,,,,,,411.068000000756,,response,,,1,A,,,,,Space,keypress(Space),,,,silence,--- ---- ------ --- ------- ---------- ------- ----------<br>--- --------- --- ----------- ------- ----- ------- ---<br>--------- ---- -- --- ---- -- --------- -- ---- -------<br>-- --------- ------ --- ----- ------ ---- --- --------- --<br>------ - ---- -- --- ----------- ------- ---- ----- -----<br>--- scarcely - ------ ---- -- ----- ---- --- --- -----------<br>-- -------,190957.1000000015,190956.30000000075,190528.563,190541.5,190545.232,190962.078,,47,scarcely
screen,html.Screen,0_4_1_0_1_48,2021-11-12T12:46:23.785Z,,,,,,,,,,,,,,,,2,,,,,,,,,,,,,,386.122000001109,,response,,,1,A,,,,,Space,keypress(Space),,,,silence,--- ---- ------ --- ------- ---------- ------- ----------<br>--- --------- --- ----------- ------- ----- ------- ---<br>--------- ---- -- --- ---- -- --------- -- ---- -------<br>-- --------- ------ --- ----- ------ ---- --- --------- --<br>------ - ---- -- --- ----------- ------- ---- ----- -----<br>--- -------- a ------ ---- -- ----- ---- --- --- -----------<br>-- -------,191349,191348.20000000112,190945.408,190957.30000000075,190962.078,191362.159,,48,a
screen,html.Screen,0_4_1_0_1_49,2021-11-12T12:46:24.265Z,,,,,,,,,,,,,,,,2,,,,,,,,,,,,,,465.9410000014759,,response,,,1,A,,,,,Space,keypress(Space),,,,silence,--- ---- ------ --- ------- ---------- ------- ----------<br>--- --------- --- ----------- ------- ----- ------- ---<br>--------- ---- -- --- ---- -- --------- -- ---- -------<br>-- --------- ------ --- ----- ------ ---- --- --------- --<br>------ - ---- -- --- ----------- ------- ---- ----- -----<br>--- -------- - square ---- -- ----- ---- --- --- -----------<br>-- -------,191829,191828.1000000015,191345.489,191349.30000000075,191362.159,191845.681,,49,square
