sender,sender_type,sender_id,timestamp,meta,,Blues,Classical,Country,Dance,Electronic,Folk,Gospel,Hip-Hop,Jazz,Latin,Musical/Film,New-age,Pop,Provo_ID,R&B,Rap,Reggae,Religious,Rock,Soul,Swing,Traditional,age,artist_name,correct,correctResponse,distraction,duration,education,ended_on,familiarity,gender,item,list,music_frequency,offensiveness,pleasantness,preference,response,response_action,snippet_file,song_name,song_rating,sound,text,time_commit,time_end,time_render,time_run,time_show,time_switch,url,word,word_ID
Instructions,html.Page,0_0,2021-12-02T11:21:44.623Z,"{""labjs_version"":""20.2.3"",""labjs_build"":{""flavor"":""production"",""commit"":""7ea907d66ca8aeef8054924ca5d82ffbe11e34e5""},""location"":""https://run.pavlovia.org/mvasilev/lab_music_d/"",""userAgent"":""Mozilla/5.0 (Windows NT 6.1; Win64; x64) AppleWebKit/537.36 (KHTML, like Gecko) Chrome/96.0.4664.45 Safari/537.36"",""platform"":""Win32"",""language"":""en-US"",""locale"":""en-US"",""timeZone"":""Europe/London"",""timezoneOffset"":0,""screen_width"":1920,""screen_height"":1080,""scroll_width"":1920,""scroll_height"":959,""window_innerWidth"":1920,""window_innerHeight"":1007,""devicePixelRatio"":1}",,,,,,,,,,,,,,,,,,,,,,,,,,,,,10931.322000000746,,form submission,,,,,,,,,,,,,,,,17817.400000000373,17816.300000000745,6851.69,6856.5,6884.978,17823.254,{},,
Headphones,html.Page,0_1,2021-12-02T11:21:47.089Z,,,,,,,,,,,,,,,,,,,,,,,,,,,,,,2459.5460000007442,,form submission,,,,,,,,,,,,,,,,20283.200000001118,20282.800000000745,17806.56,17818.200000001118,17823.254,20298.098,,,
Holding screen,html.Screen,0_2_0_0,2021-12-02T11:21:57.096Z,,,,,,,,,,,,,,,,,,,,,,,,,,,,,,10002.643999999997,,timeout,,,,,,,,,,,,,,,,30290.10000000149,30284.072,20281.428,20283.700000001118,20298.098,30300.742,,,
screen,html.Screen,0_2_0_1_0,2021-12-02T11:22:01.268Z,,,,,,,,,,,,,,,,53,,,,,,,,,,,,,,4156.758000000002,,response,,,99,,,,,,Space,keypress(Space),,,,,When -- ----- -- ------ - ------- --- ----------<br>------------- ------ ------ ---- ---- ------- ----- -- ----<br>-------- ------- -- ---------- --- - --- ----- ----- ----<br>---- --- --- ----- --- ---- ---- ------- ----- ---- -------<br>--- --- -- ----- -- --- ---- -- --- ---- -- ------ ------<br>--- ----- -- ----,34462,34457.5,30284.072,30290.60000000149,30300.742,34468.36,,0,When
screen,html.Screen,0_2_0_1_1,2021-12-02T11:22:02.040Z,,,,,,,,,,,,,,,,53,,,,,,,,,,,,,,764.6399999999994,,response,,,99,,,,,,Space,keypress(Space),,,,,---- it ----- -- ------ - ------- --- ----------<br>------------- ------ ------ ---- ---- ------- ----- -- ----<br>-------- ------- -- ---------- --- - --- ----- ----- ----<br>---- --- --- ----- --- ---- ---- ------- ----- ---- -------<br>--- --- -- ----- -- --- ---- -- --- ---- -- ------ ------<br>--- ----- -- ----,35233.90000000037,35233,34451.69,34462.40000000037,34468.36,35235.532,,1,it
screen,html.Screen,0_2_0_1_2,2021-12-02T11:22:02.448Z,,,,,,,,,,,,,,,,53,,,,,,,,,,,,,,405.46800000000076,,response,,,99,,,,,,Space,keypress(Space),,,,,---- -- comes -- ------ - ------- --- ----------<br>------------- ------ ------ ---- ---- ------- ----- -- ----<br>-------- ------- -- ---------- --- - --- ----- ----- ----<br>---- --- --- ----- --- ---- ---- ------- ----- ---- -------<br>--- --- -- ----- -- --- ---- -- --- ---- -- ------ ------<br>--- ----- -- ----,35641.90000000037,35641,35218.861,35234.10000000149,35235.532,35652.231,,2,comes
screen,html.Screen,0_2_0_1_3,2021-12-02T11:22:02.864Z,,,,,,,,,,,,,,,,53,,,,,,,,,,,,,,404.76900000000023,,response,,,99,,,,,,Space,keypress(Space),,,,,---- -- ----- to ------ - ------- --- ----------<br>------------- ------ ------ ---- ---- ------- ----- -- ----<br>-------- ------- -- ---------- --- - --- ----- ----- ----<br>---- --- --- ----- --- ---- ---- ------- ----- ---- -------<br>--- --- -- ----- -- --- ---- -- --- ---- -- ------ ------<br>--- ----- -- ----,36058,36057,35635.561,35642.10000000149,35652.231,36069.169,,3,to
screen,html.Screen,0_2_0_1_4,2021-12-02T11:22:03.280Z,,,,,,,,,,,,,,,,53,,,,,,,,,,,,,,403.73100000037084,,response,,,99,,,,,,Space,keypress(Space),,,,,---- -- ----- -- having - ------- --- ----------<br>------------- ------ ------ ---- ---- ------- ----- -- ----<br>-------- ------- -- ---------- --- - --- ----- ----- ----<br>---- --- --- ----- --- ---- ---- ------- ----- ---- -------<br>--- --- -- ----- -- --- ---- -- --- ---- -- ------ ------<br>--- ----- -- ----,36474.10000000149,36472.90000000037,36052.497,36058.60000000149,36069.169,36485.906,,4,having
screen,html.Screen,0_2_0_1_5,2021-12-02T11:22:03.704Z,,,,,,,,,,,,,,,,53,,,,,,,,,,,,,,410.99400000036985,,response,,,99,,,,,,Space,keypress(Space),,,,,---- -- ----- -- ------ a ------- --- ----------<br>------------- ------ ------ ---- ---- ------- ----- -- ----<br>-------- ------- -- ---------- --- - --- ----- ----- ----<br>---- --- --- ----- --- ---- ---- ------- ----- ---- -------<br>--- --- -- ----- -- --- ---- -- --- ---- -- ------ ------<br>--- ----- -- ----,36897.800000000745,36896.90000000037,36469.235,36474.300000000745,36485.906,36902.69,,5,a
screen,html.Screen,0_2_0_1_6,2021-12-02T11:22:04.304Z,,,,,,,,,,,,,,,,53,,,,,,,,,,,,,,594.1100000007427,,response,,,99,,,,,,Space,keypress(Space),,,,,---- -- ----- -- ------ - lasting --- ----------<br>------------- ------ ------ ---- ---- ------- ----- -- ----<br>-------- ------- -- ---------- --- - --- ----- ----- ----<br>---- --- --- ----- --- ---- ---- ------- ----- ---- -------<br>--- --- -- ----- -- --- ---- -- --- ---- -- ------ ------<br>--- ----- -- ----,37497.70000000112,37496.800000000745,36886.019,36898.40000000037,36902.69,37502.684,,6,lasting
screen,html.Screen,0_2_0_1_7,2021-12-02T11:22:04.976Z,,,,,,,,,,,,,,,,53,,,,,,,,,,,,,,666.2160000003714,,response,,,99,,,,,,Space,keypress(Space),,,,,---- -- ----- -- ------ - ------- and ----------<br>------------- ------ ------ ---- ---- ------- ----- -- ----<br>-------- ------- -- ---------- --- - --- ----- ----- ----<br>---- --- --- ----- --- ---- ---- ------- ----- ---- -------<br>--- --- -- ----- -- --- ---- -- --- ---- -- ------ ------<br>--- ----- -- ----,38169.800000000745,38168.90000000037,37486.015,37498.10000000149,37502.684,38186.421,,7,and
screen,html.Screen,0_2_0_1_8,2021-12-02T11:22:05.976Z,,,,,,,,,,,,,,,,53,,,,,,,,,,,,,,982.379000000743,,response,,,99,,,,,,Space,keypress(Space),,,,,---- -- ----- -- ------ - ------- --- fulfilling<br>------------- ------ ------ ---- ---- ------- ----- -- ----<br>-------- ------- -- ---------- --- - --- ----- ----- ----<br>---- --- --- ----- --- ---- ---- ------- ----- ---- -------<br>--- --- -- ----- -- --- ---- -- --- ---- -- ------ ------<br>--- ----- -- ----,39169.800000000745,39168.800000000745,38169.749,38170.10000000149,38186.421,39186.55,,8,fulfilling
screen,html.Screen,0_2_0_1_9,2021-12-02T11:22:06.647Z,,,,,,,,,,,,,,,,53,,,,,,,,,,,,,,654.2500000007421,,response,,,99,,,,,,Space,keypress(Space),,,,,"---- -- ----- -- ------ - ------- --- ----------<br>relationship, ------ ------ ---- ---- ------- ----- -- ----<br>-------- ------- -- ---------- --- - --- ----- ----- ----<br>---- --- --- ----- --- ---- ---- ------- ----- ---- -------<br>--- --- -- ----- -- --- ---- -- --- ---- -- ------ ------<br>--- ----- -- ----",39841.70000000112,39840.800000000745,39169.88,39170.300000000745,39186.55,39853.41,,9,"relationship,"
screen,html.Screen,0_2_0_1_10,2021-12-02T11:22:07.199Z,,,,,,,,,,,,,,,,53,,,,,,,,,,,,,,539.3900000007416,,response,,,99,,,,,,Space,keypress(Space),,,,,---- -- ----- -- ------ - ------- --- ----------<br>------------- common ------ ---- ---- ------- ----- -- ----<br>-------- ------- -- ---------- --- - --- ----- ----- ----<br>---- --- --- ----- --- ---- ---- ------- ----- ---- -------<br>--- --- -- ----- -- --- ---- -- --- ---- -- ------ ------<br>--- ----- -- ----,40393.70000000112,40392.800000000745,39836.74,39842,39853.41,40403.622,,10,common
screen,html.Screen,0_2_0_1_11,2021-12-02T11:22:07.727Z,,,,,,,,,,,,,,,,53,,,,,,,,,,,,,,517.0780000011146,,response,,,99,,,,,,Space,keypress(Space),,,,,---- -- ----- -- ------ - ------- --- ----------<br>------------- ------ wisdom ---- ---- ------- ----- -- ----<br>-------- ------- -- ---------- --- - --- ----- ----- ----<br>---- --- --- ----- --- ---- ---- ------- ----- ---- -------<br>--- --- -- ----- -- --- ---- -- --- ---- -- ------ ------<br>--- ----- -- ----,40921.70000000112,40920.70000000112,40386.951,40394,40403.622,40937.037,,11,wisdom
screen,html.Screen,0_2_0_1_12,2021-12-02T11:22:08.263Z,,,,,,,,,,,,,,,,53,,,,,,,,,,,,,,519.663000001121,,response,,,99,,,,,,Space,keypress(Space),,,,,---- -- ----- -- ------ - ------- --- ----------<br>------------- ------ ------ says ---- ------- ----- -- ----<br>-------- ------- -- ---------- --- - --- ----- ----- ----<br>---- --- --- ----- --- ---- ---- ------- ----- ---- -------<br>--- --- -- ----- -- --- ---- -- --- ---- -- ------ ------<br>--- ----- -- ----,41457.60000000149,41456.70000000112,40920.367,40921.90000000037,40937.037,41470.523,,12,says
screen,html.Screen,0_2_0_1_13,2021-12-02T11:22:09.414Z,,,,,,,,,,,,,,,,53,,,,,,,,,,,,,,1137.777000000744,,response,,,99,,,,,,Space,keypress(Space),,,,,---- -- ----- -- ------ - ------- --- ----------<br>------------- ------ ------ ---- that ------- ----- -- ----<br>-------- ------- -- ---------- --- - --- ----- ----- ----<br>---- --- --- ----- --- ---- ---- ------- ----- ---- -------<br>--- --- -- ----- -- --- ---- -- --- ---- -- ------ ------<br>--- ----- -- ----,42608.70000000112,42608.300000000745,41453.853,41457.90000000037,41470.523,42620.768,,13,that
screen,html.Screen,0_2_0_1_14,2021-12-02T11:22:09.919Z,,,,,,,,,,,,,,,,53,,,,,,,,,,,,,,491.9320000011212,,response,,,99,,,,,,Space,keypress(Space),,,,,---- -- ----- -- ------ - ------- --- ----------<br>------------- ------ ------ ---- ---- feeling ----- -- ----<br>-------- ------- -- ---------- --- - --- ----- ----- ----<br>---- --- --- ----- --- ---- ---- ------- ----- ---- -------<br>--- --- -- ----- -- --- ---- -- --- ---- -- ------ ------<br>--- ----- -- ----,43113.40000000037,43112.70000000112,42604.098,42608.800000000745,42620.768,43121.005,,14,feeling
screen,html.Screen,0_2_0_1_15,2021-12-02T11:22:10.527Z,,,,,,,,,,,,,,,,53,,,,,,,,,,,,,,599.5950000014927,,response,,,99,,,,,,Space,keypress(Space),,,,,---- -- ----- -- ------ - ------- --- ----------<br>------------- ------ ------ ---- ---- ------- close -- ----<br>-------- ------- -- ---------- --- - --- ----- ----- ----<br>---- --- --- ----- --- ---- ---- ------- ----- ---- -------<br>--- --- -- ----- -- --- ---- -- --- ---- -- ------ ------<br>--- ----- -- ----,43721.40000000037,43720.60000000149,43104.334,43113.70000000112,43121.005,43737.763,,15,close
screen,html.Screen,0_2_0_1_16,2021-12-02T11:22:10.951Z,,,,,,,,,,,,,,,,53,,,,,,,,,,,,,,406.8370000014911,,response,,,99,,,,,,Space,keypress(Space),,,,,---- -- ----- -- ------ - ------- --- ----------<br>------------- ------ ------ ---- ---- ------- ----- to ----<br>-------- ------- -- ---------- --- - --- ----- ----- ----<br>---- --- --- ----- --- ---- ---- ------- ----- ---- -------<br>--- --- -- ----- -- --- ---- -- --- ---- -- ------ ------<br>--- ----- -- ----,44145.40000000037,44144.60000000149,43721.093,43721.60000000149,43737.763,44154.603,,16,to
screen,html.Screen,0_2_0_1_17,2021-12-02T11:22:11.431Z,,,,,,,,,,,,,,,,53,,,,,,,,,,,,,,470.29700000036974,,response,,,99,,,,,,Space,keypress(Space),,,,,---- -- ----- -- ------ - ------- --- ----------<br>------------- ------ ------ ---- ---- ------- ----- -- your<br>-------- ------- -- ---------- --- - --- ----- ----- ----<br>---- --- --- ----- --- ---- ---- ------- ----- ---- -------<br>--- --- -- ----- -- --- ---- -- --- ---- -- ------ ------<br>--- ----- -- ----,44625.60000000149,44624.90000000037,44137.932,44145.60000000149,44154.603,44638.071,,17,your
screen,html.Screen,0_2_0_1_18,2021-12-02T11:22:12.159Z,,,,,,,,,,,,,,,,53,,,,,,,,,,,,,,714.4289999999964,,response,,,99,,,,,,Space,keypress(Space),,,,,---- -- ----- -- ------ - ------- --- ----------<br>------------- ------ ------ ---- ---- ------- ----- -- ----<br>romantic ------- -- ---------- --- - --- ----- ----- ----<br>---- --- --- ----- --- ---- ---- ------- ----- ---- -------<br>--- --- -- ----- -- --- ---- -- --- ---- -- ------ ------<br>--- ----- -- ----,45353.20000000112,45352.5,44621.4,44625.90000000037,44638.071,45354.874,,18,romantic
screen,html.Screen,0_2_0_1_19,2021-12-02T11:22:12.559Z,,,,,,,,,,,,,,,,53,,,,,,,,,,,,,,397.62599999999657,,response,,,99,,,,,,Space,keypress(Space),,,,,---- -- ----- -- ------ - ------- --- ----------<br>------------- ------ ------ ---- ---- ------- ----- -- ----<br>-------- partner -- ---------- --- - --- ----- ----- ----<br>---- --- --- ----- --- ---- ---- ------- ----- ---- -------<br>--- --- -- ----- -- --- ---- -- --- ---- -- ------ ------<br>--- ----- -- ----,45753.300000000745,45752.5,45338.204,45353.5,45354.874,45754.894,,19,partner
screen,html.Screen,0_2_0_1_20,2021-12-02T11:22:12.983Z,,,,,,,,,,,,,,,,53,,,,,,,,,,,,,,421.5060000003723,,response,,,99,,,,,,Space,keypress(Space),,,,,---- -- ----- -- ------ - ------- --- ----------<br>------------- ------ ------ ---- ---- ------- ----- -- ----<br>-------- ------- is ---------- --- - --- ----- ----- ----<br>---- --- --- ----- --- ---- ---- ------- ----- ---- -------<br>--- --- -- ----- -- --- ---- -- --- ---- -- ------ ------<br>--- ----- -- ----,46177.10000000149,46176.40000000037,45738.225,45753.5,45754.894,46188.487,,20,is
screen,html.Screen,0_2_0_1_21,2021-12-02T11:22:13.407Z,,,,,,,,,,,,,,,,53,,,,,,,,,,,,,,412.012999999999,,response,,,99,,,,,,Space,keypress(Space),,,,,---- -- ----- -- ------ - ------- --- ----------<br>------------- ------ ------ ---- ---- ------- ----- -- ----<br>-------- ------- -- paramount. --- - --- ----- ----- ----<br>---- --- --- ----- --- ---- ---- ------- ----- ---- -------<br>--- --- -- ----- -- --- ---- -- --- ---- -- ------ ------<br>--- ----- -- ----,46601.20000000112,46600.5,46171.816,46177.5,46188.487,46605.224,,21,paramount.
screen,html.Screen,0_2_0_1_22,2021-12-02T11:22:14.063Z,,,,,,,,,,,,,,,,53,,,,,,,,,,,,,,651.0760000007431,,response,,,99,,,,,,Space,keypress(Space),,,,,---- -- ----- -- ------ - ------- --- ----------<br>------------- ------ ------ ---- ---- ------- ----- -- ----<br>-------- ------- -- ---------- But - --- ----- ----- ----<br>---- --- --- ----- --- ---- ---- ------- ----- ---- -------<br>--- --- -- ----- -- --- ---- -- --- ---- -- ------ ------<br>--- ----- -- ----,47257.20000000112,47256.300000000745,46588.554,46601.70000000112,46605.224,47272.054,,22,But
screen,html.Screen,0_2_0_1_23,2021-12-02T11:22:14.471Z,,,,,,,,,,,,,,,,53,,,,,,,,,,,,,,392.3460000003761,,response,,,99,,,,,,Space,keypress(Space),,,,,---- -- ----- -- ------ - ------- --- ----------<br>------------- ------ ------ ---- ---- ------- ----- -- ----<br>-------- ------- -- ---------- --- a --- ----- ----- ----<br>---- --- --- ----- --- ---- ---- ------- ----- ---- -------<br>--- --- -- ----- -- --- ---- -- --- ---- -- ------ ------<br>--- ----- -- ----,47665.20000000112,47664.40000000037,47255.384,47257.300000000745,47272.054,47672.219,,23,a
screen,html.Screen,0_2_0_1_24,2021-12-02T11:22:14.815Z,,,,,,,,,,,,,,,,53,,,,,,,,,,,,,,336.1810000003752,,response,,,99,,,,,,Space,keypress(Space),,,,,---- -- ----- -- ------ - ------- --- ----------<br>------------- ------ ------ ---- ---- ------- ----- -- ----<br>-------- ------- -- ---------- --- - new ----- ----- ----<br>---- --- --- ----- --- ---- ---- ------- ----- ---- -------<br>--- --- -- ----- -- --- ---- -- --- ---- -- ------ ------<br>--- ----- -- ----,48009.20000000112,48008.40000000037,47655.548,47665.5,47672.219,48022.23,,24,new
screen,html.Screen,0_2_0_1_25,2021-12-02T11:22:15.135Z,,,,,,,,,,,,,,,,53,,,,,,,,,,,,,,306.07000000074186,,response,,,99,,,,,,Space,keypress(Space),,,,,---- -- ----- -- ------ - ------- --- ----------<br>------------- ------ ------ ---- ---- ------- ----- -- ----<br>-------- ------- -- ---------- --- - --- study ----- ----<br>---- --- --- ----- --- ---- ---- ------- ----- ---- -------<br>--- --- -- ----- -- --- ---- -- --- ---- -- ------ ------<br>--- ----- -- ----,48329.10000000149,48328.300000000745,48005.56,48009.40000000037,48022.23,48339.092,,25,study
screen,html.Screen,0_2_0_1_26,2021-12-02T11:22:15.654Z,,,,,,,,,,,,,,,,53,,,,,,,,,,,,,,508.9080000000031,,response,,,99,,,,,,Space,keypress(Space),,,,,---- -- ----- -- ------ - ------- --- ----------<br>------------- ------ ------ ---- ---- ------- ----- -- ----<br>-------- ------- -- ---------- --- - --- ----- finds ----<br>---- --- --- ----- --- ---- ---- ------- ----- ---- -------<br>--- --- -- ----- -- --- ---- -- --- ---- -- ------ ------<br>--- ----- -- ----,48848.40000000037,48848,48322.42,48329.300000000745,48339.092,48855.801,,26,finds
screen,html.Screen,0_2_0_1_27,2021-12-02T11:22:15.990Z,,,,,,,,,,,,,,,,53,,,,,,,,,,,,,,328.09900000037305,,response,,,99,,,,,,Space,keypress(Space),,,,,---- -- ----- -- ------ - ------- --- ----------<br>------------- ------ ------ ---- ---- ------- ----- -- ----<br>-------- ------- -- ---------- --- - --- ----- ----- that<br>---- --- --- ----- --- ---- ---- ------- ----- ---- -------<br>--- --- -- ----- -- --- ---- -- --- ---- -- ------ ------<br>--- ----- -- ----,49184.40000000037,49183.90000000037,48839.131,48848.40000000037,48855.801,49189.153,,27,that
screen,html.Screen,0_2_0_1_28,2021-12-02T11:22:16.527Z,,,,,,,,,,,,,,,,53,,,,,,,,,,,,,,531.1470000007466,,response,,,99,,,,,,Space,keypress(Space),,,,,---- -- ----- -- ------ - ------- --- ----------<br>------------- ------ ------ ---- ---- ------- ----- -- ----<br>-------- ------- -- ---------- --- - --- ----- ----- ----<br>it's --- --- ----- --- ---- ---- ------- ----- ---- -------<br>--- --- -- ----- -- --- ---- -- --- ---- -- ------ ------<br>--- ----- -- ----,49721.10000000149,49720.300000000745,49172.484,49184.40000000037,49189.153,49722.589,,28,it's
screen,html.Screen,0_2_0_1_29,2021-12-02T11:22:16.951Z,,,,,,,,,,,,,,,,53,,,,,,,,,,,,,,421.7110000007451,,response,,,99,,,,,,Space,keypress(Space),,,,,---- -- ----- -- ------ - ------- --- ----------<br>------------- ------ ------ ---- ---- ------- ----- -- ----<br>-------- ------- -- ---------- --- - --- ----- ----- ----<br>---- not --- ----- --- ---- ---- ------- ----- ---- -------<br>--- --- -- ----- -- --- ---- -- --- ---- -- ------ ------<br>--- ----- -- ----,50145.10000000149,50144.300000000745,49705.92,49721.40000000037,49722.589,50156.101,,29,not
screen,html.Screen,0_2_0_1_30,2021-12-02T11:22:17.287Z,,,,,,,,,,,,,,,,53,,,,,,,,,,,,,,324.19900000074267,,response,,,99,,,,,,Space,keypress(Space),,,,,---- -- ----- -- ------ - ------- --- ----------<br>------------- ------ ------ ---- ---- ------- ----- -- ----<br>-------- ------- -- ---------- --- - --- ----- ----- ----<br>---- --- how ----- --- ---- ---- ------- ----- ---- -------<br>--- --- -- ----- -- --- ---- -- --- ---- -- ------ ------<br>--- ----- -- ----,50481.10000000149,50480.300000000745,50139.431,50145.300000000745,50156.101,50489.704,,30,how
screen,html.Screen,0_2_0_1_31,2021-12-02T11:22:17.663Z,,,,,,,,,,,,,,,,53,,,,,,,,,,,,,,366.59600000074715,,response,,,99,,,,,,Space,keypress(Space),,,,,---- -- ----- -- ------ - ------- --- ----------<br>------------- ------ ------ ---- ---- ------- ----- -- ----<br>-------- ------- -- ---------- --- - --- ----- ----- ----<br>---- --- --- close --- ---- ---- ------- ----- ---- -------<br>--- --- -- ----- -- --- ---- -- --- ---- -- ------ ------<br>--- ----- -- ----,50857.20000000112,50856.300000000745,50473.031,50481.40000000037,50489.704,50873.03,,31,close
screen,html.Screen,0_2_0_1_32,2021-12-02T11:22:17.967Z,,,,,,,,,,,,,,,,53,,,,,,,,,,,,,,287.2700000007462,,response,,,99,,,,,,Space,keypress(Space),,,,,---- -- ----- -- ------ - ------- --- ----------<br>------------- ------ ------ ---- ---- ------- ----- -- ----<br>-------- ------- -- ---------- --- - --- ----- ----- ----<br>---- --- --- ----- you ---- ---- ------- ----- ---- -------<br>--- --- -- ----- -- --- ---- -- --- ---- -- ------ ------<br>--- ----- -- ----,51161,51160.300000000745,50856.36,50857.5,50873.03,51173.078,,32,you
screen,html.Screen,0_2_0_1_33,2021-12-02T11:22:18.727Z,,,,,,,,,,,,,,,,53,,,,,,,,,,,,,,747.1220000011162,,response,,,99,,,,,,Space,keypress(Space),,,,,---- -- ----- -- ------ - ------- --- ----------<br>------------- ------ ------ ---- ---- ------- ----- -- ----<br>-------- ------- -- ---------- --- - --- ----- ----- ----<br>---- --- --- ----- --- feel ---- ------- ----- ---- -------<br>--- --- -- ----- -- --- ---- -- --- ---- -- ------ ------<br>--- ----- -- ----,51921,51920.20000000112,51156.408,51161.20000000112,51173.078,51923.347,,33,feel
screen,html.Screen,0_2_0_1_34,2021-12-02T11:22:19.143Z,,,,,,,,,,,,,,,,53,,,,,,,,,,,,,,412.853000001116,,response,,,99,,,,,,Space,keypress(Space),,,,,---- -- ----- -- ------ - ------- --- ----------<br>------------- ------ ------ ---- ---- ------- ----- -- ----<br>-------- ------- -- ---------- --- - --- ----- ----- ----<br>---- --- --- ----- --- ---- that ------- ----- ---- -------<br>--- --- -- ----- -- --- ---- -- --- ---- -- ------ ------<br>--- ----- -- ----,52337,52336.20000000112,51906.676,51921.20000000112,51923.347,52340.127,,34,that
screen,html.Screen,0_2_0_1_35,2021-12-02T11:22:19.615Z,,,,,,,,,,,,,,,,53,,,,,,,,,,,,,,467.9730000014897,,response,,,99,,,,,,Space,keypress(Space),,,,,---- -- ----- -- ------ - ------- --- ----------<br>------------- ------ ------ ---- ---- ------- ----- -- ----<br>-------- ------- -- ---------- --- - --- ----- ----- ----<br>---- --- --- ----- --- ---- ---- matters ----- ---- -------<br>--- --- -- ----- -- --- ---- -- --- ---- -- ------ ------<br>--- ----- -- ----,52808.90000000037,52808.10000000149,52323.456,52337.20000000112,52340.127,52823.548,,35,matters
screen,html.Screen,0_2_0_1_36,2021-12-02T11:22:20.039Z,,,,,,,,,,,,,,,,53,,,,,,,,,,,,,,408.6520000011151,,response,,,99,,,,,,Space,keypress(Space),,,,,"---- -- ----- -- ------ - ------- --- ----------<br>------------- ------ ------ ---- ---- ------- ----- -- ----<br>-------- ------- -- ---------- --- - --- ----- ----- ----<br>---- --- --- ----- --- ---- ---- ------- most, ---- -------<br>--- --- -- ----- -- --- ---- -- --- ---- -- ------ ------<br>--- ----- -- ----",53233.20000000112,53232.20000000112,52806.878,52809.20000000112,52823.548,53240.329,,36,"most,"
screen,html.Screen,0_2_0_1_37,2021-12-02T11:22:20.535Z,,,,,,,,,,,,,,,,53,,,,,,,,,,,,,,487.8710000011197,,response,,,99,,,,,,Space,keypress(Space),,,,,---- -- ----- -- ------ - ------- --- ----------<br>------------- ------ ------ ---- ---- ------- ----- -- ----<br>-------- ------- -- ---------- --- - --- ----- ----- ----<br>---- --- --- ----- --- ---- ---- ------- ----- it's -------<br>--- --- -- ----- -- --- ---- -- --- ---- -- ------ ------<br>--- ----- -- ----,53728.90000000037,53728.20000000112,53223.659,53233.40000000037,53240.329,53740.431,,37,it's
screen,html.Screen,0_2_0_1_38,2021-12-02T11:22:21.014Z,,,,,,,,,,,,,,,,53,,,,,,,,,,,,,,467.56900000000314,,response,,,99,,,,,,Space,keypress(Space),,,,,---- -- ----- -- ------ - ------- --- ----------<br>------------- ------ ------ ---- ---- ------- ----- -- ----<br>-------- ------- -- ---------- --- - --- ----- ----- ----<br>---- --- --- ----- --- ---- ---- ------- ----- ---- whether<br>--- --- -- ----- -- --- ---- -- --- ---- -- ------ ------<br>--- ----- -- ----,54208.800000000745,54208,53723.761,53729.10000000149,53740.431,54223.966,,38,whether
screen,html.Screen,0_2_0_1_39,2021-12-02T11:22:21.503Z,,,,,,,,,,,,,,,,53,,,,,,,,,,,,,,472.53399999999965,,response,,,99,,,,,,Space,keypress(Space),,,,,---- -- ----- -- ------ - ------- --- ----------<br>------------- ------ ------ ---- ---- ------- ----- -- ----<br>-------- ------- -- ---------- --- - --- ----- ----- ----<br>---- --- --- ----- --- ---- ---- ------- ----- ---- -------<br>you --- -- ----- -- --- ---- -- --- ---- -- ------ ------<br>--- ----- -- ----,54697.20000000112,54696.5,54207.295,54209,54223.966,54707.251,,39,you
screen,html.Screen,0_2_0_1_40,2021-12-02T11:22:21.887Z,,,,,,,,,,,,,,,,53,,,,,,,,,,,,,,372.74900000000343,,response,,,99,,,,,,Space,keypress(Space),,,,,---- -- ----- -- ------ - ------- --- ----------<br>------------- ------ ------ ---- ---- ------- ----- -- ----<br>-------- ------- -- ---------- --- - --- ----- ----- ----<br>---- --- --- ----- --- ---- ---- ------- ----- ---- -------<br>--- are -- ----- -- --- ---- -- --- ---- -- ------ ------<br>--- ----- -- ----,55080.800000000745,55080,54690.582,54697.40000000037,54707.251,55090.915,,40,are
screen,html.Screen,0_2_0_1_41,2021-12-02T11:22:22.303Z,,,,,,,,,,,,,,,,53,,,,,,,,,,,,,,405.0849999999991,,response,,,99,,,,,,Space,keypress(Space),,,,,---- -- ----- -- ------ - ------- --- ----------<br>------------- ------ ------ ---- ---- ------- ----- -- ----<br>-------- ------- -- ---------- --- - --- ----- ----- ----<br>---- --- --- ----- --- ---- ---- ------- ----- ---- -------<br>--- --- as ----- -- --- ---- -- --- ---- -- ------ ------<br>--- ----- -- ----,55496.800000000745,55496,55074.243,55081,55090.915,55507.579,,41,as
screen,html.Screen,0_2_0_1_42,2021-12-02T11:22:22.630Z,,,,,,,,,,,,,,,,53,,,,,,,,,,,,,,316.5210000014922,,response,,,99,,,,,,Space,keypress(Space),,,,,---- -- ----- -- ------ - ------- --- ----------<br>------------- ------ ------ ---- ---- ------- ----- -- ----<br>-------- ------- -- ---------- --- - --- ----- ----- ----<br>---- --- --- ----- --- ---- ---- ------- ----- ---- -------<br>--- --- -- close -- --- ---- -- --- ---- -- ------ ------<br>--- ----- -- ----,55824.70000000112,55824.10000000149,55490.909,55497,55507.579,55841.051,,42,close
screen,html.Screen,0_2_0_1_43,2021-12-02T11:22:23.167Z,,,,,,,,,,,,,,,,53,,,,,,,,,,,,,,519.0490000014906,,response,,,99,,,,,,Space,keypress(Space),,,,,---- -- ----- -- ------ - ------- --- ----------<br>------------- ------ ------ ---- ---- ------- ----- -- ----<br>-------- ------- -- ---------- --- - --- ----- ----- ----<br>---- --- --- ----- --- ---- ---- ------- ----- ---- -------<br>--- --- -- ----- as --- ---- -- --- ---- -- ------ ------<br>--- ----- -- ----,56360.800000000745,56360.10000000149,55824.38,55825,55841.051,56374.484,,43,as
screen,html.Screen,0_2_0_1_44,2021-12-02T11:22:23.566Z,,,,,,,,,,,,,,,,53,,,,,,,,,,,,,,385.4160000003758,,response,,,99,,,,,,Space,keypress(Space),,,,,---- -- ----- -- ------ - ------- --- ----------<br>------------- ------ ------ ---- ---- ------- ----- -- ----<br>-------- ------- -- ---------- --- - --- ----- ----- ----<br>---- --- --- ----- --- ---- ---- ------- ----- ---- -------<br>--- --- -- ----- -- you ---- -- --- ---- -- ------ ------<br>--- ----- -- ----,56760.70000000112,56759.90000000037,56357.814,56361,56374.484,56774.57,,44,you
screen,html.Screen,0_2_0_1_45,2021-12-02T11:22:23.934Z,,,,,,,,,,,,,,,,53,,,,,,,,,,,,,,353.4300000000003,,response,,,99,,,,,,Space,keypress(Space),,,,,---- -- ----- -- ------ - ------- --- ----------<br>------------- ------ ------ ---- ---- ------- ----- -- ----<br>-------- ------- -- ---------- --- - --- ----- ----- ----<br>---- --- --- ----- --- ---- ---- ------- ----- ---- -------<br>--- --- -- ----- -- --- want -- --- ---- -- ------ ------<br>--- ----- -- ----,57128.70000000112,57128,56757.9,56760.90000000037,56774.57,57141.395,,45,want
screen,html.Screen,0_2_0_1_46,2021-12-02T11:22:24.302Z,,,,,,,,,,,,,,,,53,,,,,,,,,,,,,,354.50500000037573,,response,,,99,,,,,,Space,keypress(Space),,,,,---- -- ----- -- ------ - ------- --- ----------<br>------------- ------ ------ ---- ---- ------- ----- -- ----<br>-------- ------- -- ---------- --- - --- ----- ----- ----<br>---- --- --- ----- --- ---- ---- ------- ----- ---- -------<br>--- --- -- ----- -- --- ---- to --- ---- -- ------ ------<br>--- ----- -- ----,57496.70000000112,57495.90000000037,57124.724,57129,57141.395,57508.116,,46,to
screen,html.Screen,0_2_0_1_47,2021-12-02T11:22:24.678Z,,,,,,,,,,,,,,,,53,,,,,,,,,,,,,,363.7840000003707,,response,,,99,,,,,,Space,keypress(Space),,,,,"---- -- ----- -- ------ - ------- --- ----------<br>------------- ------ ------ ---- ---- ------- ----- -- ----<br>-------- ------- -- ---------- --- - --- ----- ----- ----<br>---- --- --- ----- --- ---- ---- ------- ----- ---- -------<br>--- --- -- ----- -- --- ---- -- be, ---- -- ------ ------<br>--- ----- -- ----",57872.70000000112,57871.90000000037,57491.446,57496.90000000037,57508.116,57874.885,,47,"be,"
screen,html.Screen,0_2_0_1_48,2021-12-02T11:22:25.142Z,,,,,,,,,,,,,,,,53,,,,,,,,,,,,,,461.0150000003705,,response,,,99,,,,,,Space,keypress(Space),,,,,---- -- ----- -- ------ - ------- --- ----------<br>------------- ------ ------ ---- ---- ------- ----- -- ----<br>-------- ------- -- ---------- --- - --- ----- ----- ----<br>---- --- --- ----- --- ---- ---- ------- ----- ---- -------<br>--- --- -- ----- -- --- ---- -- --- even -- ------ ------<br>--- ----- -- ----,58336.70000000112,58335.90000000037,57858.215,57872.90000000037,57874.885,58341.67,,48,even
screen,html.Screen,0_2_0_1_49,2021-12-02T11:22:25.422Z,,,,,,,,,,,,,,,,53,,,,,,,,,,,,,,274.2300000003743,,response,,,99,,,,,,Space,keypress(Space),,,,,---- -- ----- -- ------ - ------- --- ----------<br>------------- ------ ------ ---- ---- ------- ----- -- ----<br>-------- ------- -- ---------- --- - --- ----- ----- ----<br>---- --- --- ----- --- ---- ---- ------- ----- ---- -------<br>--- --- -- ----- -- --- ---- -- --- ---- if ------ ------<br>--- ----- -- ----,58616.70000000112,58615.90000000037,58325,58337,58341.67,58625.09,,49,if
screen,html.Screen,0_2_0_1_50,2021-12-02T11:22:25.870Z,,,,,,,,,,,,,,,,53,,,,,,,,,,,,,,438.810000000376,,response,,,99,,,,,,Space,keypress(Space),,,,,---- -- ----- -- ------ - ------- --- ----------<br>------------- ------ ------ ---- ---- ------- ----- -- ----<br>-------- ------- -- ---------- --- - --- ----- ----- ----<br>---- --- --- ----- --- ---- ---- ------- ----- ---- -------<br>--- --- -- ----- -- --- ---- -- --- ---- -- that's ------<br>--- ----- -- ----,59064.60000000149,59063.90000000037,58608.42,58616.90000000037,58625.09,59075.2,,50,that's
screen,html.Screen,0_2_0_1_51,2021-12-02T11:22:26.382Z,,,,,,,,,,,,,,,,53,,,,,,,,,,,,,,500.70000000037544,,response,,,99,,,,,,Space,keypress(Space),,,,,---- -- ----- -- ------ - ------- --- ----------<br>------------- ------ ------ ---- ---- ------- ----- -- ----<br>-------- ------- -- ---------- --- - --- ----- ----- ----<br>---- --- --- ----- --- ---- ---- ------- ----- ---- -------<br>--- --- -- ----- -- --- ---- -- --- ---- -- ------ really<br>--- ----- -- ----,59576.60000000149,59575.90000000037,59058.53,59064.90000000037,59075.2,59591.998,,51,really
screen,html.Screen,0_2_0_1_52,2021-12-02T11:22:26.906Z,,,,,,,,,,,,,,,,53,,,,,,,,,,,,,,503.90200000037294,,response,,,99,,,,,,Space,keypress(Space),,,,,---- -- ----- -- ------ - ------- --- ----------<br>------------- ------ ------ ---- ---- ------- ----- -- ----<br>-------- ------- -- ---------- --- - --- ----- ----- ----<br>---- --- --- ----- --- ---- ---- ------- ----- ---- -------<br>--- --- -- ----- -- --- ---- -- --- ---- -- ------ ------<br>not ----- -- ----,60096.90000000037,60095.90000000037,59575.328,59576.800000000745,59591.998,60108.802,,52,not
screen,html.Screen,0_2_0_1_53,2021-12-02T11:22:27.369Z,,,,,,,,,,,,,,,,53,,,,,,,,,,,,,,450.99800000074174,,response,,,99,,,,,,Space,keypress(Space),,,,,---- -- ----- -- ------ - ------- --- ----------<br>------------- ------ ------ ---- ---- ------- ----- -- ----<br>-------- ------- -- ---------- --- - --- ----- ----- ----<br>---- --- --- ----- --- ---- ---- ------- ----- ---- -------<br>--- --- -- ----- -- --- ---- -- --- ---- -- ------ ------<br>--- close -- ----,60560.5,60559.800000000745,60092.132,60097.20000000112,60108.802,60575.58,,53,close
screen,html.Screen,0_2_0_1_54,2021-12-02T11:22:27.889Z,,,,,,,,,,,,,,,,53,,,,,,,,,,,,,,504.12000000111584,,response,,,99,,,,,,Space,keypress(Space),,,,,---- -- ----- -- ------ - ------- --- ----------<br>------------- ------ ------ ---- ---- ------- ----- -- ----<br>-------- ------- -- ---------- --- - --- ----- ----- ----<br>---- --- --- ----- --- ---- ---- ------- ----- ---- -------<br>--- --- -- ----- -- --- ---- -- --- ---- -- ------ ------<br>--- ----- at ----,61080.5,61079.70000000112,60558.91,60560.70000000112,60575.58,61092.452,,54,at
screen,html.Screen,0_2_0_1_55,2021-12-02T11:22:28.353Z,,,,,,,,,,,,,,,,53,,,,,,,,,,,,,,451.34800000074756,,response,,,99,,,,,,Space,keypress(Space),,,,,---- -- ----- -- ------ - ------- --- ----------<br>------------- ------ ------ ---- ---- ------- ----- -- ----<br>-------- ------- -- ---------- --- - --- ----- ----- ----<br>---- --- --- ----- --- ---- ---- ------- ----- ---- -------<br>--- --- -- ----- -- --- ---- -- --- ---- -- ------ ------<br>--- ----- -- all.,61544.60000000149,61543.800000000745,61075.781,61080.70000000112,61092.452,61559.187,,55,all.
Item 99,flow.Loop,0_2_0_1,2021-12-02T11:22:28.358Z,,,,,,,,,,,,,,,,,,,,,,,,,,,,,,31243.058000000747,,completion,,,,D,,,,,,,,,,silence,,61548.90000000037,61543.800000000745,30284.072,30290.5,30300.742,61559.187,,,
Question 1,html.Screen,0_2_0_2,2021-12-02T11:22:35.185Z,,,,,,,,,,,,,,,,,,,,,,,,,,,true,FALSE,,6816.113000000747,,response,,,99,D,,,,,FALSE,click #choice-2,,,,silence,,68376.70000000112,68375.30000000075,61542.517,61549.20000000112,61559.187,68377.656,,,
Question 2,html.Screen,0_2_0_3,2021-12-02T11:22:41.425Z,,,,,,,,,,,,,,,,,,,,,,,,,,,true,TRUE,,6237.343999999997,,response,,,99,D,,,,,TRUE,click #choice-1,,,,silence,,74616.20000000112,74615,68360.986,68377.10000000149,68377.656,74629.335,,,
Item 99,flow.Sequence,0_2_0,2021-12-02T11:22:41.425Z,,,,,,,,,,,,,,,,,,,,,,,,,,,,,,54316.902,,completion,,,,,,,,,,,,,,,,74616.80000000075,74615,20281.428,20283.700000001118,20298.098,74629.335,,,
Holding screen,html.Screen,0_2_1_0,2021-12-02T11:22:51.425Z,,,,,,,,,,,,,,,,,,,,,,,,,,,,,,10002.511999999988,,timeout,,,,,,,,,,,,,,,,84616.60000000149,84615.177,74612.665,74617.10000000149,74629.335,84631.847,,,
screen,html.Screen,0_2_1_1_0,2021-12-02T11:22:52.345Z,,,,,,,,,,,,,,,,54,,,,,,,,,,,,,,903.1530000000057,,response,,,100,,,,,,Space,keypress(Space),,,,,At --- ---- --- ------ ----- ------- ---- -- --- ------- --<br>------- ---------- ------ -- ----- -- ----- -- ---- ------<br>--- ----- --- --- ------ -------- ----- --- ------ ----- --<br>----- ----- ---------- --- --- ------ ------ ---- -- ------<br>------- --- ------ ----- --- ---- ------- -- ---- --- --<br>------- ------,85536,85535,84615.177,84617,84631.847,85548.972,,0,At
screen,html.Screen,0_2_1_1_1,2021-12-02T11:22:52.680Z,,,,,,,,,,,,,,,,54,,,,,,,,,,,,,,321.6280000014958,,response,,,100,,,,,,Space,keypress(Space),,,,,-- the ---- --- ------ ----- ------- ---- -- --- ------- --<br>------- ---------- ------ -- ----- -- ----- -- ---- ------<br>--- ----- --- --- ------ -------- ----- --- ------ ----- --<br>----- ----- ---------- --- --- ------ ------ ---- -- ------<br>------- --- ------ ----- --- ---- ------- -- ---- --- --<br>------- ------,85871.5,85870.60000000149,85532.301,85536.30000000075,85548.972,85882.328,,1,the
screen,html.Screen,0_2_1_1_2,2021-12-02T11:22:53.008Z,,,,,,,,,,,,,,,,54,,,,,,,,,,,,,,316.27200000149605,,response,,,100,,,,,,Space,keypress(Space),,,,,-- --- time --- ------ ----- ------- ---- -- --- ------- --<br>------- ---------- ------ -- ----- -- ----- -- ---- ------<br>--- ----- --- --- ------ -------- ----- --- ------ ----- --<br>----- ----- ---------- --- --- ------ ------ ---- -- ------<br>------- --- ------ ----- --- ---- ------- -- ---- --- --<br>------- ------,86199.40000000037,86198.60000000149,85865.658,85871.80000000075,85882.328,86215.789,,2,time
screen,html.Screen,0_2_1_1_3,2021-12-02T11:22:53.368Z,,,,,,,,,,,,,,,,54,,,,,,,,,,,,,,342.7109999999957,,response,,,100,,,,,,Space,keypress(Space),,,,,-- --- ---- the ------ ----- ------- ---- -- --- ------- --<br>------- ---------- ------ -- ----- -- ----- -- ---- ------<br>--- ----- --- --- ------ -------- ----- --- ------ ----- --<br>----- ----- ---------- --- --- ------ ------ ---- -- ------<br>------- --- ------ ----- --- ---- ------- -- ---- --- --<br>------- ------,86559.30000000075,86558.5,86199.118,86199.60000000149,86215.789,86565.853,,3,the
screen,html.Screen,0_2_1_1_4,2021-12-02T11:22:53.705Z,,,,,,,,,,,,,,,,54,,,,,,,,,,,,,,328.6469999999972,,response,,,100,,,,,,Space,keypress(Space),,,,,-- --- ---- --- French ----- ------- ---- -- --- ------- --<br>------- ---------- ------ -- ----- -- ----- -- ---- ------<br>--- ----- --- --- ------ -------- ----- --- ------ ----- --<br>----- ----- ---------- --- --- ------ ------ ---- -- ------<br>------- --- ------ ----- --- ---- ------- -- ---- --- --<br>------- ------,86896.70000000112,86894.5,86549.183,86559.60000000149,86565.853,86899.267,,4,French
screen,html.Screen,0_2_1_1_5,2021-12-02T11:22:54.224Z,,,,,,,,,,,,,,,,54,,,,,,,,,,,,,,515.1330000003654,,response,,,100,,,,,,Space,keypress(Space),,,,,-- --- ---- --- ------ crown ------- ---- -- --- ------- --<br>------- ---------- ------ -- ----- -- ----- -- ---- ------<br>--- ----- --- --- ------ -------- ----- --- ------ ----- --<br>----- ----- ---------- --- --- ------ ------ ---- -- ------<br>------- --- ------ ----- --- ---- ------- -- ---- --- --<br>------- ------,87415.20000000112,87414.40000000037,86882.597,86896.90000000037,86899.267,87432.777,,5,crown
screen,html.Screen,0_2_1_1_6,2021-12-02T11:22:54.776Z,,,,,,,,,,,,,,,,54,,,,,,,,,,,,,,533.7229999999981,,response,,,100,,,,,,Space,keypress(Space),,,,,-- --- ---- --- ------ ----- secured ---- -- --- ------- --<br>------- ---------- ------ -- ----- -- ----- -- ---- ------<br>--- ----- --- --- ------ -------- ----- --- ------ ----- --<br>----- ----- ---------- --- --- ------ ------ ---- -- ------<br>------- --- ------ ----- --- ---- ------- -- ---- --- --<br>------- ------,87967.20000000112,87966.5,87416.106,87415.40000000037,87432.777,87982.869,,6,secured
screen,html.Screen,0_2_1_1_7,2021-12-02T11:22:55.272Z,,,,,,,,,,,,,,,,54,,,,,,,,,,,,,,479.63099999999395,,response,,,100,,,,,,Space,keypress(Space),,,,,-- --- ---- --- ------ ----- ------- much -- --- ------- --<br>------- ---------- ------ -- ----- -- ----- -- ---- ------<br>--- ----- --- --- ------ -------- ----- --- ------ ----- --<br>----- ----- ---------- --- --- ------ ------ ---- -- ------<br>------- --- ------ ----- --- ---- ------- -- ---- --- --<br>------- ------,88463.20000000112,88462.5,87966.199,87967.5,87982.869,88466.389,,7,much
screen,html.Screen,0_2_1_1_8,2021-12-02T11:22:55.800Z,,,,,,,,,,,,,,,,54,,,,,,,,,,,,,,524.011000000377,,response,,,100,,,,,,Space,keypress(Space),,,,,-- --- ---- --- ------ ----- ------- ---- of --- ------- --<br>------- ---------- ------ -- ----- -- ----- -- ---- ------<br>--- ----- --- --- ------ -------- ----- --- ------ ----- --<br>----- ----- ---------- --- --- ------ ------ ---- -- ------<br>------- --- ------ ----- --- ---- ------- -- ---- --- --<br>------- ------,88991.20000000112,88990.40000000037,88449.718,88463.5,88466.389,88999.823,,8,of
screen,html.Screen,0_2_1_1_9,2021-12-02T11:22:56.224Z,,,,,,,,,,,,,,,,54,,,,,,,,,,,,,,414.67699999999604,,response,,,100,,,,,,Space,keypress(Space),,,,,-- --- ---- --- ------ ----- ------- ---- -- its ------- --<br>------- ---------- ------ -- ----- -- ----- -- ---- ------<br>--- ----- --- --- ------ -------- ----- --- ------ ----- --<br>----- ----- ---------- --- --- ------ ------ ---- -- ------<br>------- --- ------ ----- --- ---- ------- -- ---- --- --<br>------- ------,89415.20000000112,89414.5,88983.153,88991.5,88999.823,89416.609,,9,its
screen,html.Screen,0_2_1_1_10,2021-12-02T11:22:56.824Z,,,,,,,,,,,,,,,,54,,,,,,,,,,,,,,597.7910000003758,,response,,,100,,,,,,Space,keypress(Space),,,,,-- --- ---- --- ------ ----- ------- ---- -- --- revenue --<br>------- ---------- ------ -- ----- -- ----- -- ---- ------<br>--- ----- --- --- ------ -------- ----- --- ------ ----- --<br>----- ----- ---------- --- --- ------ ------ ---- -- ------<br>------- --- ------ ----- --- ---- ------- -- ---- --- --<br>------- ------,90015.40000000037,90014.40000000037,89399.939,89415.40000000037,89416.609,90016.74,,10,revenue
screen,html.Screen,0_2_1_1_11,2021-12-02T11:22:57.296Z,,,,,,,,,,,,,,,,54,,,,,,,,,,,,,,469.6600000003673,,response,,,100,,,,,,Space,keypress(Space),,,,,-- --- ---- --- ------ ----- ------- ---- -- --- ------- by<br>------- ---------- ------ -- ----- -- ----- -- ---- ------<br>--- ----- --- --- ------ -------- ----- --- ------ ----- --<br>----- ----- ---------- --- --- ------ ------ ---- -- ------<br>------- --- ------ ----- --- ---- ------- -- ---- --- --<br>------- ------,90487.20000000112,90486.40000000037,90000.07,90015.60000000149,90016.74,90500.097,,11,by
screen,html.Screen,0_2_1_1_12,2021-12-02T11:22:57.960Z,,,,,,,,,,,,,,,,54,,,,,,,,,,,,,,650.4030000000057,,response,,,100,,,,,,Space,keypress(Space),,,,,-- --- ---- --- ------ ----- ------- ---- -- --- ------- --<br>issuing ---------- ------ -- ----- -- ----- -- ---- ------<br>--- ----- --- --- ------ -------- ----- --- ------ ----- --<br>----- ----- ---------- --- --- ------ ------ ---- -- ------<br>------- --- ------ ----- --- ---- ------- -- ---- --- --<br>------- ------,91151.20000000112,91150.5,90483.428,90487.40000000037,90500.097,91167.166,,12,issuing
screen,html.Screen,0_2_1_1_13,2021-12-02T11:22:58.616Z,,,,,,,,,,,,,,,,54,,,,,,,,,,,,,,639.2340000003751,,response,,,100,,,,,,Space,keypress(Space),,,,,-- --- ---- --- ------ ----- ------- ---- -- --- ------- --<br>------- government ------ -- ----- -- ----- -- ---- ------<br>--- ----- --- --- ------ -------- ----- --- ------ ----- --<br>----- ----- ---------- --- --- ------ ------ ---- -- ------<br>------- --- ------ ----- --- ---- ------- -- ---- --- --<br>------- ------,91807.10000000149,91806.40000000037,91150.494,91151.40000000037,91167.166,91817.111,,13,government
screen,html.Screen,0_2_1_1_14,2021-12-02T11:22:59.200Z,,,,,,,,,,,,,,,,54,,,,,,,,,,,,,,573.2890000003681,,response,,,100,,,,,,Space,keypress(Space),,,,,-- --- ---- --- ------ ----- ------- ---- -- --- ------- --<br>------- ---------- bonds. -- ----- -- ----- -- ---- ------<br>--- ----- --- --- ------ -------- ----- --- ------ ----- --<br>----- ----- ---------- --- --- ------ ------ ---- -- ------<br>------- --- ------ ----- --- ---- ------- -- ---- --- --<br>------- ------,92391,92390.40000000037,91800.442,91807.40000000037,91817.111,92400.774,,14,bonds.
screen,html.Screen,0_2_1_1_15,2021-12-02T11:22:59.720Z,,,,,,,,,,,,,,,,54,,,,,,,,,,,,,,509.62600000036764,,response,,,100,,,,,,Space,keypress(Space),,,,,-- --- ---- --- ------ ----- ------- ---- -- --- ------- --<br>------- ---------- ------ In ----- -- ----- -- ---- ------<br>--- ----- --- --- ------ -------- ----- --- ------ ----- --<br>----- ----- ---------- --- --- ------ ------ ---- -- ------<br>------- --- ------ ----- --- ---- ------- -- ---- --- --<br>------- ------,92911.10000000149,92910.40000000037,92384.103,92391.40000000037,92400.774,92917.503,,15,In
screen,html.Screen,0_2_1_1_16,2021-12-02T11:23:00.144Z,,,,,,,,,,,,,,,,54,,,,,,,,,,,,,,416.89700000037556,,response,,,100,,,,,,Space,keypress(Space),,,,,"-- --- ---- --- ------ ----- ------- ---- -- --- ------- --<br>------- ---------- ------ -- 1727, -- ----- -- ---- ------<br>--- ----- --- --- ------ -------- ----- --- ------ ----- --<br>----- ----- ---------- --- --- ------ ------ ---- -- ------<br>------- --- ------ ----- --- ---- ------- -- ---- --- --<br>------- ------",93335.10000000149,93334.40000000037,92900.833,92911.30000000075,92917.503,93351.012,,16,"1727,"
screen,html.Screen,0_2_1_1_17,2021-12-02T11:23:01.704Z,,,,,,,,,,,,,,,,54,,,,,,,,,,,,,,1543.1880000011151,,response,,,100,,,,,,Space,keypress(Space),,,,,-- --- ---- --- ------ ----- ------- ---- -- --- ------- --<br>------- ---------- ------ -- ----- in ----- -- ---- ------<br>--- ----- --- --- ------ -------- ----- --- ------ ----- --<br>----- ----- ---------- --- --- ------ ------ ---- -- ------<br>------- --- ------ ----- --- ---- ------- -- ---- --- --<br>------- ------,94895,94894.20000000112,93334.341,93335.40000000037,93351.012,94901.284,,17,in
screen,html.Screen,0_2_1_1_18,2021-12-02T11:23:02.176Z,,,,,,,,,,,,,,,,54,,,,,,,,,,,,,,464.91600000111794,,response,,,100,,,,,,Space,keypress(Space),,,,,-- --- ---- --- ------ ----- ------- ---- -- --- ------- --<br>------- ---------- ------ -- ----- -- order -- ---- ------<br>--- ----- --- --- ------ -------- ----- --- ------ ----- --<br>----- ----- ---------- --- --- ------ ------ ---- -- ------<br>------- --- ------ ----- --- ---- ------- -- ---- --- --<br>------- ------,95367.10000000149,95366.20000000112,94884.614,94895.20000000112,94901.284,95368.165,,18,order
screen,html.Screen,0_2_1_1_19,2021-12-02T11:23:02.584Z,,,,,,,,,,,,,,,,54,,,,,,,,,,,,,,406.4350000014965,,response,,,100,,,,,,Space,keypress(Space),,,,,-- --- ---- --- ------ ----- ------- ---- -- --- ------- --<br>------- ---------- ------ -- ----- -- ----- to ---- ------<br>--- ----- --- --- ------ -------- ----- --- ------ ----- --<br>----- ----- ---------- --- --- ------ ------ ---- -- ------<br>------- --- ------ ----- --- ---- ------- -- ---- --- --<br>------- ------,95775.40000000037,95774.60000000149,95351.494,95367.30000000075,95368.165,95784.898,,19,to
screen,html.Screen,0_2_1_1_20,2021-12-02T11:23:02.928Z,,,,,,,,,,,,,,,,54,,,,,,,,,,,,,,333.30200000111654,,response,,,100,,,,,,Space,keypress(Space),,,,,-- --- ---- --- ------ ----- ------- ---- -- --- ------- --<br>------- ---------- ------ -- ----- -- ----- -- save ------<br>--- ----- --- --- ------ -------- ----- --- ------ ----- --<br>----- ----- ---------- --- --- ------ ------ ---- -- ------<br>------- --- ------ ----- --- ---- ------- -- ---- --- --<br>------- ------,96119.10000000149,96118.20000000112,95768.228,95775.60000000149,95784.898,96135.167,,20,save
screen,html.Screen,0_2_1_1_21,2021-12-02T11:23:03.360Z,,,,,,,,,,,,,,,,54,,,,,,,,,,,,,,414.93300000148884,,response,,,100,,,,,,Space,keypress(Space),,,,,"-- --- ---- --- ------ ----- ------- ---- -- --- ------- --<br>------- ---------- ------ -- ----- -- ----- -- ---- money,<br>--- ----- --- --- ------ -------- ----- --- ------ ----- --<br>----- ----- ---------- --- --- ------ ------ ---- -- ------<br>------- --- ------ ----- --- ---- ------- -- ---- --- --<br>------- ------",96551,96550.10000000149,96118.494,96119.40000000037,96135.167,96568.503,,21,"money,"
screen,html.Screen,0_2_1_1_22,2021-12-02T11:23:04.144Z,,,,,,,,,,,,,,,,54,,,,,,,,,,,,,,765.5970000014931,,response,,,100,,,,,,Space,keypress(Space),,,,,-- --- ---- --- ------ ----- ------- ---- -- --- ------- --<br>------- ---------- ------ -- ----- -- ----- -- ---- ------<br>the ----- --- --- ------ -------- ----- --- ------ ----- --<br>----- ----- ---------- --- --- ------ ------ ---- -- ------<br>------- --- ------ ----- --- ---- ------- -- ---- --- --<br>------- ------,97334.80000000075,97334.10000000149,96551.833,96551.30000000075,96568.503,97352.026,,22,the
screen,html.Screen,0_2_1_1_23,2021-12-02T11:23:04.552Z,,,,,,,,,,,,,,,,54,,,,,,,,,,,,,,390.0740000014921,,response,,,100,,,,,,Space,keypress(Space),,,,,-- --- ---- --- ------ ----- ------- ---- -- --- ------- --<br>------- ---------- ------ -- ----- -- ----- -- ---- ------<br>--- state --- --- ------ -------- ----- --- ------ ----- --<br>----- ----- ---------- --- --- ------ ------ ---- -- ------<br>------- --- ------ ----- --- ---- ------- -- ---- --- --<br>------- ------,97742.90000000037,97742.10000000149,97335.356,97335.20000000112,97352.026,97752.115,,23,state
screen,html.Screen,0_2_1_1_24,2021-12-02T11:23:05.048Z,,,,,,,,,,,,,,,,54,,,,,,,,,,,,,,485.88499999999476,,response,,,100,,,,,,Space,keypress(Space),,,,,-- --- ---- --- ------ ----- ------- ---- -- --- ------- --<br>------- ---------- ------ -- ----- -- ----- -- ---- ------<br>--- ----- cut --- ------ -------- ----- --- ------ ----- --<br>----- ----- ---------- --- --- ------ ------ ---- -- ------<br>------- --- ------ ----- --- ---- ------- -- ---- --- --<br>------- ------,98238.90000000037,98238,97735.445,97743.20000000112,97752.115,98252.324,,24,cut
screen,html.Screen,0_2_1_1_25,2021-12-02T11:23:05.432Z,,,,,,,,,,,,,,,,54,,,,,,,,,,,,,,369.67600000000675,,response,,,100,,,,,,Space,keypress(Space),,,,,-- --- ---- --- ------ ----- ------- ---- -- --- ------- --<br>------- ---------- ------ -- ----- -- ----- -- ---- ------<br>--- ----- --- the ------ -------- ----- --- ------ ----- --<br>----- ----- ---------- --- --- ------ ------ ---- -- ------<br>------- --- ------ ----- --- ---- ------- -- ---- --- --<br>------- ------,98622.80000000075,98622,98235.653,98239.20000000112,98252.324,98635.717,,25,the
screen,html.Screen,0_2_1_1_26,2021-12-02T11:23:05.848Z,,,,,,,,,,,,,,,,54,,,,,,,,,,,,,,402.2829999999958,,response,,,100,,,,,,Space,keypress(Space),,,,,-- --- ---- --- ------ ----- ------- ---- -- --- ------- --<br>------- ---------- ------ -- ----- -- ----- -- ---- ------<br>--- ----- --- --- bonds' -------- ----- --- ------ ----- --<br>----- ----- ---------- --- --- ------ ------ ---- -- ------<br>------- --- ------ ----- --- ---- ------- -- ---- --- --<br>------- ------,99038.80000000075,99038,98619.047,98623.10000000149,98635.717,99052.388,,26,bonds'
screen,html.Screen,0_2_1_1_27,2021-12-02T11:23:06.312Z,,,,,,,,,,,,,,,,54,,,,,,,,,,,,,,449.6119999999937,,response,,,100,,,,,,Space,keypress(Space),,,,,-- --- ---- --- ------ ----- ------- ---- -- --- ------- --<br>------- ---------- ------ -- ----- -- ----- -- ---- ------<br>--- ----- --- --- ------ interest ----- --- ------ ----- --<br>----- ----- ---------- --- --- ------ ------ ---- -- ------<br>------- --- ------ ----- --- ---- ------- -- ---- --- --<br>------- ------,99502.90000000037,99502,99035.719,99039.20000000112,99052.388,99519.421,,27,interest
screen,html.Screen,0_2_1_1_28,2021-12-02T11:23:06.776Z,,,,,,,,,,,,,,,,54,,,,,,,,,,,,,,446.5789999999979,,response,,,100,,,,,,Space,keypress(Space),,,,,-- --- ---- --- ------ ----- ------- ---- -- --- ------- --<br>------- ---------- ------ -- ----- -- ----- -- ---- ------<br>--- ----- --- --- ------ -------- rate. --- ------ ----- --<br>----- ----- ---------- --- --- ------ ------ ---- -- ------<br>------- --- ------ ----- --- ---- ------- -- ---- --- --<br>------- ------,99966.80000000075,99966,99502.748,99503.20000000112,99519.421,99969.392,,28,rate.
screen,html.Screen,0_2_1_1_29,2021-12-02T11:23:07.272Z,,,,,,,,,,,,,,,,54,,,,,,,,,,,,,,492.6079999999929,,response,,,100,,,,,,Space,keypress(Space),,,,,-- --- ---- --- ------ ----- ------- ---- -- --- ------- --<br>------- ---------- ------ -- ----- -- ----- -- ---- ------<br>--- ----- --- --- ------ -------- ----- The ------ ----- --<br>----- ----- ---------- --- --- ------ ------ ---- -- ------<br>------- --- ------ ----- --- ---- ------- -- ---- --- --<br>------- ------,100462.80000000075,100462,99952.722,99967.10000000149,99969.392,100469.48,,29,The
screen,html.Screen,0_2_1_1_30,2021-12-02T11:23:07.703Z,,,,,,,,,,,,,,,,54,,,,,,,,,,,,,,424.4200000003766,,response,,,100,,,,,,Space,keypress(Space),,,,,-- --- ---- --- ------ ----- ------- ---- -- --- ------- --<br>------- ---------- ------ -- ----- -- ----- -- ---- ------<br>--- ----- --- --- ------ -------- ----- --- market ----- --<br>----- ----- ---------- --- --- ------ ------ ---- -- ------<br>------- --- ------ ----- --- ---- ------- -- ---- --- --<br>------- ------,100894.70000000112,100893.90000000037,100452.81,100462.90000000037,100469.48,100903.093,,30,market
screen,html.Screen,0_2_1_1_31,2021-12-02T11:23:08.087Z,,,,,,,,,,,,,,,,54,,,,,,,,,,,,,,374.80700000037905,,response,,,100,,,,,,Space,keypress(Space),,,,,-- --- ---- --- ------ ----- ------- ---- -- --- ------- --<br>------- ---------- ------ -- ----- -- ----- -- ---- ------<br>--- ----- --- --- ------ -------- ----- --- ------ value --<br>----- ----- ---------- --- --- ------ ------ ---- -- ------<br>------- --- ------ ----- --- ---- ------- -- ---- --- --<br>------- ------,101278.70000000112,101277.90000000037,100886.421,100894.90000000037,100903.093,101286.439,,31,value
screen,html.Screen,0_2_1_1_32,2021-12-02T11:23:08.447Z,,,,,,,,,,,,,,,,54,,,,,,,,,,,,,,351.46100000037404,,response,,,100,,,,,,Space,keypress(Space),,,,,-- --- ---- --- ------ ----- ------- ---- -- --- ------- --<br>------- ---------- ------ -- ----- -- ----- -- ---- ------<br>--- ----- --- --- ------ -------- ----- --- ------ ----- of<br>----- ----- ---------- --- --- ------ ------ ---- -- ------<br>------- --- ------ ----- --- ---- ------- -- ---- --- --<br>------- ------,101638.70000000112,101637.90000000037,101269.769,101278.90000000037,101286.439,101653.194,,32,of
screen,html.Screen,0_2_1_1_33,2021-12-02T11:23:08.799Z,,,,,,,,,,,,,,,,54,,,,,,,,,,,,,,336.7060000003694,,response,,,100,,,,,,Space,keypress(Space),,,,,-- --- ---- --- ------ ----- ------- ---- -- --- ------- --<br>------- ---------- ------ -- ----- -- ----- -- ---- ------<br>--- ----- --- --- ------ -------- ----- --- ------ ----- --<br>these ----- ---------- --- --- ------ ------ ---- -- ------<br>------- --- ------ ----- --- ---- ------- -- ---- --- --<br>------- ------,101990.70000000112,101989.90000000037,101636.524,101638.90000000037,101653.194,102003.285,,33,these
screen,html.Screen,0_2_1_1_34,2021-12-02T11:23:09.159Z,,,,,,,,,,,,,,,,54,,,,,,,,,,,,,,346.61500000036904,,response,,,100,,,,,,Space,keypress(Space),,,,,-- --- ---- --- ------ ----- ------- ---- -- --- ------- --<br>------- ---------- ------ -- ----- -- ----- -- ---- ------<br>--- ----- --- --- ------ -------- ----- --- ------ ----- --<br>----- bonds ---------- --- --- ------ ------ ---- -- ------<br>------- --- ------ ----- --- ---- ------- -- ---- --- --<br>------- ------,102350.70000000112,102349.90000000037,101986.615,101990.90000000037,102003.285,102353.415,,34,bonds
screen,html.Screen,0_2_1_1_35,2021-12-02T11:23:09.551Z,,,,,,,,,,,,,,,,54,,,,,,,,,,,,,,388.48500000037893,,response,,,100,,,,,,Space,keypress(Space),,,,,"-- --- ---- --- ------ ----- ------- ---- -- --- ------- --<br>------- ---------- ------ -- ----- -- ----- -- ---- ------<br>--- ----- --- --- ------ -------- ----- --- ------ ----- --<br>----- ----- plummeted, --- --- ------ ------ ---- -- ------<br>------- --- ------ ----- --- ---- ------- -- ---- --- --<br>------- ------",102742.70000000112,102741.90000000037,102336.744,102350.90000000037,102353.415,102753.469,,35,"plummeted,"
screen,html.Screen,0_2_1_1_36,2021-12-02T11:23:09.967Z,,,,,,,,,,,,,,,,54,,,,,,,,,,,,,,404.4310000003752,,response,,,100,,,,,,Space,keypress(Space),,,,,-- --- ---- --- ------ ----- ------- ---- -- --- ------- --<br>------- ---------- ------ -- ----- -- ----- -- ---- ------<br>--- ----- --- --- ------ -------- ----- --- ------ ----- --<br>----- ----- ---------- and --- ------ ------ ---- -- ------<br>------- --- ------ ----- --- ---- ------- -- ---- --- --<br>------- ------,103158.60000000149,103157.90000000037,102736.799,102742.90000000037,102753.469,103170.292,,36,and
screen,html.Screen,0_2_1_1_37,2021-12-02T11:23:10.351Z,,,,,,,,,,,,,,,,54,,,,,,,,,,,,,,371.5080000007438,,response,,,100,,,,,,Space,keypress(Space),,,,,-- --- ---- --- ------ ----- ------- ---- -- --- ------- --<br>------- ---------- ------ -- ----- -- ----- -- ---- ------<br>--- ----- --- --- ------ -------- ----- --- ------ ----- --<br>----- ----- ---------- --- the ------ ------ ---- -- ------<br>------- --- ------ ----- --- ---- ------- -- ---- --- --<br>------- ------,103542.5,103541.80000000075,103153.621,103158.80000000075,103170.292,103553.684,,37,the
screen,html.Screen,0_2_1_1_38,2021-12-02T11:23:10.743Z,,,,,,,,,,,,,,,,54,,,,,,,,,,,,,,380.1160000007512,,response,,,100,,,,,,Space,keypress(Space),,,,,-- --- ---- --- ------ ----- ------- ---- -- --- ------- --<br>------- ---------- ------ -- ----- -- ----- -- ---- ------<br>--- ----- --- --- ------ -------- ----- --- ------ ----- --<br>----- ----- ---------- --- --- market ------ ---- -- ------<br>------- --- ------ ----- --- ---- ------- -- ---- --- --<br>------- ------,103934.5,103933.80000000075,103537.014,103542.70000000112,103553.684,103937.176,,38,market
screen,html.Screen,0_2_1_1_39,2021-12-02T11:23:11.095Z,,,,,,,,,,,,,,,,54,,,,,,,,,,,,,,348.52400000111084,,response,,,100,,,,,,Space,keypress(Space),,,,,-- --- ---- --- ------ ----- ------- ---- -- --- ------- --<br>------- ---------- ------ -- ----- -- ----- -- ---- ------<br>--- ----- --- --- ------ -------- ----- --- ------ ----- --<br>----- ----- ---------- --- --- ------ became ---- -- ------<br>------- --- ------ ----- --- ---- ------- -- ---- --- --<br>------- ------,104286.40000000037,104285.70000000112,103920.505,103934.80000000075,103937.176,104303.883,,39,became
screen,html.Screen,0_2_1_1_40,2021-12-02T11:23:11.479Z,,,,,,,,,,,,,,,,54,,,,,,,,,,,,,,365.7170000014885,,response,,,100,,,,,,Space,keypress(Space),,,,,-- --- ---- --- ------ ----- ------- ---- -- --- ------- --<br>------- ---------- ------ -- ----- -- ----- -- ---- ------<br>--- ----- --- --- ------ -------- ----- --- ------ ----- --<br>----- ----- ---------- --- --- ------ ------ wary -- ------<br>------- --- ------ ----- --- ---- ------- -- ---- --- --<br>------- ------,104670.40000000037,104669.60000000149,104287.213,104286.70000000112,104303.883,104687.32,,40,wary
screen,html.Screen,0_2_1_1_41,2021-12-02T11:23:11.886Z,,,,,,,,,,,,,,,,54,,,,,,,,,,,,,,390.08000000036554,,response,,,100,,,,,,Space,keypress(Space),,,,,-- --- ---- --- ------ ----- ------- ---- -- --- ------- --<br>------- ---------- ------ -- ----- -- ----- -- ---- ------<br>--- ----- --- --- ------ -------- ----- --- ------ ----- --<br>----- ----- ---------- --- --- ------ ------ ---- of ------<br>------- --- ------ ----- --- ---- ------- -- ---- --- --<br>------- ------,105077.70000000112,105077.40000000037,104670.65,104670.60000000149,104687.32,105087.435,,41,of
screen,html.Screen,0_2_1_1_42,2021-12-02T11:23:12.278Z,,,,,,,,,,,,,,,,54,,,,,,,,,,,,,,381.96500000037486,,response,,,100,,,,,,Space,keypress(Space),,,,,-- --- ---- --- ------ ----- ------- ---- -- --- ------- --<br>------- ---------- ------ -- ----- -- ----- -- ---- ------<br>--- ----- --- --- ------ -------- ----- --- ------ ----- --<br>----- ----- ---------- --- --- ------ ------ ---- -- French<br>------- --- ------ ----- --- ---- ------- -- ---- --- --<br>------- ------,105469.70000000112,105469.40000000037,105070.765,105077.70000000112,105087.435,105470.765,,42,French
screen,html.Screen,0_2_1_1_43,2021-12-02T11:23:12.688Z,,,,,,,,,,,,,,,,54,,,,,,,,,,,,,,407.43500000111817,,response,,,100,,,,,,Space,keypress(Space),,,,,-- --- ---- --- ------ ----- ------- ---- -- --- ------- --<br>------- ---------- ------ -- ----- -- ----- -- ---- ------<br>--- ----- --- --- ------ -------- ----- --- ------ ----- --<br>----- ----- ---------- --- --- ------ ------ ---- -- ------<br>credit. --- ------ ----- --- ---- ------- -- ---- --- --<br>------- ------,105878.80000000075,105878.20000000112,105454.096,105469.80000000075,105470.765,105887.679,,43,credit.
screen,html.Screen,0_2_1_1_44,2021-12-02T11:23:13.151Z,,,,,,,,,,,,,,,,54,,,,,,,,,,,,,,453.9210000014864,,response,,,100,,,,,,Space,keypress(Space),,,,,-- --- ---- --- ------ ----- ------- ---- -- --- ------- --<br>------- ---------- ------ -- ----- -- ----- -- ---- ------<br>--- ----- --- --- ------ -------- ----- --- ------ ----- --<br>----- ----- ---------- --- --- ------ ------ ---- -- ------<br>------- The ------ ----- --- ---- ------- -- ---- --- --<br>------- ------,106342.40000000037,106341.60000000149,105871.007,105879.10000000149,105887.679,106354.26,,44,The
screen,html.Screen,0_2_1_1_45,2021-12-02T11:23:13.591Z,,,,,,,,,,,,,,,,54,,,,,,,,,,,,,,427.34000000149535,,response,,,100,,,,,,Space,keypress(Space),,,,,-- --- ---- --- ------ ----- ------- ---- -- --- ------- --<br>------- ---------- ------ -- ----- -- ----- -- ---- ------<br>--- ----- --- --- ------ -------- ----- --- ------ ----- --<br>----- ----- ---------- --- --- ------ ------ ---- -- ------<br>------- --- French ----- --- ---- ------- -- ---- --- --<br>------- ------,106782.40000000037,106781.60000000149,106337.592,106342.60000000149,106354.26,106788.021,,45,French
screen,html.Screen,0_2_1_1_46,2021-12-02T11:23:13.958Z,,,,,,,,,,,,,,,,54,,,,,,,,,,,,,,361.2790000007517,,response,,,100,,,,,,Space,keypress(Space),,,,,-- --- ---- --- ------ ----- ------- ---- -- --- ------- --<br>------- ---------- ------ -- ----- -- ----- -- ---- ------<br>--- ----- --- --- ------ -------- ----- --- ------ ----- --<br>----- ----- ---------- --- --- ------ ------ ---- -- ------<br>------- --- ------ state --- ---- ------- -- ---- --- --<br>------- ------,107149.70000000112,107149.30000000075,106771.348,106782.60000000149,106788.021,107154.553,,46,state
screen,html.Screen,0_2_1_1_47,2021-12-02T11:23:14.383Z,,,,,,,,,,,,,,,,54,,,,,,,,,,,,,,419.04700000149023,,response,,,100,,,,,,Space,keypress(Space),,,,,-- --- ---- --- ------ ----- ------- ---- -- --- ------- --<br>------- ---------- ------ -- ----- -- ----- -- ---- ------<br>--- ----- --- --- ------ -------- ----- --- ------ ----- --<br>----- ----- ---------- --- --- ------ ------ ---- -- ------<br>------- --- ------ ----- was ---- ------- -- ---- --- --<br>------- ------,107574.40000000037,107573.60000000149,107137.884,107149.70000000112,107154.553,107588.188,,47,was
screen,html.Screen,0_2_1_1_48,2021-12-02T11:23:14.783Z,,,,,,,,,,,,,,,,54,,,,,,,,,,,,,,385.41200000149547,,response,,,100,,,,,,Space,keypress(Space),,,,,-- --- ---- --- ------ ----- ------- ---- -- --- ------- --<br>------- ---------- ------ -- ----- -- ----- -- ---- ------<br>--- ----- --- --- ------ -------- ----- --- ------ ----- --<br>----- ----- ---------- --- --- ------ ------ ---- -- ------<br>------- --- ------ ----- --- left ------- -- ---- --- --<br>------- ------,107974.40000000037,107973.60000000149,107571.516,107574.60000000149,107588.188,107988.028,,48,left
screen,html.Screen,0_2_1_1_49,2021-12-02T11:23:15.231Z,,,,,,,,,,,,,,,,54,,,,,,,,,,,,,,433.5720000014844,,response,,,100,,,,,,Space,keypress(Space),,,,,-- --- ---- --- ------ ----- ------- ---- -- --- ------- --<br>------- ---------- ------ -- ----- -- ----- -- ---- ------<br>--- ----- --- --- ------ -------- ----- --- ------ ----- --<br>----- ----- ---------- --- --- ------ ------ ---- -- ------<br>------- --- ------ ----- --- ---- without -- ---- --- --<br>------- ------,108422.40000000037,108421.60000000149,107971.36,107974.60000000149,107988.028,108438.445,,49,without
screen,html.Screen,0_2_1_1_50,2021-12-02T11:23:15.631Z,,,,,,,,,,,,,,,,54,,,,,,,,,,,,,,383.054999999993,,response,,,100,,,,,,Space,keypress(Space),,,,,-- --- ---- --- ------ ----- ------- ---- -- --- ------- --<br>------- ---------- ------ -- ----- -- ----- -- ---- ------<br>--- ----- --- --- ------ -------- ----- --- ------ ----- --<br>----- ----- ---------- --- --- ------ ------ ---- -- ------<br>------- --- ------ ----- --- ---- ------- an ---- --- --<br>------- ------,108822.20000000112,108821.5,108421.772,108422.60000000149,108438.445,108838.424,,50,an
screen,html.Screen,0_2_1_1_51,2021-12-02T11:23:16.038Z,,,,,,,,,,,,,,,,54,,,,,,,,,,,,,,390.67600000149105,,response,,,100,,,,,,Space,keypress(Space),,,,,-- --- ---- --- ------ ----- ------- ---- -- --- ------- --<br>------- ---------- ------ -- ----- -- ----- -- ---- ------<br>--- ----- --- --- ------ -------- ----- --- ------ ----- --<br>----- ----- ---------- --- --- ------ ------ ---- -- ------<br>------- --- ------ ----- --- ---- ------- -- easy --- --<br>------- ------,109229.40000000037,109229.10000000149,108821.754,108822.5,108838.424,109238.543,,51,easy
screen,html.Screen,0_2_1_1_52,2021-12-02T11:23:16.479Z,,,,,,,,,,,,,,,,54,,,,,,,,,,,,,,431.057000001485,,response,,,100,,,,,,Space,keypress(Space),,,,,-- --- ---- --- ------ ----- ------- ---- -- --- ------- --<br>------- ---------- ------ -- ----- -- ----- -- ---- ------<br>--- ----- --- --- ------ -------- ----- --- ------ ----- --<br>----- ----- ---------- --- --- ------ ------ ---- -- ------<br>------- --- ------ ----- --- ---- ------- -- ---- way --<br>------- ------,109670.30000000075,109669.60000000149,109221.873,109229.40000000037,109238.543,109671.894,,52,way
screen,html.Screen,0_2_1_1_53,2021-12-02T11:23:17.024Z,,,,,,,,,,,,,,,,54,,,,,,,,,,,,,,542.1059999999998,,response,,,100,,,,,,Space,keypress(Space),,,,,-- --- ---- --- ------ ----- ------- ---- -- --- ------- --<br>------- ---------- ------ -- ----- -- ----- -- ---- ------<br>--- ----- --- --- ------ -------- ----- --- ------ ----- --<br>----- ----- ---------- --- --- ------ ------ ---- -- ------<br>------- --- ------ ----- --- ---- ------- -- ---- --- of<br>------- ------,110214.80000000075,110214,109655.225,109670.60000000149,109671.894,110222.005,,53,of
screen,html.Screen,0_2_1_1_54,2021-12-02T11:23:17.495Z,,,,,,,,,,,,,,,,54,,,,,,,,,,,,,,463.3950000003679,,response,,,100,,,,,,Space,keypress(Space),,,,,-- --- ---- --- ------ ----- ------- ---- -- --- ------- --<br>------- ---------- ------ -- ----- -- ----- -- ---- ------<br>--- ----- --- --- ------ -------- ----- --- ------ ----- --<br>----- ----- ---------- --- --- ------ ------ ---- -- ------<br>------- --- ------ ----- --- ---- ------- -- ---- --- --<br>raising ------,110686.30000000075,110685.40000000037,110205.336,110215,110222.005,110689.021,,54,raising
screen,html.Screen,0_2_1_1_55,2021-12-02T11:23:18.391Z,,,,,,,,,,,,,,,,54,,,,,,,,,,,,,,892.4790000000066,,response,,,100,,,,,,Space,keypress(Space),,,,,-- --- ---- --- ------ ----- ------- ---- -- --- ------- --<br>------- ---------- ------ -- ----- -- ----- -- ---- ------<br>--- ----- --- --- ------ -------- ----- --- ------ ----- --<br>----- ----- ---------- --- --- ------ ------ ---- -- ------<br>------- --- ------ ----- --- ---- ------- -- ---- --- --<br>------- money.,111582.20000000112,111581.5,110672.349,110686.5,110689.021,111588.971,,55,money.
Item 100,flow.Loop,0_2_1_1,2021-12-02T11:23:18.391Z,,,,,,,,,,,,,,,,,,,,,,,,,,,,,,26949.653000000006,,completion,,,,D,,,,,,,,,,silence,,111582.70000000112,111581.5,84615.177,84616.90000000037,84631.847,111588.971,,,
Question 1,html.Screen,0_2_1_2,2021-12-02T11:23:21.775Z,,,,,,,,,,,,,,,,,,,,,,,,,,,true,TRUE,,3376.129000001485,,response,,,100,D,,,,,TRUE,click #choice-1,,,,silence,,114966.20000000112,114965.10000000149,111572.302,111582.90000000037,111588.971,114973.399,,,
Question 2,html.Screen,0_2_1_3,2021-12-02T11:23:25.879Z,,,,,,,,,,,,,,,,,,,,,,,,,,,true,FALSE,,4095.5010000003676,,response,,,100,D,,,,,FALSE,click #choice-2,,,,silence,,119070,119068.90000000037,114956.729,114966.40000000037,114973.399,119074.511,,,
Item 100,flow.Sequence,0_2_1,2021-12-02T11:23:25.879Z,,,,,,,,,,,,,,,,,,,,,,,,,,,,,,44439.565000000366,,completion,,,,,,,,,,,,,,,,119070.30000000075,119068.90000000037,74612.665,74616.90000000037,74629.335,119074.511,,,
End of Practice,html.Page,0_2_2,2021-12-02T11:23:31.386Z,,,,,,,,,,,,,,,,,,,,,,,,,,,,,,5499.689000001119,,form submission,,,,,,,,,,,,,,,,124574.70000000112,124574.20000000112,119057.841,119070.5,119074.511,124575.551,,,
Practice,flow.Sequence,0_2,2021-12-02T11:23:31.387Z,,,,,,,,,,,,,,,,,,,,,,,,,,,,,,104276.10200000112,,completion,,,,,,,,,,,,,,,,124575.30000000075,124574.20000000112,20281.428,20283.5,20298.098,124575.551,,,
Trap_instruction,html.Page,0_3_0,2021-12-02T11:23:35.906Z,,,,,,,,,,,,,,,,,,,,,,,,,,,,,,4518.249000000738,,form submission,,,,,,,,,,,,,,,,129094.30000000075,129093.80000000075,124558.895,124575.60000000149,124575.551,129127.137,,,
trap_trial,html.Screen,0_3_1,2021-12-02T11:23:38.697Z,,,,,,,,,,,,,,,,,,,,,,,,,,,true,1,,2757.063000001115,,response,,,,,,,,,1,click #choice-1,,,,,,131885.40000000037,131884.20000000112,129077.124,129094.5,129127.137,131894.352,,,
end of trap trial,html.Page,0_3_2,2021-12-02T11:23:40.210Z,,,,,,,,,,,,,,,,,,,,,,,,,,,,,,1503.4480000007316,,form submission,,,,,,,,,,,,,,,,133398.30000000075,133397.80000000075,131877.682,131885.6000000015,131894.352,133411.584,,,
Trap 1,flow.Sequence,0_3,2021-12-02T11:23:40.210Z,,,,,,,,,,,,,,,,,,,,,,,,,,,,,,8822.249000000738,,completion,,,,,,,,,,,,,,,,133398.70000000112,133397.80000000075,124558.895,124575.40000000037,124575.551,133411.584,,,
Standby,html.Page,0_4_0,2021-12-02T11:23:48.210Z,,,,,,,,,,,,,,,,,,,,,,,,,,,,,,8002.154999999999,,timeout,,,,,,,,,,,,,,,,141399,141397.068,133394.914,133399,133411.584,141413.739,,,
Holding screen,html.Screen,0_4_1_0_0,2021-12-02T11:23:55.211Z,,,,,,,,,,,,,,,,,,,,,,,,,,,,,,7001.834000000003,,timeout,,,,,,,,,,,,,,,,148399.90000000037,148398.903,141397.068,141399.40000000037,141413.739,148415.573,,,
screen,html.Screen,0_4_1_0_1_0,2021-12-02T11:23:56.785Z,,,,,,,,,,,,,,,,15,,,,,,,,,,,,,,1556.6270000011136,,response,,,7,D,,,,,Space,keypress(Space),,,,silence,Greg --------- ---------- - --- ------- -- --- ------------<br>----- -- -------- ------- ---- ------ - -------- ---- -----<br>--- ------- ---- -- --- -------- --- - ----- ------ ---- --<br>-------- --- -------- -------- --- -------- ---- -- ----- -<br>-------- ---- --- ---------- --------- -- ------- ------ -<br>--------- ----- -----,149973.6000000015,149972.20000000112,148398.903,148400.20000000112,148415.573,149982.553,,0,Greg
screen,html.Screen,0_4_1_0_1_1,2021-12-02T11:23:58.776Z,,,,,,,,,,,,,,,,15,,,,,,,,,,,,,,1981.0470000014757,,response,,,7,D,,,,,Space,keypress(Space),,,,silence,"---- Anderson, ---------- - --- ------- -- --- ------------<br>----- -- -------- ------- ---- ------ - -------- ---- -----<br>--- ------- ---- -- --- -------- --- - ----- ------ ---- --<br>-------- --- -------- -------- --- -------- ---- -- ----- -<br>-------- ---- --- ---------- --------- -- ------- ------ -<br>--------- ----- -----",151964.40000000037,151963.6000000015,149965.883,149973.90000000037,149982.553,151966.589,,1,"Anderson,"
screen,html.Screen,0_4_1_0_1_2,2021-12-02T11:23:59.632Z,,,,,,,,,,,,,,,,15,,,,,,,,,,,,,,852.9109999999928,,response,,,7,D,,,,,Space,keypress(Space),,,,silence,---- --------- considered - --- ------- -- --- ------------<br>----- -- -------- ------- ---- ------ - -------- ---- -----<br>--- ------- ---- -- --- -------- --- - ----- ------ ---- --<br>-------- --- -------- -------- --- -------- ---- -- ----- -<br>-------- ---- --- ---------- --------- -- ------- ------ -<br>--------- ----- -----,152820.40000000037,152819.5,151949.918,151964.6000000015,151966.589,152833.357,,2,considered
screen,html.Screen,0_4_1_0_1_3,2021-12-02T11:24:00.152Z,,,,,,,,,,,,,,,,15,,,,,,,,,,,,,,506.14300000001094,,response,,,7,D,,,,,Space,keypress(Space),,,,silence,---- --------- ---------- a --- ------- -- --- ------------<br>----- -- -------- ------- ---- ------ - -------- ---- -----<br>--- ------- ---- -- --- -------- --- - ----- ------ ---- --<br>-------- --- -------- -------- --- -------- ---- -- ----- -<br>-------- ---- --- ---------- --------- -- ------- ------ -<br>--------- ----- -----,153340.40000000037,153339.5,152816.687,152820.6000000015,152833.357,153350.187,,3,a
screen,html.Screen,0_4_1_0_1_4,2021-12-02T11:24:00.624Z,,,,,,,,,,,,,,,,15,,,,,,,,,,,,,,461.31299999999464,,response,,,7,D,,,,,Space,keypress(Space),,,,silence,---- --------- ---------- - key ------- -- --- ------------<br>----- -- -------- ------- ---- ------ - -------- ---- -----<br>--- ------- ---- -- --- -------- --- - ----- ------ ---- --<br>-------- --- -------- -------- --- -------- ---- -- ----- -<br>-------- ---- --- ---------- --------- -- ------- ------ -<br>--------- ----- -----,153812.30000000075,153811.5,153333.517,153340.70000000112,153350.187,153817.053,,4,key
screen,html.Screen,0_4_1_0_1_5,2021-12-02T11:24:01.104Z,,,,,,,,,,,,,,,,15,,,,,,,,,,,,,,474.3470000003581,,response,,,7,D,,,,,Space,keypress(Space),,,,silence,---- --------- ---------- - --- witness -- --- ------------<br>----- -- -------- ------- ---- ------ - -------- ---- -----<br>--- ------- ---- -- --- -------- --- - ----- ------ ---- --<br>-------- --- -------- -------- --- -------- ---- -- ----- -<br>-------- ---- --- ---------- --------- -- ------- ------ -<br>--------- ----- -----,154292.30000000075,154291.40000000037,153800.382,153812.5,153817.053,154300.617,,5,witness
screen,html.Screen,0_4_1_0_1_6,2021-12-02T11:24:01.528Z,,,,,,,,,,,,,,,,15,,,,,,,,,,,,,,414.78300000037416,,response,,,7,D,,,,,Space,keypress(Space),,,,silence,---- --------- ---------- - --- ------- by --- ------------<br>----- -- -------- ------- ---- ------ - -------- ---- -----<br>--- ------- ---- -- --- -------- --- - ----- ------ ---- --<br>-------- --- -------- -------- --- -------- ---- -- ----- -<br>-------- ---- --- ---------- --------- -- ------- ------ -<br>--------- ----- -----,154716.20000000112,154715.40000000037,154283.945,154292.40000000037,154300.617,154733.956,,6,by
screen,html.Screen,0_4_1_0_1_7,2021-12-02T11:24:01.992Z,,,,,,,,,,,,,,,,15,,,,,,,,,,,,,,445.5439999999944,,response,,,7,D,,,,,Space,keypress(Space),,,,silence,---- --------- ---------- - --- ------- -- the ------------<br>----- -- -------- ------- ---- ------ - -------- ---- -----<br>--- ------- ---- -- --- -------- --- - ----- ------ ---- --<br>-------- --- -------- -------- --- -------- ---- -- ----- -<br>-------- ---- --- ---------- --------- -- ------- ------ -<br>--------- ----- -----,155180.30000000075,155179.5,154717.286,154716.6000000015,154733.956,155184.084,,7,the
screen,html.Screen,0_4_1_0_1_8,2021-12-02T11:24:02.464Z,,,,,,,,,,,,,,,,15,,,,,,,,,,,,,,467.41599999999744,,response,,,7,D,,,,,Space,keypress(Space),,,,silence,"---- --------- ---------- - --- ------- -- --- prosecution,<br>----- -- -------- ------- ---- ------ - -------- ---- -----<br>--- ------- ---- -- --- -------- --- - ----- ------ ---- --<br>-------- --- -------- -------- --- -------- ---- -- ----- -<br>-------- ---- --- ---------- --------- -- ------- ------ -<br>--------- ----- -----",155652.20000000112,155651.5,155167.414,155180.6000000015,155184.084,155667.543,,8,"prosecution,"
screen,html.Screen,0_4_1_0_1_9,2021-12-02T11:24:02.952Z,,,,,,,,,,,,,,,,15,,,,,,,,,,,,,,471.8570000003674,,response,,,7,D,,,,,Space,keypress(Space),,,,silence,---- --------- ---------- - --- ------- -- --- ------------<br>vowed -- -------- ------- ---- ------ - -------- ---- -----<br>--- ------- ---- -- --- -------- --- - ----- ------ ---- --<br>-------- --- -------- -------- --- -------- ---- -- ----- -<br>-------- ---- --- ---------- --------- -- ------- ------ -<br>--------- ----- -----,156140.1000000015,156139.40000000037,155650.873,155652.5,155667.543,156150.99,,9,vowed
screen,html.Screen,0_4_1_0_1_10,2021-12-02T11:24:03.392Z,,,,,,,,,,,,,,,,15,,,,,,,,,,,,,,428.41000000038184,,response,,,7,D,,,,,Space,keypress(Space),,,,silence,---- --------- ---------- - --- ------- -- --- ------------<br>----- he -------- ------- ---- ------ - -------- ---- -----<br>--- ------- ---- -- --- -------- --- - ----- ------ ---- --<br>-------- --- -------- -------- --- -------- ---- -- ----- -<br>-------- ---- --- ---------- --------- -- ------- ------ -<br>--------- ----- -----,156580.20000000112,156579.40000000037,156134.32,156140.40000000037,156150.99,156584.436,,10,he
screen,html.Screen,0_4_1_0_1_11,2021-12-02T11:24:03.800Z,,,,,,,,,,,,,,,,15,,,,,,,,,,,,,,402.8640000007581,,response,,,7,D,,,,,Space,keypress(Space),,,,silence,---- --------- ---------- - --- ------- -- --- ------------<br>----- -- wouldn't ------- ---- ------ - -------- ---- -----<br>--- ------- ---- -- --- -------- --- - ----- ------ ---- --<br>-------- --- -------- -------- --- -------- ---- -- ----- -<br>-------- ---- --- ---------- --------- -- ------- ------ -<br>--------- ----- -----,156988.1000000015,156987.30000000075,156567.766,156580.5,156584.436,157001.263,,11,wouldn't
screen,html.Screen,0_4_1_0_1_12,2021-12-02T11:24:04.248Z,,,,,,,,,,,,,,,,15,,,,,,,,,,,,,,434.0370000007388,,response,,,7,D,,,,,Space,keypress(Space),,,,silence,---- --------- ---------- - --- ------- -- --- ------------<br>----- -- -------- testify ---- ------ - -------- ---- -----<br>--- ------- ---- -- --- -------- --- - ----- ------ ---- --<br>-------- --- -------- -------- --- -------- ---- -- ----- -<br>-------- ---- --- ---------- --------- -- ------- ------ -<br>--------- ----- -----,157436.20000000112,157435.30000000075,156984.592,156988.40000000037,157001.263,157451.393,,12,testify
screen,html.Screen,0_4_1_0_1_13,2021-12-02T11:24:04.648Z,,,,,,,,,,,,,,,,15,,,,,,,,,,,,,,383.9070000007341,,response,,,7,D,,,,,Space,keypress(Space),,,,silence,---- --------- ---------- - --- ------- -- --- ------------<br>----- -- -------- ------- when ------ - -------- ---- -----<br>--- ------- ---- -- --- -------- --- - ----- ------ ---- --<br>-------- --- -------- -------- --- -------- ---- -- ----- -<br>-------- ---- --- ---------- --------- -- ------- ------ -<br>--------- ----- -----,157836.1000000015,157835.30000000075,157434.722,157436.40000000037,157451.393,157851.456,,13,when
screen,html.Screen,0_4_1_0_1_14,2021-12-02T11:24:05.231Z,,,,,,,,,,,,,,,,15,,,,,,,,,,,,,,567.744000001112,,response,,,7,D,,,,,Space,keypress(Space),,,,silence,---- --------- ---------- - --- ------- -- --- ------------<br>----- -- -------- ------- ---- served - -------- ---- -----<br>--- ------- ---- -- --- -------- --- - ----- ------ ---- --<br>-------- --- -------- -------- --- -------- ---- -- ----- -<br>-------- ---- --- ---------- --------- -- ------- ------ -<br>--------- ----- -----,158420,158419.20000000112,157834.786,157836.40000000037,157851.456,158434.991,,14,served
screen,html.Screen,0_4_1_0_1_15,2021-12-02T11:24:05.663Z,,,,,,,,,,,,,,,,15,,,,,,,,,,,,,,416.309000000736,,response,,,7,D,,,,,Space,keypress(Space),,,,silence,---- --------- ---------- - --- ------- -- --- ------------<br>----- -- -------- ------- ---- ------ a -------- ---- -----<br>--- ------- ---- -- --- -------- --- - ----- ------ ---- --<br>-------- --- -------- -------- --- -------- ---- -- ----- -<br>-------- ---- --- ---------- --------- -- ------- ------ -<br>--------- ----- -----,158852,158851.30000000075,158418.32,158420.30000000075,158434.991,158868.239,,15,a
screen,html.Screen,0_4_1_0_1_16,2021-12-02T11:24:06.495Z,,,,,,,,,,,,,,,,15,,,,,,,,,,,,,,814.9610000011162,,response,,,7,D,,,,,Space,keypress(Space),,,,silence,---- --------- ---------- - --- ------- -- --- ------------<br>----- -- -------- ------- ---- ------ - subpoena ---- -----<br>--- ------- ---- -- --- -------- --- - ----- ------ ---- --<br>-------- --- -------- -------- --- -------- ---- -- ----- -<br>-------- ---- --- ---------- --------- -- ------- ------ -<br>--------- ----- -----,159683.90000000037,159683.20000000112,158851.571,158852.20000000112,158868.239,159685.327,,16,subpoena
screen,html.Screen,0_4_1_0_1_17,2021-12-02T11:24:07.104Z,,,,,,,,,,,,,,,,15,,,,,,,,,,,,,,606.2730000014999,,response,,,7,D,,,,,Space,keypress(Space),,,,silence,---- --------- ---------- - --- ------- -- --- ------------<br>----- -- -------- ------- ---- ------ - -------- last -----<br>--- ------- ---- -- --- -------- --- - ----- ------ ---- --<br>-------- --- -------- -------- --- -------- ---- -- ----- -<br>-------- ---- --- ---------- --------- -- ------- ------ -<br>--------- ----- -----,160292.40000000037,160291.6000000015,159668.656,159684.1000000015,159685.327,160302.103,,17,last
screen,html.Screen,0_4_1_0_1_18,2021-12-02T11:24:07.543Z,,,,,,,,,,,,,,,,15,,,,,,,,,,,,,,428.9970000014873,,response,,,7,D,,,,,Space,keypress(Space),,,,silence,---- --------- ---------- - --- ------- -- --- ------------<br>----- -- -------- ------- ---- ------ - -------- ---- week.<br>--- ------- ---- -- --- -------- --- - ----- ------ ---- --<br>-------- --- -------- -------- --- -------- ---- -- ----- -<br>-------- ---- --- ---------- --------- -- ------- ------ -<br>--------- ----- -----,160731.90000000037,160731.1000000015,160285.433,160292.6000000015,160302.103,160735.562,,18,week.
screen,html.Screen,0_4_1_0_1_19,2021-12-02T11:24:08.039Z,,,,,,,,,,,,,,,,15,,,,,,,,,,,,,,491.53800000148476,,response,,,7,D,,,,,Space,keypress(Space),,,,silence,---- --------- ---------- - --- ------- -- --- ------------<br>----- -- -------- ------- ---- ------ - -------- ---- -----<br>His ------- ---- -- --- -------- --- - ----- ------ ---- --<br>-------- --- -------- -------- --- -------- ---- -- ----- -<br>-------- ---- --- ---------- --------- -- ------- ------ -<br>--------- ----- -----,161227.80000000075,161227.1000000015,160718.892,160732.1000000015,160735.562,161235.677,,19,His
screen,html.Screen,0_4_1_0_1_20,2021-12-02T11:24:08.479Z,,,,,,,,,,,,,,,,15,,,,,,,,,,,,,,431.4230000014941,,response,,,7,D,,,,,Space,keypress(Space),,,,silence,---- --------- ---------- - --- ------- -- --- ------------<br>----- -- -------- ------- ---- ------ - -------- ---- -----<br>--- lawyers ---- -- --- -------- --- - ----- ------ ---- --<br>-------- --- -------- -------- --- -------- ---- -- ----- -<br>-------- ---- --- ---------- --------- -- ------- ------ -<br>--------- ----- -----,161667.90000000037,161667.1000000015,161219.007,161228.1000000015,161235.677,161669.137,,20,lawyers
screen,html.Screen,0_4_1_0_1_21,2021-12-02T11:24:08.879Z,,,,,,,,,,,,,,,,15,,,,,,,,,,,,,,397.9630000015022,,response,,,7,D,,,,,Space,keypress(Space),,,,silence,---- --------- ---------- - --- ------- -- --- ------------<br>----- -- -------- ------- ---- ------ - -------- ---- -----<br>--- ------- said -- --- -------- --- - ----- ------ ---- --<br>-------- --- -------- -------- --- -------- ---- -- ----- -<br>-------- ---- --- ---------- --------- -- ------- ------ -<br>--------- ----- -----,162067.90000000037,162067.1000000015,161652.467,161668.1000000015,161669.137,162069.284,,21,said
screen,html.Screen,0_4_1_0_1_22,2021-12-02T11:24:09.359Z,,,,,,,,,,,,,,,,15,,,,,,,,,,,,,,477.7159999999858,,response,,,7,D,,,,,Space,keypress(Space),,,,silence,---- --------- ---------- - --- ------- -- --- ------------<br>----- -- -------- ------- ---- ------ - -------- ---- -----<br>--- ------- ---- he --- -------- --- - ----- ------ ---- --<br>-------- --- -------- -------- --- -------- ---- -- ----- -<br>-------- ---- --- ---------- --------- -- ------- ------ -<br>--------- ----- -----,162547.80000000075,162547,162052.613,162068.1000000015,162069.284,162552.697,,22,he
screen,html.Screen,0_4_1_0_1_23,2021-12-02T11:24:09.743Z,,,,,,,,,,,,,,,,15,,,,,,,,,,,,,,378.30300000001444,,response,,,7,D,,,,,Space,keypress(Space),,,,silence,---- --------- ---------- - --- ------- -- --- ------------<br>----- -- -------- ------- ---- ------ - -------- ---- -----<br>--- ------- ---- -- was -------- --- - ----- ------ ---- --<br>-------- --- -------- -------- --- -------- ---- -- ----- -<br>-------- ---- --- ---------- --------- -- ------- ------ -<br>--------- ----- -----,162931.80000000075,162931,162536.027,162548.1000000015,162552.697,162936.149,,23,was
screen,html.Screen,0_4_1_0_1_24,2021-12-02T11:24:10.263Z,,,,,,,,,,,,,,,,15,,,,,,,,,,,,,,514.8509999999951,,response,,,7,D,,,,,Space,keypress(Space),,,,silence,---- --------- ---------- - --- ------- -- --- ------------<br>----- -- -------- ------- ---- ------ - -------- ---- -----<br>--- ------- ---- -- --- prepared --- - ----- ------ ---- --<br>-------- --- -------- -------- --- -------- ---- -- ----- -<br>-------- ---- --- ---------- --------- -- ------- ------ -<br>--------- ----- -----,163451.70000000112,163451,162919.479,162932,162936.149,163452.897,,24,prepared
screen,html.Screen,0_4_1_0_1_25,2021-12-02T11:24:10.703Z,,,,,,,,,,,,,,,,15,,,,,,,,,,,,,,438.1030000000028,,response,,,7,D,,,,,Space,keypress(Space),,,,silence,---- --------- ---------- - --- ------- -- --- ------------<br>----- -- -------- ------- ---- ------ - -------- ---- -----<br>--- ------- ---- -- --- -------- for - ----- ------ ---- --<br>-------- --- -------- -------- --- -------- ---- -- ----- -<br>-------- ---- --- ---------- --------- -- ------- ------ -<br>--------- ----- -----,163891.70000000112,163891,163436.227,163452,163452.897,163903.114,,25,for
screen,html.Screen,0_4_1_0_1_26,2021-12-02T11:24:11.095Z,,,,,,,,,,,,,,,,15,,,,,,,,,,,,,,379.8859999999986,,response,,,7,D,,,,,Space,keypress(Space),,,,silence,---- --------- ---------- - --- ------- -- --- ------------<br>----- -- -------- ------- ---- ------ - -------- ---- -----<br>--- ------- ---- -- --- -------- --- a ----- ------ ---- --<br>-------- --- -------- -------- --- -------- ---- -- ----- -<br>-------- ---- --- ---------- --------- -- ------- ------ -<br>--------- ----- -----,164283.70000000112,164283,163886.443,163892,163903.114,164286.499,,26,a
screen,html.Screen,0_4_1_0_1_27,2021-12-02T11:24:11.447Z,,,,,,,,,,,,,,,,15,,,,,,,,,,,,,,348.4010000003618,,response,,,7,D,,,,,Space,keypress(Space),,,,silence,---- --------- ---------- - --- ------- -- --- ------------<br>----- -- -------- ------- ---- ------ - -------- ---- -----<br>--- ------- ---- -- --- -------- --- - third ------ ---- --<br>-------- --- -------- -------- --- -------- ---- -- ----- -<br>-------- ---- --- ---------- --------- -- ------- ------ -<br>--------- ----- -----,164635.70000000112,164634.90000000037,164269.829,164284,164286.499,164653.316,,27,third
screen,html.Screen,0_4_1_0_1_28,2021-12-02T11:24:11.863Z,,,,,,,,,,,,,,,,15,,,,,,,,,,,,,,397.5840000003809,,response,,,7,D,,,,,Space,keypress(Space),,,,silence,---- --------- ---------- - --- ------- -- --- ------------<br>----- -- -------- ------- ---- ------ - -------- ---- -----<br>--- ------- ---- -- --- -------- --- - ----- prison ---- --<br>-------- --- -------- -------- --- -------- ---- -- ----- -<br>-------- ---- --- ---------- --------- -- ------- ------ -<br>--------- ----- -----,165051.80000000075,165050.90000000037,164636.645,164636,164653.316,165053.362,,28,prison
screen,html.Screen,0_4_1_0_1_29,2021-12-02T11:24:12.343Z,,,,,,,,,,,,,,,,15,,,,,,,,,,,,,,477.5380000003788,,response,,,7,D,,,,,Space,keypress(Space),,,,silence,---- --------- ---------- - --- ------- -- --- ------------<br>----- -- -------- ------- ---- ------ - -------- ---- -----<br>--- ------- ---- -- --- -------- --- - ----- ------ stay --<br>-------- --- -------- -------- --- -------- ---- -- ----- -<br>-------- ---- --- ---------- --------- -- ------- ------ -<br>--------- ----- -----,165531.6000000015,165530.90000000037,165036.692,165052.1000000015,165053.362,165536.829,,29,stay
screen,html.Screen,0_4_1_0_1_30,2021-12-02T11:24:12.807Z,,,,,,,,,,,,,,,,15,,,,,,,,,,,,,,457.97100000074715,,response,,,7,D,,,,,Space,keypress(Space),,,,silence,---- --------- ---------- - --- ------- -- --- ------------<br>----- -- -------- ------- ---- ------ - -------- ---- -----<br>--- ------- ---- -- --- -------- --- - ----- ------ ---- to<br>-------- --- -------- -------- --- -------- ---- -- ----- -<br>-------- ---- --- ---------- --------- -- ------- ------ -<br>--------- ----- -----,165995.70000000112,165994.80000000075,165520.159,165531.80000000075,165536.829,166003.662,,30,to
screen,html.Screen,0_4_1_0_1_31,2021-12-02T11:24:13.399Z,,,,,,,,,,,,,,,,15,,,,,,,,,,,,,,583.1380000007339,,response,,,7,D,,,,,Space,keypress(Space),,,,silence,---- --------- ---------- - --- ------- -- --- ------------<br>----- -- -------- ------- ---- ------ - -------- ---- -----<br>--- ------- ---- -- --- -------- --- - ----- ------ ---- --<br>maintain --- -------- -------- --- -------- ---- -- ----- -<br>-------- ---- --- ---------- --------- -- ------- ------ -<br>--------- ----- -----,166587.70000000112,166586.80000000075,165986.991,165995.90000000037,166003.662,166603.76,,31,maintain
screen,html.Screen,0_4_1_0_1_32,2021-12-02T11:24:13.791Z,,,,,,,,,,,,,,,,15,,,,,,,,,,,,,,375.04000000073574,,response,,,7,D,,,,,Space,keypress(Space),,,,silence,---- --------- ---------- - --- ------- -- --- ------------<br>----- -- -------- ------- ---- ------ - -------- ---- -----<br>--- ------- ---- -- --- -------- --- - ----- ------ ---- --<br>-------- his -------- -------- --- -------- ---- -- ----- -<br>-------- ---- --- ---------- --------- -- ------- ------ -<br>--------- ----- -----,166979.5,166978.80000000075,166587.09,166587.90000000037,166603.76,166987.261,,32,his
screen,html.Screen,0_4_1_0_1_33,2021-12-02T11:24:14.175Z,,,,,,,,,,,,,,,,15,,,,,,,,,,,,,,375.53900000074646,,response,,,7,D,,,,,Space,keypress(Space),,,,silence,---- --------- ---------- - --- ------- -- --- ------------<br>----- -- -------- ------- ---- ------ - -------- ---- -----<br>--- ------- ---- -- --- -------- --- - ----- ------ ---- --<br>-------- --- silence. -------- --- -------- ---- -- ----- -<br>-------- ---- --- ---------- --------- -- ------- ------ -<br>--------- ----- -----,167363.5,167362.80000000075,166970.59,166979.80000000075,166987.261,167370.653,,33,silence.
screen,html.Screen,0_4_1_0_1_34,2021-12-02T11:24:14.935Z,,,,,,,,,,,,,,,,15,,,,,,,,,,,,,,752.1470000007539,,response,,,7,D,,,,,Space,keypress(Space),,,,silence,---- --------- ---------- - --- ------- -- --- ------------<br>----- -- -------- ------- ---- ------ - -------- ---- -----<br>--- ------- ---- -- --- -------- --- - ----- ------ ---- --<br>-------- --- -------- Anderson --- -------- ---- -- ----- -<br>-------- ---- --- ---------- --------- -- ------- ------ -<br>--------- ----- -----,168123.6000000015,168122.80000000075,167353.983,167363.80000000075,167370.653,168137.563,,34,Anderson
screen,html.Screen,0_4_1_0_1_35,2021-12-02T11:24:15.335Z,,,,,,,,,,,,,,,,15,,,,,,,,,,,,,,385.2370000007504,,response,,,7,D,,,,,Space,keypress(Space),,,,silence,---- --------- ---------- - --- ------- -- --- ------------<br>----- -- -------- ------- ---- ------ - -------- ---- -----<br>--- ------- ---- -- --- -------- --- - ----- ------ ---- --<br>-------- --- -------- -------- was -------- ---- -- ----- -<br>-------- ---- --- ---------- --------- -- ------- ------ -<br>--------- ----- -----,168523.6000000015,168522.80000000075,168120.892,168123.80000000075,168137.563,168537.64,,35,was
screen,html.Screen,0_4_1_0_1_36,2021-12-02T11:24:15.943Z,,,,,,,,,,,,,,,,15,,,,,,,,,,,,,,593.0600000011036,,response,,,7,D,,,,,Space,keypress(Space),,,,silence,---- --------- ---------- - --- ------- -- --- ------------<br>----- -- -------- ------- ---- ------ - -------- ---- -----<br>--- ------- ---- -- --- -------- --- - ----- ------ ---- --<br>-------- --- -------- -------- --- released ---- -- ----- -<br>-------- ---- --- ---------- --------- -- ------- ------ -<br>--------- ----- -----,169131.5,169130.70000000112,168520.97,168523.80000000075,168537.64,169137.775,,36,released
screen,html.Screen,0_4_1_0_1_37,2021-12-02T11:24:16.343Z,,,,,,,,,,,,,,,,15,,,,,,,,,,,,,,393.0250000007509,,response,,,7,D,,,,,Space,keypress(Space),,,,silence,---- --------- ---------- - --- ------- -- --- ------------<br>----- -- -------- ------- ---- ------ - -------- ---- -----<br>--- ------- ---- -- --- -------- --- - ----- ------ ---- --<br>-------- --- -------- -------- --- -------- July -- ----- -<br>-------- ---- --- ---------- --------- -- ------- ------ -<br>--------- ----- -----,169531.6000000015,169530.80000000075,169121.105,169131.80000000075,169137.775,169537.77,,37,July
screen,html.Screen,0_4_1_0_1_38,2021-12-02T11:24:16.743Z,,,,,,,,,,,,,,,,15,,,,,,,,,,,,,,392.93000000112806,,response,,,7,D,,,,,Space,keypress(Space),,,,silence,---- --------- ---------- - --- ------- -- --- ------------<br>----- -- -------- ------- ---- ------ - -------- ---- -----<br>--- ------- ---- -- --- -------- --- - ----- ------ ---- --<br>-------- --- -------- -------- --- -------- ---- 20 ----- -<br>-------- ---- --- ---------- --------- -- ------- ------ -<br>--------- ----- -----,169931.5,169930.70000000112,169521.101,169531.70000000112,169537.77,169938.087,,38,20
screen,html.Screen,0_4_1_0_1_39,2021-12-02T11:24:17.639Z,,,,,,,,,,,,,,,,15,,,,,,,,,,,,,,889.0130000014906,,response,,,7,D,,,,,Space,keypress(Space),,,,silence,---- --------- ---------- - --- ------- -- --- ------------<br>----- -- -------- ------- ---- ------ - -------- ---- -----<br>--- ------- ---- -- --- -------- --- - ----- ------ ---- --<br>-------- --- -------- -------- --- -------- ---- -- after -<br>-------- ---- --- ---------- --------- -- ------- ------ -<br>--------- ----- -----,170827.80000000075,170827.1000000015,169921.415,169931.70000000112,169938.087,170838.097,,39,after
screen,html.Screen,0_4_1_0_1_40,2021-12-02T11:24:18.087Z,,,,,,,,,,,,,,,,15,,,,,,,,,,,,,,436.60300000110874,,response,,,7,D,,,,,Space,keypress(Space),,,,silence,---- --------- ---------- - --- ------- -- --- ------------<br>----- -- -------- ------- ---- ------ - -------- ---- -----<br>--- ------- ---- -- --- -------- --- - ----- ------ ---- --<br>-------- --- -------- -------- --- -------- ---- -- ----- a<br>-------- ---- --- ---------- --------- -- ------- ------ -<br>--------- ----- -----,171275.40000000037,171274.70000000112,170821.428,170828.1000000015,170838.097,171288.423,,40,a
screen,html.Screen,0_4_1_0_1_41,2021-12-02T11:24:18.527Z,,,,,,,,,,,,,,,,15,,,,,,,,,,,,,,426.17700000148034,,response,,,7,D,,,,,Space,keypress(Space),,,,silence,---- --------- ---------- - --- ------- -- --- ------------<br>----- -- -------- ------- ---- ------ - -------- ---- -----<br>--- ------- ---- -- --- -------- --- - ----- ------ ---- --<br>-------- --- -------- -------- --- -------- ---- -- ----- -<br>two-week ---- --- ---------- --------- -- ------- ------ -<br>--------- ----- -----,171715.30000000075,171714.6000000015,171271.752,171275.70000000112,171288.423,171721.812,,41,two-week
screen,html.Screen,0_4_1_0_1_42,2021-12-02T11:24:18.919Z,,,,,,,,,,,,,,,,15,,,,,,,,,,,,,,384.88800000111223,,response,,,7,D,,,,,Space,keypress(Space),,,,silence,---- --------- ---------- - --- ------- -- --- ------------<br>----- -- -------- ------- ---- ------ - -------- ---- -----<br>--- ------- ---- -- --- -------- --- - ----- ------ ---- --<br>-------- --- -------- -------- --- -------- ---- -- ----- -<br>-------- stay --- ---------- --------- -- ------- ------ -<br>--------- ----- -----,172107.40000000037,172106.70000000112,171705.142,171715.6000000015,171721.812,172121.962,,42,stay
screen,html.Screen,0_4_1_0_1_43,2021-12-02T11:24:19.391Z,,,,,,,,,,,,,,,,15,,,,,,,,,,,,,,456.6380000014906,,response,,,7,D,,,,,Space,keypress(Space),,,,silence,---- --------- ---------- - --- ------- -- --- ------------<br>----- -- -------- ------- ---- ------ - -------- ---- -----<br>--- ------- ---- -- --- -------- --- - ----- ------ ---- --<br>-------- --- -------- -------- --- -------- ---- -- ----- -<br>-------- ---- for ---------- --------- -- ------- ------ -<br>--------- ----- -----,172579.5,172578.6000000015,172105.291,172107.70000000112,172121.962,172588.721,,43,for
screen,html.Screen,0_4_1_0_1_44,2021-12-02T11:24:19.879Z,,,,,,,,,,,,,,,,15,,,,,,,,,,,,,,477.77900000000955,,response,,,7,D,,,,,Space,keypress(Space),,,,silence,---- --------- ---------- - --- ------- -- --- ------------<br>----- -- -------- ------- ---- ------ - -------- ---- -----<br>--- ------- ---- -- --- -------- --- - ----- ------ ---- --<br>-------- --- -------- -------- --- -------- ---- -- ----- -<br>-------- ---- --- previously --------- -- ------- ------ -<br>--------- ----- -----,173067.30000000075,173066.5,172572.051,172579.70000000112,172588.721,173072.167,,44,previously
screen,html.Screen,0_4_1_0_1_45,2021-12-02T11:24:20.303Z,,,,,,,,,,,,,,,,15,,,,,,,,,,,,,,418.4330000015034,,response,,,7,D,,,,,Space,keypress(Space),,,,silence,---- --------- ---------- - --- ------- -- --- ------------<br>----- -- -------- ------- ---- ------ - -------- ---- -----<br>--- ------- ---- -- --- -------- --- - ----- ------ ---- --<br>-------- --- -------- -------- --- -------- ---- -- ----- -<br>-------- ---- --- ---------- declining -- ------- ------ -<br>--------- ----- -----,173491.30000000075,173490.6000000015,173055.497,173067.5,173072.167,173505.501,,45,declining
screen,html.Screen,0_4_1_0_1_46,2021-12-02T11:24:20.743Z,,,,,,,,,,,,,,,,15,,,,,,,,,,,,,,424.9990000000107,,response,,,7,D,,,,,Space,keypress(Space),,,,silence,---- --------- ---------- - --- ------- -- --- ------------<br>----- -- -------- ------- ---- ------ - -------- ---- -----<br>--- ------- ---- -- --- -------- --- - ----- ------ ---- --<br>-------- --- -------- -------- --- -------- ---- -- ----- -<br>-------- ---- --- ---------- --------- to ------- ------ -<br>--------- ----- -----,173931.30000000075,173930.5,173488.832,173491.6000000015,173505.501,173939.026,,46,to
screen,html.Screen,0_4_1_0_1_47,2021-12-02T11:24:21.191Z,,,,,,,,,,,,,,,,15,,,,,,,,,,,,,,439.57400000147754,,response,,,7,D,,,,,Space,keypress(Space),,,,silence,---- --------- ---------- - --- ------- -- --- ------------<br>----- -- -------- ------- ---- ------ - -------- ---- -----<br>--- ------- ---- -- --- -------- --- - ----- ------ ---- --<br>-------- --- -------- -------- --- -------- ---- -- ----- -<br>-------- ---- --- ---------- --------- -- testify ------ -<br>--------- ----- -----,174379.30000000075,174378.6000000015,173922.356,173931.5,173939.026,174389.144,,47,testify
screen,html.Screen,0_4_1_0_1_48,2021-12-02T11:24:21.655Z,,,,,,,,,,,,,,,,15,,,,,,,,,,,,,,453.35599999999977,,response,,,7,D,,,,,Space,keypress(Space),,,,silence,---- --------- ---------- - --- ------- -- --- ------------<br>----- -- -------- ------- ---- ------ - -------- ---- -----<br>--- ------- ---- -- --- -------- --- - ----- ------ ---- --<br>-------- --- -------- -------- --- -------- ---- -- ----- -<br>-------- ---- --- ---------- --------- -- ------- before -<br>--------- ----- -----,174843.20000000112,174842.5,174372.474,174379.6000000015,174389.144,174856.052,,48,before
screen,html.Screen,0_4_1_0_1_49,2021-12-02T11:24:22.087Z,,,,,,,,,,,,,,,,15,,,,,,,,,,,,,,418.3480000003765,,response,,,7,D,,,,,Space,keypress(Space),,,,silence,---- --------- ---------- - --- ------- -- --- ------------<br>----- -- -------- ------- ---- ------ - -------- ---- -----<br>--- ------- ---- -- --- -------- --- - ----- ------ ---- --<br>-------- --- -------- -------- --- -------- ---- -- ----- -<br>-------- ---- --- ---------- --------- -- ------- ------ a<br>--------- ----- -----,175275.20000000112,175274.40000000037,174839.38,174843.5,174856.052,175289.458,,49,a
screen,html.Screen,0_4_1_0_1_50,2021-12-02T11:24:22.567Z,,,,,,,,,,,,,,,,15,,,,,,,,,,,,,,465.04199999998673,,response,,,7,D,,,,,Space,keypress(Space),,,,silence,---- --------- ---------- - --- ------- -- --- ------------<br>----- -- -------- ------- ---- ------ - -------- ---- -----<br>--- ------- ---- -- --- -------- --- - ----- ------ ---- --<br>-------- --- -------- -------- --- -------- ---- -- ----- -<br>-------- ---- --- ---------- --------- -- ------- ------ -<br>different ----- -----,175755.30000000075,175754.5,175272.787,175275.40000000037,175289.458,175772.881,,50,different
screen,html.Screen,0_4_1_0_1_51,2021-12-02T11:24:23.007Z,,,,,,,,,,,,,,,,15,,,,,,,,,,,,,,421.61900000000605,,response,,,7,D,,,,,Space,keypress(Space),,,,silence,---- --------- ---------- - --- ------- -- --- ------------<br>----- -- -------- ------- ---- ------ - -------- ---- -----<br>--- ------- ---- -- --- -------- --- - ----- ------ ---- --<br>-------- --- -------- -------- --- -------- ---- -- ----- -<br>-------- ---- --- ---------- --------- -- ------- ------ -<br>--------- grand -----,176195.20000000112,176194.5,175756.211,175755.5,175772.881,176206.378,,51,grand
screen,html.Screen,0_4_1_0_1_52,2021-12-02T11:24:23.575Z,,,,,,,,,,,,,,,,15,,,,,,,,,,,,,,555.9220000007481,,response,,,7,D,,,,,Space,keypress(Space),,,,silence,---- --------- ---------- - --- ------- -- --- ------------<br>----- -- -------- ------- ---- ------ - -------- ---- -----<br>--- ------- ---- -- --- -------- --- - ----- ------ ---- --<br>-------- --- -------- -------- --- -------- ---- -- ----- -<br>-------- ---- --- ---------- --------- -- ------- ------ -<br>--------- ----- jury.,176763.20000000112,176762.30000000075,176189.707,176195.40000000037,176206.378,176773.134,,52,jury.
Item 7,flow.Loop,0_4_1_0_1,2021-12-02T11:24:23.575Z,,,,,,,,,,,,,,,,,,,,,,,,,,,,,,28346.72700000074,,completion,,,,,,,,,,,,,,,,176763.6000000015,176762.30000000075,148398.903,148400.1000000015,148415.573,176773.134,,,
Question 1,html.Screen,0_4_1_0_2,2021-12-02T11:24:26.759Z,,,,,,,,,,,,,,,,,,,,,,,,,,,true,FALSE,,3172.866000000009,,response,,,7,D,,,,,FALSE,click #choice-2,,,,silence,,179947.1000000015,179946,176756.464,176763.70000000112,176773.134,179957.349,,,
