sender,sender_type,sender_id,timestamp,meta,,Blues,Classical,Country,Dance,Electronic,Folk,Gospel,Hip-Hop,Jazz,Latin,Musical/Film,New-age,Pop,Provo_ID,R&B,Rap,Reggae,Religious,Rock,Soul,Swing,Traditional,age,artist_name,correct,correctResponse,distraction,duration,education,ended_on,familiarity,gender,item,list,music_frequency,offensiveness,pleasantness,preference,response,response_action,snippet_file,song_name,song_rating,sound,text,time_commit,time_end,time_render,time_run,time_show,time_switch,url,word,word_ID
Instructions,html.Page,0_0,2021-11-12T14:06:33.940Z,"{""labjs_version"":""20.2.3"",""labjs_build"":{""flavor"":""production"",""commit"":""7ea907d66ca8aeef8054924ca5d82ffbe11e34e5""},""location"":""https://run.pavlovia.org/mvasilev/lab_music_a/"",""userAgent"":""Mozilla/5.0 (Windows NT 6.1; Win64; x64) AppleWebKit/537.36 (KHTML, like Gecko) Chrome/95.0.4638.69 Safari/537.36"",""platform"":""Win32"",""language"":""en-US"",""locale"":""en-US"",""timeZone"":""Europe/London"",""timezoneOffset"":0,""screen_width"":1920,""screen_height"":1080,""scroll_width"":1920,""scroll_height"":959,""window_innerWidth"":1920,""window_innerHeight"":1007,""devicePixelRatio"":1}",,,,,,,,,,,,,,,,,,,,,,,,,,,,,36031.62200002384,,form submission,,,,,,,,,,,,,,,,55135.80000001192,55134.60000002384,19069.638,19076.30000001192,19102.978,55138.368,{},,
Headphones,html.Page,0_1,2021-11-12T14:06:39.099Z,,,,,,,,,,,,,,,,,,,,,,,,,,,,,,5152.631999999998,,form submission,,,,,,,,,,,,,,,,60291.60000002384,60291,55121.737,55136.60000002384,55138.368,60297.321,,,
Holding screen,html.Screen,0_2_0_0,2021-11-12T14:06:49.097Z,,,,,,,,,,,,,,,,,,,,,,,,,,,,,,10002.220999999998,,timeout,,,,,,,,,,,,,,,,70289.10000002384,70282.873,60280.647,60292.200000047684,60297.321,70299.542,,,
screen,html.Screen,0_2_0_1_0,2021-11-12T14:06:50.604Z,,,,,,,,,,,,,,,,53,,,,,,,,,,,,,,1495.7580000119196,,response,,,99,,,,,,Space,keypress(Space),,,,,When -- ----- -- ------ - ------- --- ----------<br>------------- ------ ------ ---- ---- ------- ----- -- ----<br>-------- ------- -- ---------- --- - --- ----- ----- ----<br>---- --- --- ----- --- ---- ---- ------- ----- ---- -------<br>--- --- -- ----- -- --- ---- -- --- ---- -- ------ ------<br>--- ----- -- ----,71796.70000004768,71795.30000001192,70282.873,70289.60000002384,70299.542,71800.33,,0,When
screen,html.Screen,0_2_0_1_1,2021-11-12T14:06:51.011Z,,,,,,,,,,,,,,,,53,,,,,,,,,,,,,,402.57000003576104,,response,,,99,,,,,,Space,keypress(Space),,,,,---- it ----- -- ------ - ------- --- ----------<br>------------- ------ ------ ---- ---- ------- ----- -- ----<br>-------- ------- -- ---------- --- - --- ----- ----- ----<br>---- --- --- ----- --- ---- ---- ------- ----- ---- -------<br>--- --- -- ----- -- --- ---- -- --- ---- -- ------ ------<br>--- ----- -- ----,72203.80000001192,72202.90000003576,71783.658,71797.10000002384,71800.33,72216.789,,1,it
screen,html.Screen,0_2_0_1_2,2021-11-12T14:06:51.619Z,,,,,,,,,,,,,,,,53,,,,,,,,,,,,,,594.1110000357585,,response,,,99,,,,,,Space,keypress(Space),,,,,---- -- comes -- ------ - ------- --- ----------<br>------------- ------ ------ ---- ---- ------- ----- -- ----<br>-------- ------- -- ---------- --- - --- ----- ----- ----<br>---- --- --- ----- --- ---- ---- ------- ----- ---- -------<br>--- --- -- ----- -- --- ---- -- --- ---- -- ------ ------<br>--- ----- -- ----,72811.70000004768,72810.90000003576,72200.12,72204,72216.789,72817.114,,2,comes
screen,html.Screen,0_2_0_1_3,2021-11-12T14:06:52.219Z,,,,,,,,,,,,,,,,53,,,,,,,,,,,,,,593.6860000119195,,response,,,99,,,,,,Space,keypress(Space),,,,,---- -- ----- to ------ - ------- --- ----------<br>------------- ------ ------ ---- ---- ------- ----- -- ----<br>-------- ------- -- ---------- --- - --- ----- ----- ----<br>---- --- --- ----- --- ---- ---- ------- ----- ---- -------<br>--- --- -- ----- -- --- ---- -- --- ---- -- ------ ------<br>--- ----- -- ----,73411.80000001192,73410.80000001192,72800.443,72812,72817.114,73417.28,,3,to
screen,html.Screen,0_2_0_1_4,2021-11-12T14:06:52.739Z,,,,,,,,,,,,,,,,53,,,,,,,,,,,,,,513.5200000119221,,response,,,99,,,,,,Space,keypress(Space),,,,,---- -- ----- -- having - ------- --- ----------<br>------------- ------ ------ ---- ---- ------- ----- -- ----<br>-------- ------- -- ---------- --- - --- ----- ----- ----<br>---- --- --- ----- --- ---- ---- ------- ----- ---- -------<br>--- --- -- ----- -- --- ---- -- --- ---- -- ------ ------<br>--- ----- -- ----,73932,73930.80000001192,73400.609,73412.40000003576,73417.28,73933.921,,4,having
screen,html.Screen,0_2_0_1_5,2021-11-12T14:06:53.219Z,,,,,,,,,,,,,,,,53,,,,,,,,,,,,,,476.87900001191883,,response,,,99,,,,,,Space,keypress(Space),,,,,---- -- ----- -- ------ a ------- --- ----------<br>------------- ------ ------ ---- ---- ------- ----- -- ----<br>-------- ------- -- ---------- --- - --- ----- ----- ----<br>---- --- --- ----- --- ---- ---- ------- ----- ---- -------<br>--- --- -- ----- -- --- ---- -- --- ---- -- ------ ------<br>--- ----- -- ----,74411.70000004768,74410.80000001192,73917.252,73932.30000001192,73933.921,74417.585,,5,a
screen,html.Screen,0_2_0_1_6,2021-11-12T14:06:53.795Z,,,,,,,,,,,,,,,,53,,,,,,,,,,,,,,569.2150000119145,,response,,,99,,,,,,Space,keypress(Space),,,,,---- -- ----- -- ------ - lasting --- ----------<br>------------- ------ ------ ---- ---- ------- ----- -- ----<br>-------- ------- -- ---------- --- - --- ----- ----- ----<br>---- --- --- ----- --- ---- ---- ------- ----- ---- -------<br>--- --- -- ----- -- --- ---- -- --- ---- -- ------ ------<br>--- ----- -- ----,74987.80000001192,74986.80000001192,74400.913,74412.20000004768,74417.585,75000.854,,6,lasting
screen,html.Screen,0_2_0_1_7,2021-11-12T14:06:54.387Z,,,,,,,,,,,,,,,,53,,,,,,,,,,,,,,577.8460000476771,,response,,,99,,,,,,Space,keypress(Space),,,,,---- -- ----- -- ------ - ------- and ----------<br>------------- ------ ------ ---- ---- ------- ----- -- ----<br>-------- ------- -- ---------- --- - --- ----- ----- ----<br>---- --- --- ----- --- ---- ---- ------- ----- ---- -------<br>--- --- -- ----- -- --- ---- -- --- ---- -- ------ ------<br>--- ----- -- ----,75579.70000004768,75578.70000004768,74984.185,74988.10000002384,75000.854,75584.576,,7,and
screen,html.Screen,0_2_0_1_8,2021-11-12T14:06:55.131Z,,,,,,,,,,,,,,,,53,,,,,,,,,,,,,,738.1240000476828,,response,,,99,,,,,,Space,keypress(Space),,,,,---- -- ----- -- ------ - ------- --- fulfilling<br>------------- ------ ------ ---- ---- ------- ----- -- ----<br>-------- ------- -- ---------- --- - --- ----- ----- ----<br>---- --- --- ----- --- ---- ---- ------- ----- ---- -------<br>--- --- -- ----- -- --- ---- -- --- ---- -- ------ ------<br>--- ----- -- ----,76323.90000003576,76322.70000004768,75567.904,75580.10000002384,75584.576,76334.625,,8,fulfilling
screen,html.Screen,0_2_0_1_9,2021-11-12T14:06:55.803Z,,,,,,,,,,,,,,,,53,,,,,,,,,,,,,,659.9750000238419,,response,,,99,,,,,,Space,keypress(Space),,,,,"---- -- ----- -- ------ - ------- --- ----------<br>relationship, ------ ------ ---- ---- ------- ----- -- ----<br>-------- ------- -- ---------- --- - --- ----- ----- ----<br>---- --- --- ----- --- ---- ---- ------- ----- ---- -------<br>--- --- -- ----- -- --- ---- -- --- ---- -- ------ ------<br>--- ----- -- ----",76995.60000002384,76994.60000002384,76317.955,76324.20000004768,76334.625,77001.541,,9,"relationship,"
screen,html.Screen,0_2_0_1_10,2021-11-12T14:06:56.403Z,,,,,,,,,,,,,,,,53,,,,,,,,,,,,,,593.0590000238444,,response,,,99,,,,,,Space,keypress(Space),,,,,---- -- ----- -- ------ - ------- --- ----------<br>------------- common ------ ---- ---- ------- ----- -- ----<br>-------- ------- -- ---------- --- - --- ----- ----- ----<br>---- --- --- ----- --- ---- ---- ------- ----- ---- -------<br>--- --- -- ----- -- --- ---- -- --- ---- -- ------ ------<br>--- ----- -- ----,77595.60000002384,77594.60000002384,76984.87,76995.90000003576,77001.541,77601.601,,10,common
screen,html.Screen,0_2_0_1_11,2021-11-12T14:06:56.995Z,,,,,,,,,,,,,,,,53,,,,,,,,,,,,,,584.9990000238467,,response,,,99,,,,,,Space,keypress(Space),,,,,---- -- ----- -- ------ - ------- --- ----------<br>------------- ------ wisdom ---- ---- ------- ----- -- ----<br>-------- ------- -- ---------- --- - --- ----- ----- ----<br>---- --- --- ----- --- ---- ---- ------- ----- ---- -------<br>--- --- -- ----- -- --- ---- -- --- ---- -- ------ ------<br>--- ----- -- ----,78187.60000002384,78186.60000002384,77584.931,77595.80000001192,77601.601,78201.841,,11,wisdom
screen,html.Screen,0_2_0_1_12,2021-11-12T14:06:57.587Z,,,,,,,,,,,,,,,,53,,,,,,,,,,,,,,576.6589999999997,,response,,,99,,,,,,Space,keypress(Space),,,,,---- -- ----- -- ------ - ------- --- ----------<br>------------- ------ ------ says ---- ------- ----- -- ----<br>-------- ------- -- ---------- --- - --- ----- ----- ----<br>---- --- --- ----- --- ---- ---- ------- ----- ---- -------<br>--- --- -- ----- -- --- ---- -- --- ---- -- ------ ------<br>--- ----- -- ----,78779.30000001192,78778.5,78185.17,78187.80000001192,78201.841,78785.334,,12,says
screen,html.Screen,0_2_0_1_13,2021-11-12T14:06:58.107Z,,,,,,,,,,,,,,,,53,,,,,,,,,,,,,,513.1659999999974,,response,,,99,,,,,,Space,keypress(Space),,,,,---- -- ----- -- ------ - ------- --- ----------<br>------------- ------ ------ ---- that ------- ----- -- ----<br>-------- ------- -- ---------- --- - --- ----- ----- ----<br>---- --- --- ----- --- ---- ---- ------- ----- ---- -------<br>--- --- -- ----- -- --- ---- -- --- ---- -- ------ ------<br>--- ----- -- ----,79299.30000001192,79298.5,78768.663,78779.60000002384,78785.334,79302.072,,13,that
screen,html.Screen,0_2_0_1_14,2021-11-12T14:06:58.691Z,,,,,,,,,,,,,,,,53,,,,,,,,,,,,,,580.4279999999999,,response,,,99,,,,,,Space,keypress(Space),,,,,---- -- ----- -- ------ - ------- --- ----------<br>------------- ------ ------ ---- ---- feeling ----- -- ----<br>-------- ------- -- ---------- --- - --- ----- ----- ----<br>---- --- --- ----- --- ---- ---- ------- ----- ---- -------<br>--- --- -- ----- -- --- ---- -- --- ---- -- ------ ------<br>--- ----- -- ----,79883.40000003576,79882.5,79285.402,79299.60000002384,79302.072,79885.57,,14,feeling
screen,html.Screen,0_2_0_1_15,2021-11-12T14:06:59.259Z,,,,,,,,,,,,,,,,53,,,,,,,,,,,,,,564.8300000357558,,response,,,99,,,,,,Space,keypress(Space),,,,,---- -- ----- -- ------ - ------- --- ----------<br>------------- ------ ------ ---- ---- ------- close -- ----<br>-------- ------- -- ---------- --- - --- ----- ----- ----<br>---- --- --- ----- --- ---- ---- ------- ----- ---- -------<br>--- --- -- ----- -- --- ---- -- --- ---- -- ------ ------<br>--- ----- -- ----,80451.30000001192,80450.40000003576,79868.9,79883.60000002384,79885.57,80452.35,,15,close
screen,html.Screen,0_2_0_1_16,2021-11-12T14:06:59.707Z,,,,,,,,,,,,,,,,53,,,,,,,,,,,,,,446.1499999999942,,response,,,99,,,,,,Space,keypress(Space),,,,,---- -- ----- -- ------ - ------- --- ----------<br>------------- ------ ------ ---- ---- ------- ----- to ----<br>-------- ------- -- ---------- --- - --- ----- ----- ----<br>---- --- --- ----- --- ---- ---- ------- ----- ---- -------<br>--- --- -- ----- -- --- ---- -- --- ---- -- ------ ------<br>--- ----- -- ----,80899.30000001192,80898.5,80435.68,80451.60000002384,80452.35,80902.494,,16,to
screen,html.Screen,0_2_0_1_17,2021-11-12T14:07:00.595Z,,,,,,,,,,,,,,,,53,,,,,,,,,,,,,,883.9060000357567,,response,,,99,,,,,,Space,keypress(Space),,,,,---- -- ----- -- ------ - ------- --- ----------<br>------------- ------ ------ ---- ---- ------- ----- -- your<br>-------- ------- -- ---------- --- - --- ----- ----- ----<br>---- --- --- ----- --- ---- ---- ------- ----- ---- -------<br>--- --- -- ----- -- --- ---- -- --- ---- -- ------ ------<br>--- ----- -- ----,81787.20000004768,81786.40000003576,80885.824,80899.60000002384,80902.494,81802.7,,17,your
screen,html.Screen,0_2_0_1_18,2021-11-12T14:07:01.235Z,,,,,,,,,,,,,,,,53,,,,,,,,,,,,,,624.1000000119238,,response,,,99,,,,,,Space,keypress(Space),,,,,---- -- ----- -- ------ - ------- --- ----------<br>------------- ------ ------ ---- ---- ------- ----- -- ----<br>romantic ------- -- ---------- --- - --- ----- ----- ----<br>---- --- --- ----- --- ---- ---- ------- ----- ---- -------<br>--- --- -- ----- -- --- ---- -- --- ---- -- ------ ------<br>--- ----- -- ----,82427.60000002384,82426.80000001192,81786.03,81787.40000003576,81802.7,82436.209,,18,romantic
screen,html.Screen,0_2_0_1_19,2021-11-12T14:07:01.915Z,,,,,,,,,,,,,,,,53,,,,,,,,,,,,,,670.0910000119184,,response,,,99,,,,,,Space,keypress(Space),,,,,---- -- ----- -- ------ - ------- --- ----------<br>------------- ------ ------ ---- ---- ------- ----- -- ----<br>-------- partner -- ---------- --- - --- ----- ----- ----<br>---- --- --- ----- --- ---- ---- ------- ----- ---- -------<br>--- --- -- ----- -- --- ---- -- --- ---- -- ------ ------<br>--- ----- -- ----,83107.20000004768,83106.30000001192,82419.539,82427.90000003576,82436.209,83119.72,,19,partner
screen,html.Screen,0_2_0_1_20,2021-11-12T14:07:02.475Z,,,,,,,,,,,,,,,,53,,,,,,,,,,,,,,546.5800000119198,,response,,,99,,,,,,Space,keypress(Space),,,,,---- -- ----- -- ------ - ------- --- ----------<br>------------- ------ ------ ---- ---- ------- ----- -- ----<br>-------- ------- is ---------- --- - --- ----- ----- ----<br>---- --- --- ----- --- ---- ---- ------- ----- ---- -------<br>--- --- -- ----- -- --- ---- -- --- ---- -- ------ ------<br>--- ----- -- ----,83667.10000002384,83666.30000001192,83103.05,83107.40000003576,83119.72,83669.867,,20,is
screen,html.Screen,0_2_0_1_21,2021-11-12T14:07:03.587Z,,,,,,,,,,,,,,,,53,,,,,,,,,,,,,,1108.5330000357644,,response,,,99,,,,,,Space,keypress(Space),,,,,---- -- ----- -- ------ - ------- --- ----------<br>------------- ------ ------ ---- ---- ------- ----- -- ----<br>-------- ------- -- paramount. --- - --- ----- ----- ----<br>---- --- --- ----- --- ---- ---- ------- ----- ---- -------<br>--- --- -- ----- -- --- ---- -- --- ---- -- ------ ------<br>--- ----- -- ----,84779.10000002384,84778.40000003576,83653.197,83667.40000003576,83669.867,84786.791,,21,paramount.
screen,html.Screen,0_2_0_1_22,2021-11-12T14:07:04.234Z,,,,,,,,,,,,,,,,53,,,,,,,,,,,,,,639.4090000476863,,response,,,99,,,,,,Space,keypress(Space),,,,,---- -- ----- -- ------ - ------- --- ----------<br>------------- ------ ------ ---- ---- ------- ----- -- ----<br>-------- ------- -- ---------- But - --- ----- ----- ----<br>---- --- --- ----- --- ---- ---- ------- ----- ---- -------<br>--- --- -- ----- -- --- ---- -- --- ---- -- ------ ------<br>--- ----- -- ----,85426.90000003576,85426.20000004768,84770.121,84779.70000004768,84786.791,85436.958,,22,But
screen,html.Screen,0_2_0_1_23,2021-11-12T14:07:04.738Z,,,,,,,,,,,,,,,,53,,,,,,,,,,,,,,493.14200002384314,,response,,,99,,,,,,Space,keypress(Space),,,,,---- -- ----- -- ------ - ------- --- ----------<br>------------- ------ ------ ---- ---- ------- ----- -- ----<br>-------- ------- -- ---------- --- a --- ----- ----- ----<br>---- --- --- ----- --- ---- ---- ------- ----- ---- -------<br>--- --- -- ----- -- --- ---- -- --- ---- -- ------ ------<br>--- ----- -- ----,85931,85930.10000002384,85420.288,85427.30000001192,85436.958,85937.095,,23,a
screen,html.Screen,0_2_0_1_24,2021-11-12T14:07:05.306Z,,,,,,,,,,,,,,,,53,,,,,,,,,,,,,,561.1050000476826,,response,,,99,,,,,,Space,keypress(Space),,,,,---- -- ----- -- ------ - ------- --- ----------<br>------------- ------ ------ ---- ---- ------- ----- -- ----<br>-------- ------- -- ---------- --- - new ----- ----- ----<br>---- --- --- ----- --- ---- ---- ------- ----- ---- -------<br>--- --- -- ----- -- --- ---- -- --- ---- -- ------ ------<br>--- ----- -- ----,86499,86498.20000004768,85920.425,85931.30000001192,85937.095,86503.976,,24,new
screen,html.Screen,0_2_0_1_25,2021-11-12T14:07:06.129Z,,,,,,,,,,,,,,,,53,,,,,,,,,,,,,,817.6240000238467,,response,,,99,,,,,,Space,keypress(Space),,,,,---- -- ----- -- ------ - ------- --- ----------<br>------------- ------ ------ ---- ---- ------- ----- -- ----<br>-------- ------- -- ---------- --- - --- study ----- ----<br>---- --- --- ----- --- ---- ---- ------- ----- ---- -------<br>--- --- -- ----- -- --- ---- -- --- ---- -- ------ ------<br>--- ----- -- ----,87321.90000003576,87321.60000002384,86487.305,86499.30000001192,86503.976,87337.464,,25,study
screen,html.Screen,0_2_0_1_26,2021-11-12T14:07:06.834Z,,,,,,,,,,,,,,,,53,,,,,,,,,,,,,,688.5359999999928,,response,,,99,,,,,,Space,keypress(Space),,,,,---- -- ----- -- ------ - ------- --- ----------<br>------------- ------ ------ ---- ---- ------- ----- -- ----<br>-------- ------- -- ---------- --- - --- ----- finds ----<br>---- --- --- ----- --- ---- ---- ------- ----- ---- -------<br>--- --- -- ----- -- --- ---- -- --- ---- -- ------ ------<br>--- ----- -- ----,88026.70000004768,88026,87320.794,87322.10000002384,87337.464,88037.648,,26,finds
screen,html.Screen,0_2_0_1_27,2021-11-12T14:07:07.354Z,,,,,,,,,,,,,,,,53,,,,,,,,,,,,,,508.25200003576174,,response,,,99,,,,,,Space,keypress(Space),,,,,---- -- ----- -- ------ - ------- --- ----------<br>------------- ------ ------ ---- ---- ------- ----- -- ----<br>-------- ------- -- ---------- --- - --- ----- ----- that<br>---- --- --- ----- --- ---- ---- ------- ----- ---- -------<br>--- --- -- ----- -- --- ---- -- --- ---- -- ------ ------<br>--- ----- -- ----,88546.70000004768,88545.90000003576,88020.978,88027,88037.648,88554.409,,27,that
screen,html.Screen,0_2_0_1_28,2021-11-12T14:07:07.906Z,,,,,,,,,,,,,,,,53,,,,,,,,,,,,,,543.5910000000003,,response,,,99,,,,,,Space,keypress(Space),,,,,---- -- ----- -- ------ - ------- --- ----------<br>------------- ------ ------ ---- ---- ------- ----- -- ----<br>-------- ------- -- ---------- --- - --- ----- ----- ----<br>it's --- --- ----- --- ---- ---- ------- ----- ---- -------<br>--- --- -- ----- -- --- ---- -- --- ---- -- ------ ------<br>--- ----- -- ----,89098.80000001192,89098,88537.739,88547,88554.409,89104.556,,28,it's
screen,html.Screen,0_2_0_1_29,2021-11-12T14:07:08.458Z,,,,,,,,,,,,,,,,53,,,,,,,,,,,,,,545.3440000357659,,response,,,99,,,,,,Space,keypress(Space),,,,,---- -- ----- -- ------ - ------- --- ----------<br>------------- ------ ------ ---- ---- ------- ----- -- ----<br>-------- ------- -- ---------- --- - --- ----- ----- ----<br>---- not --- ----- --- ---- ---- ------- ----- ---- -------<br>--- --- -- ----- -- --- ---- -- --- ---- -- ------ ------<br>--- ----- -- ----,89650.70000004768,89649.90000003576,89087.886,89099.10000002384,89104.556,89654.852,,29,not
screen,html.Screen,0_2_0_1_30,2021-11-12T14:07:09.050Z,,,,,,,,,,,,,,,,53,,,,,,,,,,,,,,586.948000011922,,response,,,99,,,,,,Space,keypress(Space),,,,,---- -- ----- -- ------ - ------- --- ----------<br>------------- ------ ------ ---- ---- ------- ----- -- ----<br>-------- ------- -- ---------- --- - --- ----- ----- ----<br>---- --- how ----- --- ---- ---- ------- ----- ---- -------<br>--- --- -- ----- -- --- ---- -- --- ---- -- ------ ------<br>--- ----- -- ----,90242.60000002384,90241.80000001192,89638.18,89651,89654.852,90254.888,,30,how
screen,html.Screen,0_2_0_1_31,2021-11-12T14:07:09.682Z,,,,,,,,,,,,,,,,53,,,,,,,,,,,,,,618.9120000119146,,response,,,99,,,,,,Space,keypress(Space),,,,,---- -- ----- -- ------ - ------- --- ----------<br>------------- ------ ------ ---- ---- ------- ----- -- ----<br>-------- ------- -- ---------- --- - --- ----- ----- ----<br>---- --- --- close --- ---- ---- ------- ----- ---- -------<br>--- --- -- ----- -- --- ---- -- --- ---- -- ------ ------<br>--- ----- -- ----,90874.70000004768,90873.80000001192,90238.218,90242.90000003576,90254.888,90888.277,,31,close
screen,html.Screen,0_2_0_1_32,2021-11-12T14:07:10.186Z,,,,,,,,,,,,,,,,53,,,,,,,,,,,,,,489.52300001191907,,response,,,99,,,,,,Space,keypress(Space),,,,,---- -- ----- -- ------ - ------- --- ----------<br>------------- ------ ------ ---- ---- ------- ----- -- ----<br>-------- ------- -- ---------- --- - --- ----- ----- ----<br>---- --- --- ----- you ---- ---- ------- ----- ---- -------<br>--- --- -- ----- -- --- ---- -- --- ---- -- ------ ------<br>--- ----- -- ----,91378.60000002384,91377.80000001192,90871.608,90874.90000003576,90888.277,91388.585,,32,you
screen,html.Screen,0_2_0_1_33,2021-11-12T14:07:10.810Z,,,,,,,,,,,,,,,,53,,,,,,,,,,,,,,613.2150000119145,,response,,,99,,,,,,Space,keypress(Space),,,,,---- -- ----- -- ------ - ------- --- ----------<br>------------- ------ ------ ---- ---- ------- ----- -- ----<br>-------- ------- -- ---------- --- - --- ----- ----- ----<br>---- --- --- ----- --- feel ---- ------- ----- ---- -------<br>--- --- -- ----- -- --- ---- -- --- ---- -- ------ ------<br>--- ----- -- ----,92002.60000002384,92001.80000001192,91371.914,91378.90000003576,91388.585,92005.339,,33,feel
screen,html.Screen,0_2_0_1_34,2021-11-12T14:07:11.443Z,,,,,,,,,,,,,,,,53,,,,,,,,,,,,,,628.9610000119137,,response,,,99,,,,,,Space,keypress(Space),,,,,---- -- ----- -- ------ - ------- --- ----------<br>------------- ------ ------ ---- ---- ------- ----- -- ----<br>-------- ------- -- ---------- --- - --- ----- ----- ----<br>---- --- --- ----- --- ---- that ------- ----- ---- -------<br>--- --- -- ----- -- --- ---- -- --- ---- -- ------ ------<br>--- ----- -- ----,92635.10000002384,92634.30000001192,91988.669,92002.90000003576,92005.339,92638.717,,34,that
screen,html.Screen,0_2_0_1_35,2021-11-12T14:07:11.938Z,,,,,,,,,,,,,,,,53,,,,,,,,,,,,,,490.9830000476795,,response,,,99,,,,,,Space,keypress(Space),,,,,---- -- ----- -- ------ - ------- --- ----------<br>------------- ------ ------ ---- ---- ------- ----- -- ----<br>-------- ------- -- ---------- --- - --- ----- ----- ----<br>---- --- --- ----- --- ---- ---- matters ----- ---- -------<br>--- --- -- ----- -- --- ---- -- --- ---- -- ------ ------<br>--- ----- -- ----,93130.60000002384,93129.70000004768,92622.048,92635.5,92638.717,93139.098,,35,matters
screen,html.Screen,0_2_0_1_36,2021-11-12T14:07:12.330Z,,,,,,,,,,,,,,,,53,,,,,,,,,,,,,,382.7020000119228,,response,,,99,,,,,,Space,keypress(Space),,,,,"---- -- ----- -- ------ - ------- --- ----------<br>------------- ------ ------ ---- ---- ------- ----- -- ----<br>-------- ------- -- ---------- --- - --- ----- ----- ----<br>---- --- --- ----- --- ---- ---- ------- most, ---- -------<br>--- --- -- ----- -- --- ---- -- --- ---- -- ------ ------<br>--- ----- -- ----",93523,93521.80000001192,93122.426,93133.30000001192,93139.098,93538.993,,36,"most,"
screen,html.Screen,0_2_0_1_37,2021-11-12T14:07:12.786Z,,,,,,,,,,,,,,,,53,,,,,,,,,,,,,,438.7070000476815,,response,,,99,,,,,,Space,keypress(Space),,,,,---- -- ----- -- ------ - ------- --- ----------<br>------------- ------ ------ ---- ---- ------- ----- -- ----<br>-------- ------- -- ---------- --- - --- ----- ----- ----<br>---- --- --- ----- --- ---- ---- ------- ----- it's -------<br>--- --- -- ----- -- --- ---- -- --- ---- -- ------ ------<br>--- ----- -- ----,93978.5,93977.70000004768,93522.324,93523.20000004768,93538.993,93989.275,,37,it's
screen,html.Screen,0_2_0_1_38,2021-11-12T14:07:13.451Z,,,,,,,,,,,,,,,,53,,,,,,,,,,,,,,652.4250000476895,,response,,,99,,,,,,Space,keypress(Space),,,,,---- -- ----- -- ------ - ------- --- ----------<br>------------- ------ ------ ---- ---- ------- ----- -- ----<br>-------- ------- -- ---------- --- - --- ----- ----- ----<br>---- --- --- ----- --- ---- ---- ------- ----- ---- whether<br>--- --- -- ----- -- --- ---- -- --- ---- -- ------ ------<br>--- ----- -- ----,94643,94641.70000004768,93972.603,93981.30000001192,93989.275,94656.019,,38,whether
screen,html.Screen,0_2_0_1_39,2021-11-12T14:07:13.882Z,,,,,,,,,,,,,,,,53,,,,,,,,,,,,,,417.5810000238416,,response,,,99,,,,,,Space,keypress(Space),,,,,---- -- ----- -- ------ - ------- --- ----------<br>------------- ------ ------ ---- ---- ------- ----- -- ----<br>-------- ------- -- ---------- --- - --- ----- ----- ----<br>---- --- --- ----- --- ---- ---- ------- ----- ---- -------<br>you --- -- ----- -- --- ---- -- --- ---- -- ------ ------<br>--- ----- -- ----,95074.5,95073.60000002384,94639.349,94643.30000001192,94656.019,95089.48,,39,you
screen,html.Screen,0_2_0_1_40,2021-11-12T14:07:14.306Z,,,,,,,,,,,,,,,,53,,,,,,,,,,,,,,408.2200000476878,,response,,,99,,,,,,Space,keypress(Space),,,,,---- -- ----- -- ------ - ------- --- ----------<br>------------- ------ ------ ---- ---- ------- ----- -- ----<br>-------- ------- -- ---------- --- - --- ----- ----- ----<br>---- --- --- ----- --- ---- ---- ------- ----- ---- -------<br>--- are -- ----- -- --- ---- -- --- ---- -- ------ ------<br>--- ----- -- ----,95498.40000003576,95497.70000004768,95072.81,95074.80000001192,95089.48,95506.262,,40,are
screen,html.Screen,0_2_0_1_41,2021-11-12T14:07:14.826Z,,,,,,,,,,,,,,,,53,,,,,,,,,,,,,,511.3380000238394,,response,,,99,,,,,,Space,keypress(Space),,,,,---- -- ----- -- ------ - ------- --- ----------<br>------------- ------ ------ ---- ---- ------- ----- -- ----<br>-------- ------- -- ---------- --- - --- ----- ----- ----<br>---- --- --- ----- --- ---- ---- ------- ----- ---- -------<br>--- --- as ----- -- --- ---- -- --- ---- -- ------ ------<br>--- ----- -- ----,96018.40000003576,96017.60000002384,95489.592,95498.70000004768,95506.262,96022.935,,41,as
screen,html.Screen,0_2_0_1_42,2021-11-12T14:07:15.362Z,,,,,,,,,,,,,,,,53,,,,,,,,,,,,,,530.6650000238442,,response,,,99,,,,,,Space,keypress(Space),,,,,---- -- ----- -- ------ - ------- --- ----------<br>------------- ------ ------ ---- ---- ------- ----- -- ----<br>-------- ------- -- ---------- --- - --- ----- ----- ----<br>---- --- --- ----- --- ---- ---- ------- ----- ---- -------<br>--- --- -- close -- --- ---- -- --- ---- -- ------ ------<br>--- ----- -- ----,96554.40000003576,96553.60000002384,96006.266,96018.60000002384,96022.935,96556.643,,42,close
screen,html.Screen,0_2_0_1_43,2021-11-12T14:07:15.914Z,,,,,,,,,,,,,,,,53,,,,,,,,,,,,,,548.8570000000036,,response,,,99,,,,,,Space,keypress(Space),,,,,---- -- ----- -- ------ - ------- --- ----------<br>------------- ------ ------ ---- ---- ------- ----- -- ----<br>-------- ------- -- ---------- --- - --- ----- ----- ----<br>---- --- --- ----- --- ---- ---- ------- ----- ---- -------<br>--- --- -- ----- as --- ---- -- --- ---- -- ------ ------<br>--- ----- -- ----,97106.40000003576,97105.5,96539.971,96554.60000002384,96556.643,97123.323,,43,as
screen,html.Screen,0_2_0_1_44,2021-11-12T14:07:16.370Z,,,,,,,,,,,,,,,,53,,,,,,,,,,,,,,438.17699999999604,,response,,,99,,,,,,Space,keypress(Space),,,,,---- -- ----- -- ------ - ------- --- ----------<br>------------- ------ ------ ---- ---- ------- ----- -- ----<br>-------- ------- -- ---------- --- - --- ----- ----- ----<br>---- --- --- ----- --- ---- ---- ------- ----- ---- -------<br>--- --- -- ----- -- you ---- -- --- ---- -- ------ ------<br>--- ----- -- ----,97562.30000001192,97561.5,97106.653,97106.60000002384,97123.323,97573.498,,44,you
screen,html.Screen,0_2_0_1_45,2021-11-12T14:07:16.842Z,,,,,,,,,,,,,,,,53,,,,,,,,,,,,,,460.00199999999313,,response,,,99,,,,,,Space,keypress(Space),,,,,---- -- ----- -- ------ - ------- --- ----------<br>------------- ------ ------ ---- ---- ------- ----- -- ----<br>-------- ------- -- ---------- --- - --- ----- ----- ----<br>---- --- --- ----- --- ---- ---- ------- ----- ---- -------<br>--- --- -- ----- -- --- want -- --- ---- -- ------ ------<br>--- ----- -- ----,98034.30000001192,98033.5,97556.827,97562.60000002384,97573.498,98040.29,,45,want
screen,html.Screen,0_2_0_1_46,2021-11-12T14:07:17.362Z,,,,,,,,,,,,,,,,53,,,,,,,,,,,,,,513.2100000000064,,response,,,99,,,,,,Space,keypress(Space),,,,,---- -- ----- -- ------ - ------- --- ----------<br>------------- ------ ------ ---- ---- ------- ----- -- ----<br>-------- ------- -- ---------- --- - --- ----- ----- ----<br>---- --- --- ----- --- ---- ---- ------- ----- ---- -------<br>--- --- -- ----- -- --- ---- to --- ---- -- ------ ------<br>--- ----- -- ----,98554.20000004768,98553.5,98023.619,98034.5,98040.29,98556.877,,46,to
screen,html.Screen,0_2_0_1_47,2021-11-12T14:07:17.866Z,,,,,,,,,,,,,,,,53,,,,,,,,,,,,,,500.62300000000687,,response,,,99,,,,,,Space,keypress(Space),,,,,"---- -- ----- -- ------ - ------- --- ----------<br>------------- ------ ------ ---- ---- ------- ----- -- ----<br>-------- ------- -- ---------- --- - --- ----- ----- ----<br>---- --- --- ----- --- ---- ---- ------- ----- ---- -------<br>--- --- -- ----- -- --- ---- -- be, ---- -- ------ ------<br>--- ----- -- ----",99058.30000001192,99057.5,98540.209,98554.5,98556.877,99073.945,,47,"be,"
screen,html.Screen,0_2_0_1_48,2021-11-12T14:07:18.386Z,,,,,,,,,,,,,,,,53,,,,,,,,,,,,,,503.4550000357558,,response,,,99,,,,,,Space,keypress(Space),,,,,---- -- ----- -- ------ - ------- --- ----------<br>------------- ------ ------ ---- ---- ------- ----- -- ----<br>-------- ------- -- ---------- --- - --- ----- ----- ----<br>---- --- --- ----- --- ---- ---- ------- ----- ---- -------<br>--- --- -- ----- -- --- ---- -- --- even -- ------ ------<br>--- ----- -- ----,99578.20000004768,99577.40000003576,99057.273,99058.60000002384,99073.945,99590.627,,48,even
screen,html.Screen,0_2_0_1_49,2021-11-12T14:07:18.873Z,,,,,,,,,,,,,,,,53,,,,,,,,,,,,,,474.6730000119278,,response,,,99,,,,,,Space,keypress(Space),,,,,---- -- ----- -- ------ - ------- --- ----------<br>------------- ------ ------ ---- ---- ------- ----- -- ----<br>-------- ------- -- ---------- --- - --- ----- ----- ----<br>---- --- --- ----- --- ---- ---- ------- ----- ---- -------<br>--- --- -- ----- -- --- ---- -- --- ---- if ------ ------<br>--- ----- -- ----,100066,100065.30000001192,99573.957,99578.5,99590.627,100074.142,,49,if
screen,html.Screen,0_2_0_1_50,2021-11-12T14:07:19.466Z,,,,,,,,,,,,,,,,53,,,,,,,,,,,,,,583.1580000119138,,response,,,99,,,,,,Space,keypress(Space),,,,,---- -- ----- -- ------ - ------- --- ----------<br>------------- ------ ------ ---- ---- ------- ----- -- ----<br>-------- ------- -- ---------- --- - --- ----- ----- ----<br>---- --- --- ----- --- ---- ---- ------- ----- ---- -------<br>--- --- -- ----- -- --- ---- -- --- ---- -- that's ------<br>--- ----- -- ----,100658.20000004768,100657.30000001192,100057.471,100066.30000001192,100074.142,100674.239,,50,that's
screen,html.Screen,0_2_0_1_51,2021-11-12T14:07:19.930Z,,,,,,,,,,,,,,,,53,,,,,,,,,,,,,,447.06100001191953,,response,,,99,,,,,,Space,keypress(Space),,,,,---- -- ----- -- ------ - ------- --- ----------<br>------------- ------ ------ ---- ---- ------- ----- -- ----<br>-------- ------- -- ---------- --- - --- ----- ----- ----<br>---- --- --- ----- --- ---- ---- ------- ----- ---- -------<br>--- --- -- ----- -- --- ---- -- --- ---- -- ------ really<br>--- ----- -- ----,101122.20000004768,101121.30000001192,100657.569,100658.40000003576,100674.239,101124.353,,51,really
screen,html.Screen,0_2_0_1_52,2021-11-12T14:07:20.466Z,,,,,,,,,,,,,,,,53,,,,,,,,,,,,,,532.9470000119181,,response,,,99,,,,,,Space,keypress(Space),,,,,---- -- ----- -- ------ - ------- --- ----------<br>------------- ------ ------ ---- ---- ------- ----- -- ----<br>-------- ------- -- ---------- --- - --- ----- ----- ----<br>---- --- --- ----- --- ---- ---- ------- ----- ---- -------<br>--- --- -- ----- -- --- ---- -- --- ---- -- ------ ------<br>not ----- -- ----,101658.20000004768,101657.30000001192,101107.683,101122.30000001192,101124.353,101674.55,,52,not
screen,html.Screen,0_2_0_1_53,2021-11-12T14:07:21.146Z,,,,,,,,,,,,,,,,53,,,,,,,,,,,,,,662.6500000476808,,response,,,99,,,,,,Space,keypress(Space),,,,,---- -- ----- -- ------ - ------- --- ----------<br>------------- ------ ------ ---- ---- ------- ----- -- ----<br>-------- ------- -- ---------- --- - --- ----- ----- ----<br>---- --- --- ----- --- ---- ---- ------- ----- ---- -------<br>--- --- -- ----- -- --- ---- -- --- ---- -- ------ ------<br>--- close -- ----,102338.10000002384,102337.20000004768,101657.879,101658.40000003576,101674.55,102341.197,,53,close
screen,html.Screen,0_2_0_1_54,2021-11-12T14:07:21.586Z,,,,,,,,,,,,,,,,53,,,,,,,,,,,,,,436.6030000119208,,response,,,99,,,,,,Space,keypress(Space),,,,,---- -- ----- -- ------ - ------- --- ----------<br>------------- ------ ------ ---- ---- ------- ----- -- ----<br>-------- ------- -- ---------- --- - --- ----- ----- ----<br>---- --- --- ----- --- ---- ---- ------- ----- ---- -------<br>--- --- -- ----- -- --- ---- -- --- ---- -- ------ ------<br>--- ----- at ----,102778.5,102777.80000001192,102324.528,102338.30000001192,102341.197,102791.508,,54,at
screen,html.Screen,0_2_0_1_55,2021-11-12T14:07:22.089Z,,,,,,,,,,,,,,,,53,,,,,,,,,,,,,,489.6920000476821,,response,,,99,,,,,,Space,keypress(Space),,,,,---- -- ----- -- ------ - ------- --- ----------<br>------------- ------ ------ ---- ---- ------- ----- -- ----<br>-------- ------- -- ---------- --- - --- ----- ----- ----<br>---- --- --- ----- --- ---- ---- ------- ----- ---- -------<br>--- --- -- ----- -- --- ---- -- --- ---- -- ------ ------<br>--- ----- -- all.,103282,103281.20000004768,102774.837,102778.80000001192,102791.508,103291.643,,55,all.
Item 99,flow.Loop,0_2_0_1,2021-11-12T14:07:22.094Z,,,,,,,,,,,,,,,,,,,,,,,,,,,,,,32981.65800004768,,completion,,,,A,,,,,,,,,,silence,,103286.70000004768,103281.20000004768,70282.873,70289.5,70299.542,103291.643,,,
Question 1,html.Screen,0_2_0_2,2021-11-12T14:07:36.692Z,,,,,,,,,,,,,,,,,,,,,,,,,,,false,FALSE,,14591.057000047687,,response,,,99,A,,,,,TRUE,click #choice-1,,,,silence,,117884.40000003576,117882.70000004768,103274.972,103287,103291.643,117895.289,,,
Question 2,html.Screen,0_2_0_3,2021-11-12T14:07:41.854Z,,,,,,,,,,,,,,,,,,,,,,,,,,,true,TRUE,,5146.6110000357585,,response,,,99,A,,,,,TRUE,click #choice-1,,,,silence,,123043.20000004768,123041.90000003576,117878.62,117884.70000004768,117895.289,123046.615,,,
Item 99,flow.Sequence,0_2_0,2021-11-12T14:07:41.854Z,,,,,,,,,,,,,,,,,,,,,,,,,,,,,,62744.57900003576,,completion,,,,,,,,,,,,,,,,123043.60000002384,123041.90000003576,60280.647,60292.10000002384,60297.321,123046.615,,,
Holding screen,html.Screen,0_2_1_0,2021-11-12T14:07:51.845Z,,,,,,,,,,,,,,,,,,,,,,,,,,,,,,10002.536000000007,,timeout,,,,,,,,,,,,,,,,133034.10000002384,133032.481,123029.946,123044,123046.615,133049.151,,,
screen,html.Screen,0_2_1_1_0,2021-11-12T14:07:53.926Z,,,,,,,,,,,,,,,,54,,,,,,,,,,,,,,2065.1490000119084,,response,,,100,,,,,,Space,keypress(Space),,,,,At --- ---- --- ------ ----- ------- ---- -- --- ------- --<br>------- ---------- ------ -- ----- -- ----- -- ---- ------<br>--- ----- --- --- ------ -------- ----- --- ------ ----- --<br>----- ----- ---------- --- --- ------ ------ ---- -- ------<br>------- --- ------ ----- --- ---- ------- -- ---- --- --<br>------- ------,135115.30000001192,135114.30000001192,133032.481,133034.60000002384,133049.151,135116.477,,0,At
screen,html.Screen,0_2_1_1_1,2021-11-12T14:07:54.659Z,,,,,,,,,,,,,,,,54,,,,,,,,,,,,,,730.9230000357493,,response,,,100,,,,,,Space,keypress(Space),,,,,-- the ---- --- ------ ----- ------- ---- -- --- ------- --<br>------- ---------- ------ -- ----- -- ----- -- ---- ------<br>--- ----- --- --- ------ -------- ----- --- ------ ----- --<br>----- ----- ---------- --- --- ------ ------ ---- -- ------<br>------- --- ------ ----- --- ---- ------- -- ---- --- --<br>------- ------,135848.30000001192,135847.40000003576,135099.806,135115.70000004768,135116.477,135849.975,,1,the
screen,html.Screen,0_2_1_1_2,2021-11-12T14:07:55.331Z,,,,,,,,,,,,,,,,54,,,,,,,,,,,,,,669.3250000119151,,response,,,100,,,,,,Space,keypress(Space),,,,,-- --- time --- ------ ----- ------- ---- -- --- ------- --<br>------- ---------- ------ -- ----- -- ----- -- ---- ------<br>--- ----- --- --- ------ -------- ----- --- ------ ----- --<br>----- ----- ---------- --- --- ------ ------ ---- -- ------<br>------- --- ------ ----- --- ---- ------- -- ---- --- --<br>------- ------,136520.20000004768,136519.30000001192,135833.304,135848.70000004768,135849.975,136533.374,,2,time
screen,html.Screen,0_2_1_1_3,2021-11-12T14:07:56.091Z,,,,,,,,,,,,,,,,54,,,,,,,,,,,,,,746.0260000357521,,response,,,100,,,,,,Space,keypress(Space),,,,,-- --- ---- the ------ ----- ------- ---- -- --- ------- --<br>------- ---------- ------ -- ----- -- ----- -- ---- ------<br>--- ----- --- --- ------ -------- ----- --- ------ ----- --<br>----- ----- ---------- --- --- ------ ------ ---- -- ------<br>------- --- ------ ----- --- ---- ------- -- ---- --- --<br>------- ------,137280.40000003576,137279.40000003576,136516.704,136520.60000002384,136533.374,137283.777,,3,the
screen,html.Screen,0_2_1_1_4,2021-11-12T14:07:56.715Z,,,,,,,,,,,,,,,,54,,,,,,,,,,,,,,619.5230000119191,,response,,,100,,,,,,Space,keypress(Space),,,,,-- --- ---- --- French ----- ------- ---- -- --- ------- --<br>------- ---------- ------ -- ----- -- ----- -- ---- ------<br>--- ----- --- --- ------ -------- ----- --- ------ ----- --<br>----- ----- ---------- --- --- ------ ------ ---- -- ------<br>------- --- ------ ----- --- ---- ------- -- ---- --- --<br>------- ------,137904.20000004768,137903.30000001192,137267.105,137280.70000004768,137283.777,137917.097,,4,French
screen,html.Screen,0_2_1_1_5,2021-11-12T14:07:57.387Z,,,,,,,,,,,,,,,,54,,,,,,,,,,,,,,658.7030000119121,,response,,,100,,,,,,Space,keypress(Space),,,,,-- --- ---- --- ------ crown ------- ---- -- --- ------- --<br>------- ---------- ------ -- ----- -- ----- -- ---- ------<br>--- ----- --- --- ------ -------- ----- --- ------ ----- --<br>----- ----- ---------- --- --- ------ ------ ---- -- ------<br>------- --- ------ ----- --- ---- ------- -- ---- --- --<br>------- ------,138576.60000002384,138575.80000001192,137900.427,137904.5,137917.097,138584.051,,5,crown
screen,html.Screen,0_2_1_1_6,2021-11-12T14:07:58.298Z,,,,,,,,,,,,,,,,54,,,,,,,,,,,,,,903.0490000238351,,response,,,100,,,,,,Space,keypress(Space),,,,,-- --- ---- --- ------ ----- secured ---- -- --- ------- --<br>------- ---------- ------ -- ----- -- ----- -- ---- ------<br>--- ----- --- --- ------ -------- ----- --- ------ ----- --<br>----- ----- ---------- --- --- ------ ------ ---- -- ------<br>------- --- ------ ----- --- ---- ------- -- ---- --- --<br>------- ------,139488,139487.10000002384,138567.38,138576.80000001192,138584.051,139500.717,,6,secured
screen,html.Screen,0_2_1_1_7,2021-11-12T14:07:59.173Z,,,,,,,,,,,,,,,,54,,,,,,,,,,,,,,860.8830000238377,,response,,,100,,,,,,Space,keypress(Space),,,,,-- --- ---- --- ------ ----- ------- much -- --- ------- --<br>------- ---------- ------ -- ----- -- ----- -- ---- ------<br>--- ----- --- --- ------ -------- ----- --- ------ ----- --<br>----- ----- ---------- --- --- ------ ------ ---- -- ------<br>------- --- ------ ----- --- ---- ------- -- ---- --- --<br>------- ------,140362.30000001192,140361.60000002384,139484.048,139488.30000001192,139500.717,140367.927,,7,much
screen,html.Screen,0_2_1_1_8,2021-11-12T14:07:59.890Z,,,,,,,,,,,,,,,,54,,,,,,,,,,,,,,711.1730000238458,,response,,,100,,,,,,Space,keypress(Space),,,,,-- --- ---- --- ------ ----- ------- ---- of --- ------- --<br>------- ---------- ------ -- ----- -- ----- -- ---- ------<br>--- ----- --- --- ------ -------- ----- --- ------ ----- --<br>----- ----- ---------- --- --- ------ ------ ---- -- ------<br>------- --- ------ ----- --- ---- ------- -- ---- --- --<br>------- ------,141080,141079.10000002384,140351.255,140362.60000002384,140367.927,141084.64,,8,of
screen,html.Screen,0_2_1_1_9,2021-11-12T14:08:00.546Z,,,,,,,,,,,,,,,,54,,,,,,,,,,,,,,650.4600000238279,,response,,,100,,,,,,Space,keypress(Space),,,,,-- --- ---- --- ------ ----- ------- ---- -- its ------- --<br>------- ---------- ------ -- ----- -- ----- -- ---- ------<br>--- ----- --- --- ------ -------- ----- --- ------ ----- --<br>----- ----- ---------- --- --- ------ ------ ---- -- ------<br>------- --- ------ ----- --- ---- ------- -- ---- --- --<br>------- ------,141736,141735.10000002384,141067.97,141080.20000004768,141084.64,141751.449,,9,its
screen,html.Screen,0_2_1_1_10,2021-11-12T14:08:03.018Z,,,,,,,,,,,,,,,,54,,,,,,,,,,,,,,2455.5510000000068,,response,,,100,,,,,,Space,keypress(Space),,,,,-- --- ---- --- ------ ----- ------- ---- -- --- revenue --<br>------- ---------- ------ -- ----- -- ----- -- ---- ------<br>--- ----- --- --- ------ -------- ----- --- ------ ----- --<br>----- ----- ---------- --- --- ------ ------ ---- -- ------<br>------- --- ------ ----- --- ---- ------- -- ---- --- --<br>------- ------,144207.80000001192,144207,141734.779,141736.20000004768,141751.449,144218.852,,10,revenue
screen,html.Screen,0_2_1_1_11,2021-11-12T14:08:04.026Z,,,,,,,,,,,,,,,,54,,,,,,,,,,,,,,996.0480000357493,,response,,,100,,,,,,Space,keypress(Space),,,,,-- --- ---- --- ------ ----- ------- ---- -- --- ------- by<br>------- ---------- ------ -- ----- -- ----- -- ---- ------<br>--- ----- --- --- ------ -------- ----- --- ------ ----- --<br>----- ----- ---------- --- --- ------ ------ ---- -- ------<br>------- --- ------ ----- --- ---- ------- -- ---- --- --<br>------- ------,145215.80000001192,145214.90000003576,144202.181,144208.10000002384,144218.852,145219.065,,11,by
screen,html.Screen,0_2_1_1_12,2021-11-12T14:08:05.002Z,,,,,,,,,,,,,,,,54,,,,,,,,,,,,,,971.6350000476814,,response,,,100,,,,,,Space,keypress(Space),,,,,-- --- ---- --- ------ ----- ------- ---- -- --- ------- --<br>issuing ---------- ------ -- ----- -- ----- -- ---- ------<br>--- ----- --- --- ------ -------- ----- --- ------ ----- --<br>----- ----- ---------- --- --- ------ ------ ---- -- ------<br>------- --- ------ ----- --- ---- ------- -- ---- --- --<br>------- ------,146191.60000002384,146190.70000004768,145202.394,145216,145219.065,146202.514,,12,issuing
screen,html.Screen,0_2_1_1_13,2021-11-12T14:08:05.738Z,,,,,,,,,,,,,,,,54,,,,,,,,,,,,,,724.3860000357672,,response,,,100,,,,,,Space,keypress(Space),,,,,-- --- ---- --- ------ ----- ------- ---- -- --- ------- --<br>------- government ------ -- ----- -- ----- -- ---- ------<br>--- ----- --- --- ------ -------- ----- --- ------ ----- --<br>----- ----- ---------- --- --- ------ ------ ---- -- ------<br>------- --- ------ ----- --- ---- ------- -- ---- --- --<br>------- ------,146927.60000002384,146926.90000003576,146185.844,146191.90000003576,146202.514,146936.091,,13,government
screen,html.Screen,0_2_1_1_14,2021-11-12T14:08:08.674Z,,,,,,,,,,,,,,,,54,,,,,,,,,,,,,,2926.909000000014,,response,,,100,,,,,,Space,keypress(Space),,,,,-- --- ---- --- ------ ----- ------- ---- -- --- ------- --<br>------- ---------- bonds. -- ----- -- ----- -- ---- ------<br>--- ----- --- --- ------ -------- ----- --- ------ ----- --<br>----- ----- ---------- --- --- ------ ------ ---- -- ------<br>------- --- ------ ----- --- ---- ------- -- ---- --- --<br>------- ------,149863.80000001192,149863,146919.421,146927.80000001192,146936.091,149870.317,,14,bonds.
screen,html.Screen,0_2_1_1_15,2021-11-12T14:08:09.338Z,,,,,,,,,,,,,,,,54,,,,,,,,,,,,,,656.2830000238318,,response,,,100,,,,,,Space,keypress(Space),,,,,-- --- ---- --- ------ ----- ------- ---- -- --- ------- --<br>------- ---------- ------ In ----- -- ----- -- ---- ------<br>--- ----- --- --- ------ -------- ----- --- ------ ----- --<br>----- ----- ---------- --- --- ------ ------ ---- -- ------<br>------- --- ------ ----- --- ---- ------- -- ---- --- --<br>------- ------,150527.40000003576,150526.60000002384,149853.646,149864,149870.317,150536.997,,15,In
screen,html.Screen,0_2_1_1_16,2021-11-12T14:08:10.018Z,,,,,,,,,,,,,,,,54,,,,,,,,,,,,,,669.6030000238388,,response,,,100,,,,,,Space,keypress(Space),,,,,"-- --- ---- --- ------ ----- ------- ---- -- --- ------- --<br>------- ---------- ------ -- 1727, -- ----- -- ---- ------<br>--- ----- --- --- ------ -------- ----- --- ------ ----- --<br>----- ----- ---------- --- --- ------ ------ ---- -- ------<br>------- --- ------ ----- --- ---- ------- -- ---- --- --<br>------- ------",151207.40000003576,151206.60000002384,150520.327,150527.70000004768,150536.997,151220.512,,16,"1727,"
screen,html.Screen,0_2_1_1_17,2021-11-12T14:08:10.618Z,,,,,,,,,,,,,,,,54,,,,,,,,,,,,,,585.9880000000121,,response,,,100,,,,,,Space,keypress(Space),,,,,-- --- ---- --- ------ ----- ------- ---- -- --- ------- --<br>------- ---------- ------ -- ----- in ----- -- ---- ------<br>--- ----- --- --- ------ -------- ----- --- ------ ----- --<br>----- ----- ---------- --- --- ------ ------ ---- -- ------<br>------- --- ------ ----- --- ---- ------- -- ---- --- --<br>------- ------,151807.30000001192,151806.5,151203.842,151207.60000002384,151220.512,151820.74,,17,in
screen,html.Screen,0_2_1_1_18,2021-11-12T14:08:11.179Z,,,,,,,,,,,,,,,,54,,,,,,,,,,,,,,547.2600000000093,,response,,,100,,,,,,Space,keypress(Space),,,,,-- --- ---- --- ------ ----- ------- ---- -- --- ------- --<br>------- ---------- ------ -- ----- -- order -- ---- ------<br>--- ----- --- --- ------ -------- ----- --- ------ ----- --<br>----- ----- ---------- --- --- ------ ------ ---- -- ------<br>------- --- ------ ----- --- ---- ------- -- ---- --- --<br>------- ------,152368.70000004768,152368,151804.069,151807.5,151820.74,152370.996,,18,order
screen,html.Screen,0_2_1_1_19,2021-11-12T14:08:11.554Z,,,,,,,,,,,,,,,,54,,,,,,,,,,,,,,371.50399999998626,,response,,,100,,,,,,Space,keypress(Space),,,,,-- --- ---- --- ------ ----- ------- ---- -- --- ------- --<br>------- ---------- ------ -- ----- -- ----- to ---- ------<br>--- ----- --- --- ------ -------- ----- --- ------ ----- --<br>----- ----- ---------- --- --- ------ ------ ---- -- ------<br>------- --- ------ ----- --- ---- ------- -- ---- --- --<br>------- ------,152743.30000001192,152742.5,152354.324,152369,152370.996,152754.21,,19,to
screen,html.Screen,0_2_1_1_20,2021-11-12T14:08:11.890Z,,,,,,,,,,,,,,,,54,,,,,,,,,,,,,,324.19000003577094,,response,,,100,,,,,,Space,keypress(Space),,,,,-- --- ---- --- ------ ----- ------- ---- -- --- ------- --<br>------- ---------- ------ -- ----- -- ----- -- save ------<br>--- ----- --- --- ------ -------- ----- --- ------ ----- --<br>----- ----- ---------- --- --- ------ ------ ---- -- ------<br>------- --- ------ ----- --- ---- ------- -- ---- --- --<br>------- ------,153079.5,153078.40000003576,152737.541,152743.5,152754.21,153087.82,,20,save
screen,html.Screen,0_2_1_1_21,2021-11-12T14:08:12.306Z,,,,,,,,,,,,,,,,54,,,,,,,,,,,,,,406.5800000357558,,response,,,100,,,,,,Space,keypress(Space),,,,,"-- --- ---- --- ------ ----- ------- ---- -- --- ------- --<br>------- ---------- ------ -- ----- -- ----- -- ---- money,<br>--- ----- --- --- ------ -------- ----- --- ------ ----- --<br>----- ----- ---------- --- --- ------ ------ ---- -- ------<br>------- --- ------ ----- --- ---- ------- -- ---- --- --<br>------- ------",153495.20000004768,153494.40000003576,153071.148,153079.70000004768,153087.82,153504.505,,21,"money,"
screen,html.Screen,0_2_1_1_22,2021-11-12T14:08:12.721Z,,,,,,,,,,,,,,,,54,,,,,,,,,,,,,,405.7950000119163,,response,,,100,,,,,,Space,keypress(Space),,,,,-- --- ---- --- ------ ----- ------- ---- -- --- ------- --<br>------- ---------- ------ -- ----- -- ----- -- ---- ------<br>the ----- --- --- ------ -------- ----- --- ------ ----- --<br>----- ----- ---------- --- --- ------ ------ ---- -- ------<br>------- --- ------ ----- --- ---- ------- -- ---- --- --<br>------- ------,153911.10000002384,153910.30000001192,153487.835,153495.5,153504.505,153921.333,,22,the
screen,html.Screen,0_2_1_1_23,2021-11-12T14:08:13.050Z,,,,,,,,,,,,,,,,54,,,,,,,,,,,,,,317.0670000357495,,response,,,100,,,,,,Space,keypress(Space),,,,,-- --- ---- --- ------ ----- ------- ---- -- --- ------- --<br>------- ---------- ------ -- ----- -- ----- -- ---- ------<br>--- state --- --- ------ -------- ----- --- ------ ----- --<br>----- ----- ---------- --- --- ------ ------ ---- -- ------<br>------- --- ------ ----- --- ---- ------- -- ---- --- --<br>------- ------,154239.30000001192,154238.40000003576,153904.662,153911.30000001192,153921.333,154254.718,,23,state
screen,html.Screen,0_2_1_1_24,2021-11-12T14:08:13.346Z,,,,,,,,,,,,,,,,54,,,,,,,,,,,,,,279.6820000357693,,response,,,100,,,,,,Space,keypress(Space),,,,,-- --- ---- --- ------ ----- ------- ---- -- --- ------- --<br>------- ---------- ------ -- ----- -- ----- -- ---- ------<br>--- ----- cut --- ------ -------- ----- --- ------ ----- --<br>----- ----- ---------- --- --- ------ ------ ---- -- ------<br>------- --- ------ ----- --- ---- ------- -- ---- --- --<br>------- ------,154535.20000004768,154534.40000003576,154238.048,154239.5,154254.718,154538.004,,24,cut
screen,html.Screen,0_2_1_1_25,2021-11-12T14:08:13.610Z,,,,,,,,,,,,,,,,54,,,,,,,,,,,,,,260.3960000357765,,response,,,100,,,,,,Space,keypress(Space),,,,,-- --- ---- --- ------ ----- ------- ---- -- --- ------- --<br>------- ---------- ------ -- ----- -- ----- -- ---- ------<br>--- ----- --- the ------ -------- ----- --- ------ ----- --<br>----- ----- ---------- --- --- ------ ------ ---- -- ------<br>------- --- ------ ----- --- ---- ------- -- ---- --- --<br>------- ------,154799.10000002384,154798.40000003576,154521.336,154535.40000003576,154538.004,154804.85,,25,the
screen,html.Screen,0_2_1_1_26,2021-11-12T14:08:15.074Z,,,,,,,,,,,,,,,,54,,,,,,,,,,,,,,1457.450000011915,,response,,,100,,,,,,Space,keypress(Space),,,,,-- --- ---- --- ------ ----- ------- ---- -- --- ------- --<br>------- ---------- ------ -- ----- -- ----- -- ---- ------<br>--- ----- --- --- bonds' -------- ----- --- ------ ----- --<br>----- ----- ---------- --- --- ------ ------ ---- -- ------<br>------- --- ------ ----- --- ---- ------- -- ---- --- --<br>------- ------,156263.20000004768,156262.30000001192,154788.179,154799.5,154804.85,156271.794,,26,bonds'
screen,html.Screen,0_2_1_1_27,2021-11-12T14:08:15.521Z,,,,,,,,,,,,,,,,54,,,,,,,,,,,,,,438.4060000476893,,response,,,100,,,,,,Space,keypress(Space),,,,,-- --- ---- --- ------ ----- ------- ---- -- --- ------- --<br>------- ---------- ------ -- ----- -- ----- -- ---- ------<br>--- ----- --- --- ------ interest ----- --- ------ ----- --<br>----- ----- ---------- --- --- ------ ------ ---- -- ------<br>------- --- ------ ----- --- ---- ------- -- ---- --- --<br>------- ------,156711,156710.20000004768,156255.124,156263.5,156271.794,156722.146,,27,interest
screen,html.Screen,0_2_1_1_28,2021-11-12T14:08:16.057Z,,,,,,,,,,,,,,,,54,,,,,,,,,,,,,,523.9540000238339,,response,,,100,,,,,,Space,keypress(Space),,,,,-- --- ---- --- ------ ----- ------- ---- -- --- ------- --<br>------- ---------- ------ -- ----- -- ----- -- ---- ------<br>--- ----- --- --- ------ -------- rate. --- ------ ----- --<br>----- ----- ---------- --- --- ------ ------ ---- -- ------<br>------- --- ------ ----- --- ---- ------- -- ---- --- --<br>------- ------,157246.90000003576,157246.10000002384,156705.473,156711.20000004768,156722.146,157255.476,,28,rate.
screen,html.Screen,0_2_1_1_29,2021-11-12T14:08:17.393Z,,,,,,,,,,,,,,,,54,,,,,,,,,,,,,,1326.6240000238467,,response,,,100,,,,,,Space,keypress(Space),,,,,-- --- ---- --- ------ ----- ------- ---- -- --- ------- --<br>------- ---------- ------ -- ----- -- ----- -- ---- ------<br>--- ----- --- --- ------ -------- ----- The ------ ----- --<br>----- ----- ---------- --- --- ------ ------ ---- -- ------<br>------- --- ------ ----- --- ---- ------- -- ---- --- --<br>------- ------,158582.90000003576,158582.10000002384,157238.806,157247.20000004768,157255.476,158588.925,,29,The
screen,html.Screen,0_2_1_1_30,2021-11-12T14:08:17.945Z,,,,,,,,,,,,,,,,54,,,,,,,,,,,,,,544.8750000119326,,response,,,100,,,,,,Space,keypress(Space),,,,,-- --- ---- --- ------ ----- ------- ---- -- --- ------- --<br>------- ---------- ------ -- ----- -- ----- -- ---- ------<br>--- ----- --- --- ------ -------- ----- --- market ----- --<br>----- ----- ---------- --- --- ------ ------ ---- -- ------<br>------- --- ------ ----- --- ---- ------- -- ---- --- --<br>------- ------,159134.20000004768,159133.80000001192,158572.256,158583.10000002384,158588.925,159139.4,,30,market
screen,html.Screen,0_2_1_1_31,2021-11-12T14:08:18.553Z,,,,,,,,,,,,,,,,54,,,,,,,,,,,,,,602.7000000238477,,response,,,100,,,,,,Space,keypress(Space),,,,,-- --- ---- --- ------ ----- ------- ---- -- --- ------- --<br>------- ---------- ------ -- ----- -- ----- -- ---- ------<br>--- ----- --- --- ------ -------- ----- --- ------ value --<br>----- ----- ---------- --- --- ------ ------ ---- -- ------<br>------- --- ------ ----- --- ---- ------- -- ---- --- --<br>------- ------,159742.90000003576,159742.10000002384,159122.728,159134.30000001192,159139.4,159756.085,,31,value
screen,html.Screen,0_2_1_1_32,2021-11-12T14:08:19.026Z,,,,,,,,,,,,,,,,54,,,,,,,,,,,,,,458.51500002385,,response,,,100,,,,,,Space,keypress(Space),,,,,-- --- ---- --- ------ ----- ------- ---- -- --- ------- --<br>------- ---------- ------ -- ----- -- ----- -- ---- ------<br>--- ----- --- --- ------ -------- ----- --- ------ ----- of<br>----- ----- ---------- --- --- ------ ------ ---- -- ------<br>------- --- ------ ----- --- ---- ------- -- ---- --- --<br>------- ------,160215.30000001192,160214.60000002384,159739.415,159743.10000002384,159756.085,160222.961,,32,of
screen,html.Screen,0_2_1_1_33,2021-11-12T14:08:19.521Z,,,,,,,,,,,,,,,,54,,,,,,,,,,,,,,487.1390000238316,,response,,,100,,,,,,Space,keypress(Space),,,,,-- --- ---- --- ------ ----- ------- ---- -- --- ------- --<br>------- ---------- ------ -- ----- -- ----- -- ---- ------<br>--- ----- --- --- ------ -------- ----- --- ------ ----- --<br>these ----- ---------- --- --- ------ ------ ---- -- ------<br>------- --- ------ ----- --- ---- ------- -- ---- --- --<br>------- ------,160710.90000003576,160710.10000002384,160206.29,160215.60000002384,160222.961,160723.04,,33,these
screen,html.Screen,0_2_1_1_34,2021-11-12T14:08:20.257Z,,,,,,,,,,,,,,,,54,,,,,,,,,,,,,,722.8600000357546,,response,,,100,,,,,,Space,keypress(Space),,,,,-- --- ---- --- ------ ----- ------- ---- -- --- ------- --<br>------- ---------- ------ -- ----- -- ----- -- ---- ------<br>--- ----- --- --- ------ -------- ----- --- ------ ----- --<br>----- bonds ---------- --- --- ------ ------ ---- -- ------<br>------- --- ------ ----- --- ---- ------- -- ---- --- --<br>------- ------,161446.70000004768,161445.90000003576,160706.37,160711,160723.04,161456.552,,34,bonds
screen,html.Screen,0_2_1_1_35,2021-11-12T14:08:21.369Z,,,,,,,,,,,,,,,,54,,,,,,,,,,,,,,1101.448000000004,,response,,,100,,,,,,Space,keypress(Space),,,,,"-- --- ---- --- ------ ----- ------- ---- -- --- ------- --<br>------- ---------- ------ -- ----- -- ----- -- ---- ------<br>--- ----- --- --- ------ -------- ----- --- ------ ----- --<br>----- ----- plummeted, --- --- ------ ------ ---- -- ------<br>------- --- ------ ----- --- ---- ------- -- ---- --- --<br>------- ------",162558.80000001192,162558,161439.882,161447,161456.552,162573.444,,35,"plummeted,"
screen,html.Screen,0_2_1_1_36,2021-11-12T14:08:21.977Z,,,,,,,,,,,,,,,,54,,,,,,,,,,,,,,592.3560000119323,,response,,,100,,,,,,Space,keypress(Space),,,,,-- --- ---- --- ------ ----- ------- ---- -- --- ------- --<br>------- ---------- ------ -- ----- -- ----- -- ---- ------<br>--- ----- --- --- ------ -------- ----- --- ------ ----- --<br>----- ----- ---------- and --- ------ ------ ---- -- ------<br>------- --- ------ ----- --- ---- ------- -- ---- --- --<br>------- ------,163166.70000004768,163165.80000001192,162556.774,162559,162573.444,163173.654,,36,and
screen,html.Screen,0_2_1_1_37,2021-11-12T14:08:22.585Z,,,,,,,,,,,,,,,,54,,,,,,,,,,,,,,600.2460000357532,,response,,,100,,,,,,Space,keypress(Space),,,,,-- --- ---- --- ------ ----- ------- ---- -- --- ------- --<br>------- ---------- ------ -- ----- -- ----- -- ---- ------<br>--- ----- --- --- ------ -------- ----- --- ------ ----- --<br>----- ----- ---------- --- the ------ ------ ---- -- ------<br>------- --- ------ ----- --- ---- ------- -- ---- --- --<br>------- ------,163774.70000004768,163773.90000003576,163156.984,163166.90000003576,163173.654,163790.485,,37,the
screen,html.Screen,0_2_1_1_38,2021-11-12T14:08:23.169Z,,,,,,,,,,,,,,,,54,,,,,,,,,,,,,,567.3150000119349,,response,,,100,,,,,,Space,keypress(Space),,,,,-- --- ---- --- ------ ----- ------- ---- -- --- ------- --<br>------- ---------- ------ -- ----- -- ----- -- ---- ------<br>--- ----- --- --- ------ -------- ----- --- ------ ----- --<br>----- ----- ---------- --- --- market ------ ---- -- ------<br>------- --- ------ ----- --- ---- ------- -- ---- --- --<br>------- ------,164358.70000004768,164357.80000001192,163773.815,163774.90000003576,163790.485,164373.855,,38,market
screen,html.Screen,0_2_1_1_39,2021-11-12T14:08:23.857Z,,,,,,,,,,,,,,,,54,,,,,,,,,,,,,,671.8450000476732,,response,,,100,,,,,,Space,keypress(Space),,,,,-- --- ---- --- ------ ----- ------- ---- -- --- ------- --<br>------- ---------- ------ -- ----- -- ----- -- ---- ------<br>--- ----- --- --- ------ -------- ----- --- ------ ----- --<br>----- ----- ---------- --- --- ------ became ---- -- ------<br>------- --- ------ ----- --- ---- ------- -- ---- --- --<br>------- ------,165046.5,165045.70000004768,164357.186,164358.90000003576,164373.855,165057.541,,39,became
screen,html.Screen,0_2_1_1_40,2021-11-12T14:08:24.810Z,,,,,,,,,,,,,,,,54,,,,,,,,,,,,,,941.3590000357653,,response,,,100,,,,,,Space,keypress(Space),,,,,-- --- ---- --- ------ ----- ------- ---- -- --- ------- --<br>------- ---------- ------ -- ----- -- ----- -- ---- ------<br>--- ----- --- --- ------ -------- ----- --- ------ ----- --<br>----- ----- ---------- --- --- ------ ------ wary -- ------<br>------- --- ------ ----- --- ---- ------- -- ---- --- --<br>------- ------,165999.70000004768,165998.90000003576,165040.87,165046.80000001192,165057.541,166007.778,,40,wary
screen,html.Screen,0_2_1_1_41,2021-11-12T14:08:25.177Z,,,,,,,,,,,,,,,,54,,,,,,,,,,,,,,357.92200004769256,,response,,,100,,,,,,Space,keypress(Space),,,,,-- --- ---- --- ------ ----- ------- ---- -- --- ------- --<br>------- ---------- ------ -- ----- -- ----- -- ---- ------<br>--- ----- --- --- ------ -------- ----- --- ------ ----- --<br>----- ----- ---------- --- --- ------ ------ ---- of ------<br>------- --- ------ ----- --- ---- ------- -- ---- --- --<br>------- ------,166366.40000003576,166365.70000004768,165991.107,166000,166007.778,166374.476,,41,of
screen,html.Screen,0_2_1_1_42,2021-11-12T14:08:25.857Z,,,,,,,,,,,,,,,,54,,,,,,,,,,,,,,671.2240000476886,,response,,,100,,,,,,Space,keypress(Space),,,,,-- --- ---- --- ------ ----- ------- ---- -- --- ------- --<br>------- ---------- ------ -- ----- -- ----- -- ---- ------<br>--- ----- --- --- ------ -------- ----- --- ------ ----- --<br>----- ----- ---------- --- --- ------ ------ ---- -- French<br>------- --- ------ ----- --- ---- ------- -- ---- --- --<br>------- ------,167046.5,167045.70000004768,166357.806,166366.70000004768,166374.476,167057.973,,42,French
screen,html.Screen,0_2_1_1_43,2021-11-12T14:08:28.121Z,,,,,,,,,,,,,,,,54,,,,,,,,,,,,,,2251.527000000002,,response,,,100,,,,,,Space,keypress(Space),,,,,-- --- ---- --- ------ ----- ------- ---- -- --- ------- --<br>------- ---------- ------ -- ----- -- ----- -- ---- ------<br>--- ----- --- --- ------ -------- ----- --- ------ ----- --<br>----- ----- ---------- --- --- ------ ------ ---- -- ------<br>credit. --- ------ ----- --- ---- ------- -- ---- --- --<br>------- ------,169310.20000004768,169309.5,167041.303,167046.70000004768,167057.973,169325.311,,43,credit.
screen,html.Screen,0_2_1_1_44,2021-11-12T14:08:28.593Z,,,,,,,,,,,,,,,,54,,,,,,,,,,,,,,456.18900000001304,,response,,,100,,,,,,Space,keypress(Space),,,,,-- --- ---- --- ------ ----- ------- ---- -- --- ------- --<br>------- ---------- ------ -- ----- -- ----- -- ---- ------<br>--- ----- --- --- ------ -------- ----- --- ------ ----- --<br>----- ----- ---------- --- --- ------ ------ ---- -- ------<br>------- The ------ ----- --- ---- ------- -- ---- --- --<br>------- ------,169782.40000003576,169781.5,169308.64,169310.5,169325.311,169792.03,,44,The
screen,html.Screen,0_2_1_1_45,2021-11-12T14:08:29.097Z,,,,,,,,,,,,,,,,54,,,,,,,,,,,,,,493.97000000000116,,response,,,100,,,,,,Space,keypress(Space),,,,,-- --- ---- --- ------ ----- ------- ---- -- --- ------- --<br>------- ---------- ------ -- ----- -- ----- -- ---- ------<br>--- ----- --- --- ------ -------- ----- --- ------ ----- --<br>----- ----- ---------- --- --- ------ ------ ---- -- ------<br>------- --- French ----- --- ---- ------- -- ---- --- --<br>------- ------,170286.80000001192,170286,169775.36,169782.60000002384,169792.03,170292.167,,45,French
screen,html.Screen,0_2_1_1_46,2021-11-12T14:08:29.617Z,,,,,,,,,,,,,,,,54,,,,,,,,,,,,,,513.2330000357761,,response,,,100,,,,,,Space,keypress(Space),,,,,-- --- ---- --- ------ ----- ------- ---- -- --- ------- --<br>------- ---------- ------ -- ----- -- ----- -- ---- ------<br>--- ----- --- --- ------ -------- ----- --- ------ ----- --<br>----- ----- ---------- --- --- ------ ------ ---- -- ------<br>------- --- ------ state --- ---- ------- -- ---- --- --<br>------- ------,170806.30000001192,170805.40000003576,170275.497,170286.90000003576,170292.167,170808.97,,46,state
screen,html.Screen,0_2_1_1_47,2021-11-12T14:08:30.073Z,,,,,,,,,,,,,,,,54,,,,,,,,,,,,,,452.52999999999884,,response,,,100,,,,,,Space,keypress(Space),,,,,-- --- ---- --- ------ ----- ------- ---- -- --- ------- --<br>------- ---------- ------ -- ----- -- ----- -- ---- ------<br>--- ----- --- --- ------ -------- ----- --- ------ ----- --<br>----- ----- ---------- --- --- ------ ------ ---- -- ------<br>------- --- ------ ----- was ---- ------- -- ---- --- --<br>------- ------,171262.30000001192,171261.5,170792.3,170806.5,170808.97,171275.747,,47,was
screen,html.Screen,0_2_1_1_48,2021-11-12T14:08:30.577Z,,,,,,,,,,,,,,,,54,,,,,,,,,,,,,,489.65300003575976,,response,,,100,,,,,,Space,keypress(Space),,,,,-- --- ---- --- ------ ----- ------- ---- -- --- ------- --<br>------- ---------- ------ -- ----- -- ----- -- ---- ------<br>--- ----- --- --- ------ -------- ----- --- ------ ----- --<br>----- ----- ---------- --- --- ------ ------ ---- -- ------<br>------- --- ------ ----- --- left ------- -- ---- --- --<br>------- ------,171766.20000004768,171765.40000003576,171259.077,171262.5,171275.747,171775.879,,48,left
screen,html.Screen,0_2_1_1_49,2021-11-12T14:08:31.065Z,,,,,,,,,,,,,,,,54,,,,,,,,,,,,,,477.5210000357765,,response,,,100,,,,,,Space,keypress(Space),,,,,-- --- ---- --- ------ ----- ------- ---- -- --- ------- --<br>------- ---------- ------ -- ----- -- ----- -- ---- ------<br>--- ----- --- --- ------ -------- ----- --- ------ ----- --<br>----- ----- ---------- --- --- ------ ------ ---- -- ------<br>------- --- ------ ----- --- ---- without -- ---- --- --<br>------- ------,172254.20000004768,172253.40000003576,171759.209,171766.40000003576,171775.879,172259.336,,49,without
screen,html.Screen,0_2_1_1_50,2021-11-12T14:08:31.553Z,,,,,,,,,,,,,,,,54,,,,,,,,,,,,,,482.06400003575254,,response,,,100,,,,,,Space,keypress(Space),,,,,-- --- ---- --- ------ ----- ------- ---- -- --- ------- --<br>------- ---------- ------ -- ----- -- ----- -- ---- ------<br>--- ----- --- --- ------ -------- ----- --- ------ ----- --<br>----- ----- ---------- --- --- ------ ------ ---- -- ------<br>------- --- ------ ----- --- ---- ------- an ---- --- --<br>------- ------,172742.20000004768,172741.40000003576,172242.666,172254.5,172259.336,172759.465,,50,an
screen,html.Screen,0_2_1_1_51,2021-11-12T14:08:31.993Z,,,,,,,,,,,,,,,,54,,,,,,,,,,,,,,421.9350000357663,,response,,,100,,,,,,Space,keypress(Space),,,,,-- --- ---- --- ------ ----- ------- ---- -- --- ------- --<br>------- ---------- ------ -- ----- -- ----- -- ---- ------<br>--- ----- --- --- ------ -------- ----- --- ------ ----- --<br>----- ----- ---------- --- --- ------ ------ ---- -- ------<br>------- --- ------ ----- --- ---- ------- -- easy --- --<br>------- ------,173182.20000004768,173181.40000003576,172742.795,172742.40000003576,172759.465,173192.954,,51,easy
screen,html.Screen,0_2_1_1_52,2021-11-12T14:08:32.393Z,,,,,,,,,,,,,,,,54,,,,,,,,,,,,,,388.4460000357649,,response,,,100,,,,,,Space,keypress(Space),,,,,-- --- ---- --- ------ ----- ------- ---- -- --- ------- --<br>------- ---------- ------ -- ----- -- ----- -- ---- ------<br>--- ----- --- --- ------ -------- ----- --- ------ ----- --<br>----- ----- ---------- --- --- ------ ------ ---- -- ------<br>------- --- ------ ----- --- ---- ------- -- ---- way --<br>------- ------,173582.20000004768,173581.40000003576,173176.283,173182.5,173192.954,173593.007,,52,way
screen,html.Screen,0_2_1_1_53,2021-11-12T14:08:32.793Z,,,,,,,,,,,,,,,,54,,,,,,,,,,,,,,388.2930000119086,,response,,,100,,,,,,Space,keypress(Space),,,,,-- --- ---- --- ------ ----- ------- ---- -- --- ------- --<br>------- ---------- ------ -- ----- -- ----- -- ---- ------<br>--- ----- --- --- ------ -------- ----- --- ------ ----- --<br>----- ----- ---------- --- --- ------ ------ ---- -- ------<br>------- --- ------ ----- --- ---- ------- -- ---- --- of<br>------- ------,173982.20000004768,173981.30000001192,173576.337,173582.40000003576,173593.007,173993.121,,53,of
screen,html.Screen,0_2_1_1_54,2021-11-12T14:08:33.169Z,,,,,,,,,,,,,,,,54,,,,,,,,,,,,,,364.1790000119072,,response,,,100,,,,,,Space,keypress(Space),,,,,-- --- ---- --- ------ ----- ------- ---- -- --- ------- --<br>------- ---------- ------ -- ----- -- ----- -- ---- ------<br>--- ----- --- --- ------ -------- ----- --- ------ ----- --<br>----- ----- ---------- --- --- ------ ------ ---- -- ------<br>------- --- ------ ----- --- ---- ------- -- ---- --- --<br>raising ------,174358.10000002384,174357.30000001192,173976.451,173982.40000003576,173993.121,174359.881,,54,raising
screen,html.Screen,0_2_1_1_55,2021-11-12T14:08:33.616Z,,,,,,,,,,,,,,,,54,,,,,,,,,,,,,,445.419000011927,,response,,,100,,,,,,Space,keypress(Space),,,,,-- --- ---- --- ------ ----- ------- ---- -- --- ------- --<br>------- ---------- ------ -- ----- -- ----- -- ---- ------<br>--- ----- --- --- ------ -------- ----- --- ------ ----- --<br>----- ----- ---------- --- --- ------ ------ ---- -- ------<br>------- --- ------ ----- --- ---- ------- -- ---- --- --<br>------- money.,174806,174805.30000001192,174343.211,174358.30000001192,174359.881,174810.033,,55,money.
Item 100,flow.Loop,0_2_1_1,2021-11-12T14:08:33.617Z,,,,,,,,,,,,,,,,,,,,,,,,,,,,,,41756.14900001191,,completion,,,,A,,,,,,,,,,silence,,174806.5,174805.30000001192,133032.481,133034.40000003576,133049.151,174810.033,,,
Question 1,html.Screen,0_2_1_2,2021-11-12T14:08:36.851Z,,,,,,,,,,,,,,,,,,,,,,,,,,,true,TRUE,,3229.667000047688,,response,,,100,A,,,,,TRUE,click #choice-1,,,,silence,,178040.90000003576,178039.70000004768,174793.362,174806.80000001192,174810.033,178044.164,,,
Question 2,html.Screen,0_2_1_3,2021-11-12T14:08:42.776Z,,,,,,,,,,,,,,,,,,,,,,,,,,,true,FALSE,,5916.536000047694,,response,,,100,A,,,,,FALSE,click #choice-2,,,,silence,,183961.90000003576,183960.70000004768,178027.494,178041.20000004768,178044.164,183962.324,,,
Item 100,flow.Sequence,0_2_1,2021-11-12T14:08:42.776Z,,,,,,,,,,,,,,,,,,,,,,,,,,,,,,60914.08500004768,,completion,,,,,,,,,,,,,,,,183962.30000001192,183960.70000004768,123029.946,123043.80000001192,123046.615,183962.324,,,
End of Practice,html.Page,0_2_2,2021-11-12T14:08:57.365Z,,,,,,,,,,,,,,,,,,,,,,,,,,,,,,14587.776000023849,,form submission,,,,,,,,,,,,,,,,198550.70000004768,198550.10000002384,183945.654,183962.5,183962.324,198565.748,,,
Practice,flow.Sequence,0_2,2021-11-12T14:08:57.365Z,,,,,,,,,,,,,,,,,,,,,,,,,,,,,,138252.77900002385,,completion,,,,,,,,,,,,,,,,198551.20000004768,198550.10000002384,60280.647,60291.90000003576,60297.321,198565.748,,,
Trap_instruction,html.Page,0_3_0,2021-11-12T14:09:01.502Z,,,,,,,,,,,,,,,,,,,,,,,,,,,,,,4122.1520000357705,,form submission,,,,,,,,,,,,,,,,202688.5,202687.90000003576,198549.078,198551.60000002384,198565.748,202717.217,,,
trap_trial,html.Screen,0_3_1,2021-11-12T14:09:04.198Z,,,,,,,,,,,,,,,,,,,,,,,,,,,true,1,,2665.5830000119167,,response,,,,,,,,,1,click #choice-1,,,,,,205384.10000002384,205382.80000001192,202683.875,202688.70000004768,202717.217,205400.389,,,
end of trap trial,html.Page,0_3_2,2021-11-12T14:09:07.413Z,,,,,,,,,,,,,,,,,,,,,,,,,,,,,,3198.4110000119254,,form submission,,,,,,,,,,,,,,,,208599.20000004768,208598.80000001192,205383.723,205384.40000003576,205400.389,208601.936,,,
Trap 1,flow.Sequence,0_3,2021-11-12T14:09:07.414Z,,,,,,,,,,,,,,,,,,,,,,,,,,,,,,10033.052000011929,,completion,,,,,,,,,,,,,,,,208599.80000001192,208598.80000001192,198549.078,198551.5,198565.748,208601.936,,,
Standby,html.Page,0_4_0,2021-11-12T14:09:15.403Z,,,,,,,,,,,,,,,,,,,,,,,,,,,,,,8002.185000000027,,timeout,,,,,,,,,,,,,,,,216589,216587.45,208585.266,208600.10000002384,208601.936,216604.121,,,
Holding screen,html.Screen,0_4_1_0_0,2021-11-12T14:09:22.405Z,,,,,,,,,,,,,,,,,,,,,,,,,,,,,,7001.570999999996,,timeout,,,,,,,,,,,,,,,,223591,223589.023,216587.45,216589.40000003576,216604.121,223605.692,,,
screen,html.Screen,0_4_1_0_1_0,2021-11-12T14:09:23.922Z,,,,,,,,,,,,,,,,15,,,,,,,,,,,,,,1501.4080000238318,,response,,,7,A,,,,,Space,keypress(Space),,,,silence,Greg --------- ---------- - --- ------- -- --- ------------<br>----- -- -------- ------- ---- ------ - -------- ---- -----<br>--- ------- ---- -- --- -------- --- - ----- ------ ---- --<br>-------- --- -------- -------- --- -------- ---- -- ----- -<br>-------- ---- --- ---------- --------- -- ------- ------ -<br>--------- ----- -----,225108,225107.10000002384,223589.023,223591.30000001192,223605.692,225122.962,,0,Greg
screen,html.Screen,0_4_1_0_1_1,2021-11-12T14:09:26.185Z,,,,,,,,,,,,,,,,15,,,,,,,,,,,,,,2247.4380000357633,,response,,,7,A,,,,,Space,keypress(Space),,,,silence,"---- Anderson, ---------- - --- ------- -- --- ------------<br>----- -- -------- ------- ---- ------ - -------- ---- -----<br>--- ------- ---- -- --- -------- --- - ----- ------ ---- --<br>-------- --- -------- -------- --- -------- ---- -- ----- -<br>-------- ---- --- ---------- --------- -- ------- ------ -<br>--------- ----- -----",227371.20000004768,227370.40000003576,225106.291,225108.40000003576,225122.962,227373.143,,1,"Anderson,"
screen,html.Screen,0_4_1_0_1_2,2021-11-12T14:09:27.121Z,,,,,,,,,,,,,,,,15,,,,,,,,,,,,,,933.15700001191,,response,,,7,A,,,,,Space,keypress(Space),,,,silence,---- --------- considered - --- ------- -- --- ------------<br>----- -- -------- ------- ---- ------ - -------- ---- -----<br>--- ------- ---- -- --- -------- --- - ----- ------ ---- --<br>-------- --- -------- -------- --- -------- ---- -- ----- -<br>-------- ---- --- ---------- --------- -- ------- ------ -<br>--------- ----- -----,228307.20000004768,228306.30000001192,227356.474,227371.40000003576,227373.143,228323.768,,2,considered
screen,html.Screen,0_4_1_0_1_3,2021-11-12T14:09:27.753Z,,,,,,,,,,,,,,,,15,,,,,,,,,,,,,,614.53200001191,,response,,,7,A,,,,,Space,keypress(Space),,,,silence,---- --------- ---------- a --- ------- -- --- ------------<br>----- -- -------- ------- ---- ------ - -------- ---- -----<br>--- ------- ---- -- --- -------- --- - ----- ------ ---- --<br>-------- --- -------- -------- --- -------- ---- -- ----- -<br>-------- ---- --- ---------- --------- -- ------- ------ -<br>--------- ----- -----,228939.10000002384,228938.30000001192,228307.097,228307.5,228323.768,228940.492,,3,a
screen,html.Screen,0_4_1_0_1_4,2021-11-12T14:09:28.289Z,,,,,,,,,,,,,,,,15,,,,,,,,,,,,,,533.8080000119226,,response,,,7,A,,,,,Space,keypress(Space),,,,silence,---- --------- ---------- - key ------- -- --- ------------<br>----- -- -------- ------- ---- ------ - -------- ---- -----<br>--- ------- ---- -- --- -------- --- - ----- ------ ---- --<br>-------- --- -------- -------- --- -------- ---- -- ----- -<br>-------- ---- --- ---------- --------- -- ------- ------ -<br>--------- ----- -----,229475.20000004768,229474.30000001192,228923.822,228939.5,228940.492,229490.836,,4,key
screen,html.Screen,0_4_1_0_1_5,2021-11-12T14:09:28.953Z,,,,,,,,,,,,,,,,15,,,,,,,,,,,,,,647.3640000476735,,response,,,7,A,,,,,Space,keypress(Space),,,,silence,---- --------- ---------- - --- witness -- --- ------------<br>----- -- -------- ------- ---- ------ - -------- ---- -----<br>--- ------- ---- -- --- -------- --- - ----- ------ ---- --<br>-------- --- -------- -------- --- -------- ---- -- ----- -<br>-------- ---- --- ---------- --------- -- ------- ------ -<br>--------- ----- -----,230139,230138.20000004768,229474.164,229475.5,229490.836,230140.895,,5,witness
screen,html.Screen,0_4_1_0_1_6,2021-11-12T14:09:29.481Z,,,,,,,,,,,,,,,,15,,,,,,,,,,,,,,525.2050000238523,,response,,,7,A,,,,,Space,keypress(Space),,,,silence,---- --------- ---------- - --- ------- by --- ------------<br>----- -- -------- ------- ---- ------ - -------- ---- -----<br>--- ------- ---- -- --- -------- --- - ----- ------ ---- --<br>-------- --- -------- -------- --- -------- ---- -- ----- -<br>-------- ---- --- ---------- --------- -- ------- ------ -<br>--------- ----- -----,230667.10000002384,230666.10000002384,230124.225,230139.30000001192,230140.895,230674.354,,6,by
screen,html.Screen,0_4_1_0_1_7,2021-11-12T14:09:29.929Z,,,,,,,,,,,,,,,,15,,,,,,,,,,,,,,439.84600004769163,,response,,,7,A,,,,,Space,keypress(Space),,,,silence,---- --------- ---------- - --- ------- -- the ------------<br>----- -- -------- ------- ---- ------ - -------- ---- -----<br>--- ------- ---- -- --- -------- --- - ----- ------ ---- --<br>-------- --- -------- -------- --- -------- ---- -- ----- -<br>-------- ---- --- ---------- --------- -- ------- ------ -<br>--------- ----- -----,231115,231114.20000004768,230657.684,230667.30000001192,230674.354,231124.472,,7,the
screen,html.Screen,0_4_1_0_1_8,2021-11-12T14:09:33.481Z,,,,,,,,,,,,,,,,15,,,,,,,,,,,,,,3541.328000011912,,response,,,7,A,,,,,Space,keypress(Space),,,,silence,"---- --------- ---------- - --- ------- -- --- prosecution,<br>----- -- -------- ------- ---- ------ - -------- ---- -----<br>--- ------- ---- -- --- -------- --- - ----- ------ ---- --<br>-------- --- -------- -------- --- -------- ---- -- ----- -<br>-------- ---- --- ---------- --------- -- ------- ------ -<br>--------- ----- -----",234666.80000001192,234665.80000001192,231107.802,231115.5,231124.472,234675.449,,8,"prosecution,"
screen,html.Screen,0_4_1_0_1_9,2021-11-12T14:09:34.105Z,,,,,,,,,,,,,,,,15,,,,,,,,,,,,,,614.9510000357695,,response,,,7,A,,,,,Space,keypress(Space),,,,silence,---- --------- ---------- - --- ------- -- --- ------------<br>vowed -- -------- ------- ---- ------ - -------- ---- -----<br>--- ------- ---- -- --- -------- --- - ----- ------ ---- --<br>-------- --- -------- -------- --- -------- ---- -- ----- -<br>-------- ---- --- ---------- --------- -- ------- ------ -<br>--------- ----- -----,235291.10000002384,235290.40000003576,234658.778,234667.10000002384,234675.449,235292.067,,9,vowed
screen,html.Screen,0_4_1_0_1_10,2021-11-12T14:09:34.561Z,,,,,,,,,,,,,,,,15,,,,,,,,,,,,,,453.8330000357528,,response,,,7,A,,,,,Space,keypress(Space),,,,silence,---- --------- ---------- - --- ------- -- --- ------------<br>----- he -------- ------- ---- ------ - -------- ---- -----<br>--- ------- ---- -- --- -------- --- - ----- ------ ---- --<br>-------- --- -------- -------- --- -------- ---- -- ----- -<br>-------- ---- --- ---------- --------- -- ------- ------ -<br>--------- ----- -----,235746.70000004768,235745.90000003576,235275.397,235291.40000003576,235292.067,235758.931,,10,he
screen,html.Screen,0_4_1_0_1_11,2021-11-12T14:09:34.921Z,,,,,,,,,,,,,,,,15,,,,,,,,,,,,,,346.8690000119095,,response,,,7,A,,,,,Space,keypress(Space),,,,silence,---- --------- ---------- - --- ------- -- --- ------------<br>----- -- wouldn't ------- ---- ------ - -------- ---- -----<br>--- ------- ---- -- --- -------- --- - ----- ------ ---- --<br>-------- --- -------- -------- --- -------- ---- -- ----- -<br>-------- ---- --- ---------- --------- -- ------- ------ -<br>--------- ----- -----,236106.60000002384,236105.80000001192,235742.261,235746.90000003576,235758.931,236109.201,,11,wouldn't
screen,html.Screen,0_4_1_0_1_12,2021-11-12T14:09:35.265Z,,,,,,,,,,,,,,,,15,,,,,,,,,,,,,,340.59900001192,,response,,,7,A,,,,,Space,keypress(Space),,,,silence,---- --------- ---------- - --- ------- -- --- ------------<br>----- -- -------- testify ---- ------ - -------- ---- -----<br>--- ------- ---- -- --- -------- --- - ----- ------ ---- --<br>-------- --- -------- -------- --- -------- ---- -- ----- -<br>-------- ---- --- ---------- --------- -- ------- ------ -<br>--------- ----- -----,236450.60000002384,236449.80000001192,236092.529,236106.80000001192,236109.201,236459.183,,12,testify
screen,html.Screen,0_4_1_0_1_13,2021-11-12T14:09:35.633Z,,,,,,,,,,,,,,,,15,,,,,,,,,,,,,,358.61700001193094,,response,,,7,A,,,,,Space,keypress(Space),,,,silence,---- --------- ---------- - --- ------- -- --- ------------<br>----- -- -------- ------- when ------ - -------- ---- -----<br>--- ------- ---- -- --- -------- --- - ----- ------ ---- --<br>-------- --- -------- -------- --- -------- ---- -- ----- -<br>-------- ---- --- ---------- --------- -- ------- ------ -<br>--------- ----- -----,236818.60000002384,236817.80000001192,236442.513,236450.80000001192,236459.183,236825.996,,13,when
screen,html.Screen,0_4_1_0_1_14,2021-11-12T14:09:35.937Z,,,,,,,,,,,,,,,,15,,,,,,,,,,,,,,295.70400004767,,response,,,7,A,,,,,Space,keypress(Space),,,,silence,---- --------- ---------- - --- ------- -- --- ------------<br>----- -- -------- ------- ---- served - -------- ---- -----<br>--- ------- ---- -- --- -------- --- - ----- ------ ---- --<br>-------- --- -------- -------- --- -------- ---- -- ----- -<br>-------- ---- --- ---------- --------- -- ------- ------ -<br>--------- ----- -----,237122.60000002384,237121.70000004768,236809.325,236818.80000001192,236825.996,237126.023,,14,served
screen,html.Screen,0_4_1_0_1_15,2021-11-12T14:09:36.257Z,,,,,,,,,,,,,,,,15,,,,,,,,,,,,,,315.77700001193443,,response,,,7,A,,,,,Space,keypress(Space),,,,silence,---- --------- ---------- - --- ------- -- --- ------------<br>----- -- -------- ------- ---- ------ a -------- ---- -----<br>--- ------- ---- -- --- -------- --- - ----- ------ ---- --<br>-------- --- -------- -------- --- -------- ---- -- ----- -<br>-------- ---- --- ---------- --------- -- ------- ------ -<br>--------- ----- -----,237442.70000004768,237441.80000001192,237109.353,237122.70000004768,237126.023,237459.482,,15,a
screen,html.Screen,0_4_1_0_1_16,2021-11-12T14:09:38.289Z,,,,,,,,,,,,,,,,15,,,,,,,,,,,,,,2014.2180000476947,,response,,,7,A,,,,,Space,keypress(Space),,,,silence,---- --------- ---------- - --- ------- -- --- ------------<br>----- -- -------- ------- ---- ------ - subpoena ---- -----<br>--- ------- ---- -- --- -------- --- - ----- ------ ---- --<br>-------- --- -------- -------- --- -------- ---- -- ----- -<br>-------- ---- --- ---------- --------- -- ------- ------ -<br>--------- ----- -----,239474.5,239473.70000004768,237442.811,237442.90000003576,237459.482,239476.679,,16,subpoena
screen,html.Screen,0_4_1_0_1_17,2021-11-12T14:09:38.952Z,,,,,,,,,,,,,,,,15,,,,,,,,,,,,,,661.02100004768,,response,,,7,A,,,,,Space,keypress(Space),,,,silence,---- --------- ---------- - --- ------- -- --- ------------<br>----- -- -------- ------- ---- ------ - -------- last -----<br>--- ------- ---- -- --- -------- --- - ----- ------ ---- --<br>-------- --- -------- -------- --- -------- ---- -- ----- -<br>-------- ---- --- ---------- --------- -- ------- ------ -<br>--------- ----- -----,240138.5,240137.70000004768,239460.008,239474.80000001192,239476.679,240143.297,,17,last
screen,html.Screen,0_4_1_0_1_18,2021-11-12T14:09:45.750Z,,,,,,,,,,,,,,,,15,,,,,,,,,,,,,,6788.0030000119295,,response,,,7,A,,,,,Space,keypress(Space),,,,silence,---- --------- ---------- - --- ------- -- --- ------------<br>----- -- -------- ------- ---- ------ - -------- ---- week.<br>--- ------- ---- -- --- -------- --- - ----- ------ ---- --<br>-------- --- -------- -------- --- -------- ---- -- ----- -<br>-------- ---- --- ---------- --------- -- ------- ------ -<br>--------- ----- -----,246932.10000002384,246931.30000001192,240126.628,240138.70000004768,240143.297,246944.869,,18,week.
screen,html.Screen,0_4_1_0_1_19,2021-11-12T14:09:46.396Z,,,,,,,,,,,,,,,,15,,,,,,,,,,,,,,632.4310000119149,,response,,,7,A,,,,,Space,keypress(Space),,,,silence,---- --------- ---------- - --- ------- -- --- ------------<br>----- -- -------- ------- ---- ------ - -------- ---- -----<br>His ------- ---- -- --- -------- --- - ----- ------ ---- --<br>-------- --- -------- -------- --- -------- ---- -- ----- -<br>-------- ---- --- ---------- --------- -- ------- ------ -<br>--------- ----- -----,247578.10000002384,247577.30000001192,246928.199,246932.40000003576,246944.869,247595.229,,19,His
screen,html.Screen,0_4_1_0_1_20,2021-11-12T14:09:46.676Z,,,,,,,,,,,,,,,,15,,,,,,,,,,,,,,262.07100001192885,,response,,,7,A,,,,,Space,keypress(Space),,,,silence,---- --------- ---------- - --- ------- -- --- ------------<br>----- -- -------- ------- ---- ------ - -------- ---- -----<br>--- lawyers ---- -- --- -------- --- - ----- ------ ---- --<br>-------- --- -------- -------- --- -------- ---- -- ----- -<br>-------- ---- --- ---------- --------- -- ------- ------ -<br>--------- ----- -----,247858.20000004768,247857.30000001192,247578.559,247578.40000003576,247595.229,247862.057,,20,lawyers
screen,html.Screen,0_4_1_0_1_21,2021-11-12T14:09:46.956Z,,,,,,,,,,,,,,,,15,,,,,,,,,,,,,,275.24300001192023,,response,,,7,A,,,,,Space,keypress(Space),,,,silence,---- --------- ---------- - --- ------- -- --- ------------<br>----- -- -------- ------- ---- ------ - -------- ---- -----<br>--- ------- said -- --- -------- --- - ----- ------ ---- --<br>-------- --- -------- -------- --- -------- ---- -- ----- -<br>-------- ---- --- ---------- --------- -- ------- ------ -<br>--------- ----- -----,248138.10000002384,248137.30000001192,247845.387,247858.5,247862.057,248145.538,,21,said
screen,html.Screen,0_4_1_0_1_22,2021-11-12T14:09:47.188Z,,,,,,,,,,,,,,,,15,,,,,,,,,,,,,,223.66200004768325,,response,,,7,A,,,,,Space,keypress(Space),,,,silence,---- --------- ---------- - --- ------- -- --- ------------<br>----- -- -------- ------- ---- ------ - -------- ---- -----<br>--- ------- ---- he --- -------- --- - ----- ------ ---- --<br>-------- --- -------- -------- --- -------- ---- -- ----- -<br>-------- ---- --- ---------- --------- -- ------- ------ -<br>--------- ----- -----,248370.10000002384,248369.20000004768,248128.867,248138.40000003576,248145.538,248379.022,,22,he
screen,html.Screen,0_4_1_0_1_23,2021-11-12T14:09:47.516Z,,,,,,,,,,,,,,,,15,,,,,,,,,,,,,,318.1780000476865,,response,,,7,A,,,,,Space,keypress(Space),,,,silence,---- --------- ---------- - --- ------- -- --- ------------<br>----- -- -------- ------- ---- ------ - -------- ---- -----<br>--- ------- ---- -- was -------- --- - ----- ------ ---- --<br>-------- --- -------- -------- --- -------- ---- -- ----- -<br>-------- ---- --- ---------- --------- -- ------- ------ -<br>--------- ----- -----,248698,248697.20000004768,248362.349,248370.30000001192,248379.022,248712.36,,23,was
screen,html.Screen,0_4_1_0_1_24,2021-11-12T14:09:47.748Z,,,,,,,,,,,,,,,,15,,,,,,,,,,,,,,216.84000004769769,,response,,,7,A,,,,,Space,keypress(Space),,,,silence,---- --------- ---------- - --- ------- -- --- ------------<br>----- -- -------- ------- ---- ------ - -------- ---- -----<br>--- ------- ---- -- --- prepared --- - ----- ------ ---- --<br>-------- --- -------- -------- --- -------- ---- -- ----- -<br>-------- ---- --- ---------- --------- -- ------- ------ -<br>--------- ----- -----,248930.10000002384,248929.20000004768,248695.69,248698.30000001192,248712.36,248945.742,,24,prepared
screen,html.Screen,0_4_1_0_1_25,2021-11-12T14:09:47.988Z,,,,,,,,,,,,,,,,15,,,,,,,,,,,,,,223.45800004768535,,response,,,7,A,,,,,Space,keypress(Space),,,,silence,---- --------- ---------- - --- ------- -- --- ------------<br>----- -- -------- ------- ---- ------ - -------- ---- -----<br>--- ------- ---- -- --- -------- for - ----- ------ ---- --<br>-------- --- -------- -------- --- -------- ---- -- ----- -<br>-------- ---- --- ---------- --------- -- ------- ------ -<br>--------- ----- -----,249170,249169.20000004768,248929.072,248930.5,248945.742,249179.138,,25,for
screen,html.Screen,0_4_1_0_1_26,2021-11-12T14:09:48.332Z,,,,,,,,,,,,,,,,15,,,,,,,,,,,,,,334.06200004767743,,response,,,7,A,,,,,Space,keypress(Space),,,,silence,---- --------- ---------- - --- ------- -- --- ------------<br>----- -- -------- ------- ---- ------ - -------- ---- -----<br>--- ------- ---- -- --- -------- --- a ----- ------ ---- --<br>-------- --- -------- -------- --- -------- ---- -- ----- -<br>-------- ---- --- ---------- --------- -- ------- ------ -<br>--------- ----- -----,249514.10000002384,249513.20000004768,249162.468,249170.30000001192,249179.138,249529.224,,26,a
screen,html.Screen,0_4_1_0_1_27,2021-11-12T14:09:48.892Z,,,,,,,,,,,,,,,,15,,,,,,,,,,,,,,543.8760000238544,,response,,,7,A,,,,,Space,keypress(Space),,,,silence,---- --------- ---------- - --- ------- -- --- ------------<br>----- -- -------- ------- ---- ------ - -------- ---- -----<br>--- ------- ---- -- --- -------- --- - third ------ ---- --<br>-------- --- -------- -------- --- -------- ---- -- ----- -<br>-------- ---- --- ---------- --------- -- ------- ------ -<br>--------- ----- -----,250074,250073.10000002384,249512.554,249514.40000003576,249529.224,250079.396,,27,third
screen,html.Screen,0_4_1_0_1_28,2021-11-12T14:09:49.724Z,,,,,,,,,,,,,,,,15,,,,,,,,,,,,,,825.7040000238339,,response,,,7,A,,,,,Space,keypress(Space),,,,silence,---- --------- ---------- - --- ------- -- --- ------------<br>----- -- -------- ------- ---- ------ - -------- ---- -----<br>--- ------- ---- -- --- -------- --- - ----- prison ---- --<br>-------- --- -------- -------- --- -------- ---- -- ----- -<br>-------- ---- --- ---------- --------- -- ------- ------ -<br>--------- ----- -----,250906,250905.10000002384,250062.725,250074.40000003576,250079.396,250912.875,,28,prison
screen,html.Screen,0_4_1_0_1_29,2021-11-12T14:09:50.252Z,,,,,,,,,,,,,,,,15,,,,,,,,,,,,,,520.2250000238419,,response,,,7,A,,,,,Space,keypress(Space),,,,silence,---- --------- ---------- - --- ------- -- --- ------------<br>----- -- -------- ------- ---- ------ - -------- ---- -----<br>--- ------- ---- -- --- -------- --- - ----- ------ stay --<br>-------- --- -------- -------- --- -------- ---- -- ----- -<br>-------- ---- --- ---------- --------- -- ------- ------ -<br>--------- ----- -----,251433.90000003576,251433.10000002384,250896.205,250906.30000001192,250912.875,251446.426,,29,stay
screen,html.Screen,0_4_1_0_1_30,2021-11-12T14:09:50.660Z,,,,,,,,,,,,,,,,15,,,,,,,,,,,,,,394.57399999999325,,response,,,7,A,,,,,Space,keypress(Space),,,,silence,---- --------- ---------- - --- ------- -- --- ------------<br>----- -- -------- ------- ---- ------ - -------- ---- -----<br>--- ------- ---- -- --- -------- --- - ----- ------ ---- to<br>-------- --- -------- -------- --- -------- ---- -- ----- -<br>-------- ---- --- ---------- --------- -- ------- ------ -<br>--------- ----- -----,251841.80000001192,251841,251429.755,251434.30000001192,251446.426,251846.474,,30,to
screen,html.Screen,0_4_1_0_1_31,2021-11-12T14:09:51.164Z,,,,,,,,,,,,,,,,15,,,,,,,,,,,,,,498.5260000000126,,response,,,7,A,,,,,Space,keypress(Space),,,,silence,---- --------- ---------- - --- ------- -- --- ------------<br>----- -- -------- ------- ---- ------ - -------- ---- -----<br>--- ------- ---- -- --- -------- --- - ----- ------ ---- --<br>maintain --- -------- -------- --- -------- ---- -- ----- -<br>-------- ---- --- ---------- --------- -- ------- ------ -<br>--------- ----- -----,252345.80000001192,252345,251829.804,251842.20000004768,251846.474,252363.185,,31,maintain
screen,html.Screen,0_4_1_0_1_32,2021-11-12T14:09:51.524Z,,,,,,,,,,,,,,,,15,,,,,,,,,,,,,,341.8150000000023,,response,,,7,A,,,,,Space,keypress(Space),,,,silence,---- --------- ---------- - --- ------- -- --- ------------<br>----- -- -------- ------- ---- ------ - -------- ---- -----<br>--- ------- ---- -- --- -------- --- - ----- ------ ---- --<br>-------- his -------- -------- --- -------- ---- -- ----- -<br>-------- ---- --- ---------- --------- -- ------- ------ -<br>--------- ----- -----,252705.80000001192,252705,252346.516,252346.20000004768,252363.185,252713.479,,32,his
screen,html.Screen,0_4_1_0_1_33,2021-11-12T14:09:51.860Z,,,,,,,,,,,,,,,,15,,,,,,,,,,,,,,327.5210000000079,,response,,,7,A,,,,,Space,keypress(Space),,,,silence,---- --------- ---------- - --- ------- -- --- ------------<br>----- -- -------- ------- ---- ------ - -------- ---- -----<br>--- ------- ---- -- --- -------- --- - ----- ------ ---- --<br>-------- --- silence. -------- --- -------- ---- -- ----- -<br>-------- ---- --- ---------- --------- -- ------- ------ -<br>--------- ----- -----,253041.80000001192,253041,252696.807,252706.10000002384,252713.479,253046.795,,33,silence.
screen,html.Screen,0_4_1_0_1_34,2021-11-12T14:09:58.436Z,,,,,,,,,,,,,,,,15,,,,,,,,,,,,,,6570.204999999987,,response,,,7,A,,,,,Space,keypress(Space),,,,silence,---- --------- ---------- - --- ------- -- --- ------------<br>----- -- -------- ------- ---- ------ - -------- ---- -----<br>--- ------- ---- -- --- -------- --- - ----- ------ ---- --<br>-------- --- -------- Anderson --- -------- ---- -- ----- -<br>-------- ---- --- ---------- --------- -- ------- ------ -<br>--------- ----- -----,259617.80000001192,259617,253030.125,253042.10000002384,253046.795,259631.044,,34,Anderson
screen,html.Screen,0_4_1_0_1_35,2021-11-12T14:09:58.836Z,,,,,,,,,,,,,,,,15,,,,,,,,,,,,,,385.55600002384745,,response,,,7,A,,,,,Space,keypress(Space),,,,silence,---- --------- ---------- - --- ------- -- --- ------------<br>----- -- -------- ------- ---- ------ - -------- ---- -----<br>--- ------- ---- -- --- -------- --- - ----- ------ ---- --<br>-------- --- -------- -------- was -------- ---- -- ----- -<br>-------- ---- --- ---------- --------- -- ------- ------ -<br>--------- ----- -----,260017.5,260016.60000002384,259614.375,259618.10000002384,259631.044,260031.951,,35,was
screen,html.Screen,0_4_1_0_1_36,2021-11-12T14:09:59.227Z,,,,,,,,,,,,,,,,15,,,,,,,,,,,,,,376.54899999999907,,response,,,7,A,,,,,Space,keypress(Space),,,,silence,---- --------- ---------- - --- ------- -- --- ------------<br>----- -- -------- ------- ---- ------ - -------- ---- -----<br>--- ------- ---- -- --- -------- --- - ----- ------ ---- --<br>-------- --- -------- -------- --- released ---- -- ----- -<br>-------- ---- --- ---------- --------- -- ------- ------ -<br>--------- ----- -----,260409.40000003576,260408.5,260015.279,260017.90000003576,260031.951,260415.293,,36,released
screen,html.Screen,0_4_1_0_1_37,2021-11-12T14:09:59.627Z,,,,,,,,,,,,,,,,15,,,,,,,,,,,,,,393.10700003575766,,response,,,7,A,,,,,Space,keypress(Space),,,,silence,---- --------- ---------- - --- ------- -- --- ------------<br>----- -- -------- ------- ---- ------ - -------- ---- -----<br>--- ------- ---- -- --- -------- --- - ----- ------ ---- --<br>-------- --- -------- -------- --- -------- July -- ----- -<br>-------- ---- --- ---------- --------- -- ------- ------ -<br>--------- ----- -----,260809.30000001192,260808.40000003576,260398.623,260409.70000004768,260415.293,260815.615,,37,July
screen,html.Screen,0_4_1_0_1_38,2021-11-12T14:10:00.035Z,,,,,,,,,,,,,,,,15,,,,,,,,,,,,,,400.7850000357721,,response,,,7,A,,,,,Space,keypress(Space),,,,silence,---- --------- ---------- - --- ------- -- --- ------------<br>----- -- -------- ------- ---- ------ - -------- ---- -----<br>--- ------- ---- -- --- -------- --- - ----- ------ ---- --<br>-------- --- -------- -------- --- -------- ---- 20 ----- -<br>-------- ---- --- ---------- --------- -- ------- ------ -<br>--------- ----- -----,261217.30000001192,261216.40000003576,260798.941,260809.60000002384,260815.615,261232.133,,38,20
screen,html.Screen,0_4_1_0_1_39,2021-11-12T14:10:00.747Z,,,,,,,,,,,,,,,,15,,,,,,,,,,,,,,695.9670000238402,,response,,,7,A,,,,,Space,keypress(Space),,,,silence,---- --------- ---------- - --- ------- -- --- ------------<br>----- -- -------- ------- ---- ------ - -------- ---- -----<br>--- ------- ---- -- --- -------- --- - ----- ------ ---- --<br>-------- --- -------- -------- --- -------- ---- -- after -<br>-------- ---- --- ---------- --------- -- ------- ------ -<br>--------- ----- -----,261928.5,261928.10000002384,261215.464,261217.60000002384,261232.133,261932.347,,39,after
screen,html.Screen,0_4_1_0_1_40,2021-11-12T14:10:01.210Z,,,,,,,,,,,,,,,,15,,,,,,,,,,,,,,459.55300003575394,,response,,,7,A,,,,,Space,keypress(Space),,,,silence,---- --------- ---------- - --- ------- -- --- ------------<br>----- -- -------- ------- ---- ------ - -------- ---- -----<br>--- ------- ---- -- --- -------- --- - ----- ------ ---- --<br>-------- --- -------- -------- --- -------- ---- -- ----- a<br>-------- ---- --- ---------- --------- -- ------- ------ -<br>--------- ----- -----,262392.3000000119,262391.90000003576,261915.677,261928.60000002384,261932.347,262399.272,,40,a
screen,html.Screen,0_4_1_0_1_41,2021-11-12T14:10:01.739Z,,,,,,,,,,,,,,,,15,,,,,,,,,,,,,,521.0280000119237,,response,,,7,A,,,,,Space,keypress(Space),,,,silence,---- --------- ---------- - --- ------- -- --- ------------<br>----- -- -------- ------- ---- ------ - -------- ---- -----<br>--- ------- ---- -- --- -------- --- - ----- ------ ---- --<br>-------- --- -------- -------- --- -------- ---- -- ----- -<br>two-week ---- --- ---------- --------- -- ------- ------ -<br>--------- ----- -----,262921.3000000119,262920.3000000119,262382.6,262392.5,262399.272,262932.586,,41,two-week
screen,html.Screen,0_4_1_0_1_42,2021-11-12T14:10:02.139Z,,,,,,,,,,,,,,,,15,,,,,,,,,,,,,,387.81400003575254,,response,,,7,A,,,,,Space,keypress(Space),,,,silence,---- --------- ---------- - --- ------- -- --- ------------<br>----- -- -------- ------- ---- ------ - -------- ---- -----<br>--- ------- ---- -- --- -------- --- - ----- ------ ---- --<br>-------- --- -------- -------- --- -------- ---- -- ----- -<br>-------- stay --- ---------- --------- -- ------- ------ -<br>--------- ----- -----,263321.2000000477,263320.40000003576,262915.917,262921.60000002384,262932.586,263332.628,,42,stay
screen,html.Screen,0_4_1_0_1_43,2021-11-12T14:10:02.531Z,,,,,,,,,,,,,,,,15,,,,,,,,,,,,,,379.7720000357367,,response,,,7,A,,,,,Space,keypress(Space),,,,silence,---- --------- ---------- - --- ------- -- --- ------------<br>----- -- -------- ------- ---- ------ - -------- ---- -----<br>--- ------- ---- -- --- -------- --- - ----- ------ ---- --<br>-------- --- -------- -------- --- -------- ---- -- ----- -<br>-------- ---- for ---------- --------- -- ------- ------ -<br>--------- ----- -----,263713.2000000477,263712.40000003576,263315.959,263321.5,263332.628,263716.299,,43,for
screen,html.Screen,0_4_1_0_1_44,2021-11-12T14:10:03.036Z,,,,,,,,,,,,,,,,15,,,,,,,,,,,,,,500.00100001192186,,response,,,7,A,,,,,Space,keypress(Space),,,,silence,---- --------- ---------- - --- ------- -- --- ------------<br>----- -- -------- ------- ---- ------ - -------- ---- -----<br>--- ------- ---- -- --- -------- --- - ----- ------ ---- --<br>-------- --- -------- -------- --- -------- ---- -- ----- -<br>-------- ---- --- previously --------- -- ------- ------ -<br>--------- ----- -----,264217.40000003576,264216.3000000119,263699.627,263713.60000002384,263716.299,264232.998,,44,previously
screen,html.Screen,0_4_1_0_1_45,2021-11-12T14:10:03.515Z,,,,,,,,,,,,,,,,15,,,,,,,,,,,,,,463.3020000118995,,response,,,7,A,,,,,Space,keypress(Space),,,,silence,---- --------- ---------- - --- ------- -- --- ------------<br>----- -- -------- ------- ---- ------ - -------- ---- -----<br>--- ------- ---- -- --- -------- --- - ----- ------ ---- --<br>-------- --- -------- -------- --- -------- ---- -- ----- -<br>-------- ---- --- ---------- declining -- ------- ------ -<br>--------- ----- -----,264697.10000002384,264696.3000000119,264216.328,264217.7000000477,264232.998,264699.666,,45,declining
screen,html.Screen,0_4_1_0_1_46,2021-11-12T14:10:03.938Z,,,,,,,,,,,,,,,,15,,,,,,,,,,,,,,420.23400003573624,,response,,,7,A,,,,,Space,keypress(Space),,,,silence,---- --------- ---------- - --- ------- -- --- ------------<br>----- -- -------- ------- ---- ------ - -------- ---- -----<br>--- ------- ---- -- --- -------- --- - ----- ------ ---- --<br>-------- --- -------- -------- --- -------- ---- -- ----- -<br>-------- ---- --- ---------- --------- to ------- ------ -<br>--------- ----- -----,265120.3000000119,265119.90000003576,264682.997,264697.5,264699.666,265133.192,,46,to
screen,html.Screen,0_4_1_0_1_47,2021-11-12T14:10:04.355Z,,,,,,,,,,,,,,,,15,,,,,,,,,,,,,,403.0080000477028,,response,,,7,A,,,,,Space,keypress(Space),,,,silence,---- --------- ---------- - --- ------- -- --- ------------<br>----- -- -------- ------- ---- ------ - -------- ---- -----<br>--- ------- ---- -- --- -------- --- - ----- ------ ---- --<br>-------- --- -------- -------- --- -------- ---- -- ----- -<br>-------- ---- --- ---------- --------- -- testify ------ -<br>--------- ----- -----,265537.10000002384,265536.2000000477,265116.522,265120.5,265133.192,265550.045,,47,testify
screen,html.Screen,0_4_1_0_1_48,2021-11-12T14:10:04.763Z,,,,,,,,,,,,,,,,15,,,,,,,,,,,,,,394.1550000477,,response,,,7,A,,,,,Space,keypress(Space),,,,silence,---- --------- ---------- - --- ------- -- --- ------------<br>----- -- -------- ------- ---- ------ - -------- ---- -----<br>--- ------- ---- -- --- -------- --- - ----- ------ ---- --<br>-------- --- -------- -------- --- -------- ---- -- ----- -<br>-------- ---- --- ---------- --------- -- ------- before -<br>--------- ----- -----,265945.2000000477,265944.2000000477,265533.373,265537.3000000119,265550.045,265950.098,,48,before
screen,html.Screen,0_4_1_0_1_49,2021-11-12T14:10:05.147Z,,,,,,,,,,,,,,,,15,,,,,,,,,,,,,,378.1020000476856,,response,,,7,A,,,,,Space,keypress(Space),,,,silence,---- --------- ---------- - --- ------- -- --- ------------<br>----- -- -------- ------- ---- ------ - -------- ---- -----<br>--- ------- ---- -- --- -------- --- - ----- ------ ---- --<br>-------- --- -------- -------- --- -------- ---- -- ----- -<br>-------- ---- --- ---------- --------- -- ------- ------ a<br>--------- ----- -----,266329,266328.2000000477,265933.428,265945.5,265950.098,266333.471,,49,a
screen,html.Screen,0_4_1_0_1_50,2021-11-12T14:10:05.539Z,,,,,,,,,,,,,,,,15,,,,,,,,,,,,,,386.6290000238223,,response,,,7,A,,,,,Space,keypress(Space),,,,silence,---- --------- ---------- - --- ------- -- --- ------------<br>----- -- -------- ------- ---- ------ - -------- ---- -----<br>--- ------- ---- -- --- -------- --- - ----- ------ ---- --<br>-------- --- -------- -------- --- -------- ---- -- ----- -<br>-------- ---- --- ---------- --------- -- ------- ------ -<br>different ----- -----,266721,266720.10000002384,266316.802,266329.40000003576,266333.471,266733.735,,50,different
screen,html.Screen,0_4_1_0_1_51,2021-11-12T14:10:05.946Z,,,,,,,,,,,,,,,,15,,,,,,,,,,,,,,393.9650000476977,,response,,,7,A,,,,,Space,keypress(Space),,,,silence,---- --------- ---------- - --- ------- -- --- ------------<br>----- -- -------- ------- ---- ------ - -------- ---- -----<br>--- ------- ---- -- --- -------- --- - ----- ------ ---- --<br>-------- --- -------- -------- --- -------- ---- -- ----- -<br>-------- ---- --- ---------- --------- -- ------- ------ -<br>--------- grand -----,267128,267127.7000000477,266717.063,266721.3000000119,266733.735,267133.617,,51,grand
screen,html.Screen,0_4_1_0_1_52,2021-11-12T14:10:07.019Z,,,,,,,,,,,,,,,,15,,,,,,,,,,,,,,1066.4830000238144,,response,,,7,A,,,,,Space,keypress(Space),,,,silence,---- --------- ---------- - --- ------- -- --- ------------<br>----- -- -------- ------- ---- ------ - -------- ---- -----<br>--- ------- ---- -- --- -------- --- - ----- ------ ---- --<br>-------- --- -------- -------- --- -------- ---- -- ----- -<br>-------- ---- --- ---------- --------- -- ------- ------ -<br>--------- ----- jury.,268200.90000003576,268200.10000002384,267116.949,267128.10000002384,267133.617,268217.413,,52,jury.
Item 7,flow.Loop,0_4_1_0_1,2021-11-12T14:10:07.020Z,,,,,,,,,,,,,,,,,,,,,,,,,,,,,,44594.40800002383,,completion,,,,,,,,,,,,,,,,268201.5,268200.10000002384,223589.023,223591.30000001192,223605.692,268217.413,,,
