sender,sender_type,sender_id,timestamp,meta,,Blues,Classical,Country,Dance,Electronic,Folk,Gospel,Hip-Hop,Jazz,Latin,Musical/Film,New-age,Pop,Provo_ID,R&B,Rap,Reggae,Religious,Rock,Soul,Swing,Traditional,age,artist_name,correct,correctResponse,distraction,duration,education,ended_on,familiarity,gender,item,list,music_frequency,offensiveness,pleasantness,preference,response,response_action,snippet_file,song_name,song_rating,sound,text,time_commit,time_end,time_render,time_run,time_show,time_switch,url,word,word_ID
Instructions,html.Page,0_0,2021-12-03T10:02:58.985Z,"{""labjs_version"":""20.2.3"",""labjs_build"":{""flavor"":""production"",""commit"":""7ea907d66ca8aeef8054924ca5d82ffbe11e34e5""},""location"":""https://run.pavlovia.org/mvasilev/lab_music_e/"",""userAgent"":""Mozilla/5.0 (Windows NT 6.1; Win64; x64) AppleWebKit/537.36 (KHTML, like Gecko) Chrome/96.0.4664.45 Safari/537.36"",""platform"":""Win32"",""language"":""en-US"",""locale"":""en-US"",""timeZone"":""Europe/London"",""timezoneOffset"":0,""screen_width"":1920,""screen_height"":1080,""scroll_width"":1920,""scroll_height"":959,""window_innerWidth"":1920,""window_innerHeight"":1007,""devicePixelRatio"":1}",,,,,,,,,,,,,,,,,,,,,,,,,,,,,26537.178000008942,,form submission,,,,,,,,,,,,,,,,39045.79999999702,39044.60000000894,12474.082,12485.79999999702,12507.422,39041.522,{},,
Headphones,html.Page,0_1,2021-12-03T10:03:02.532Z,,,,,,,,,,,,,,,,,,,,,,,,,,,,,,3551.178000002983,,form submission,,,,,,,,,,,,,,,,42593.29999999702,42592.70000000298,39024.856,39046.5,39041.522,42598.819,,,
Holding screen,html.Screen,0_2_0_0,2021-12-03T10:03:12.531Z,,,,,,,,,,,,,,,,,,,,,,,,,,,,,,10002.509999999995,,timeout,,,,,,,,,,,,,,,,52591.79999999702,52584.66,42582.149,42594,42598.819,52601.329,,,
screen,html.Screen,0_2_0_1_0,2021-12-03T10:03:13.484Z,,,,,,,,,,,,,,,,53,,,,,,,,,,,,,,942.7710000089428,,response,,,99,,,,,,Space,keypress(Space),,,,,When -- ----- -- ------ - ------- --- ----------<br>------------- ------ ------ ---- ---- ------- ----- -- ----<br>-------- ------- -- ---------- --- - --- ----- ----- ----<br>---- --- --- ----- --- ---- ---- ------- ----- ---- -------<br>--- --- -- ----- -- --- ---- -- --- ---- -- ------ ------<br>--- ----- -- ----,53545.60000000894,53544.10000000894,52584.66,52592.20000000298,52601.329,53551.974,,0,When
screen,html.Screen,0_2_0_1_1,2021-12-03T10:03:13.939Z,,,,,,,,,,,,,,,,53,,,,,,,,,,,,,,447.72600000297825,,response,,,99,,,,,,Space,keypress(Space),,,,,---- it ----- -- ------ - ------- --- ----------<br>------------- ------ ------ ---- ---- ------- ----- -- ----<br>-------- ------- -- ---------- --- - --- ----- ----- ----<br>---- --- --- ----- --- ---- ---- ------- ----- ---- -------<br>--- --- -- ----- -- --- ---- -- --- ---- -- ------ ------<br>--- ----- -- ----,54000.60000000894,53999.70000000298,53535.302,53546,53551.974,54001.804,,1,it
screen,html.Screen,0_2_0_1_2,2021-12-03T10:03:14.259Z,,,,,,,,,,,,,,,,53,,,,,,,,,,,,,,317.8960000029838,,response,,,99,,,,,,Space,keypress(Space),,,,,---- -- comes -- ------ - ------- --- ----------<br>------------- ------ ------ ---- ---- ------- ----- -- ----<br>-------- ------- -- ---------- --- - --- ----- ----- ----<br>---- --- --- ----- --- ---- ---- ------- ----- ---- -------<br>--- --- -- ----- -- --- ---- -- --- ---- -- ------ ------<br>--- ----- -- ----,54320.70000000298,54319.70000000298,53985.135,54000.90000000596,54001.804,54335.45,,2,comes
screen,html.Screen,0_2_0_1_3,2021-12-03T10:03:14.603Z,,,,,,,,,,,,,,,,53,,,,,,,,,,,,,,328.1500000089436,,response,,,99,,,,,,Space,keypress(Space),,,,,---- -- ----- to ------ - ------- --- ----------<br>------------- ------ ------ ---- ---- ------- ----- -- ----<br>-------- ------- -- ---------- --- - --- ----- ----- ----<br>---- --- --- ----- --- ---- ---- ------- ----- ---- -------<br>--- --- -- ----- -- --- ---- -- --- ---- -- ------ ------<br>--- ----- -- ----,54664.60000000894,54663.60000000894,54318.778,54321,54335.45,54668.791,,3,to
screen,html.Screen,0_2_0_1_4,2021-12-03T10:03:14.908Z,,,,,,,,,,,,,,,,53,,,,,,,,,,,,,,298.9090000029828,,response,,,99,,,,,,Space,keypress(Space),,,,,---- -- ----- -- having - ------- --- ----------<br>------------- ------ ------ ---- ---- ------- ----- -- ----<br>-------- ------- -- ---------- --- - --- ----- ----- ----<br>---- --- --- ----- --- ---- ---- ------- ----- ---- -------<br>--- --- -- ----- -- --- ---- -- --- ---- -- ------ ------<br>--- ----- -- ----,54968.79999999702,54967.70000000298,54652.121,54665.10000000894,54668.791,54985.536,,4,having
screen,html.Screen,0_2_0_1_5,2021-12-03T10:03:15.171Z,,,,,,,,,,,,,,,,53,,,,,,,,,,,,,,246.06400000894064,,response,,,99,,,,,,Space,keypress(Space),,,,,---- -- ----- -- ------ a ------- --- ----------<br>------------- ------ ------ ---- ---- ------- ----- -- ----<br>-------- ------- -- ---------- --- - --- ----- ----- ----<br>---- --- --- ----- --- ---- ---- ------- ----- ---- -------<br>--- --- -- ----- -- --- ---- -- --- ---- -- ------ ------<br>--- ----- -- ----,55232.5,55231.60000000894,54968.866,54969.20000000298,54985.536,55235.633,,5,a
screen,html.Screen,0_2_0_1_6,2021-12-03T10:03:15.491Z,,,,,,,,,,,,,,,,53,,,,,,,,,,,,,,315.96700000893907,,response,,,99,,,,,,Space,keypress(Space),,,,,---- -- ----- -- ------ - lasting --- ----------<br>------------- ------ ------ ---- ---- ------- ----- -- ----<br>-------- ------- -- ---------- --- - --- ----- ----- ----<br>---- --- --- ----- --- ---- ---- ------- ----- ---- -------<br>--- --- -- ----- -- --- ---- -- --- ---- -- ------ ------<br>--- ----- -- ----,55552.5,55551.60000000894,55218.962,55233.10000000894,55235.633,55569.059,,6,lasting
screen,html.Screen,0_2_0_1_7,2021-12-03T10:03:15.819Z,,,,,,,,,,,,,,,,53,,,,,,,,,,,,,,310.4409999999989,,response,,,99,,,,,,Space,keypress(Space),,,,,---- -- ----- -- ------ - ------- and ----------<br>------------- ------ ------ ---- ---- ------- ----- -- ----<br>-------- ------- -- ---------- --- - --- ----- ----- ----<br>---- --- --- ----- --- ---- ---- ------- ----- ---- -------<br>--- --- -- ----- -- --- ---- -- --- ---- -- ------ ------<br>--- ----- -- ----,55880.5,55879.5,55552.388,55552.79999999702,55569.059,55885.705,,7,and
screen,html.Screen,0_2_0_1_8,2021-12-03T10:03:16.179Z,,,,,,,,,,,,,,,,53,,,,,,,,,,,,,,353.79499999999825,,response,,,99,,,,,,Space,keypress(Space),,,,,---- -- ----- -- ------ - ------- --- fulfilling<br>------------- ------ ------ ---- ---- ------- ----- -- ----<br>-------- ------- -- ---------- --- - --- ----- ----- ----<br>---- --- --- ----- --- ---- ---- ------- ----- ---- -------<br>--- --- -- ----- -- --- ---- -- --- ---- -- ------ ------<br>--- ----- -- ----,56240.70000000298,56239.5,55869.036,55880.79999999702,55885.705,56252.612,,8,fulfilling
screen,html.Screen,0_2_0_1_9,2021-12-03T10:03:16.579Z,,,,,,,,,,,,,,,,53,,,,,,,,,,,,,,386.9880000089397,,response,,,99,,,,,,Space,keypress(Space),,,,,"---- -- ----- -- ------ - ------- --- ----------<br>relationship, ------ ------ ---- ---- ------- ----- -- ----<br>-------- ------- -- ---------- --- - --- ----- ----- ----<br>---- --- --- ----- --- ---- ---- ------- ----- ---- -------<br>--- --- -- ----- -- --- ---- -- --- ---- -- ------ ------<br>--- ----- -- ----",56640.5,56639.60000000894,56235.94,56241,56252.612,56652.634,,9,"relationship,"
screen,html.Screen,0_2_0_1_10,2021-12-03T10:03:16.891Z,,,,,,,,,,,,,,,,53,,,,,,,,,,,,,,298.8660000000018,,response,,,99,,,,,,Space,keypress(Space),,,,,---- -- ----- -- ------ - ------- --- ----------<br>------------- common ------ ---- ---- ------- ----- -- ----<br>-------- ------- -- ---------- --- - --- ----- ----- ----<br>---- --- --- ----- --- ---- ---- ------- ----- ---- -------<br>--- --- -- ----- -- --- ---- -- --- ---- -- ------ ------<br>--- ----- -- ----,56952.5,56951.5,56635.964,56640.70000000298,56652.634,56969.378,,10,common
screen,html.Screen,0_2_0_1_11,2021-12-03T10:03:17.187Z,,,,,,,,,,,,,,,,53,,,,,,,,,,,,,,278.122000000003,,response,,,99,,,,,,Space,keypress(Space),,,,,---- -- ----- -- ------ - ------- --- ----------<br>------------- ------ wisdom ---- ---- ------- ----- -- ----<br>-------- ------- -- ---------- --- - --- ----- ----- ----<br>---- --- --- ----- --- ---- ---- ------- ----- ---- -------<br>--- --- -- ----- -- --- ---- -- --- ---- -- ------ ------<br>--- ----- -- ----,57248.5,57247.5,56952.708,56952.70000000298,56969.378,57252.793,,11,wisdom
screen,html.Screen,0_2_0_1_12,2021-12-03T10:03:17.547Z,,,,,,,,,,,,,,,,53,,,,,,,,,,,,,,354.70700000000215,,response,,,99,,,,,,Space,keypress(Space),,,,,---- -- ----- -- ------ - ------- --- ----------<br>------------- ------ ------ says ---- ------- ----- -- ----<br>-------- ------- -- ---------- --- - --- ----- ----- ----<br>---- --- --- ----- --- ---- ---- ------- ----- ---- -------<br>--- --- -- ----- -- --- ---- -- --- ---- -- ------ ------<br>--- ----- -- ----,57608.29999999702,57607.5,57236.123,57248.79999999702,57252.793,57619.55,,12,says
screen,html.Screen,0_2_0_1_13,2021-12-03T10:03:17.875Z,,,,,,,,,,,,,,,,53,,,,,,,,,,,,,,315.9499999999971,,response,,,99,,,,,,Space,keypress(Space),,,,,---- -- ----- -- ------ - ------- --- ----------<br>------------- ------ ------ ---- that ------- ----- -- ----<br>-------- ------- -- ---------- --- - --- ----- ----- ----<br>---- --- --- ----- --- ---- ---- ------- ----- ---- -------<br>--- --- -- ----- -- --- ---- -- --- ---- -- ------ ------<br>--- ----- -- ----,57936.40000000596,57935.5,57602.88,57608.60000000894,57619.55,57953.003,,13,that
screen,html.Screen,0_2_0_1_14,2021-12-03T10:03:18.235Z,,,,,,,,,,,,,,,,53,,,,,,,,,,,,,,342.497000000003,,response,,,99,,,,,,Space,keypress(Space),,,,,---- -- ----- -- ------ - ------- --- ----------<br>------------- ------ ------ ---- ---- feeling ----- -- ----<br>-------- ------- -- ---------- --- - --- ----- ----- ----<br>---- --- --- ----- --- ---- ---- ------- ----- ---- -------<br>--- --- -- ----- -- --- ---- -- --- ---- -- ------ ------<br>--- ----- -- ----,58296.29999999702,58295.5,57936.332,57936.60000000894,57953.003,58303.057,,14,feeling
screen,html.Screen,0_2_0_1_15,2021-12-03T10:03:18.571Z,,,,,,,,,,,,,,,,53,,,,,,,,,,,,,,328.34300000595977,,response,,,99,,,,,,Space,keypress(Space),,,,,---- -- ----- -- ------ - ------- --- ----------<br>------------- ------ ------ ---- ---- ------- close -- ----<br>-------- ------- -- ---------- --- - --- ----- ----- ----<br>---- --- --- ----- --- ---- ---- ------- ----- ---- -------<br>--- --- -- ----- -- --- ---- -- --- ---- -- ------ ------<br>--- ----- -- ----,58632.29999999702,58631.40000000596,58286.387,58296.5,58303.057,58636.513,,15,close
screen,html.Screen,0_2_0_1_16,2021-12-03T10:03:18.995Z,,,,,,,,,,,,,,,,53,,,,,,,,,,,,,,418.88700000596145,,response,,,99,,,,,,Space,keypress(Space),,,,,---- -- ----- -- ------ - ------- --- ----------<br>------------- ------ ------ ---- ---- ------- ----- to ----<br>-------- ------- -- ---------- --- - --- ----- ----- ----<br>---- --- --- ----- --- ---- ---- ------- ----- ---- -------<br>--- --- -- ----- -- --- ---- -- --- ---- -- ------ ------<br>--- ----- -- ----,59056.20000000298,59055.40000000596,58619.842,58632.5,58636.513,59069.927,,16,to
screen,html.Screen,0_2_0_1_17,2021-12-03T10:03:19.419Z,,,,,,,,,,,,,,,,53,,,,,,,,,,,,,,409.47300000595715,,response,,,99,,,,,,Space,keypress(Space),,,,,---- -- ----- -- ------ - ------- --- ----------<br>------------- ------ ------ ---- ---- ------- ----- -- your<br>-------- ------- -- ---------- --- - --- ----- ----- ----<br>---- --- --- ----- --- ---- ---- ------- ----- ---- -------<br>--- --- -- ----- -- --- ---- -- --- ---- -- ------ ------<br>--- ----- -- ----,59480.20000000298,59479.40000000596,59053.257,59056.40000000596,59069.927,59486.754,,17,your
screen,html.Screen,0_2_0_1_18,2021-12-03T10:03:19.739Z,,,,,,,,,,,,,,,,53,,,,,,,,,,,,,,312.64600000595965,,response,,,99,,,,,,Space,keypress(Space),,,,,---- -- ----- -- ------ - ------- --- ----------<br>------------- ------ ------ ---- ---- ------- ----- -- ----<br>romantic ------- -- ---------- --- - --- ----- ----- ----<br>---- --- --- ----- --- ---- ---- ------- ----- ---- -------<br>--- --- -- ----- -- --- ---- -- --- ---- -- ------ ------<br>--- ----- -- ----,59800.20000000298,59799.40000000596,59470.083,59480.5,59486.754,59803.444,,18,romantic
screen,html.Screen,0_2_0_1_19,2021-12-03T10:03:19.991Z,,,,,,,,,,,,,,,,53,,,,,,,,,,,,,,243.85599999701662,,response,,,99,,,,,,Space,keypress(Space),,,,,---- -- ----- -- ------ - ------- --- ----------<br>------------- ------ ------ ---- ---- ------- ----- -- ----<br>-------- partner -- ---------- --- - --- ----- ----- ----<br>---- --- --- ----- --- ---- ---- ------- ----- ---- -------<br>--- --- -- ----- -- --- ---- -- --- ---- -- ------ ------<br>--- ----- -- ----,60048.20000000298,60047.29999999702,59786.774,59800.5,59803.444,60053.501,,19,partner
screen,html.Screen,0_2_0_1_20,2021-12-03T10:03:20.255Z,,,,,,,,,,,,,,,,53,,,,,,,,,,,,,,257.7989999970232,,response,,,99,,,,,,Space,keypress(Space),,,,,---- -- ----- -- ------ - ------- --- ----------<br>------------- ------ ------ ---- ---- ------- ----- -- ----<br>-------- ------- is ---------- --- - --- ----- ----- ----<br>---- --- --- ----- --- ---- ---- ------- ----- ---- -------<br>--- --- -- ----- -- --- ---- -- --- ---- -- ------ ------<br>--- ----- -- ----,60312.29999999702,60311.29999999702,60036.831,60048.5,60053.501,60320.315,,20,is
screen,html.Screen,0_2_0_1_21,2021-12-03T10:03:20.535Z,,,,,,,,,,,,,,,,53,,,,,,,,,,,,,,270.98499999701744,,response,,,99,,,,,,Space,keypress(Space),,,,,---- -- ----- -- ------ - ------- --- ----------<br>------------- ------ ------ ---- ---- ------- ----- -- ----<br>-------- ------- -- paramount. --- - --- ----- ----- ----<br>---- --- --- ----- --- ---- ---- ------- ----- ---- -------<br>--- --- -- ----- -- --- ---- -- --- ---- -- ------ ------<br>--- ----- -- ----,60592.20000000298,60591.29999999702,60303.643,60312.5,60320.315,60603.695,,21,paramount.
screen,html.Screen,0_2_0_1_22,2021-12-03T10:03:20.863Z,,,,,,,,,,,,,,,,53,,,,,,,,,,,,,,315.70500000596076,,response,,,99,,,,,,Space,keypress(Space),,,,,---- -- ----- -- ------ - ------- --- ----------<br>------------- ------ ------ ---- ---- ------- ----- -- ----<br>-------- ------- -- ---------- But - --- ----- ----- ----<br>---- --- --- ----- --- ---- ---- ------- ----- ---- -------<br>--- --- -- ----- -- --- ---- -- --- ---- -- ------ ------<br>--- ----- -- ----,60920.10000000894,60919.40000000596,60587.024,60592.60000000894,60603.695,60937.045,,22,But
screen,html.Screen,0_2_0_1_23,2021-12-03T10:03:21.191Z,,,,,,,,,,,,,,,,53,,,,,,,,,,,,,,310.2549999970215,,response,,,99,,,,,,Space,keypress(Space),,,,,---- -- ----- -- ------ - ------- --- ----------<br>------------- ------ ------ ---- ---- ------- ----- -- ----<br>-------- ------- -- ---------- --- a --- ----- ----- ----<br>---- --- --- ----- --- ---- ---- ------- ----- ---- -------<br>--- --- -- ----- -- --- ---- -- --- ---- -- ------ ------<br>--- ----- -- ----,61248.10000000894,61247.29999999702,60920.376,60920.40000000596,60937.045,61253.83,,23,a
screen,html.Screen,0_2_0_1_24,2021-12-03T10:03:21.431Z,,,,,,,,,,,,,,,,53,,,,,,,,,,,,,,233.46999999701802,,response,,,99,,,,,,Space,keypress(Space),,,,,---- -- ----- -- ------ - ------- --- ----------<br>------------- ------ ------ ---- ---- ------- ----- -- ----<br>-------- ------- -- ---------- --- - new ----- ----- ----<br>---- --- --- ----- --- ---- ---- ------- ----- ---- -------<br>--- --- -- ----- -- --- ---- -- --- ---- -- ------ ------<br>--- ----- -- ----,61488.10000000894,61487.29999999702,61237.16,61248.29999999702,61253.83,61503.899,,24,new
screen,html.Screen,0_2_0_1_25,2021-12-03T10:03:21.711Z,,,,,,,,,,,,,,,,53,,,,,,,,,,,,,,263.40099999702215,,response,,,99,,,,,,Space,keypress(Space),,,,,---- -- ----- -- ------ - ------- --- ----------<br>------------- ------ ------ ---- ---- ------- ----- -- ----<br>-------- ------- -- ---------- --- - --- study ----- ----<br>---- --- --- ----- --- ---- ---- ------- ----- ---- -------<br>--- --- -- ----- -- --- ---- -- --- ---- -- ------ ------<br>--- ----- -- ----,61768.10000000894,61767.29999999702,61487.229,61488.40000000596,61503.899,61770.632,,25,study
screen,html.Screen,0_2_0_1_26,2021-12-03T10:03:21.975Z,,,,,,,,,,,,,,,,53,,,,,,,,,,,,,,260.56800000298244,,response,,,99,,,,,,Space,keypress(Space),,,,,---- -- ----- -- ------ - ------- --- ----------<br>------------- ------ ------ ---- ---- ------- ----- -- ----<br>-------- ------- -- ---------- --- - --- ----- finds ----<br>---- --- --- ----- --- ---- ---- ------- ----- ---- -------<br>--- --- -- ----- -- --- ---- -- --- ---- -- ------ ------<br>--- ----- -- ----,62032.20000000298,62031.20000000298,61753.962,61768.29999999702,61770.632,62037.367,,26,finds
screen,html.Screen,0_2_0_1_27,2021-12-03T10:03:22.271Z,,,,,,,,,,,,,,,,53,,,,,,,,,,,,,,289.83300000298186,,response,,,99,,,,,,Space,keypress(Space),,,,,---- -- ----- -- ------ - ------- --- ----------<br>------------- ------ ------ ---- ---- ------- ----- -- ----<br>-------- ------- -- ---------- --- - --- ----- ----- that<br>---- --- --- ----- --- ---- ---- ------- ----- ---- -------<br>--- --- -- ----- -- --- ---- -- --- ---- -- ------ ------<br>--- ----- -- ----,62328,62327.20000000298,62020.697,62032.40000000596,62037.367,62337.343,,27,that
screen,html.Screen,0_2_0_1_28,2021-12-03T10:03:22.567Z,,,,,,,,,,,,,,,,53,,,,,,,,,,,,,,285.956999997019,,response,,,99,,,,,,Space,keypress(Space),,,,,---- -- ----- -- ------ - ------- --- ----------<br>------------- ------ ------ ---- ---- ------- ----- -- ----<br>-------- ------- -- ---------- --- - --- ----- ----- ----<br>it's --- --- ----- --- ---- ---- ------- ----- ---- -------<br>--- --- -- ----- -- --- ---- -- --- ---- -- ------ ------<br>--- ----- -- ----,62624,62623.29999999702,62320.675,62328.29999999702,62337.343,62637.569,,28,it's
screen,html.Screen,0_2_0_1_29,2021-12-03T10:03:22.839Z,,,,,,,,,,,,,,,,53,,,,,,,,,,,,,,257.7309999970166,,response,,,99,,,,,,Space,keypress(Space),,,,,---- -- ----- -- ------ - ------- --- ----------<br>------------- ------ ------ ---- ---- ------- ----- -- ----<br>-------- ------- -- ---------- --- - --- ----- ----- ----<br>---- not --- ----- --- ---- ---- ------- ----- ---- -------<br>--- --- -- ----- -- --- ---- -- --- ---- -- ------ ------<br>--- ----- -- ----,62896,62895.29999999702,62620.897,62624.40000000596,62637.569,62904.245,,29,not
screen,html.Screen,0_2_0_1_30,2021-12-03T10:03:23.111Z,,,,,,,,,,,,,,,,53,,,,,,,,,,,,,,262.9550000029776,,response,,,99,,,,,,Space,keypress(Space),,,,,---- -- ----- -- ------ - ------- --- ----------<br>------------- ------ ------ ---- ---- ------- ----- -- ----<br>-------- ------- -- ---------- --- - --- ----- ----- ----<br>---- --- how ----- --- ---- ---- ------- ----- ---- -------<br>--- --- -- ----- -- --- ---- -- --- ---- -- ------ ------<br>--- ----- -- ----,63168,63167.20000000298,62887.575,62896.29999999702,62904.245,63171.007,,30,how
screen,html.Screen,0_2_0_1_31,2021-12-03T10:03:23.430Z,,,,,,,,,,,,,,,,53,,,,,,,,,,,,,,316.19300000298244,,response,,,99,,,,,,Space,keypress(Space),,,,,---- -- ----- -- ------ - ------- --- ----------<br>------------- ------ ------ ---- ---- ------- ----- -- ----<br>-------- ------- -- ---------- --- - --- ----- ----- ----<br>---- --- --- close --- ---- ---- ------- ----- ---- -------<br>--- --- -- ----- -- --- ---- -- --- ---- -- ------ ------<br>--- ----- -- ----,63488,63487.20000000298,63154.336,63168.29999999702,63171.007,63504.404,,31,close
screen,html.Screen,0_2_0_1_32,2021-12-03T10:03:23.671Z,,,,,,,,,,,,,,,,53,,,,,,,,,,,,,,223.19600000893843,,response,,,99,,,,,,Space,keypress(Space),,,,,---- -- ----- -- ------ - ------- --- ----------<br>------------- ------ ------ ---- ---- ------- ----- -- ----<br>-------- ------- -- ---------- --- - --- ----- ----- ----<br>---- --- --- ----- you ---- ---- ------- ----- ---- -------<br>--- --- -- ----- -- --- ---- -- --- ---- -- ------ ------<br>--- ----- -- ----,63728.40000000596,63727.60000000894,63487.734,63488.29999999702,63504.404,63737.802,,32,you
screen,html.Screen,0_2_0_1_33,2021-12-03T10:03:23.918Z,,,,,,,,,,,,,,,,53,,,,,,,,,,,,,,237.39800000297691,,response,,,99,,,,,,Space,keypress(Space),,,,,---- -- ----- -- ------ - ------- --- ----------<br>------------- ------ ------ ---- ---- ------- ----- -- ----<br>-------- ------- -- ---------- --- - --- ----- ----- ----<br>---- --- --- ----- --- feel ---- ------- ----- ---- -------<br>--- --- -- ----- -- --- ---- -- --- ---- -- ------ ------<br>--- ----- -- ----,63976,63975.20000000298,63721.132,63728.60000000894,63737.802,63987.857,,33,feel
screen,html.Screen,0_2_0_1_34,2021-12-03T10:03:24.158Z,,,,,,,,,,,,,,,,53,,,,,,,,,,,,,,227.2430000089371,,response,,,99,,,,,,Space,keypress(Space),,,,,---- -- ----- -- ------ - ------- --- ----------<br>------------- ------ ------ ---- ---- ------- ----- -- ----<br>-------- ------- -- ---------- --- - --- ----- ----- ----<br>---- --- --- ----- --- ---- that ------- ----- ---- -------<br>--- --- -- ----- -- --- ---- -- --- ---- -- ------ ------<br>--- ----- -- ----,64215.90000000596,64215.10000000894,63971.187,63976.29999999702,63987.857,64221.152,,34,that
screen,html.Screen,0_2_0_1_35,2021-12-03T10:03:24.382Z,,,,,,,,,,,,,,,,53,,,,,,,,,,,,,,217.94800000893883,,response,,,99,,,,,,Space,keypress(Space),,,,,---- -- ----- -- ------ - ------- --- ----------<br>------------- ------ ------ ---- ---- ------- ----- -- ----<br>-------- ------- -- ---------- --- - --- ----- ----- ----<br>---- --- --- ----- --- ---- ---- matters ----- ---- -------<br>--- --- -- ----- -- --- ---- -- --- ---- -- ------ ------<br>--- ----- -- ----,64439.79999999702,64439.10000000894,64204.484,64216.29999999702,64221.152,64454.721,,35,matters
screen,html.Screen,0_2_0_1_36,2021-12-03T10:03:24.743Z,,,,,,,,,,,,,,,,53,,,,,,,,,,,,,,344.37900000894297,,response,,,99,,,,,,Space,keypress(Space),,,,,"---- -- ----- -- ------ - ------- --- ----------<br>------------- ------ ------ ---- ---- ------- ----- -- ----<br>-------- ------- -- ---------- --- - --- ----- ----- ----<br>---- --- --- ----- --- ---- ---- ------- most, ---- -------<br>--- --- -- ----- -- --- ---- -- --- ---- -- ------ ------<br>--- ----- -- ----",64800.20000000298,64799.10000000894,64438.048,64440.10000000894,64454.721,64804.773,,36,"most,"
screen,html.Screen,0_2_0_1_37,2021-12-03T10:03:25.031Z,,,,,,,,,,,,,,,,53,,,,,,,,,,,,,,282.32700000893965,,response,,,99,,,,,,Space,keypress(Space),,,,,---- -- ----- -- ------ - ------- --- ----------<br>------------- ------ ------ ---- ---- ------- ----- -- ----<br>-------- ------- -- ---------- --- - --- ----- ----- ----<br>---- --- --- ----- --- ---- ---- ------- ----- it's -------<br>--- --- -- ----- -- --- ---- -- --- ---- -- ------ ------<br>--- ----- -- ----,65088.10000000894,65087.10000000894,64788.102,64800.5,64804.773,65104.768,,37,it's
screen,html.Screen,0_2_0_1_38,2021-12-03T10:03:25.286Z,,,,,,,,,,,,,,,,53,,,,,,,,,,,,,,238.3320000089443,,response,,,99,,,,,,Space,keypress(Space),,,,,---- -- ----- -- ------ - ------- --- ----------<br>------------- ------ ------ ---- ---- ------- ----- -- ----<br>-------- ------- -- ---------- --- - --- ----- ----- ----<br>---- --- --- ----- --- ---- ---- ------- ----- ---- whether<br>--- --- -- ----- -- --- ---- -- --- ---- -- ------ ------<br>--- ----- -- ----,65343.90000000596,65343.10000000894,65088.099,65088.29999999702,65104.768,65354.852,,38,whether
screen,html.Screen,0_2_0_1_39,2021-12-03T10:03:25.606Z,,,,,,,,,,,,,,,,53,,,,,,,,,,,,,,308.24800000894174,,response,,,99,,,,,,Space,keypress(Space),,,,,---- -- ----- -- ------ - ------- --- ----------<br>------------- ------ ------ ---- ---- ------- ----- -- ----<br>-------- ------- -- ---------- --- - --- ----- ----- ----<br>---- --- --- ----- --- ---- ---- ------- ----- ---- -------<br>you --- -- ----- -- --- ---- -- --- ---- -- ------ ------<br>--- ----- -- ----,65663.90000000596,65663.10000000894,65338.182,65344.20000000298,65354.852,65671.7,,39,you
screen,html.Screen,0_2_0_1_40,2021-12-03T10:03:25.902Z,,,,,,,,,,,,,,,,53,,,,,,,,,,,,,,287.4000000089436,,response,,,99,,,,,,Space,keypress(Space),,,,,---- -- ----- -- ------ - ------- --- ----------<br>------------- ------ ------ ---- ---- ------- ----- -- ----<br>-------- ------- -- ---------- --- - --- ----- ----- ----<br>---- --- --- ----- --- ---- ---- ------- ----- ---- -------<br>--- are -- ----- -- --- ---- -- --- ---- -- ------ ------<br>--- ----- -- ----,65959.79999999702,65959.10000000894,65655.028,65664.10000000894,65671.7,65971.695,,40,are
screen,html.Screen,0_2_0_1_41,2021-12-03T10:03:26.094Z,,,,,,,,,,,,,,,,53,,,,,,,,,,,,,,179.30499999999302,,response,,,99,,,,,,Space,keypress(Space),,,,,---- -- ----- -- ------ - ------- --- ----------<br>------------- ------ ------ ---- ---- ------- ----- -- ----<br>-------- ------- -- ---------- --- - --- ----- ----- ----<br>---- --- --- ----- --- ---- ---- ------- ----- ---- -------<br>--- --- as ----- -- --- ---- -- --- ---- -- ------ ------<br>--- ----- -- ----,66151.79999999702,66151,65955.025,65960.10000000894,65971.695,66154.984,,41,as
screen,html.Screen,0_2_0_1_42,2021-12-03T10:03:26.318Z,,,,,,,,,,,,,,,,53,,,,,,,,,,,,,,220.01600000000326,,response,,,99,,,,,,Space,keypress(Space),,,,,---- -- ----- -- ------ - ------- --- ----------<br>------------- ------ ------ ---- ---- ------- ----- -- ----<br>-------- ------- -- ---------- --- - --- ----- ----- ----<br>---- --- --- ----- --- ---- ---- ------- ----- ---- -------<br>--- --- -- close -- --- ---- -- --- ---- -- ------ ------<br>--- ----- -- ----,66375.79999999702,66375,66138.316,66152.10000000894,66154.984,66388.434,,42,close
screen,html.Screen,0_2_0_1_43,2021-12-03T10:03:26.518Z,,,,,,,,,,,,,,,,53,,,,,,,,,,,,,,186.56600000000617,,response,,,99,,,,,,Space,keypress(Space),,,,,---- -- ----- -- ------ - ------- --- ----------<br>------------- ------ ------ ---- ---- ------- ----- -- ----<br>-------- ------- -- ---------- --- - --- ----- ----- ----<br>---- --- --- ----- --- ---- ---- ------- ----- ---- -------<br>--- --- -- ----- as --- ---- -- --- ---- -- ------ ------<br>--- ----- -- ----,66575.79999999702,66575,66371.764,66376,66388.434,66588.655,,43,as
screen,html.Screen,0_2_0_1_44,2021-12-03T10:03:26.742Z,,,,,,,,,,,,,,,,53,,,,,,,,,,,,,,210.34500000000116,,response,,,99,,,,,,Space,keypress(Space),,,,,---- -- ----- -- ------ - ------- --- ----------<br>------------- ------ ------ ---- ---- ------- ----- -- ----<br>-------- ------- -- ---------- --- - --- ----- ----- ----<br>---- --- --- ----- --- ---- ---- ------- ----- ---- -------<br>--- --- -- ----- -- you ---- -- --- ---- -- ------ ------<br>--- ----- -- ----,66799.90000000596,66799,66571.98,66576,66588.655,66805.256,,44,you
screen,html.Screen,0_2_0_1_45,2021-12-03T10:03:26.990Z,,,,,,,,,,,,,,,,53,,,,,,,,,,,,,,241.74400000000605,,response,,,99,,,,,,Space,keypress(Space),,,,,---- -- ----- -- ------ - ------- --- ----------<br>------------- ------ ------ ---- ---- ------- ----- -- ----<br>-------- ------- -- ---------- --- - --- ----- ----- ----<br>---- --- --- ----- --- ---- ---- ------- ----- ---- -------<br>--- --- -- ----- -- --- want -- --- ---- -- ------ ------<br>--- ----- -- ----,67047.70000000298,67047,66788.586,66800.10000000894,66805.256,67055.322,,45,want
screen,html.Screen,0_2_0_1_46,2021-12-03T10:03:27.222Z,,,,,,,,,,,,,,,,53,,,,,,,,,,,,,,223.57800000596035,,response,,,99,,,,,,Space,keypress(Space),,,,,---- -- ----- -- ------ - ------- --- ----------<br>------------- ------ ------ ---- ---- ------- ----- -- ----<br>-------- ------- -- ---------- --- - --- ----- ----- ----<br>---- --- --- ----- --- ---- ---- ------- ----- ---- -------<br>--- --- -- ----- -- --- ---- to --- ---- -- ------ ------<br>--- ----- -- ----,67279.79999999702,67278.90000000596,67038.652,67048,67055.322,67288.702,,46,to
screen,html.Screen,0_2_0_1_47,2021-12-03T10:03:27.454Z,,,,,,,,,,,,,,,,53,,,,,,,,,,,,,,222.29799999999523,,response,,,99,,,,,,Space,keypress(Space),,,,,"---- -- ----- -- ------ - ------- --- ----------<br>------------- ------ ------ ---- ---- ------- ----- -- ----<br>-------- ------- -- ---------- --- - --- ----- ----- ----<br>---- --- --- ----- --- ---- ---- ------- ----- ---- -------<br>--- --- -- ----- -- --- ---- -- be, ---- -- ------ ------<br>--- ----- -- ----",67511.70000000298,67511,67272.032,67280,67288.702,67522.127,,47,"be,"
screen,html.Screen,0_2_0_1_48,2021-12-03T10:03:27.702Z,,,,,,,,,,,,,,,,53,,,,,,,,,,,,,,236.77300000596733,,response,,,99,,,,,,Space,keypress(Space),,,,,---- -- ----- -- ------ - ------- --- ----------<br>------------- ------ ------ ---- ---- ------- ----- -- ----<br>-------- ------- -- ---------- --- - --- ----- ----- ----<br>---- --- --- ----- --- ---- ---- ------- ----- ---- -------<br>--- --- -- ----- -- --- ---- -- --- even -- ------ ------<br>--- ----- -- ----,67759.70000000298,67758.90000000596,67505.456,67512,67522.127,67772.13,,48,even
screen,html.Screen,0_2_0_1_49,2021-12-03T10:03:27.950Z,,,,,,,,,,,,,,,,53,,,,,,,,,,,,,,234.86999999999534,,response,,,99,,,,,,Space,keypress(Space),,,,,---- -- ----- -- ------ - ------- --- ----------<br>------------- ------ ------ ---- ---- ------- ----- -- ----<br>-------- ------- -- ---------- --- - --- ----- ----- ----<br>---- --- --- ----- --- ---- ---- ------- ----- ---- -------<br>--- --- -- ----- -- --- ---- -- --- ---- if ------ ------<br>--- ----- -- ----,68007.70000000298,68007,67755.461,67759.90000000596,67772.13,68022.295,,49,if
screen,html.Screen,0_2_0_1_50,2021-12-03T10:03:28.190Z,,,,,,,,,,,,,,,,53,,,,,,,,,,,,,,224.70500000000175,,response,,,99,,,,,,Space,keypress(Space),,,,,---- -- ----- -- ------ - ------- --- ----------<br>------------- ------ ------ ---- ---- ------- ----- -- ----<br>-------- ------- -- ---------- --- - --- ----- ----- ----<br>---- --- --- ----- --- ---- ---- ------- ----- ---- -------<br>--- --- -- ----- -- --- ---- -- --- ---- -- that's ------<br>--- ----- -- ----,68247.70000000298,68247,68005.623,68008,68022.295,68255.669,,50,that's
screen,html.Screen,0_2_0_1_51,2021-12-03T10:03:28.406Z,,,,,,,,,,,,,,,,53,,,,,,,,,,,,,,207.23100000596605,,response,,,99,,,,,,Space,keypress(Space),,,,,---- -- ----- -- ------ - ------- --- ----------<br>------------- ------ ------ ---- ---- ------- ----- -- ----<br>-------- ------- -- ---------- --- - --- ----- ----- ----<br>---- --- --- ----- --- ---- ---- ------- ----- ---- -------<br>--- --- -- ----- -- --- ---- -- --- ---- -- ------ really<br>--- ----- -- ----,68463.70000000298,68462.90000000596,68238.998,68248,68255.669,68472.307,,51,really
screen,html.Screen,0_2_0_1_52,2021-12-03T10:03:28.678Z,,,,,,,,,,,,,,,,53,,,,,,,,,,,,,,262.59300000595977,,response,,,99,,,,,,Space,keypress(Space),,,,,---- -- ----- -- ------ - ------- --- ----------<br>------------- ------ ------ ---- ---- ------- ----- -- ----<br>-------- ------- -- ---------- --- - --- ----- ----- ----<br>---- --- --- ----- --- ---- ---- ------- ----- ---- -------<br>--- --- -- ----- -- --- ---- -- --- ---- -- ------ ------<br>not ----- -- ----,68735.70000000298,68734.90000000596,68455.638,68464,68472.307,68738.981,,52,not
screen,html.Screen,0_2_0_1_53,2021-12-03T10:03:28.926Z,,,,,,,,,,,,,,,,53,,,,,,,,,,,,,,243.9190000059607,,response,,,99,,,,,,Space,keypress(Space),,,,,---- -- ----- -- ------ - ------- --- ----------<br>------------- ------ ------ ---- ---- ------- ----- -- ----<br>-------- ------- -- ---------- --- - --- ----- ----- ----<br>---- --- --- ----- --- ---- ---- ------- ----- ---- -------<br>--- --- -- ----- -- --- ---- -- --- ---- -- ------ ------<br>--- close -- ----,68983.70000000298,68982.90000000596,68722.313,68736,68738.981,68989.241,,53,close
screen,html.Screen,0_2_0_1_54,2021-12-03T10:03:29.126Z,,,,,,,,,,,,,,,,53,,,,,,,,,,,,,,193.65900000596594,,response,,,99,,,,,,Space,keypress(Space),,,,,---- -- ----- -- ------ - ------- --- ----------<br>------------- ------ ------ ---- ---- ------- ----- -- ----<br>-------- ------- -- ---------- --- - --- ----- ----- ----<br>---- --- --- ----- --- ---- ---- ------- ----- ---- -------<br>--- --- -- ----- -- --- ---- -- --- ---- -- ------ ------<br>--- ----- at ----,69183.60000000894,69182.90000000596,68972.567,68984,68989.241,69189.216,,54,at
screen,html.Screen,0_2_0_1_55,2021-12-03T10:03:29.430Z,,,,,,,,,,,,,,,,53,,,,,,,,,,,,,,297.6840000059601,,response,,,99,,,,,,Space,keypress(Space),,,,,---- -- ----- -- ------ - ------- --- ----------<br>------------- ------ ------ ---- ---- ------- ----- -- ----<br>-------- ------- -- ---------- --- - --- ----- ----- ----<br>---- --- --- ----- --- ---- ---- ------- ----- ---- -------<br>--- --- -- ----- -- --- ---- -- --- ---- -- ------ ------<br>--- ----- -- all.,69487.60000000894,69486.90000000596,69172.546,69183.90000000596,69189.216,69505.941,,55,all.
Item 99,flow.Loop,0_2_0_1,2021-12-03T10:03:29.435Z,,,,,,,,,,,,,,,,,,,,,,,,,,,,,,16885.571000005963,,completion,,,,E,,,,,,,,,,silence,,69492.29999999702,69486.90000000596,52584.66,52592.10000000894,52601.329,69505.941,,,
Question 1,html.Screen,0_2_0_2,2021-12-03T10:03:33.023Z,,,,,,,,,,,,,,,,,,,,,,,,,,,false,FALSE,,3573.259000002974,,response,,,99,E,,,,,TRUE,click #choice-1,,,,silence,,73080.60000000894,73079.20000000298,69489.271,69492.5,69505.941,73090.263,,,
Question 2,html.Screen,0_2_0_3,2021-12-03T10:03:39.274Z,,,,,,,,,,,,,,,,,,,,,,,,,,,true,TRUE,,6240.337000008934,,response,,,99,E,,,,,TRUE,click #choice-1,,,,silence,,79331.90000000596,79330.60000000894,73073.591,73081,73090.263,79342.028,,,
Item 99,flow.Sequence,0_2_0,2021-12-03T10:03:39.275Z,,,,,,,,,,,,,,,,,,,,,,,,,,,,,,36731.78100000894,,completion,,,,,,,,,,,,,,,,79332.40000000596,79330.60000000894,42582.149,42593.90000000596,42598.819,79342.028,,,
Holding screen,html.Screen,0_2_1_0,2021-12-03T10:03:49.271Z,,,,,,,,,,,,,,,,,,,,,,,,,,,,,,10002.205999999991,,timeout,,,,,,,,,,,,,,,,89328.79999999702,89327.564,79325.35,79332.70000000298,79342.028,89344.234,,,
screen,html.Screen,0_2_1_1_0,2021-12-03T10:03:49.390Z,,,,,,,,,,,,,,,,54,,,,,,,,,,,,,,101.96600000298349,,response,,,100,,,,,,Space,keypress(Space),,,,,At --- ---- --- ------ ----- ------- ---- -- --- ------- --<br>------- ---------- ------ -- ----- -- ----- -- ---- ------<br>--- ----- --- --- ------ -------- ----- --- ------ ----- --<br>----- ----- ---------- --- --- ------ ------ ---- -- ------<br>------- --- ------ ----- --- ---- ------- -- ---- --- --<br>------- ------,89447.10000000894,89446.20000000298,89327.564,89329.29999999702,89344.234,89461.15,,0,At
screen,html.Screen,0_2_1_1_1,2021-12-03T10:03:50.445Z,,,,,,,,,,,,,,,,54,,,,,,,,,,,,,,1040.550000002986,,response,,,100,,,,,,Space,keypress(Space),,,,,-- the ---- --- ------ ----- ------- ---- -- --- ------- --<br>------- ---------- ------ -- ----- -- ----- -- ---- ------<br>--- ----- --- --- ------ -------- ----- --- ------ ----- --<br>----- ----- ---------- --- --- ------ ------ ---- -- ------<br>------- --- ------ ----- --- ---- ------- -- ---- --- --<br>------- ------,90502.5,90501.70000000298,89444.479,89447.5,89461.15,90511.313,,1,the
screen,html.Screen,0_2_1_1_2,2021-12-03T10:03:50.829Z,,,,,,,,,,,,,,,,54,,,,,,,,,,,,,,374.28700000894605,,response,,,100,,,,,,Space,keypress(Space),,,,,-- --- time --- ------ ----- ------- ---- -- --- ------- --<br>------- ---------- ------ -- ----- -- ----- -- ---- ------<br>--- ----- --- --- ------ -------- ----- --- ------ ----- --<br>----- ----- ---------- --- --- ------ ------ ---- -- ------<br>------- --- ------ ----- --- ---- ------- -- ---- --- --<br>------- ------,90886.40000000596,90885.60000000894,90494.643,90502.79999999702,90511.313,90894.724,,2,time
screen,html.Screen,0_2_1_1_3,2021-12-03T10:03:51.525Z,,,,,,,,,,,,,,,,54,,,,,,,,,,,,,,686.8760000089387,,response,,,100,,,,,,Space,keypress(Space),,,,,-- --- ---- the ------ ----- ------- ---- -- --- ------- --<br>------- ---------- ------ -- ----- -- ----- -- ---- ------<br>--- ----- --- --- ------ -------- ----- --- ------ ----- --<br>----- ----- ---------- --- --- ------ ------ ---- -- ------<br>------- --- ------ ----- --- ---- ------- -- ---- --- --<br>------- ------,91582.40000000596,91581.60000000894,90878.054,90886.79999999702,90894.724,91594.93,,3,the
screen,html.Screen,0_2_1_1_4,2021-12-03T10:03:51.917Z,,,,,,,,,,,,,,,,54,,,,,,,,,,,,,,378.6700000089477,,response,,,100,,,,,,Space,keypress(Space),,,,,-- --- ---- --- French ----- ------- ---- -- --- ------- --<br>------- ---------- ------ -- ----- -- ----- -- ---- ------<br>--- ----- --- --- ------ -------- ----- --- ------ ----- --<br>----- ----- ---------- --- --- ------ ------ ---- -- ------<br>------- --- ------ ----- --- ---- ------- -- ---- --- --<br>------- ------,91974.40000000596,91973.60000000894,91578.26,91582.70000000298,91594.93,91978.26,,4,French
screen,html.Screen,0_2_1_1_5,2021-12-03T10:03:52.573Z,,,,,,,,,,,,,,,,54,,,,,,,,,,,,,,651.2400000000052,,response,,,100,,,,,,Space,keypress(Space),,,,,-- --- ---- --- ------ crown ------- ---- -- --- ------- --<br>------- ---------- ------ -- ----- -- ----- -- ---- ------<br>--- ----- --- --- ------ -------- ----- --- ------ ----- --<br>----- ----- ---------- --- --- ------ ------ ---- -- ------<br>------- --- ------ ----- --- ---- ------- -- ---- --- --<br>------- ------,92630.29999999702,92629.5,91961.591,91974.60000000894,91978.26,92645.274,,5,crown
screen,html.Screen,0_2_1_1_6,2021-12-03T10:03:53.109Z,,,,,,,,,,,,,,,,54,,,,,,,,,,,,,,520.3260000089358,,response,,,100,,,,,,Space,keypress(Space),,,,,-- --- ---- --- ------ ----- secured ---- -- --- ------- --<br>------- ---------- ------ -- ----- -- ----- -- ---- ------<br>--- ----- --- --- ------ -------- ----- --- ------ ----- --<br>----- ----- ---------- --- --- ------ ------ ---- -- ------<br>------- --- ------ ----- --- ---- ------- -- ---- --- --<br>------- ------,93166.40000000596,93165.60000000894,92628.603,92630.60000000894,92645.274,93178.744,,6,secured
screen,html.Screen,0_2_1_1_7,2021-12-03T10:03:53.525Z,,,,,,,,,,,,,,,,54,,,,,,,,,,,,,,402.75599999999395,,response,,,100,,,,,,Space,keypress(Space),,,,,-- --- ---- --- ------ ----- ------- much -- --- ------- --<br>------- ---------- ------ -- ----- -- ----- -- ---- ------<br>--- ----- --- --- ------ -------- ----- --- ------ ----- --<br>----- ----- ---------- --- --- ------ ------ ---- -- ------<br>------- --- ------ ----- --- ---- ------- -- ---- --- --<br>------- ------,93582.29999999702,93581.5,93162.073,93166.60000000894,93178.744,93595.484,,7,much
screen,html.Screen,0_2_1_1_8,2021-12-03T10:03:53.853Z,,,,,,,,,,,,,,,,54,,,,,,,,,,,,,,314.11600000894396,,response,,,100,,,,,,Space,keypress(Space),,,,,-- --- ---- --- ------ ----- ------- ---- of --- ------- --<br>------- ---------- ------ -- ----- -- ----- -- ---- ------<br>--- ----- --- --- ------ -------- ----- --- ------ ----- --<br>----- ----- ---------- --- --- ------ ------ ---- -- ------<br>------- --- ------ ----- --- ---- ------- -- ---- --- --<br>------- ------,93910.29999999702,93909.60000000894,93578.814,93582.60000000894,93595.484,93912.22,,8,of
screen,html.Screen,0_2_1_1_9,2021-12-03T10:03:54.133Z,,,,,,,,,,,,,,,,54,,,,,,,,,,,,,,277.27999999999884,,response,,,100,,,,,,Space,keypress(Space),,,,,-- --- ---- --- ------ ----- ------- ---- -- its ------- --<br>------- ---------- ------ -- ----- -- ----- -- ---- ------<br>--- ----- --- --- ------ -------- ----- --- ------ ----- --<br>----- ----- ---------- --- --- ------ ------ ---- -- ------<br>------- --- ------ ----- --- ---- ------- -- ---- --- --<br>------- ------,94190.29999999702,94189.5,93895.55,93910.60000000894,93912.22,94195.64,,9,its
screen,html.Screen,0_2_1_1_10,2021-12-03T10:03:54.485Z,,,,,,,,,,,,,,,,54,,,,,,,,,,,,,,345.8600000000006,,response,,,100,,,,,,Space,keypress(Space),,,,,-- --- ---- --- ------ ----- ------- ---- -- --- revenue --<br>------- ---------- ------ -- ----- -- ----- -- ---- ------<br>--- ----- --- --- ------ -------- ----- --- ------ ----- --<br>----- ----- ---------- --- --- ------ ------ ---- -- ------<br>------- --- ------ ----- --- ---- ------- -- ---- --- --<br>------- ------,94542.20000000298,94541.5,94178.97,94190.5,94195.64,94545.715,,10,revenue
screen,html.Screen,0_2_1_1_11,2021-12-03T10:03:55.077Z,,,,,,,,,,,,,,,,54,,,,,,,,,,,,,,587.7850000000035,,response,,,100,,,,,,Space,keypress(Space),,,,,-- --- ---- --- ------ ----- ------- ---- -- --- ------- by<br>------- ---------- ------ -- ----- -- ----- -- ---- ------<br>--- ----- --- --- ------ -------- ----- --- ------ ----- --<br>----- ----- ---------- --- --- ------ ------ ---- -- ------<br>------- --- ------ ----- --- ---- ------- -- ---- --- --<br>------- ------,95134.29999999702,95133.5,94529.045,94542.60000000894,94545.715,95145.783,,11,by
screen,html.Screen,0_2_1_1_12,2021-12-03T10:03:55.573Z,,,,,,,,,,,,,,,,54,,,,,,,,,,,,,,483.61700000596466,,response,,,100,,,,,,Space,keypress(Space),,,,,-- --- ---- --- ------ ----- ------- ---- -- --- ------- --<br>issuing ---------- ------ -- ----- -- ----- -- ---- ------<br>--- ----- --- --- ------ -------- ----- --- ------ ----- --<br>----- ----- ---------- --- --- ------ ------ ---- -- ------<br>------- --- ------ ----- --- ---- ------- -- ---- --- --<br>------- ------,95630.20000000298,95629.40000000596,95129.114,95134.5,95145.783,95645.899,,12,issuing
screen,html.Screen,0_2_1_1_13,2021-12-03T10:03:56.093Z,,,,,,,,,,,,,,,,54,,,,,,,,,,,,,,503.5010000059556,,response,,,100,,,,,,Space,keypress(Space),,,,,-- --- ---- --- ------ ----- ------- ---- -- --- ------- --<br>------- government ------ -- ----- -- ----- -- ---- ------<br>--- ----- --- --- ------ -------- ----- --- ------ ----- --<br>----- ----- ---------- --- --- ------ ------ ---- -- ------<br>------- --- ------ ----- --- ---- ------- -- ---- --- --<br>------- ------,96150.10000000894,96149.40000000596,95629.23,95630.5,95645.899,96162.847,,13,government
screen,html.Screen,0_2_1_1_14,2021-12-03T10:03:56.541Z,,,,,,,,,,,,,,,,54,,,,,,,,,,,,,,434.55300000596617,,response,,,100,,,,,,Space,keypress(Space),,,,,-- --- ---- --- ------ ----- ------- ---- -- --- ------- --<br>------- ---------- bonds. -- ----- -- ----- -- ---- ------<br>--- ----- --- --- ------ -------- ----- --- ------ ----- --<br>----- ----- ---------- --- --- ------ ------ ---- -- ------<br>------- --- ------ ----- --- ---- ------- -- ---- --- --<br>------- ------,96598.20000000298,96597.40000000596,96146.176,96150.40000000596,96162.847,96612.915,,14,bonds.
screen,html.Screen,0_2_1_1_15,2021-12-03T10:03:57.101Z,,,,,,,,,,,,,,,,54,,,,,,,,,,,,,,544.3849999970262,,response,,,100,,,,,,Space,keypress(Space),,,,,-- --- ---- --- ------ ----- ------- ---- -- --- ------- --<br>------- ---------- ------ In ----- -- ----- -- ---- ------<br>--- ----- --- --- ------ -------- ----- --- ------ ----- --<br>----- ----- ---------- --- --- ------ ------ ---- -- ------<br>------- --- ------ ----- --- ---- ------- -- ---- --- --<br>------- ------,97158.10000000894,97157.29999999702,96596.245,96598.40000000596,96612.915,97163.05,,15,In
screen,html.Screen,0_2_1_1_16,2021-12-03T10:03:57.445Z,,,,,,,,,,,,,,,,54,,,,,,,,,,,,,,338.24999999701686,,response,,,100,,,,,,Space,keypress(Space),,,,,"-- --- ---- --- ------ ----- ------- ---- -- --- ------- --<br>------- ---------- ------ -- 1727, -- ----- -- ---- ------<br>--- ----- --- --- ------ -------- ----- --- ------ ----- --<br>----- ----- ---------- --- --- ------ ------ ---- -- ------<br>------- --- ------ ----- --- ---- ------- -- ---- --- --<br>------- ------",97502.10000000894,97501.29999999702,97146.38,97158.29999999702,97163.05,97513.188,,16,"1727,"
screen,html.Screen,0_2_1_1_17,2021-12-03T10:03:58.165Z,,,,,,,,,,,,,,,,54,,,,,,,,,,,,,,708.1119999970251,,response,,,100,,,,,,Space,keypress(Space),,,,,-- --- ---- --- ------ ----- ------- ---- -- --- ------- --<br>------- ---------- ------ -- ----- in ----- -- ---- ------<br>--- ----- --- --- ------ -------- ----- --- ------ ----- --<br>----- ----- ---------- --- --- ------ ------ ---- -- ------<br>------- --- ------ ----- --- ---- ------- -- ---- --- --<br>------- ------,98222.10000000894,98221.29999999702,97496.517,97502.29999999702,97513.188,98229.978,,17,in
screen,html.Screen,0_2_1_1_18,2021-12-03T10:03:58.765Z,,,,,,,,,,,,,,,,54,,,,,,,,,,,,,,591.2220000029774,,response,,,100,,,,,,Space,keypress(Space),,,,,-- --- ---- --- ------ ----- ------- ---- -- --- ------- --<br>------- ---------- ------ -- ----- -- order -- ---- ------<br>--- ----- --- --- ------ -------- ----- --- ------ ----- --<br>----- ----- ---------- --- --- ------ ------ ---- -- ------<br>------- --- ------ ----- --- ---- ------- -- ---- --- --<br>------- ------,98822,98821.20000000298,98213.308,98222.29999999702,98229.978,98830.105,,18,order
screen,html.Screen,0_2_1_1_19,2021-12-03T10:03:59.197Z,,,,,,,,,,,,,,,,54,,,,,,,,,,,,,,423.19499999702384,,response,,,100,,,,,,Space,keypress(Space),,,,,-- --- ---- --- ------ ----- ------- ---- -- --- ------- --<br>------- ---------- ------ -- ----- -- ----- to ---- ------<br>--- ----- --- --- ------ -------- ----- --- ------ ----- --<br>----- ----- ---------- --- --- ------ ------ ---- -- ------<br>------- --- ------ ----- --- ---- ------- -- ---- --- --<br>------- ------,99254.10000000894,99253.29999999702,98813.435,98822.29999999702,98830.105,99263.568,,19,to
screen,html.Screen,0_2_1_1_20,2021-12-03T10:03:59.693Z,,,,,,,,,,,,,,,,54,,,,,,,,,,,,,,486.0320000089414,,response,,,100,,,,,,Space,keypress(Space),,,,,-- --- ---- --- ------ ----- ------- ---- -- --- ------- --<br>------- ---------- ------ -- ----- -- ----- -- save ------<br>--- ----- --- --- ------ -------- ----- --- ------ ----- --<br>----- ----- ---------- --- --- ------ ------ ---- -- ------<br>------- --- ------ ----- --- ---- ------- -- ---- --- --<br>------- ------,99750.5,99749.60000000894,99246.898,99254.40000000596,99263.568,99763.763,,20,save
screen,html.Screen,0_2_1_1_21,2021-12-03T10:04:00.076Z,,,,,,,,,,,,,,,,54,,,,,,,,,,,,,,369.43700000297395,,response,,,100,,,,,,Space,keypress(Space),,,,,"-- --- ---- --- ------ ----- ------- ---- -- --- ------- --<br>------- ---------- ------ -- ----- -- ----- -- ---- money,<br>--- ----- --- --- ------ -------- ----- --- ------ ----- --<br>----- ----- ---------- --- --- ------ ------ ---- -- ------<br>------- --- ------ ----- --- ---- ------- -- ---- --- --<br>------- ------",100134,100133.20000000298,99747.092,99750.79999999702,99763.763,100147.099,,21,"money,"
screen,html.Screen,0_2_1_1_22,2021-12-03T10:04:00.508Z,,,,,,,,,,,,,,,,54,,,,,,,,,,,,,,418.0010000089387,,response,,,100,,,,,,Space,keypress(Space),,,,,-- --- ---- --- ------ ----- ------- ---- -- --- ------- --<br>------- ---------- ------ -- ----- -- ----- -- ---- ------<br>the ----- --- --- ------ -------- ----- --- ------ ----- --<br>----- ----- ---------- --- --- ------ ------ ---- -- ------<br>------- --- ------ ----- --- ---- ------- -- ---- --- --<br>------- ------,100566,100565.10000000894,100130.43,100134.20000000298,100147.099,100580.646,,22,the
screen,html.Screen,0_2_1_1_23,2021-12-03T10:04:00.828Z,,,,,,,,,,,,,,,,54,,,,,,,,,,,,,,304.45400000894733,,response,,,100,,,,,,Space,keypress(Space),,,,,-- --- ---- --- ------ ----- ------- ---- -- --- ------- --<br>------- ---------- ------ -- ----- -- ----- -- ---- ------<br>--- state --- --- ------ -------- ----- --- ------ ----- --<br>----- ----- ---------- --- --- ------ ------ ---- -- ------<br>------- --- ------ ----- --- ---- ------- -- ---- --- --<br>------- ------,100885.90000000596,100885.10000000894,100563.975,100566.20000000298,100580.646,100897.36,,23,state
screen,html.Screen,0_2_1_1_24,2021-12-03T10:04:01.268Z,,,,,,,,,,,,,,,,54,,,,,,,,,,,,,,427.7400000089401,,response,,,100,,,,,,Space,keypress(Space),,,,,-- --- ---- --- ------ ----- ------- ---- -- --- ------- --<br>------- ---------- ------ -- ----- -- ----- -- ---- ------<br>--- ----- cut --- ------ -------- ----- --- ------ ----- --<br>----- ----- ---------- --- --- ------ ------ ---- -- ------<br>------- --- ------ ----- --- ---- ------- -- ---- --- --<br>------- ------,101325.90000000596,101325.10000000894,100880.69,100886.10000000894,100897.36,101330.801,,24,cut
screen,html.Screen,0_2_1_1_25,2021-12-03T10:04:01.636Z,,,,,,,,,,,,,,,,54,,,,,,,,,,,,,,362.29900000893394,,response,,,100,,,,,,Space,keypress(Space),,,,,-- --- ---- --- ------ ----- ------- ---- -- --- ------- --<br>------- ---------- ------ -- ----- -- ----- -- ---- ------<br>--- ----- --- the ------ -------- ----- --- ------ ----- --<br>----- ----- ---------- --- --- ------ ------ ---- -- ------<br>------- --- ------ ----- --- ---- ------- -- ---- --- --<br>------- ------,101693.79999999702,101693.10000000894,101314.131,101326.10000000894,101330.801,101697.432,,25,the
screen,html.Screen,0_2_1_1_26,2021-12-03T10:04:02.011Z,,,,,,,,,,,,,,,,54,,,,,,,,,,,,,,371.16800000894,,response,,,100,,,,,,Space,keypress(Space),,,,,-- --- ---- --- ------ ----- ------- ---- -- --- ------- --<br>------- ---------- ------ -- ----- -- ----- -- ---- ------<br>--- ----- --- --- bonds' -------- ----- --- ------ ----- --<br>----- ----- ---------- --- --- ------ ------ ---- -- ------<br>------- --- ------ ----- --- ---- ------- -- ---- --- --<br>------- ------,102069,102068.60000000894,101680.764,101694.10000000894,101697.432,102081.057,,26,bonds'
screen,html.Screen,0_2_1_1_27,2021-12-03T10:04:02.492Z,,,,,,,,,,,,,,,,54,,,,,,,,,,,,,,468.04300000894,,response,,,100,,,,,,Space,keypress(Space),,,,,-- --- ---- --- ------ ----- ------- ---- -- --- ------- --<br>------- ---------- ------ -- ----- -- ----- -- ---- ------<br>--- ----- --- --- ------ interest ----- --- ------ ----- --<br>----- ----- ---------- --- --- ------ ------ ---- -- ------<br>------- --- ------ ----- --- ---- ------- -- ---- --- --<br>------- ------,102549.79999999702,102549.10000000894,102064.385,102069,102081.057,102564.432,,27,interest
screen,html.Screen,0_2_1_1_28,2021-12-03T10:04:02.820Z,,,,,,,,,,,,,,,,54,,,,,,,,,,,,,,312.5679999999993,,response,,,100,,,,,,Space,keypress(Space),,,,,-- --- ---- --- ------ ----- ------- ---- -- --- ------- --<br>------- ---------- ------ -- ----- -- ----- -- ---- ------<br>--- ----- --- --- ------ -------- rate. --- ------ ----- --<br>----- ----- ---------- --- --- ------ ------ ---- -- ------<br>------- --- ------ ----- --- ---- ------- -- ---- --- --<br>------- ------,102877.90000000596,102877,102547.761,102550.10000000894,102564.432,102881.2,,28,rate.
screen,html.Screen,0_2_1_1_29,2021-12-03T10:04:03.268Z,,,,,,,,,,,,,,,,54,,,,,,,,,,,,,,443.8000000000029,,response,,,100,,,,,,Space,keypress(Space),,,,,-- --- ---- --- ------ ----- ------- ---- -- --- ------- --<br>------- ---------- ------ -- ----- -- ----- -- ---- ------<br>--- ----- --- --- ------ -------- ----- The ------ ----- --<br>----- ----- ---------- --- --- ------ ------ ---- -- ------<br>------- --- ------ ----- --- ---- ------- -- ---- --- --<br>------- ------,103325.79999999702,103325,102864.53,102878.20000000298,102881.2,103331.302,,29,The
screen,html.Screen,0_2_1_1_30,2021-12-03T10:04:03.548Z,,,,,,,,,,,,,,,,54,,,,,,,,,,,,,,273.69800000000396,,response,,,100,,,,,,Space,keypress(Space),,,,,-- --- ---- --- ------ ----- ------- ---- -- --- ------- --<br>------- ---------- ------ -- ----- -- ----- -- ---- ------<br>--- ----- --- --- ------ -------- ----- --- market ----- --<br>----- ----- ---------- --- --- ------ ------ ---- -- ------<br>------- --- ------ ----- --- ---- ------- -- ---- --- --<br>------- ------,103605.79999999702,103605,103314.632,103326,103331.302,103614.723,,30,market
screen,html.Screen,0_2_1_1_31,2021-12-03T10:04:03.788Z,,,,,,,,,,,,,,,,54,,,,,,,,,,,,,,230.17700000596233,,response,,,100,,,,,,Space,keypress(Space),,,,,-- --- ---- --- ------ ----- ------- ---- -- --- ------- --<br>------- ---------- ------ -- ----- -- ----- -- ---- ------<br>--- ----- --- --- ------ -------- ----- --- ------ value --<br>----- ----- ---------- --- --- ------ ------ ---- -- ------<br>------- --- ------ ----- --- ---- ------- -- ---- --- --<br>------- ------,103845.70000000298,103844.90000000596,103598.053,103606.10000000894,103614.723,103848.108,,31,value
screen,html.Screen,0_2_1_1_32,2021-12-03T10:04:04.060Z,,,,,,,,,,,,,,,,54,,,,,,,,,,,,,,268.8920000000071,,response,,,100,,,,,,Space,keypress(Space),,,,,-- --- ---- --- ------ ----- ------- ---- -- --- ------- --<br>------- ---------- ------ -- ----- -- ----- -- ---- ------<br>--- ----- --- --- ------ -------- ----- --- ------ ----- of<br>----- ----- ---------- --- --- ------ ------ ---- -- ------<br>------- --- ------ ----- --- ---- ------- -- ---- --- --<br>------- ------,104117.79999999702,104117,103831.438,103846,103848.108,104131.465,,32,of
screen,html.Screen,0_2_1_1_33,2021-12-03T10:04:04.412Z,,,,,,,,,,,,,,,,54,,,,,,,,,,,,,,337.33499999702326,,response,,,100,,,,,,Space,keypress(Space),,,,,-- --- ---- --- ------ ----- ------- ---- -- --- ------- --<br>------- ---------- ------ -- ----- -- ----- -- ---- ------<br>--- ----- --- --- ------ -------- ----- --- ------ ----- --<br>these ----- ---------- --- --- ------ ------ ---- -- ------<br>------- --- ------ ----- --- ---- ------- -- ---- --- --<br>------- ------,104469.70000000298,104468.79999999702,104114.796,104118,104131.465,104481.677,,33,these
screen,html.Screen,0_2_1_1_34,2021-12-03T10:04:04.676Z,,,,,,,,,,,,,,,,54,,,,,,,,,,,,,,251.22300000596442,,response,,,100,,,,,,Space,keypress(Space),,,,,-- --- ---- --- ------ ----- ------- ---- -- --- ------- --<br>------- ---------- ------ -- ----- -- ----- -- ---- ------<br>--- ----- --- --- ------ -------- ----- --- ------ ----- --<br>----- bonds ---------- --- --- ------ ------ ---- -- ------<br>------- --- ------ ----- --- ---- ------- -- ---- --- --<br>------- ------,104733.70000000298,104732.90000000596,104465.005,104469.90000000596,104481.677,104748.221,,34,bonds
screen,html.Screen,0_2_1_1_35,2021-12-03T10:04:05.076Z,,,,,,,,,,,,,,,,54,,,,,,,,,,,,,,384.67900000595546,,response,,,100,,,,,,Space,keypress(Space),,,,,"-- --- ---- --- ------ ----- ------- ---- -- --- ------- --<br>------- ---------- ------ -- ----- -- ----- -- ---- ------<br>--- ----- --- --- ------ -------- ----- --- ------ ----- --<br>----- ----- plummeted, --- --- ------ ------ ---- -- ------<br>------- --- ------ ----- --- ---- ------- -- ---- --- --<br>------- ------",105133.79999999702,105132.90000000596,104731.553,104734,104748.221,105148.515,,35,"plummeted,"
screen,html.Screen,0_2_1_1_36,2021-12-03T10:04:05.420Z,,,,,,,,,,,,,,,,54,,,,,,,,,,,,,,328.38500000596105,,response,,,100,,,,,,Space,keypress(Space),,,,,-- --- ---- --- ------ ----- ------- ---- -- --- ------- --<br>------- ---------- ------ -- ----- -- ----- -- ---- ------<br>--- ----- --- --- ------ -------- ----- --- ------ ----- --<br>----- ----- ---------- and --- ------ ------ ---- -- ------<br>------- --- ------ ----- --- ---- ------- -- ---- --- --<br>------- ------,105477.60000000894,105476.90000000596,105131.843,105135.40000000596,105148.515,105481.732,,36,and
screen,html.Screen,0_2_1_1_37,2021-12-03T10:04:05.748Z,,,,,,,,,,,,,,,,54,,,,,,,,,,,,,,323.06799999701616,,response,,,100,,,,,,Space,keypress(Space),,,,,-- --- ---- --- ------ ----- ------- ---- -- --- ------- --<br>------- ---------- ------ -- ----- -- ----- -- ---- ------<br>--- ----- --- --- ------ -------- ----- --- ------ ----- --<br>----- ----- ---------- --- the ------ ------ ---- -- ------<br>------- --- ------ ----- --- ---- ------- -- ---- --- --<br>------- ------,105805.60000000894,105804.79999999702,105465.064,105477.90000000596,105481.732,105815.34,,37,the
screen,html.Screen,0_2_1_1_38,2021-12-03T10:04:06.108Z,,,,,,,,,,,,,,,,54,,,,,,,,,,,,,,349.56000000596396,,response,,,100,,,,,,Space,keypress(Space),,,,,-- --- ---- --- ------ ----- ------- ---- -- --- ------- --<br>------- ---------- ------ -- ----- -- ----- -- ---- ------<br>--- ----- --- --- ------ -------- ----- --- ------ ----- --<br>----- ----- ---------- --- --- market ------ ---- -- ------<br>------- --- ------ ----- --- ---- ------- -- ---- --- --<br>------- ------,106165.60000000894,106164.90000000596,105798.668,105805.90000000596,105815.34,106182.086,,38,market
screen,html.Screen,0_2_1_1_39,2021-12-03T10:04:06.492Z,,,,,,,,,,,,,,,,54,,,,,,,,,,,,,,366.61400000298454,,response,,,100,,,,,,Space,keypress(Space),,,,,-- --- ---- --- ------ ----- ------- ---- -- --- ------- --<br>------- ---------- ------ -- ----- -- ----- -- ---- ------<br>--- ----- --- --- ------ -------- ----- --- ------ ----- --<br>----- ----- ---------- --- --- ------ became ---- -- ------<br>------- --- ------ ----- --- ---- ------- -- ---- --- --<br>------- ------,106549.60000000894,106548.70000000298,106165.415,106165.79999999702,106182.086,106565.398,,39,became
screen,html.Screen,0_2_1_1_40,2021-12-03T10:04:06.796Z,,,,,,,,,,,,,,,,54,,,,,,,,,,,,,,287.4019999970187,,response,,,100,,,,,,Space,keypress(Space),,,,,-- --- ---- --- ------ ----- ------- ---- -- --- ------- --<br>------- ---------- ------ -- ----- -- ----- -- ---- ------<br>--- ----- --- --- ------ -------- ----- --- ------ ----- --<br>----- ----- ---------- --- --- ------ ------ wary -- ------<br>------- --- ------ ----- --- ---- ------- -- ---- --- --<br>------- ------,106853.60000000894,106852.79999999702,106548.729,106549.79999999702,106565.398,106865.627,,40,wary
screen,html.Screen,0_2_1_1_41,2021-12-03T10:04:07.164Z,,,,,,,,,,,,,,,,54,,,,,,,,,,,,,,355.17299999702664,,response,,,100,,,,,,Space,keypress(Space),,,,,-- --- ---- --- ------ ----- ------- ---- -- --- ------- --<br>------- ---------- ------ -- ----- -- ----- -- ---- ------<br>--- ----- --- --- ------ -------- ----- --- ------ ----- --<br>----- ----- ---------- --- --- ------ ------ ---- of ------<br>------- --- ------ ----- --- ---- ------- -- ---- --- --<br>------- ------,107221.60000000894,107220.79999999702,106848.955,106853.90000000596,106865.627,107232.309,,41,of
screen,html.Screen,0_2_1_1_42,2021-12-03T10:04:07.564Z,,,,,,,,,,,,,,,,54,,,,,,,,,,,,,,388.3910000029864,,response,,,100,,,,,,Space,keypress(Space),,,,,-- --- ---- --- ------ ----- ------- ---- -- --- ------- --<br>------- ---------- ------ -- ----- -- ----- -- ---- ------<br>--- ----- --- --- ------ -------- ----- --- ------ ----- --<br>----- ----- ---------- --- --- ------ ------ ---- -- French<br>------- --- ------ ----- --- ---- ------- -- ---- --- --<br>------- ------,107621.5,107620.70000000298,107215.639,107221.79999999702,107232.309,107632.416,,42,French
screen,html.Screen,0_2_1_1_43,2021-12-03T10:04:08.012Z,,,,,,,,,,,,,,,,54,,,,,,,,,,,,,,436.2840000029828,,response,,,100,,,,,,Space,keypress(Space),,,,,-- --- ---- --- ------ ----- ------- ---- -- --- ------- --<br>------- ---------- ------ -- ----- -- ----- -- ---- ------<br>--- ----- --- --- ------ -------- ----- --- ------ ----- --<br>----- ----- ---------- --- --- ------ ------ ---- -- ------<br>credit. --- ------ ----- --- ---- ------- -- ---- --- --<br>------- ------,108069.5,108068.70000000298,107615.746,107621.70000000298,107632.416,108082.452,,43,credit.
screen,html.Screen,0_2_1_1_44,2021-12-03T10:04:08.356Z,,,,,,,,,,,,,,,,54,,,,,,,,,,,,,,330.1480000089359,,response,,,100,,,,,,Space,keypress(Space),,,,,-- --- ---- --- ------ ----- ------- ---- -- --- ------- --<br>------- ---------- ------ -- ----- -- ----- -- ---- ------<br>--- ----- --- --- ------ -------- ----- --- ------ ----- --<br>----- ----- ---------- --- --- ------ ------ ---- -- ------<br>------- The ------ ----- --- ---- ------- -- ---- --- --<br>------- ------,108413.40000000596,108412.60000000894,108065.783,108069.60000000894,108082.452,108415.969,,44,The
screen,html.Screen,0_2_1_1_45,2021-12-03T10:04:08.740Z,,,,,,,,,,,,,,,,54,,,,,,,,,,,,,,380.6310000089434,,response,,,100,,,,,,Space,keypress(Space),,,,,-- --- ---- --- ------ ----- ------- ---- -- --- ------- --<br>------- ---------- ------ -- ----- -- ----- -- ---- ------<br>--- ----- --- --- ------ -------- ----- --- ------ ----- --<br>----- ----- ---------- --- --- ------ ------ ---- -- ------<br>------- --- French ----- --- ---- ------- -- ---- --- --<br>------- ------,108797.5,108796.60000000894,108399.298,108413.70000000298,108415.969,108799.421,,45,French
screen,html.Screen,0_2_1_1_46,2021-12-03T10:04:09.068Z,,,,,,,,,,,,,,,,54,,,,,,,,,,,,,,325.1790000089386,,response,,,100,,,,,,Space,keypress(Space),,,,,-- --- ---- --- ------ ----- ------- ---- -- --- ------- --<br>------- ---------- ------ -- ----- -- ----- -- ---- ------<br>--- ----- --- --- ------ -------- ----- --- ------ ----- --<br>----- ----- ---------- --- --- ------ ------ ---- -- ------<br>------- --- ------ state --- ---- ------- -- ---- --- --<br>------- ------,109125.5,109124.60000000894,108782.75,108797.70000000298,108799.421,109132.807,,46,state
screen,html.Screen,0_2_1_1_47,2021-12-03T10:04:09.372Z,,,,,,,,,,,,,,,,54,,,,,,,,,,,,,,295.79300000894,,response,,,100,,,,,,Space,keypress(Space),,,,,-- --- ---- --- ------ ----- ------- ---- -- --- ------- --<br>------- ---------- ------ -- ----- -- ----- -- ---- ------<br>--- ----- --- --- ------ -------- ----- --- ------ ----- --<br>----- ----- ---------- --- --- ------ ------ ---- -- ------<br>------- --- ------ ----- was ---- ------- -- ---- --- --<br>------- ------,109429.40000000596,109428.60000000894,109116.137,109125.70000000298,109132.807,109432.888,,47,was
screen,html.Screen,0_2_1_1_48,2021-12-03T10:04:09.692Z,,,,,,,,,,,,,,,,54,,,,,,,,,,,,,,315.7120000089344,,response,,,100,,,,,,Space,keypress(Space),,,,,-- --- ---- --- ------ ----- ------- ---- -- --- ------- --<br>------- ---------- ------ -- ----- -- ----- -- ---- ------<br>--- ----- --- --- ------ -------- ----- --- ------ ----- --<br>----- ----- ---------- --- --- ------ ------ ---- -- ------<br>------- --- ------ ----- --- left ------- -- ---- --- --<br>------- ------,109749.40000000596,109748.60000000894,109416.218,109429.60000000894,109432.888,109766.309,,48,left
screen,html.Screen,0_2_1_1_49,2021-12-03T10:04:10.076Z,,,,,,,,,,,,,,,,54,,,,,,,,,,,,,,366.69100000000617,,response,,,100,,,,,,Space,keypress(Space),,,,,-- --- ---- --- ------ ----- ------- ---- -- --- ------- --<br>------- ---------- ------ -- ----- -- ----- -- ---- ------<br>--- ----- --- --- ------ -------- ----- --- ------ ----- --<br>----- ----- ---------- --- --- ------ ------ ---- -- ------<br>------- --- ------ ----- --- ---- without -- ---- --- --<br>------- ------,110133.90000000596,110133,109749.639,109749.60000000894,109766.309,110149.727,,49,without
screen,html.Screen,0_2_1_1_50,2021-12-03T10:04:10.412Z,,,,,,,,,,,,,,,,54,,,,,,,,,,,,,,318.9730000029813,,response,,,100,,,,,,Space,keypress(Space),,,,,-- --- ---- --- ------ ----- ------- ---- -- --- ------- --<br>------- ---------- ------ -- ----- -- ----- -- ---- ------<br>--- ----- --- --- ------ -------- ----- --- ------ ----- --<br>----- ----- ---------- --- --- ------ ------ ---- -- ------<br>------- --- ------ ----- --- ---- ------- an ---- --- --<br>------- ------,110469.40000000596,110468.70000000298,110133.057,110134.10000000894,110149.727,110483.076,,50,an
screen,html.Screen,0_2_1_1_51,2021-12-03T10:04:10.700Z,,,,,,,,,,,,,,,,54,,,,,,,,,,,,,,273.42399999999907,,response,,,100,,,,,,Space,keypress(Space),,,,,-- --- ---- --- ------ ----- ------- ---- -- --- ------- --<br>------- ---------- ------ -- ----- -- ----- -- ---- ------<br>--- ----- --- --- ------ -------- ----- --- ------ ----- --<br>----- ----- ---------- --- --- ------ ------ ---- -- ------<br>------- --- ------ ----- --- ---- ------- -- easy --- --<br>------- ------,110757.29999999702,110756.5,110466.407,110469.60000000894,110483.076,110766.636,,51,easy
screen,html.Screen,0_2_1_1_52,2021-12-03T10:04:10.988Z,,,,,,,,,,,,,,,,54,,,,,,,,,,,,,,277.8640000000014,,response,,,100,,,,,,Space,keypress(Space),,,,,-- --- ---- --- ------ ----- ------- ---- -- --- ------- --<br>------- ---------- ------ -- ----- -- ----- -- ---- ------<br>--- ----- --- --- ------ -------- ----- --- ------ ----- --<br>----- ----- ---------- --- --- ------ ------ ---- -- ------<br>------- --- ------ ----- --- ---- ------- -- ---- way --<br>------- ------,111045.29999999702,111044.5,110749.964,110757.5,110766.636,111049.849,,52,way
screen,html.Screen,0_2_1_1_53,2021-12-03T10:04:11.300Z,,,,,,,,,,,,,,,,54,,,,,,,,,,,,,,306.650999999998,,response,,,100,,,,,,Space,keypress(Space),,,,,-- --- ---- --- ------ ----- ------- ---- -- --- ------- --<br>------- ---------- ------ -- ----- -- ----- -- ---- ------<br>--- ----- --- --- ------ -------- ----- --- ------ ----- --<br>----- ----- ---------- --- --- ------ ------ ---- -- ------<br>------- --- ------ ----- --- ---- ------- -- ---- --- of<br>------- ------,111357.29999999702,111356.5,111033.181,111045.60000000894,111049.849,111366.829,,53,of
screen,html.Screen,0_2_1_1_54,2021-12-03T10:04:11.636Z,,,,,,,,,,,,,,,,54,,,,,,,,,,,,,,325.6710000000021,,response,,,100,,,,,,Space,keypress(Space),,,,,-- --- ---- --- ------ ----- ------- ---- -- --- ------- --<br>------- ---------- ------ -- ----- -- ----- -- ---- ------<br>--- ----- --- --- ------ -------- ----- --- ------ ----- --<br>----- ----- ---------- --- --- ------ ------ ---- -- ------<br>------- --- ------ ----- --- ---- ------- -- ---- --- --<br>raising ------,111693.29999999702,111692.5,111350.156,111357.60000000894,111366.829,111699.969,,54,raising
screen,html.Screen,0_2_1_1_55,2021-12-03T10:04:12.012Z,,,,,,,,,,,,,,,,54,,,,,,,,,,,,,,368.5310000000027,,response,,,100,,,,,,Space,keypress(Space),,,,,-- --- ---- --- ------ ----- ------- ---- -- --- ------- --<br>------- ---------- ------ -- ----- -- ----- -- ---- ------<br>--- ----- --- --- ------ -------- ----- --- ------ ----- --<br>----- ----- ---------- --- --- ------ ------ ---- -- ------<br>------- --- ------ ----- --- ---- ------- -- ---- --- --<br>------- money.,112069.40000000596,112068.5,111683.302,111693.5,111699.969,112083.523,,55,money.
Item 100,flow.Loop,0_2_1_1,2021-12-03T10:04:12.012Z,,,,,,,,,,,,,,,,,,,,,,,,,,,,,,22724.266000000003,,completion,,,,E,,,,,,,,,,silence,,112069.79999999702,112068.5,89327.564,89329.20000000298,89344.234,112083.523,,,
Question 1,html.Screen,0_2_1_2,2021-12-03T10:04:14.809Z,,,,,,,,,,,,,,,,,,,,,,,,,,,true,TRUE,,2782.0770000089396,,response,,,100,E,,,,,TRUE,click #choice-1,,,,silence,,114866.79999999702,114865.60000000894,112066.853,112069.90000000596,112083.523,114867.685,,,
Question 2,html.Screen,0_2_1_3,2021-12-03T10:04:16.592Z,,,,,,,,,,,,,,,,,,,,,,,,,,,false,FALSE,,1780.3150000000023,,response,,,100,E,,,,,TRUE,click #choice-1,,,,silence,,116649.10000000894,116648,114851.013,114867,114867.685,116651.387,,,
Item 100,flow.Sequence,0_2_1,2021-12-03T10:04:16.592Z,,,,,,,,,,,,,,,,,,,,,,,,,,,,,,37305.971999999994,,completion,,,,,,,,,,,,,,,,116649.5,116648,79325.35,79332.70000000298,79342.028,116651.387,,,
End of Practice,html.Page,0_2_2,2021-12-03T10:04:20.608Z,,,,,,,,,,,,,,,,,,,,,,,,,,,,,,4010.513000005958,,form submission,,,,,,,,,,,,,,,,120662.5,120661.90000000596,116634.717,116649.70000000298,116651.387,120669.092,,,
Practice,flow.Sequence,0_2,2021-12-03T10:04:20.609Z,,,,,,,,,,,,,,,,,,,,,,,,,,,,,,78063.08100000596,,completion,,,,,,,,,,,,,,,,120663,120661.90000000596,42582.149,42593.70000000298,42598.819,120669.092,,,
Trap_instruction,html.Page,0_3_0,2021-12-03T10:04:24.419Z,,,,,,,,,,,,,,,,,,,,,,,,,,,,,,3803.407999999996,,form submission,,,,,,,,,,,,,,,,124473,124472.5,120652.422,120663.40000000596,120669.092,124486.604,,,
trap_trial,html.Screen,0_3_1,2021-12-03T10:04:26.805Z,,,,,,,,,,,,,,,,,,,,,,,,,,,true,1,,2371.3959999999934,,response,,,,,,,,,1,click #choice-1,,,,,,126859.20000000298,126858,124469.934,124473.20000000298,124486.604,126870.392,,,
end of trap trial,html.Page,0_3_2,2021-12-03T10:04:28.640Z,,,,,,,,,,,,,,,,,,,,,,,,,,,,,,1824.0080000059534,,form submission,,,,,,,,,,,,,,,,128694.90000000596,128694.40000000596,126853.723,126859.5,126870.392,128704.443,,,
Trap 1,flow.Sequence,0_3,2021-12-03T10:04:28.641Z,,,,,,,,,,,,,,,,,,,,,,,,,,,,,,8025.308000005956,,completion,,,,,,,,,,,,,,,,128695.29999999702,128694.40000000596,120652.422,120663.29999999702,120669.092,128704.443,,,
Standby,html.Page,0_4_0,2021-12-03T10:04:36.636Z,,,,,,,,,,,,,,,,,,,,,,,,,,,,,,8001.641000000003,,timeout,,,,,,,,,,,,,,,,136690.60000000894,136689.414,128687.773,128695.5,128704.443,136706.084,,,
Holding screen,html.Screen,0_4_1_0_0,2021-12-03T10:04:43.639Z,,,,,,,,,,,,,,,,,,,,,,,,,,,,,,7002.165000000008,,timeout,,,,,,,,,,,,,,,,143693.29999999702,143691.579,136689.414,136691,136706.084,143708.249,,,
screen,html.Screen,0_4_1_0_1_0,2021-12-03T10:04:44.398Z,,,,,,,,,,,,,,,,11,,,,,,,,,,,,,,742.9510000029695,,response,,,4,E,,,,,Space,keypress(Space),,,,lyrical,Known -- ---- --- -- --- -------- ------------ ---------- --<br>- ------- ------ --------- -- ------------ -- --- ---- -----<br>------ ---- ---- ------ ------ ------- --- ----- ---------<br>---- --- -------- -------- --- --- -- ------- --- --- -----<br>-- --- ------ ------- --- --- -------- ---- --------- --<br>---------- -- -------- ----------------,144452.29999999702,144451.20000000298,143691.579,143693.79999999702,143708.249,144458.466,,0,Known
screen,html.Screen,0_4_1_0_1_1,2021-12-03T10:04:44.813Z,,,,,,,,,,,,,,,,11,,,,,,,,,,,,,,408.1340000089549,,response,,,4,E,,,,,Space,keypress(Space),,,,lyrical,----- as ---- --- -- --- -------- ------------ ---------- --<br>- ------- ------ --------- -- ------------ -- --- ---- -----<br>------ ---- ---- ------ ------ ------- --- ----- ---------<br>---- --- -------- -------- --- --- -- ------- --- --- -----<br>-- --- ------ ------- --- --- -------- ---- --------- --<br>---------- -- -------- ----------------,144867.5,144866.60000000894,144441.796,144452.60000000894,144458.466,144875.361,,1,as
screen,html.Screen,0_4_1_0_1_2,2021-12-03T10:04:45.293Z,,,,,,,,,,,,,,,,11,,,,,,,,,,,,,,471.2390000089363,,response,,,4,E,,,,,Space,keypress(Space),,,,lyrical,----- -- Rapa --- -- --- -------- ------------ ---------- --<br>- ------- ------ --------- -- ------------ -- --- ---- -----<br>------ ---- ---- ------ ------ ------- --- ----- ---------<br>---- --- -------- -------- --- --- -- ------- --- --- -----<br>-- --- ------ ------- --- --- -------- ---- --------- --<br>---------- -- -------- ----------------,145347.5,145346.60000000894,144858.69,144867.79999999702,144875.361,145358.832,,2,Rapa
screen,html.Screen,0_4_1_0_1_3,2021-12-03T10:04:45.797Z,,,,,,,,,,,,,,,,11,,,,,,,,,,,,,,491.7680000089458,,response,,,4,E,,,,,Space,keypress(Space),,,,lyrical,----- -- ---- Nui -- --- -------- ------------ ---------- --<br>- ------- ------ --------- -- ------------ -- --- ---- -----<br>------ ---- ---- ------ ------ ------- --- ----- ---------<br>---- --- -------- -------- --- --- -- ------- --- --- -----<br>-- --- ------ ------- --- --- -------- ---- --------- --<br>---------- -- -------- ----------------,145851.5,145850.60000000894,145342.161,145347.79999999702,145358.832,145858.795,,3,Nui
screen,html.Screen,0_4_1_0_1_4,2021-12-03T10:04:46.133Z,,,,,,,,,,,,,,,,11,,,,,,,,,,,,,,327.7049999999872,,response,,,4,E,,,,,Space,keypress(Space),,,,lyrical,----- -- ---- --- to --- -------- ------------ ---------- --<br>- ------- ------ --------- -- ------------ -- --- ---- -----<br>------ ---- ---- ------ ------ ------- --- ----- ---------<br>---- --- -------- -------- --- --- -- ------- --- --- -----<br>-- --- ------ ------- --- --- -------- ---- --------- --<br>---------- -- -------- ----------------,146187.5,146186.5,145842.126,145851.70000000298,145858.795,146192.332,,4,to
screen,html.Screen,0_4_1_0_1_5,2021-12-03T10:04:46.453Z,,,,,,,,,,,,,,,,11,,,,,,,,,,,,,,314.1680000000051,,response,,,4,E,,,,,Space,keypress(Space),,,,lyrical,----- -- ---- --- -- the -------- ------------ ---------- --<br>- ------- ------ --------- -- ------------ -- --- ---- -----<br>------ ---- ---- ------ ------ ------- --- ----- ---------<br>---- --- -------- -------- --- --- -- ------- --- --- -----<br>-- --- ------ ------- --- --- -------- ---- --------- --<br>---------- -- -------- ----------------,146507.40000000596,146506.5,146175.661,146187.70000000298,146192.332,146509.059,,5,the
screen,html.Screen,0_4_1_0_1_6,2021-12-03T10:04:46.853Z,,,,,,,,,,,,,,,,11,,,,,,,,,,,,,,397.4409999999916,,response,,,4,E,,,,,Space,keypress(Space),,,,lyrical,----- -- ---- --- -- --- island's ------------ ---------- --<br>- ------- ------ --------- -- ------------ -- --- ---- -----<br>------ ---- ---- ------ ------ ------- --- ----- ---------<br>---- --- -------- -------- --- --- -- ------- --- --- -----<br>-- --- ------ ------- --- --- -------- ---- --------- --<br>---------- -- -------- ----------------,146907.40000000596,146906.5,146492.389,146507.60000000894,146509.059,146909.158,,6,island's
screen,html.Screen,0_4_1_0_1_7,2021-12-03T10:04:47.317Z,,,,,,,,,,,,,,,,11,,,,,,,,,,,,,,461.3420000000042,,response,,,4,E,,,,,Space,keypress(Space),,,,lyrical,"----- -- ---- --- -- --- -------- inhabitants, ---------- --<br>- ------- ------ --------- -- ------------ -- --- ---- -----<br>------ ---- ---- ------ ------ ------- --- ----- ---------<br>---- --- -------- -------- --- --- -- ------- --- --- -----<br>-- --- ------ ------- --- --- -------- ---- --------- --<br>---------- -- -------- ----------------",147371.29999999702,147370.5,146892.488,146907.70000000298,146909.158,147376.071,,7,"inhabitants,"
screen,html.Screen,0_4_1_0_1_8,2021-12-03T10:04:47.981Z,,,,,,,,,,,,,,,,11,,,,,,,,,,,,,,658.4290000000037,,response,,,4,E,,,,,Space,keypress(Space),,,,lyrical,----- -- ---- --- -- --- -------- ------------ Rongorongo --<br>- ------- ------ --------- -- ------------ -- --- ---- -----<br>------ ---- ---- ------ ------ ------- --- ----- ---------<br>---- --- -------- -------- --- --- -- ------- --- --- -----<br>-- --- ------ ------- --- --- -------- ---- --------- --<br>---------- -- -------- ----------------,148035.29999999702,148034.5,147359.399,147371.60000000894,147376.071,148042.806,,8,Rongorongo
screen,html.Screen,0_4_1_0_1_9,2021-12-03T10:04:48.349Z,,,,,,,,,,,,,,,,11,,,,,,,,,,,,,,359.6939999999886,,response,,,4,E,,,,,Space,keypress(Space),,,,lyrical,----- -- ---- --- -- --- -------- ------------ ---------- is<br>- ------- ------ --------- -- ------------ -- --- ---- -----<br>------ ---- ---- ------ ------ ------- --- ----- ---------<br>---- --- -------- -------- --- --- -- ------- --- --- -----<br>-- --- ------ ------- --- --- -------- ---- --------- --<br>---------- -- -------- ----------------,148403.29999999702,148402.5,148026.136,148035.60000000894,148042.806,148409.551,,9,is
screen,html.Screen,0_4_1_0_1_10,2021-12-03T10:04:48.701Z,,,,,,,,,,,,,,,,11,,,,,,,,,,,,,,344.94899999999325,,response,,,4,E,,,,,Space,keypress(Space),,,,lyrical,----- -- ---- --- -- --- -------- ------------ ---------- --<br>a ------- ------ --------- -- ------------ -- --- ---- -----<br>------ ---- ---- ------ ------ ------- --- ----- ---------<br>---- --- -------- -------- --- --- -- ------- --- --- -----<br>-- --- ------ ------- --- --- -------- ---- --------- --<br>---------- -- -------- ----------------,148755.29999999702,148754.5,148392.881,148403.60000000894,148409.551,148759.591,,10,a
screen,html.Screen,0_4_1_0_1_11,2021-12-03T10:04:49.029Z,,,,,,,,,,,,,,,,11,,,,,,,,,,,,,,322.9090000000142,,response,,,4,E,,,,,Space,keypress(Space),,,,lyrical,----- -- ---- --- -- --- -------- ------------ ---------- --<br>- writing ------ --------- -- ------------ -- --- ---- -----<br>------ ---- ---- ------ ------ ------- --- ----- ---------<br>---- --- -------- -------- --- --- -- ------- --- --- -----<br>-- --- ------ ------- --- --- -------- ---- --------- --<br>---------- -- -------- ----------------,149083.29999999702,149082.5,148742.922,148755.5,148759.591,149093.198,,11,writing
screen,html.Screen,0_4_1_0_1_12,2021-12-03T10:04:49.341Z,,,,,,,,,,,,,,,,11,,,,,,,,,,,,,,301.30199999999604,,response,,,4,E,,,,,Space,keypress(Space),,,,lyrical,----- -- ---- --- -- --- -------- ------------ ---------- --<br>- ------- system --------- -- ------------ -- --- ---- -----<br>------ ---- ---- ------ ------ ------- --- ----- ---------<br>---- --- -------- -------- --- --- -- ------- --- --- -----<br>-- --- ------ ------- --- --- -------- ---- --------- --<br>---------- -- -------- ----------------,149395.29999999702,149394.5,149076.525,149083.5,149093.198,149409.77,,12,system
screen,html.Screen,0_4_1_0_1_13,2021-12-03T10:04:49.701Z,,,,,,,,,,,,,,,,11,,,,,,,,,,,,,,344.63000000597094,,response,,,4,E,,,,,Space,keypress(Space),,,,lyrical,----- -- ---- --- -- --- -------- ------------ ---------- --<br>- ------- ------ comprised -- ------------ -- --- ---- -----<br>------ ---- ---- ------ ------ ------- --- ----- ---------<br>---- --- -------- -------- --- --- -- ------- --- --- -----<br>-- --- ------ ------- --- --- -------- ---- --------- --<br>---------- -- -------- ----------------,149755.20000000298,149754.40000000596,149393.101,149395.5,149409.77,149759.857,,13,comprised
screen,html.Screen,0_4_1_0_1_14,2021-12-03T10:04:50.157Z,,,,,,,,,,,,,,,,11,,,,,,,,,,,,,,450.5430000059714,,response,,,4,E,,,,,Space,keypress(Space),,,,lyrical,----- -- ---- --- -- --- -------- ------------ ---------- --<br>- ------- ------ --------- of ------------ -- --- ---- -----<br>------ ---- ---- ------ ------ ------- --- ----- ---------<br>---- --- -------- -------- --- --- -- ------- --- --- -----<br>-- --- ------ ------- --- --- -------- ---- --------- --<br>---------- -- -------- ----------------,150211.20000000298,150210.40000000596,149743.188,149755.5,149759.857,150226.654,,14,of
screen,html.Screen,0_4_1_0_1_15,2021-12-03T10:04:50.605Z,,,,,,,,,,,,,,,,11,,,,,,,,,,,,,,431.7460000059509,,response,,,4,E,,,,,Space,keypress(Space),,,,lyrical,----- -- ---- --- -- --- -------- ------------ ---------- --<br>- ------- ------ --------- -- pictographs. -- --- ---- -----<br>------ ---- ---- ------ ------ ------- --- ----- ---------<br>---- --- -------- -------- --- --- -- ------- --- --- -----<br>-- --- ------ ------- --- --- -------- ---- --------- --<br>---------- -- -------- ----------------,150659.20000000298,150658.40000000596,150209.984,150211.40000000596,150226.654,150676.921,,15,pictographs.
screen,html.Screen,0_4_1_0_1_16,2021-12-03T10:04:51.061Z,,,,,,,,,,,,,,,,11,,,,,,,,,,,,,,437.47900000595837,,response,,,4,E,,,,,Space,keypress(Space),,,,lyrical,----- -- ---- --- -- --- -------- ------------ ---------- --<br>- ------- ------ --------- -- ------------ It --- ---- -----<br>------ ---- ---- ------ ------ ------- --- ----- ---------<br>---- --- -------- -------- --- --- -- ------- --- --- -----<br>-- --- ------ ------- --- --- -------- ---- --------- --<br>---------- -- -------- ----------------,151115.20000000298,151114.40000000596,150660.249,150659.40000000596,150676.921,151126.978,,16,It
screen,html.Screen,0_4_1_0_1_17,2021-12-03T10:04:51.421Z,,,,,,,,,,,,,,,,11,,,,,,,,,,,,,,347.321999997017,,response,,,4,E,,,,,Space,keypress(Space),,,,lyrical,----- -- ---- --- -- --- -------- ------------ ---------- --<br>- ------- ------ --------- -- ------------ -- has ---- -----<br>------ ---- ---- ------ ------ ------- --- ----- ---------<br>---- --- -------- -------- --- --- -- ------- --- --- -----<br>-- --- ------ ------- --- --- -------- ---- --------- --<br>---------- -- -------- ----------------,151475.40000000596,151474.29999999702,151110.307,151115.40000000596,151126.978,151477.029,,17,has
screen,html.Screen,0_4_1_0_1_18,2021-12-03T10:04:51.861Z,,,,,,,,,,,,,,,,11,,,,,,,,,,,,,,437.2709999970102,,response,,,4,E,,,,,Space,keypress(Space),,,,lyrical,----- -- ---- --- -- --- -------- ------------ ---------- --<br>- ------- ------ --------- -- ------------ -- --- been -----<br>------ ---- ---- ------ ------ ------- --- ----- ---------<br>---- --- -------- -------- --- --- -- ------- --- --- -----<br>-- --- ------ ------- --- --- -------- ---- --------- --<br>---------- -- -------- ----------------,151915.10000000894,151914.29999999702,151460.359,151475.60000000894,151477.029,151927.148,,18,been
screen,html.Screen,0_4_1_0_1_19,2021-12-03T10:04:52.205Z,,,,,,,,,,,,,,,,11,,,,,,,,,,,,,,331.1519999970333,,response,,,4,E,,,,,Space,keypress(Space),,,,lyrical,----- -- ---- --- -- --- -------- ------------ ---------- --<br>- ------- ------ --------- -- ------------ -- --- ---- found<br>------ ---- ---- ------ ------ ------- --- ----- ---------<br>---- --- -------- -------- --- --- -- ------- --- --- -----<br>-- --- ------ ------- --- --- -------- ---- --------- --<br>---------- -- -------- ----------------,152259.10000000894,152258.29999999702,151910.478,151915.40000000596,151927.148,152260.573,,19,found
screen,html.Screen,0_4_1_0_1_20,2021-12-03T10:04:52.749Z,,,,,,,,,,,,,,,,11,,,,,,,,,,,,,,541.7269999970158,,response,,,4,E,,,,,Space,keypress(Space),,,,lyrical,----- -- ---- --- -- --- -------- ------------ ---------- --<br>- ------- ------ --------- -- ------------ -- --- ---- -----<br>carved ---- ---- ------ ------ ------- --- ----- ---------<br>---- --- -------- -------- --- --- -- ------- --- --- -----<br>-- --- ------ ------- --- --- -------- ---- --------- --<br>---------- -- -------- ----------------,152803.10000000894,152802.29999999702,152243.903,152259.29999999702,152260.573,152810.75,,20,carved
screen,html.Screen,0_4_1_0_1_21,2021-12-03T10:04:53.317Z,,,,,,,,,,,,,,,,11,,,,,,,,,,,,,,559.4500000029802,,response,,,4,E,,,,,Space,keypress(Space),,,,lyrical,----- -- ---- --- -- --- -------- ------------ ---------- --<br>- ------- ------ --------- -- ------------ -- --- ---- -----<br>------ into ---- ------ ------ ------- --- ----- ---------<br>---- --- -------- -------- --- --- -- ------- --- --- -----<br>-- --- ------ ------- --- --- -------- ---- --------- --<br>---------- -- -------- ----------------,153371,153370.20000000298,152794.079,152803.29999999702,152810.75,153377.322,,21,into
screen,html.Screen,0_4_1_0_1_22,2021-12-03T10:04:53.709Z,,,,,,,,,,,,,,,,11,,,,,,,,,,,,,,384.87800000299467,,response,,,4,E,,,,,Space,keypress(Space),,,,lyrical,----- -- ---- --- -- --- -------- ------------ ---------- --<br>- ------- ------ --------- -- ------------ -- --- ---- -----<br>------ ---- many ------ ------ ------- --- ----- ---------<br>---- --- -------- -------- --- --- -- ------- --- --- -----<br>-- --- ------ ------- --- --- -------- ---- --------- --<br>---------- -- -------- ----------------,153763,153762.20000000298,153360.654,153371.40000000596,153377.322,153777.716,,22,many
screen,html.Screen,0_4_1_0_1_23,2021-12-03T10:04:54.429Z,,,,,,,,,,,,,,,,11,,,,,,,,,,,,,,704.8840000089549,,response,,,4,E,,,,,Space,keypress(Space),,,,lyrical,----- -- ---- --- -- --- -------- ------------ ---------- --<br>- ------- ------ --------- -- ------------ -- --- ---- -----<br>------ ---- ---- oblong ------ ------- --- ----- ---------<br>---- --- -------- -------- --- --- -- ------- --- --- -----<br>-- --- ------ ------- --- --- -------- ---- --------- --<br>---------- -- -------- ----------------,154483.5,154482.60000000894,153761.044,153763.29999999702,153777.716,154494.341,,23,oblong
screen,html.Screen,0_4_1_0_1_24,2021-12-03T10:04:54.812Z,,,,,,,,,,,,,,,,11,,,,,,,,,,,,,,371.7590000089549,,response,,,4,E,,,,,Space,keypress(Space),,,,lyrical,----- -- ---- --- -- --- -------- ------------ ---------- --<br>- ------- ------ --------- -- ------------ -- --- ---- -----<br>------ ---- ---- ------ wooden ------- --- ----- ---------<br>---- --- -------- -------- --- --- -- ------- --- --- -----<br>-- --- ------ ------- --- --- -------- ---- --------- --<br>---------- -- -------- ----------------,154866.90000000596,154866.10000000894,154477.672,154483.79999999702,154494.341,154877.866,,24,wooden
screen,html.Screen,0_4_1_0_1_25,2021-12-03T10:04:55.164Z,,,,,,,,,,,,,,,,11,,,,,,,,,,,,,,340.2340000089316,,response,,,4,E,,,,,Space,keypress(Space),,,,lyrical,----- -- ---- --- -- --- -------- ------------ ---------- --<br>- ------- ------ --------- -- ------------ -- --- ---- -----<br>------ ---- ---- ------ ------ tablets --- ----- ---------<br>---- --- -------- -------- --- --- -- ------- --- --- -----<br>-- --- ------ ------- --- --- -------- ---- --------- --<br>---------- -- -------- ----------------,155219,155218.10000000894,154861.196,154867.20000000298,154877.866,155227.956,,25,tablets
screen,html.Screen,0_4_1_0_1_26,2021-12-03T10:04:55.717Z,,,,,,,,,,,,,,,,11,,,,,,,,,,,,,,542.1440000089351,,response,,,4,E,,,,,Space,keypress(Space),,,,lyrical,----- -- ---- --- -- --- -------- ------------ ---------- --<br>- ------- ------ --------- -- ------------ -- --- ---- -----<br>------ ---- ---- ------ ------ ------- and ----- ---------<br>---- --- -------- -------- --- --- -- ------- --- --- -----<br>-- --- ------ ------- --- --- -------- ---- --------- --<br>---------- -- -------- ----------------,155771,155770.10000000894,155211.286,155219.10000000894,155227.956,155778.073,,26,and
screen,html.Screen,0_4_1_0_1_27,2021-12-03T10:04:56.140Z,,,,,,,,,,,,,,,,11,,,,,,,,,,,,,,416.02700000893674,,response,,,4,E,,,,,Space,keypress(Space),,,,lyrical,----- -- ---- --- -- --- -------- ------------ ---------- --<br>- ------- ------ --------- -- ------------ -- --- ---- -----<br>------ ---- ---- ------ ------ ------- --- other ---------<br>---- --- -------- -------- --- --- -- ------- --- --- -----<br>-- --- ------ ------- --- --- -------- ---- --------- --<br>---------- -- -------- ----------------,156194.90000000596,156194.10000000894,155761.403,155771.29999999702,155778.073,156211.736,,27,other
screen,html.Screen,0_4_1_0_1_28,2021-12-03T10:04:56.532Z,,,,,,,,,,,,,,,,11,,,,,,,,,,,,,,374.2639999999956,,response,,,4,E,,,,,Space,keypress(Space),,,,lyrical,----- -- ---- --- -- --- -------- ------------ ---------- --<br>- ------- ------ --------- -- ------------ -- --- ---- -----<br>------ ---- ---- ------ ------ ------- --- ----- artifacts<br>---- --- -------- -------- --- --- -- ------- --- --- -----<br>-- --- ------ ------- --- --- -------- ---- --------- --<br>---------- -- -------- ----------------,156586.70000000298,156586,156195.063,156195.10000000894,156211.736,156595.005,,28,artifacts
screen,html.Screen,0_4_1_0_1_29,2021-12-03T10:04:57.061Z,,,,,,,,,,,,,,,,11,,,,,,,,,,,,,,519.1950000029756,,response,,,4,E,,,,,Space,keypress(Space),,,,lyrical,----- -- ---- --- -- --- -------- ------------ ---------- --<br>- ------- ------ --------- -- ------------ -- --- ---- -----<br>------ ---- ---- ------ ------ ------- --- ----- ---------<br>from --- -------- -------- --- --- -- ------- --- --- -----<br>-- --- ------ ------- --- --- -------- ---- --------- --<br>---------- -- -------- ----------------,157115.10000000894,157114.20000000298,156578.335,156587.10000000894,156595.005,157128.461,,29,from
screen,html.Screen,0_4_1_0_1_30,2021-12-03T10:04:57.460Z,,,,,,,,,,,,,,,,11,,,,,,,,,,,,,,385.53899999998976,,response,,,4,E,,,,,Space,keypress(Space),,,,lyrical,----- -- ---- --- -- --- -------- ------------ ---------- --<br>- ------- ------ --------- -- ------------ -- --- ---- -----<br>------ ---- ---- ------ ------ ------- --- ----- ---------<br>---- the -------- -------- --- --- -- ------- --- --- -----<br>-- --- ------ ------- --- --- -------- ---- --------- --<br>---------- -- -------- ----------------,157514.79999999702,157514,157111.791,157115.40000000596,157128.461,157528.574,,30,the
screen,html.Screen,0_4_1_0_1_31,2021-12-03T10:04:57.876Z,,,,,,,,,,,,,,,,11,,,,,,,,,,,,,,401.126000002987,,response,,,4,E,,,,,Space,keypress(Space),,,,lyrical,----- -- ---- --- -- --- -------- ------------ ---------- --<br>- ------- ------ --------- -- ------------ -- --- ---- -----<br>------ ---- ---- ------ ------ ------- --- ----- ---------<br>---- --- island's -------- --- --- -- ------- --- --- -----<br>-- --- ------ ------- --- --- -------- ---- --------- --<br>---------- -- -------- ----------------,157930,157929.70000000298,157511.904,157515.10000000894,157528.574,157945.282,,31,island's
screen,html.Screen,0_4_1_0_1_32,2021-12-03T10:04:58.331Z,,,,,,,,,,,,,,,,11,,,,,,,,,,,,,,440.3180000089342,,response,,,4,E,,,,,Space,keypress(Space),,,,lyrical,----- -- ---- --- -- --- -------- ------------ ---------- --<br>- ------- ------ --------- -- ------------ -- --- ---- -----<br>------ ---- ---- ------ ------ ------- --- ----- ---------<br>---- --- -------- history. --- --- -- ------- --- --- -----<br>-- --- ------ ------- --- --- -------- ---- --------- --<br>---------- -- -------- ----------------,158385.90000000596,158385.60000000894,157928.613,157930.10000000894,157945.282,158395.427,,32,history.
screen,html.Screen,0_4_1_0_1_33,2021-12-03T10:04:58.812Z,,,,,,,,,,,,,,,,11,,,,,,,,,,,,,,470.4730000059644,,response,,,4,E,,,,,Space,keypress(Space),,,,lyrical,----- -- ---- --- -- --- -------- ------------ ---------- --<br>- ------- ------ --------- -- ------------ -- --- ---- -----<br>------ ---- ---- ------ ------ ------- --- ----- ---------<br>---- --- -------- -------- The --- -- ------- --- --- -----<br>-- --- ------ ------- --- --- -------- ---- --------- --<br>---------- -- -------- ----------------,158866.70000000298,158865.90000000596,158378.757,158386,158395.427,158878.821,,33,The
screen,html.Screen,0_4_1_0_1_34,2021-12-03T10:04:59.132Z,,,,,,,,,,,,,,,,11,,,,,,,,,,,,,,306.9789999970235,,response,,,4,E,,,,,Space,keypress(Space),,,,lyrical,----- -- ---- --- -- --- -------- ------------ ---------- --<br>- ------- ------ --------- -- ------------ -- --- ---- -----<br>------ ---- ---- ------ ------ ------- --- ----- ---------<br>---- --- -------- -------- --- art -- ------- --- --- -----<br>-- --- ------ ------- --- --- -------- ---- --------- --<br>---------- -- -------- ----------------,159186.60000000894,159185.79999999702,158862.152,158867,158878.821,159195.63,,34,art
screen,html.Screen,0_4_1_0_1_35,2021-12-03T10:04:59.492Z,,,,,,,,,,,,,,,,11,,,,,,,,,,,,,,350.1699999970151,,response,,,4,E,,,,,Space,keypress(Space),,,,lyrical,----- -- ---- --- -- --- -------- ------------ ---------- --<br>- ------- ------ --------- -- ------------ -- --- ---- -----<br>------ ---- ---- ------ ------ ------- --- ----- ---------<br>---- --- -------- -------- --- --- of ------- --- --- -----<br>-- --- ------ ------- --- --- -------- ---- --------- --<br>---------- -- -------- ----------------,159546.70000000298,159545.79999999702,159178.96,159186.90000000596,159195.63,159562.432,,35,of
screen,html.Screen,0_4_1_0_1_36,2021-12-03T10:04:59.788Z,,,,,,,,,,,,,,,,11,,,,,,,,,,,,,,279.46800000595977,,response,,,4,E,,,,,Space,keypress(Space),,,,lyrical,----- -- ---- --- -- --- -------- ------------ ---------- --<br>- ------- ------ --------- -- ------------ -- --- ---- -----<br>------ ---- ---- ------ ------ ------- --- ----- ---------<br>---- --- -------- -------- --- --- -- writing --- --- -----<br>-- --- ------ ------- --- --- -------- ---- --------- --<br>---------- -- -------- ----------------,159842.60000000894,159841.90000000596,159545.761,159546.90000000596,159562.432,159845.962,,36,writing
screen,html.Screen,0_4_1_0_1_37,2021-12-03T10:05:00.188Z,,,,,,,,,,,,,,,,11,,,,,,,,,,,,,,395.83799999702023,,response,,,4,E,,,,,Space,keypress(Space),,,,lyrical,----- -- ---- --- -- --- -------- ------------ ---------- --<br>- ------- ------ --------- -- ------------ -- --- ---- -----<br>------ ---- ---- ------ ------ ------- --- ----- ---------<br>---- --- -------- -------- --- --- -- ------- was --- -----<br>-- --- ------ ------- --- --- -------- ---- --------- --<br>---------- -- -------- ----------------,160242.60000000894,160241.79999999702,159829.289,159842.90000000596,159845.962,160245.952,,37,was
screen,html.Screen,0_4_1_0_1_38,2021-12-03T10:05:00.556Z,,,,,,,,,,,,,,,,11,,,,,,,,,,,,,,363.84799999702955,,response,,,4,E,,,,,Space,keypress(Space),,,,lyrical,----- -- ---- --- -- --- -------- ------------ ---------- --<br>- ------- ------ --------- -- ------------ -- --- ---- -----<br>------ ---- ---- ------ ------ ------- --- ----- ---------<br>---- --- -------- -------- --- --- -- ------- --- not -----<br>-- --- ------ ------- --- --- -------- ---- --------- --<br>---------- -- -------- ----------------,160610.60000000894,160609.79999999702,160229.282,160242.79999999702,160245.952,160612.719,,38,not
screen,html.Screen,0_4_1_0_1_39,2021-12-03T10:05:00.996Z,,,,,,,,,,,,,,,,11,,,,,,,,,,,,,,437.0809999970079,,response,,,4,E,,,,,Space,keypress(Space),,,,lyrical,----- -- ---- --- -- --- -------- ------------ ---------- --<br>- ------- ------ --------- -- ------------ -- --- ---- -----<br>------ ---- ---- ------ ------ ------- --- ----- ---------<br>---- --- -------- -------- --- --- -- ------- --- --- known<br>-- --- ------ ------- --- --- -------- ---- --------- --<br>---------- -- -------- ----------------,161050.60000000894,161049.79999999702,160596.049,160610.90000000596,160612.719,161062.871,,39,known
screen,html.Screen,0_4_1_0_1_40,2021-12-03T10:05:01.404Z,,,,,,,,,,,,,,,,11,,,,,,,,,,,,,,394.8290000029665,,response,,,4,E,,,,,Space,keypress(Space),,,,lyrical,----- -- ---- --- -- --- -------- ------------ ---------- --<br>- ------- ------ --------- -- ------------ -- --- ---- -----<br>------ ---- ---- ------ ------ ------- --- ----- ---------<br>---- --- -------- -------- --- --- -- ------- --- --- -----<br>in --- ------ ------- --- --- -------- ---- --------- --<br>---------- -- -------- ----------------,161458.60000000894,161457.70000000298,161046.2,161050.90000000596,161062.871,161462.919,,40,in
screen,html.Screen,0_4_1_0_1_41,2021-12-03T10:05:01.660Z,,,,,,,,,,,,,,,,11,,,,,,,,,,,,,,250.88099999702536,,response,,,4,E,,,,,Space,keypress(Space),,,,lyrical,----- -- ---- --- -- --- -------- ------------ ---------- --<br>- ------- ------ --------- -- ------------ -- --- ---- -----<br>------ ---- ---- ------ ------ ------- --- ----- ---------<br>---- --- -------- -------- --- --- -- ------- --- --- -----<br>-- any ------ ------- --- --- -------- ---- --------- --<br>---------- -- -------- ----------------,161714.60000000894,161713.79999999702,161446.249,161458.79999999702,161462.919,161729.587,,41,any
screen,html.Screen,0_4_1_0_1_42,2021-12-03T10:05:01.956Z,,,,,,,,,,,,,,,,11,,,,,,,,,,,,,,280.1130000029807,,response,,,4,E,,,,,Space,keypress(Space),,,,lyrical,----- -- ---- --- -- --- -------- ------------ ---------- --<br>- ------- ------ --------- -- ------------ -- --- ---- -----<br>------ ---- ---- ------ ------ ------- --- ----- ---------<br>---- --- -------- -------- --- --- -- ------- --- --- -----<br>-- --- nearby ------- --- --- -------- ---- --------- --<br>---------- -- -------- ----------------,162010.5,162009.70000000298,161712.918,161714.79999999702,161729.587,162013.147,,42,nearby
screen,html.Screen,0_4_1_0_1_43,2021-12-03T10:05:02.236Z,,,,,,,,,,,,,,,,11,,,,,,,,,,,,,,276.553000002983,,response,,,4,E,,,,,Space,keypress(Space),,,,lyrical,----- -- ---- --- -- --- -------- ------------ ---------- --<br>- ------- ------ --------- -- ------------ -- --- ---- -----<br>------ ---- ---- ------ ------ ------- --- ----- ---------<br>---- --- -------- -------- --- --- -- ------- --- --- -----<br>-- --- ------ islands --- --- -------- ---- --------- --<br>---------- -- -------- ----------------,162290.5,162289.70000000298,161996.475,162010.79999999702,162013.147,162296.52,,43,islands
screen,html.Screen,0_4_1_0_1_44,2021-12-03T10:05:02.620Z,,,,,,,,,,,,,,,,11,,,,,,,,,,,,,,377.27999999703025,,response,,,4,E,,,,,Space,keypress(Space),,,,lyrical,----- -- ---- --- -- --- -------- ------------ ---------- --<br>- ------- ------ --------- -- ------------ -- --- ---- -----<br>------ ---- ---- ------ ------ ------- --- ----- ---------<br>---- --- -------- -------- --- --- -- ------- --- --- -----<br>-- --- ------ ------- and --- -------- ---- --------- --<br>---------- -- -------- ----------------,162674.5,162673.79999999702,162279.849,162290.70000000298,162296.52,162679.763,,44,and
screen,html.Screen,0_4_1_0_1_45,2021-12-03T10:05:03.004Z,,,,,,,,,,,,,,,,11,,,,,,,,,,,,,,377.8370000089344,,response,,,4,E,,,,,Space,keypress(Space),,,,lyrical,----- -- ---- --- -- --- -------- ------------ ---------- --<br>- ------- ------ --------- -- ------------ -- --- ---- -----<br>------ ---- ---- ------ ------ ------- --- ----- ---------<br>---- --- -------- -------- --- --- -- ------- --- --- -----<br>-- --- ------ ------- --- the -------- ---- --------- --<br>---------- -- -------- ----------------,163058.40000000596,163057.60000000894,162663.096,162674.79999999702,162679.763,163063.466,,45,the
screen,html.Screen,0_4_1_0_1_46,2021-12-03T10:05:03.412Z,,,,,,,,,,,,,,,,11,,,,,,,,,,,,,,402.1340000089549,,response,,,4,E,,,,,Space,keypress(Space),,,,lyrical,----- -- ---- --- -- --- -------- ------------ ---------- --<br>- ------- ------ --------- -- ------------ -- --- ---- -----<br>------ ---- ---- ------ ------ ------- --- ----- ---------<br>---- --- -------- -------- --- --- -- ------- --- --- -----<br>-- --- ------ ------- --- --- script's ---- --------- --<br>---------- -- -------- ----------------,163466.40000000596,163465.60000000894,163046.793,163058.60000000894,163063.466,163480.174,,46,script's
screen,html.Screen,0_4_1_0_1_47,2021-12-03T10:05:03.764Z,,,,,,,,,,,,,,,,11,,,,,,,,,,,,,,337.52600000298116,,response,,,4,E,,,,,Space,keypress(Space),,,,lyrical,----- -- ---- --- -- --- -------- ------------ ---------- --<br>- ------- ------ --------- -- ------------ -- --- ---- -----<br>------ ---- ---- ------ ------ ------- --- ----- ---------<br>---- --- -------- -------- --- --- -- ------- --- --- -----<br>-- --- ------ ------- --- --- -------- mere --------- --<br>---------- -- -------- ----------------,163818.5,163817.70000000298,163463.503,163466.60000000894,163480.174,163830.205,,47,mere
screen,html.Screen,0_4_1_0_1_48,2021-12-03T10:05:04.228Z,,,,,,,,,,,,,,,,11,,,,,,,,,,,,,,451.49500000299304,,response,,,4,E,,,,,Space,keypress(Space),,,,lyrical,----- -- ---- --- -- --- -------- ------------ ---------- --<br>- ------- ------ --------- -- ------------ -- --- ---- -----<br>------ ---- ---- ------ ------ ------- --- ----- ---------<br>---- --- -------- -------- --- --- -- ------- --- --- -----<br>-- --- ------ ------- --- --- -------- ---- existence --<br>---------- -- -------- ----------------,164282.40000000596,164281.70000000298,163813.535,163818.70000000298,163830.205,164297.002,,48,existence
screen,html.Screen,0_4_1_0_1_49,2021-12-03T10:05:04.676Z,,,,,,,,,,,,,,,,11,,,,,,,,,,,,,,433.098000008933,,response,,,4,E,,,,,Space,keypress(Space),,,,lyrical,----- -- ---- --- -- --- -------- ------------ ---------- --<br>- ------- ------ --------- -- ------------ -- --- ---- -----<br>------ ---- ---- ------ ------ ------- --- ----- ---------<br>---- --- -------- -------- --- --- -- ------- --- --- -----<br>-- --- ------ ------- --- --- -------- ---- --------- is<br>---------- -- -------- ----------------,164730.90000000596,164730.10000000894,164280.332,164282.60000000894,164297.002,164747.121,,49,is
screen,html.Screen,0_4_1_0_1_50,2021-12-03T10:05:05.188Z,,,,,,,,,,,,,,,,11,,,,,,,,,,,,,,494.47900000892696,,response,,,4,E,,,,,Space,keypress(Space),,,,lyrical,----- -- ---- --- -- --- -------- ------------ ---------- --<br>- ------- ------ --------- -- ------------ -- --- ---- -----<br>------ ---- ---- ------ ------ ------- --- ----- ---------<br>---- --- -------- -------- --- --- -- ------- --- --- -----<br>-- --- ------ ------- --- --- -------- ---- --------- --<br>sufficient -- -------- ----------------,165242.40000000596,165241.60000000894,164730.451,164731.10000000894,164747.121,165247.126,,50,sufficient
screen,html.Screen,0_4_1_0_1_51,2021-12-03T10:05:05.476Z,,,,,,,,,,,,,,,,11,,,,,,,,,,,,,,282.4740000089514,,response,,,4,E,,,,,Space,keypress(Space),,,,lyrical,----- -- ---- --- -- --- -------- ------------ ---------- --<br>- ------- ------ --------- -- ------------ -- --- ---- -----<br>------ ---- ---- ------ ------ ------- --- ----- ---------<br>---- --- -------- -------- --- --- -- ------- --- --- -----<br>-- --- ------ ------- --- --- -------- ---- --------- --<br>---------- to -------- ----------------,165530.40000000596,165529.60000000894,165230.457,165242.60000000894,165247.126,165547.291,,51,to
