sender,sender_type,sender_id,timestamp,meta,,Blues,Classical,Country,Dance,Electronic,Folk,Gospel,Hip-Hop,Jazz,Latin,Musical/Film,New-age,Pop,Provo_ID,R&B,Rap,Reggae,Religious,Rock,Soul,Swing,Traditional,age,artist_name,correct,correctResponse,distraction,duration,education,ended_on,familiarity,gender,item,list,music_frequency,offensiveness,pleasantness,preference,response,response_action,snippet_file,song_name,song_rating,sound,text,time_commit,time_end,time_render,time_run,time_show,time_switch,url,word,word_ID
Instructions,html.Page,0_0,2021-11-19T13:21:18.490Z,"{""labjs_version"":""20.2.3"",""labjs_build"":{""flavor"":""production"",""commit"":""7ea907d66ca8aeef8054924ca5d82ffbe11e34e5""},""location"":""https://run.pavlovia.org/mvasilev/lab_music_f/"",""userAgent"":""Mozilla/5.0 (Windows NT 6.1; Win64; x64) AppleWebKit/537.36 (KHTML, like Gecko) Chrome/96.0.4664.45 Safari/537.36"",""platform"":""Win32"",""language"":""en-US"",""locale"":""en-US"",""timeZone"":""Europe/London"",""timezoneOffset"":0,""screen_width"":1920,""screen_height"":1080,""scroll_width"":1920,""scroll_height"":959,""window_innerWidth"":1920,""window_innerHeight"":1007,""devicePixelRatio"":1}",,,,,,,,,,,,,,,,,,,,,,,,,,,,,19528.243000071525,,form submission,,,,,,,,,,,,,,,,29930.5,29929.300000071526,10367.761,10376,10401.057,29936.937,{},,
Headphones,html.Page,0_1,2021-11-19T13:21:21.164Z,,,,,,,,,,,,,,,,,,,,,,,,,,,,,,2666.863000071524,,form submission,,,,,,,,,,,,,,,,32604.300000071526,32603.800000071526,29920.289,29931.300000071526,29936.937,32608.197,,,
Holding screen,html.Screen,0_2_0_0,2021-11-19T13:21:31.160Z,,,,,,,,,,,,,,,,,,,,,,,,,,,,,,10002.086000000003,,timeout,,,,,,,,,,,,,,,,42600,42593.614,32591.524,32604.800000071526,32608.197,42610.283,,,
screen,html.Screen,0_2_0_1_0,2021-11-19T13:21:32.011Z,,,,,,,,,,,,,,,,53,,,,,,,,,,,,,,839.6169999761551,,response,,,99,,,,,,Space,keypress(Space),,,,,When -- ----- -- ------ - ------- --- ----------<br>------------- ------ ------ ---- ---- ------- ----- -- ----<br>-------- ------- -- ---------- --- - --- ----- ----- ----<br>---- --- --- ----- --- ---- ---- ------- ----- ---- -------<br>--- --- -- ----- -- --- ---- -- --- ---- -- ------ ------<br>--- ----- -- ----,43451.39999997616,43449.89999997616,42593.614,42600.300000071526,42610.283,43460.775,,0,When
screen,html.Screen,0_2_0_1_1,2021-11-19T13:21:32.570Z,,,,,,,,,,,,,,,,53,,,,,,,,,,,,,,549.2249999999985,,response,,,99,,,,,,Space,keypress(Space),,,,,---- it ----- -- ------ - ------- --- ----------<br>------------- ------ ------ ---- ---- ------- ----- -- ----<br>-------- ------- -- ---------- --- - --- ----- ----- ----<br>---- --- --- ----- --- ---- ---- ------- ----- ---- -------<br>--- --- -- ----- -- --- ---- -- --- ---- -- ------ ------<br>--- ----- -- ----,44010.89999997616,44010,43444.104,43451.700000047684,43460.775,44027.468,,1,it
screen,html.Screen,0_2_0_1_2,2021-11-19T13:21:33.098Z,,,,,,,,,,,,,,,,53,,,,,,,,,,,,,,510.4319999761574,,response,,,99,,,,,,Space,keypress(Space),,,,,---- -- comes -- ------ - ------- --- ----------<br>------------- ------ ------ ---- ---- ------- ----- -- ----<br>-------- ------- -- ---------- --- - --- ----- ----- ----<br>---- --- --- ----- --- ---- ---- ------- ----- ---- -------<br>--- --- -- ----- -- --- ---- -- --- ---- -- ------ ------<br>--- ----- -- ----,44538.800000071526,44537.89999997616,44010.798,44011.10000002384,44027.468,44544.322,,2,comes
screen,html.Screen,0_2_0_1_3,2021-11-19T13:21:33.578Z,,,,,,,,,,,,,,,,53,,,,,,,,,,,,,,473.47800007152546,,response,,,99,,,,,,Space,keypress(Space),,,,,---- -- ----- to ------ - ------- --- ----------<br>------------- ------ ------ ---- ---- ------- ----- -- ----<br>-------- ------- -- ---------- --- - --- ----- ----- ----<br>---- --- --- ----- --- ---- ---- ------- ----- ---- -------<br>--- --- -- ----- -- --- ---- -- --- ---- -- ------ ------<br>--- ----- -- ----,45018.700000047684,45017.800000071526,44527.652,44539.10000002384,44544.322,45027.784,,3,to
screen,html.Screen,0_2_0_1_4,2021-11-19T13:21:34.067Z,,,,,,,,,,,,,,,,53,,,,,,,,,,,,,,478.0160000715259,,response,,,99,,,,,,Space,keypress(Space),,,,,---- -- ----- -- having - ------- --- ----------<br>------------- ------ ------ ---- ---- ------- ----- -- ----<br>-------- ------- -- ---------- --- - --- ----- ----- ----<br>---- --- --- ----- --- ---- ---- ------- ----- ---- -------<br>--- --- -- ----- -- --- ---- -- --- ---- -- ------ ------<br>--- ----- -- ----,45506.89999997616,45505.800000071526,45011.114,45019.300000071526,45027.784,45511.209,,4,having
screen,html.Screen,0_2_0_1_5,2021-11-19T13:21:34.650Z,,,,,,,,,,,,,,,,53,,,,,,,,,,,,,,578.591000071523,,response,,,99,,,,,,Space,keypress(Space),,,,,---- -- ----- -- ------ a ------- --- ----------<br>------------- ------ ------ ---- ---- ------- ----- -- ----<br>-------- ------- -- ---------- --- - --- ----- ----- ----<br>---- --- --- ----- --- ---- ---- ------- ----- ---- -------<br>--- --- -- ----- -- --- ---- -- --- ---- -- ------ ------<br>--- ----- -- ----,46090.700000047684,46089.800000071526,45494.539,45507.200000047684,45511.209,46094.682,,5,a
screen,html.Screen,0_2_0_1_6,2021-11-19T13:21:35.386Z,,,,,,,,,,,,,,,,53,,,,,,,,,,,,,,731.018000047683,,response,,,99,,,,,,Space,keypress(Space),,,,,---- -- ----- -- ------ - lasting --- ----------<br>------------- ------ ------ ---- ---- ------- ----- -- ----<br>-------- ------- -- ---------- --- - --- ----- ----- ----<br>---- --- --- ----- --- ---- ---- ------- ----- ---- -------<br>--- --- -- ----- -- --- ---- -- --- ---- -- ------ ------<br>--- ----- -- ----,46826.700000047684,46825.700000047684,46078.012,46091.10000002384,46094.682,46828.213,,6,lasting
screen,html.Screen,0_2_0_1_7,2021-11-19T13:21:35.994Z,,,,,,,,,,,,,,,,53,,,,,,,,,,,,,,605.4870000476803,,response,,,99,,,,,,Space,keypress(Space),,,,,---- -- ----- -- ------ - ------- and ----------<br>------------- ------ ------ ---- ---- ------- ----- -- ----<br>-------- ------- -- ---------- --- - --- ----- ----- ----<br>---- --- --- ----- --- ---- ---- ------- ----- ---- -------<br>--- --- -- ----- -- --- ---- -- --- ---- -- ------ ------<br>--- ----- -- ----,47434.60000002384,47433.700000047684,46811.543,46827,46828.213,47445.001,,7,and
screen,html.Screen,0_2_0_1_8,2021-11-19T13:21:36.618Z,,,,,,,,,,,,,,,,53,,,,,,,,,,,,,,612.6990000476872,,response,,,99,,,,,,Space,keypress(Space),,,,,---- -- ----- -- ------ - ------- --- fulfilling<br>------------- ------ ------ ---- ---- ------- ----- -- ----<br>-------- ------- -- ---------- --- - --- ----- ----- ----<br>---- --- --- ----- --- ---- ---- ------- ----- ---- -------<br>--- --- -- ----- -- --- ---- -- --- ---- -- ------ ------<br>--- ----- -- ----,48058.800000071526,48057.700000047684,47428.331,47435,47445.001,48061.816,,8,fulfilling
screen,html.Screen,0_2_0_1_9,2021-11-19T13:21:37.402Z,,,,,,,,,,,,,,,,53,,,,,,,,,,,,,,779.784000023843,,response,,,99,,,,,,Space,keypress(Space),,,,,"---- -- ----- -- ------ - ------- --- ----------<br>relationship, ------ ------ ---- ---- ------- ----- -- ----<br>-------- ------- -- ---------- --- - --- ----- ----- ----<br>---- --- --- ----- --- ---- ---- ------- ----- ---- -------<br>--- --- -- ----- -- --- ---- -- --- ---- -- ------ ------<br>--- ----- -- ----",48842.5,48841.60000002384,48045.146,48059.10000002384,48061.816,48845.361,,9,"relationship,"
screen,html.Screen,0_2_0_1_10,2021-11-19T13:21:38.018Z,,,,,,,,,,,,,,,,53,,,,,,,,,,,,,,612.2390000238447,,response,,,99,,,,,,Space,keypress(Space),,,,,---- -- ----- -- ------ - ------- --- ----------<br>------------- common ------ ---- ---- ------- ----- -- ----<br>-------- ------- -- ---------- --- - --- ----- ----- ----<br>---- --- --- ----- --- ---- ---- ------- ----- ---- -------<br>--- --- -- ----- -- --- ---- -- --- ---- -- ------ ------<br>--- ----- -- ----,49458.5,49457.60000002384,48828.691,48842.800000071526,48845.361,49462.166,,10,common
screen,html.Screen,0_2_0_1_11,2021-11-19T13:21:38.658Z,,,,,,,,,,,,,,,,53,,,,,,,,,,,,,,635.3340000000026,,response,,,99,,,,,,Space,keypress(Space),,,,,---- -- ----- -- ------ - ------- --- ----------<br>------------- ------ wisdom ---- ---- ------- ----- -- ----<br>-------- ------- -- ---------- --- - --- ----- ----- ----<br>---- --- --- ----- --- ---- ---- ------- ----- ---- -------<br>--- --- -- ----- -- --- ---- -- --- ---- -- ------ ------<br>--- ----- -- ----,50098.39999997616,50097.5,49445.496,49458.700000047684,49462.166,50112.289,,11,wisdom
screen,html.Screen,0_2_0_1_12,2021-11-19T13:21:39.282Z,,,,,,,,,,,,,,,,53,,,,,,,,,,,,,,609.211000000003,,response,,,99,,,,,,Space,keypress(Space),,,,,---- -- ----- -- ------ - ------- --- ----------<br>------------- ------ ------ says ---- ------- ----- -- ----<br>-------- ------- -- ---------- --- - --- ----- ----- ----<br>---- --- --- ----- --- ---- ---- ------- ----- ---- -------<br>--- --- -- ----- -- --- ---- -- --- ---- -- ------ ------<br>--- ----- -- ----,50722.300000071526,50721.5,50095.619,50098.60000002384,50112.289,50729.206,,12,says
screen,html.Screen,0_2_0_1_13,2021-11-19T13:21:39.786Z,,,,,,,,,,,,,,,,53,,,,,,,,,,,,,,496.59400007152726,,response,,,99,,,,,,Space,keypress(Space),,,,,---- -- ----- -- ------ - ------- --- ----------<br>------------- ------ ------ ---- that ------- ----- -- ----<br>-------- ------- -- ---------- --- - --- ----- ----- ----<br>---- --- --- ----- --- ---- ---- ------- ----- ---- -------<br>--- --- -- ----- -- --- ---- -- --- ---- -- ------ ------<br>--- ----- -- ----,51226.5,51225.800000071526,50712.535,50722.60000002384,50729.206,51229.271,,13,that
screen,html.Screen,0_2_0_1_14,2021-11-19T13:21:40.338Z,,,,,,,,,,,,,,,,53,,,,,,,,,,,,,,548.1289999761575,,response,,,99,,,,,,Space,keypress(Space),,,,,---- -- ----- -- ------ - ------- --- ----------<br>------------- ------ ------ ---- ---- feeling ----- -- ----<br>-------- ------- -- ---------- --- - --- ----- ----- ----<br>---- --- --- ----- --- ---- ---- ------- ----- ---- -------<br>--- --- -- ----- -- --- ---- -- --- ---- -- ------ ------<br>--- ----- -- ----,51778.200000047684,51777.39999997616,51212.601,51226.89999997616,51229.271,51779.411,,14,feeling
screen,html.Screen,0_2_0_1_15,2021-11-19T13:21:40.906Z,,,,,,,,,,,,,,,,53,,,,,,,,,,,,,,565.8890000715255,,response,,,99,,,,,,Space,keypress(Space),,,,,---- -- ----- -- ------ - ------- --- ----------<br>------------- ------ ------ ---- ---- ------- close -- ----<br>-------- ------- -- ---------- --- - --- ----- ----- ----<br>---- --- --- ----- --- ---- ---- ------- ----- ---- -------<br>--- --- -- ----- -- --- ---- -- --- ---- -- ------ ------<br>--- ----- -- ----,52346.10000002384,52345.300000071526,51762.741,51778.39999997616,51779.411,52362.952,,15,close
screen,html.Screen,0_2_0_1_16,2021-11-19T13:21:41.442Z,,,,,,,,,,,,,,,,53,,,,,,,,,,,,,,518.3480000715281,,response,,,99,,,,,,Space,keypress(Space),,,,,---- -- ----- -- ------ - ------- --- ----------<br>------------- ------ ------ ---- ---- ------- ----- to ----<br>-------- ------- -- ---------- --- - --- ----- ----- ----<br>---- --- --- ----- --- ---- ---- ------- ----- ---- -------<br>--- --- -- ----- -- --- ---- -- --- ---- -- ------ ------<br>--- ----- -- ----,52882.10000002384,52881.300000071526,52346.281,52346.39999997616,52362.952,52896.259,,16,to
screen,html.Screen,0_2_0_1_17,2021-11-19T13:21:41.954Z,,,,,,,,,,,,,,,,53,,,,,,,,,,,,,,496.9410000476855,,response,,,99,,,,,,Space,keypress(Space),,,,,---- -- ----- -- ------ - ------- --- ----------<br>------------- ------ ------ ---- ---- ------- ----- -- your<br>-------- ------- -- ---------- --- - --- ----- ----- ----<br>---- --- --- ----- --- ---- ---- ------- ----- ---- -------<br>--- --- -- ----- -- --- ---- -- --- ---- -- ------ ------<br>--- ----- -- ----,53394,53393.200000047684,52879.59,52882.300000071526,52896.259,53396.521,,17,your
screen,html.Screen,0_2_0_1_18,2021-11-19T13:21:42.610Z,,,,,,,,,,,,,,,,53,,,,,,,,,,,,,,652.6790000476831,,response,,,99,,,,,,Space,keypress(Space),,,,,---- -- ----- -- ------ - ------- --- ----------<br>------------- ------ ------ ---- ---- ------- ----- -- ----<br>romantic ------- -- ---------- --- - --- ----- ----- ----<br>---- --- --- ----- --- ---- ---- ------- ----- ---- -------<br>--- --- -- ----- -- --- ---- -- --- ---- -- ------ ------<br>--- ----- -- ----,54050,54049.200000047684,53379.85,53394.300000071526,53396.521,54063.294,,18,romantic
screen,html.Screen,0_2_0_1_19,2021-11-19T13:21:43.242Z,,,,,,,,,,,,,,,,53,,,,,,,,,,,,,,617.906000047682,,response,,,99,,,,,,Space,keypress(Space),,,,,---- -- ----- -- ------ - ------- --- ----------<br>------------- ------ ------ ---- ---- ------- ----- -- ----<br>-------- partner -- ---------- --- - --- ----- ----- ----<br>---- --- --- ----- --- ---- ---- ------- ----- ---- -------<br>--- --- -- ----- -- --- ---- -- --- ---- -- ------ ------<br>--- ----- -- ----,54682,54681.200000047684,54046.624,54050.300000071526,54063.294,54696.784,,19,partner
screen,html.Screen,0_2_0_1_20,2021-11-19T13:21:43.738Z,,,,,,,,,,,,,,,,53,,,,,,,,,,,,,,480.41600004768407,,response,,,99,,,,,,Space,keypress(Space),,,,,---- -- ----- -- ------ - ------- --- ----------<br>------------- ------ ------ ---- ---- ------- ----- -- ----<br>-------- ------- is ---------- --- - --- ----- ----- ----<br>---- --- --- ----- --- ---- ---- ------- ----- ---- -------<br>--- --- -- ----- -- --- ---- -- --- ---- -- ------ ------<br>--- ----- -- ----,55178,55177.200000047684,54680.114,54682.300000071526,54696.784,55180.224,,20,is
screen,html.Screen,0_2_0_1_21,2021-11-19T13:21:44.394Z,,,,,,,,,,,,,,,,53,,,,,,,,,,,,,,652.8760000238399,,response,,,99,,,,,,Space,keypress(Space),,,,,---- -- ----- -- ------ - ------- --- ----------<br>------------- ------ ------ ---- ---- ------- ----- -- ----<br>-------- ------- -- paramount. --- - --- ----- ----- ----<br>---- --- --- ----- --- ---- ---- ------- ----- ---- -------<br>--- --- -- ----- -- --- ---- -- --- ---- -- ------ ------<br>--- ----- -- ----,55833.89999997616,55833.10000002384,55163.554,55178.200000047684,55180.224,55847.057,,21,paramount.
screen,html.Screen,0_2_0_1_22,2021-11-19T13:21:44.953Z,,,,,,,,,,,,,,,,53,,,,,,,,,,,,,,545.9429999999993,,response,,,99,,,,,,Space,keypress(Space),,,,,---- -- ----- -- ------ - ------- --- ----------<br>------------- ------ ------ ---- ---- ------- ----- -- ----<br>-------- ------- -- ---------- But - --- ----- ----- ----<br>---- --- --- ----- --- ---- ---- ------- ----- ---- -------<br>--- --- -- ----- -- --- ---- -- --- ---- -- ------ ------<br>--- ----- -- ----,56393.89999997616,56393,55830.387,55834.300000071526,55847.057,56397.219,,22,But
screen,html.Screen,0_2_0_1_23,2021-11-19T13:21:45.553Z,,,,,,,,,,,,,,,,53,,,,,,,,,,,,,,595.7810000000027,,response,,,99,,,,,,Space,keypress(Space),,,,,---- -- ----- -- ------ - ------- --- ----------<br>------------- ------ ------ ---- ---- ------- ----- -- ----<br>-------- ------- -- ---------- --- a --- ----- ----- ----<br>---- --- --- ----- --- ---- ---- ------- ----- ---- -------<br>--- --- -- ----- -- --- ---- -- --- ---- -- ------ ------<br>--- ----- -- ----,56993.800000071526,56993,56380.549,56394.10000002384,56397.219,56997.312,,23,a
screen,html.Screen,0_2_0_1_24,2021-11-19T13:21:46.081Z,,,,,,,,,,,,,,,,53,,,,,,,,,,,,,,523.6880000000019,,response,,,99,,,,,,Space,keypress(Space),,,,,---- -- ----- -- ------ - ------- --- ----------<br>------------- ------ ------ ---- ---- ------- ----- -- ----<br>-------- ------- -- ---------- --- - new ----- ----- ----<br>---- --- --- ----- --- ---- ---- ------- ----- ---- -------<br>--- --- -- ----- -- --- ---- -- --- ---- -- ------ ------<br>--- ----- -- ----,57521.700000047684,57521,56980.642,56994,56997.312,57530.819,,24,new
screen,html.Screen,0_2_0_1_25,2021-11-19T13:21:46.625Z,,,,,,,,,,,,,,,,53,,,,,,,,,,,,,,534.080999976155,,response,,,99,,,,,,Space,keypress(Space),,,,,---- -- ----- -- ------ - ------- --- ----------<br>------------- ------ ------ ---- ---- ------- ----- -- ----<br>-------- ------- -- ---------- --- - --- study ----- ----<br>---- --- --- ----- --- ---- ---- ------- ----- ---- -------<br>--- --- -- ----- -- --- ---- -- --- ---- -- ------ ------<br>--- ----- -- ----,58065.800000071526,58064.89999997616,57514.149,57522,57530.819,58080.833,,25,study
screen,html.Screen,0_2_0_1_26,2021-11-19T13:21:47.169Z,,,,,,,,,,,,,,,,53,,,,,,,,,,,,,,528.0669999761594,,response,,,99,,,,,,Space,keypress(Space),,,,,---- -- ----- -- ------ - ------- --- ----------<br>------------- ------ ------ ---- ---- ------- ----- -- ----<br>-------- ------- -- ---------- --- - --- ----- finds ----<br>---- --- --- ----- --- ---- ---- ------- ----- ---- -------<br>--- --- -- ----- -- --- ---- -- --- ---- -- ------ ------<br>--- ----- -- ----,58609.700000047684,58608.89999997616,58064.164,58066,58080.833,58614.463,,26,finds
screen,html.Screen,0_2_0_1_27,2021-11-19T13:21:47.777Z,,,,,,,,,,,,,,,,53,,,,,,,,,,,,,,602.4369999761548,,response,,,99,,,,,,Space,keypress(Space),,,,,---- -- ----- -- ------ - ------- --- ----------<br>------------- ------ ------ ---- ---- ------- ----- -- ----<br>-------- ------- -- ---------- --- - --- ----- ----- that<br>---- --- --- ----- --- ---- ---- ------- ----- ---- -------<br>--- --- -- ----- -- --- ---- -- --- ---- -- ------ ------<br>--- ----- -- ----,59217.60000002384,59216.89999997616,58597.792,58609.89999997616,58614.463,59231.089,,27,that
screen,html.Screen,0_2_0_1_28,2021-11-19T13:21:48.441Z,,,,,,,,,,,,,,,,53,,,,,,,,,,,,,,649.8109999761582,,response,,,99,,,,,,Space,keypress(Space),,,,,---- -- ----- -- ------ - ------- --- ----------<br>------------- ------ ------ ---- ---- ------- ----- -- ----<br>-------- ------- -- ---------- --- - --- ----- ----- ----<br>it's --- --- ----- --- ---- ---- ------- ----- ---- -------<br>--- --- -- ----- -- --- ---- -- --- ---- -- ------ ------<br>--- ----- -- ----,59881.60000002384,59880.89999997616,59214.42,59217.89999997616,59231.089,59898.174,,28,it's
screen,html.Screen,0_2_0_1_29,2021-11-19T13:21:48.942Z,,,,,,,,,,,,,,,,53,,,,,,,,,,,,,,478.6260000715265,,response,,,99,,,,,,Space,keypress(Space),,,,,---- -- ----- -- ------ - ------- --- ----------<br>------------- ------ ------ ---- ---- ------- ----- -- ----<br>-------- ------- -- ---------- --- - --- ----- ----- ----<br>---- not --- ----- --- ---- ---- ------- ----- ---- -------<br>--- --- -- ----- -- --- ---- -- --- ---- -- ------ ------<br>--- ----- -- ----,60377.60000002384,60376.800000071526,59881.502,59881.800000071526,59898.174,60381.502,,29,not
screen,html.Screen,0_2_0_1_30,2021-11-19T13:21:49.430Z,,,,,,,,,,,,,,,,53,,,,,,,,,,,,,,483.29800007152517,,response,,,99,,,,,,Space,keypress(Space),,,,,---- -- ----- -- ------ - ------- --- ----------<br>------------- ------ ------ ---- ---- ------- ----- -- ----<br>-------- ------- -- ---------- --- - --- ----- ----- ----<br>---- --- how ----- --- ---- ---- ------- ----- ---- -------<br>--- --- -- ----- -- --- ---- -- --- ---- -- ------ ------<br>--- ----- -- ----,60865.700000047684,60864.800000071526,60364.832,60377.89999997616,60381.502,60881.607,,30,how
screen,html.Screen,0_2_0_1_31,2021-11-19T13:21:49.934Z,,,,,,,,,,,,,,,,53,,,,,,,,,,,,,,487.49300002383825,,response,,,99,,,,,,Space,keypress(Space),,,,,---- -- ----- -- ------ - ------- --- ----------<br>------------- ------ ------ ---- ---- ------- ----- -- ----<br>-------- ------- -- ---------- --- - --- ----- ----- ----<br>---- --- --- close --- ---- ---- ------- ----- ---- -------<br>--- --- -- ----- -- --- ---- -- --- ---- -- ------ ------<br>--- ----- -- ----,61369.89999997616,61369.10000002384,60864.937,60865.89999997616,60881.607,61381.74,,31,close
screen,html.Screen,0_2_0_1_32,2021-11-19T13:21:50.382Z,,,,,,,,,,,,,,,,53,,,,,,,,,,,,,,434.96000004768575,,response,,,99,,,,,,Space,keypress(Space),,,,,---- -- ----- -- ------ - ------- --- ----------<br>------------- ------ ------ ---- ---- ------- ----- -- ----<br>-------- ------- -- ---------- --- - --- ----- ----- ----<br>---- --- --- ----- you ---- ---- ------- ----- ---- -------<br>--- --- -- ----- -- --- ---- -- --- ---- -- ------ ------<br>--- ----- -- ----,61817.39999997616,61816.700000047684,61365.07,61370.10000002384,61381.74,61831.866,,32,you
screen,html.Screen,0_2_0_1_33,2021-11-19T13:21:50.894Z,,,,,,,,,,,,,,,,53,,,,,,,,,,,,,,496.73400002384005,,response,,,99,,,,,,Space,keypress(Space),,,,,---- -- ----- -- ------ - ------- --- ----------<br>------------- ------ ------ ---- ---- ------- ----- -- ----<br>-------- ------- -- ---------- --- - --- ----- ----- ----<br>---- --- --- ----- --- feel ---- ------- ----- ---- -------<br>--- --- -- ----- -- --- ---- -- --- ---- -- ------ ------<br>--- ----- -- ----,62329.5,62328.60000002384,61815.196,61817.700000047684,61831.866,62331.976,,33,feel
screen,html.Screen,0_2_0_1_34,2021-11-19T13:21:51.462Z,,,,,,,,,,,,,,,,53,,,,,,,,,,,,,,564.6240000238395,,response,,,99,,,,,,Space,keypress(Space),,,,,---- -- ----- -- ------ - ------- --- ----------<br>------------- ------ ------ ---- ---- ------- ----- -- ----<br>-------- ------- -- ---------- --- - --- ----- ----- ----<br>---- --- --- ----- --- ---- that ------- ----- ---- -------<br>--- --- -- ----- -- --- ---- -- --- ---- -- ------ ------<br>--- ----- -- ----,62897.39999997616,62896.60000002384,62315.306,62329.89999997616,62331.976,62898.758,,34,that
screen,html.Screen,0_2_0_1_35,2021-11-19T13:21:51.942Z,,,,,,,,,,,,,,,,53,,,,,,,,,,,,,,477.8420000238402,,response,,,99,,,,,,Space,keypress(Space),,,,,---- -- ----- -- ------ - ------- --- ----------<br>------------- ------ ------ ---- ---- ------- ----- -- ----<br>-------- ------- -- ---------- --- - --- ----- ----- ----<br>---- --- --- ----- --- ---- ---- matters ----- ---- -------<br>--- --- -- ----- -- --- ---- -- --- ---- -- ------ ------<br>--- ----- -- ----,63377.39999997616,63376.60000002384,62882.088,62897.60000002384,62898.758,63382.284,,35,matters
screen,html.Screen,0_2_0_1_36,2021-11-19T13:21:52.406Z,,,,,,,,,,,,,,,,53,,,,,,,,,,,,,,458.21600000000035,,response,,,99,,,,,,Space,keypress(Space),,,,,"---- -- ----- -- ------ - ------- --- ----------<br>------------- ------ ------ ---- ---- ------- ----- -- ----<br>-------- ------- -- ---------- --- - --- ----- ----- ----<br>---- --- --- ----- --- ---- ---- ------- most, ---- -------<br>--- --- -- ----- -- --- ---- -- --- ---- -- ------ ------<br>--- ----- -- ----",63841.5,63840.5,63365.613,63377.60000002384,63382.284,63848.998,,36,"most,"
screen,html.Screen,0_2_0_1_37,2021-11-19T13:21:52.894Z,,,,,,,,,,,,,,,,53,,,,,,,,,,,,,,479.5020000000004,,response,,,99,,,,,,Space,keypress(Space),,,,,---- -- ----- -- ------ - ------- --- ----------<br>------------- ------ ------ ---- ---- ------- ----- -- ----<br>-------- ------- -- ---------- --- - --- ----- ----- ----<br>---- --- --- ----- --- ---- ---- ------- ----- it's -------<br>--- --- -- ----- -- --- ---- -- --- ---- -- ------ ------<br>--- ----- -- ----,64329.300000071526,64328.5,63832.328,63841.800000071526,63848.998,64332.346,,37,it's
screen,html.Screen,0_2_0_1_38,2021-11-19T13:21:53.358Z,,,,,,,,,,,,,,,,53,,,,,,,,,,,,,,460.15400000000227,,response,,,99,,,,,,Space,keypress(Space),,,,,---- -- ----- -- ------ - ------- --- ----------<br>------------- ------ ------ ---- ---- ------- ----- -- ----<br>-------- ------- -- ---------- --- - --- ----- ----- ----<br>---- --- --- ----- --- ---- ---- ------- ----- ---- whether<br>--- --- -- ----- -- --- ---- -- --- ---- -- ------ ------<br>--- ----- -- ----,64793.200000047684,64792.5,64315.677,64329.5,64332.346,64799.337,,38,whether
screen,html.Screen,0_2_0_1_39,2021-11-19T13:21:53.830Z,,,,,,,,,,,,,,,,53,,,,,,,,,,,,,,465.0629999761586,,response,,,99,,,,,,Space,keypress(Space),,,,,---- -- ----- -- ------ - ------- --- ----------<br>------------- ------ ------ ---- ---- ------- ----- -- ----<br>-------- ------- -- ---------- --- - --- ----- ----- ----<br>---- --- --- ----- --- ---- ---- ------- ----- ---- -------<br>you --- -- ----- -- --- ---- -- --- ---- -- ------ ------<br>--- ----- -- ----,65265.200000047684,65264.39999997616,64782.665,64793.5,64799.337,65282.707,,39,you
screen,html.Screen,0_2_0_1_40,2021-11-19T13:21:54.310Z,,,,,,,,,,,,,,,,53,,,,,,,,,,,,,,461.79299999999785,,response,,,99,,,,,,Space,keypress(Space),,,,,---- -- ----- -- ------ - ------- --- ----------<br>------------- ------ ------ ---- ---- ------- ----- -- ----<br>-------- ------- -- ---------- --- - --- ----- ----- ----<br>---- --- --- ----- --- ---- ---- ------- ----- ---- -------<br>--- are -- ----- -- --- ---- -- --- ---- -- ------ ------<br>--- ----- -- ----,65745.20000004768,65744.5,65266.037,65265.39999997616,65282.707,65749.405,,40,are
screen,html.Screen,0_2_0_1_41,2021-11-19T13:21:54.814Z,,,,,,,,,,,,,,,,53,,,,,,,,,,,,,,498.9949999761593,,response,,,99,,,,,,Space,keypress(Space),,,,,---- -- ----- -- ------ - ------- --- ----------<br>------------- ------ ------ ---- ---- ------- ----- -- ----<br>-------- ------- -- ---------- --- - --- ----- ----- ----<br>---- --- --- ----- --- ---- ---- ------- ----- ---- -------<br>--- --- as ----- -- --- ---- -- --- ---- -- ------ ------<br>--- ----- -- ----,66249.20000004768,66248.39999997616,65732.736,65745.5,65749.405,66266.31,,41,as
screen,html.Screen,0_2_0_1_42,2021-11-19T13:21:55.310Z,,,,,,,,,,,,,,,,53,,,,,,,,,,,,,,477.9900000715279,,response,,,99,,,,,,Space,keypress(Space),,,,,---- -- ----- -- ------ - ------- --- ----------<br>------------- ------ ------ ---- ---- ------- ----- -- ----<br>-------- ------- -- ---------- --- - --- ----- ----- ----<br>---- --- --- ----- --- ---- ---- ------- ----- ---- -------<br>--- --- -- close -- --- ---- -- --- ---- -- ------ ------<br>--- ----- -- ----,66745.10000002384,66744.30000007153,66249.639,66249.39999997616,66266.31,66749.704,,42,close
screen,html.Screen,0_2_0_1_43,2021-11-19T13:21:55.742Z,,,,,,,,,,,,,,,,53,,,,,,,,,,,,,,426.59600007152767,,response,,,99,,,,,,Space,keypress(Space),,,,,---- -- ----- -- ------ - ------- --- ----------<br>------------- ------ ------ ---- ---- ------- ----- -- ----<br>-------- ------- -- ---------- --- - --- ----- ----- ----<br>---- --- --- ----- --- ---- ---- ------- ----- ---- -------<br>--- --- -- ----- as --- ---- -- --- ---- -- ------ ------<br>--- ----- -- ----,67177.20000004768,67176.30000007153,66733.034,66745.30000007153,66749.704,67183.145,,43,as
screen,html.Screen,0_2_0_1_44,2021-11-19T13:21:56.141Z,,,,,,,,,,,,,,,,53,,,,,,,,,,,,,,393.1550000715215,,response,,,99,,,,,,Space,keypress(Space),,,,,---- -- ----- -- ------ - ------- --- ----------<br>------------- ------ ------ ---- ---- ------- ----- -- ----<br>-------- ------- -- ---------- --- - --- ----- ----- ----<br>---- --- --- ----- --- ---- ---- ------- ----- ---- -------<br>--- --- -- ----- -- you ---- -- --- ---- -- ------ ------<br>--- ----- -- ----,67577.10000002384,67576.30000007153,67166.475,67177.5,67183.145,67583.248,,44,you
screen,html.Screen,0_2_0_1_45,2021-11-19T13:21:56.613Z,,,,,,,,,,,,,,,,53,,,,,,,,,,,,,,465.0520000715187,,response,,,99,,,,,,Space,keypress(Space),,,,,---- -- ----- -- ------ - ------- --- ----------<br>------------- ------ ------ ---- ---- ------- ----- -- ----<br>-------- ------- -- ---------- --- - --- ----- ----- ----<br>---- --- --- ----- --- ---- ---- ------- ----- ---- -------<br>--- --- -- ----- -- --- want -- --- ---- -- ------ ------<br>--- ----- -- ----,68049.10000002384,68048.30000007153,67566.578,67577.30000007153,67583.248,68066.561,,45,want
screen,html.Screen,0_2_0_1_46,2021-11-19T13:21:57.077Z,,,,,,,,,,,,,,,,53,,,,,,,,,,,,,,445.6390000476822,,response,,,99,,,,,,Space,keypress(Space),,,,,---- -- ----- -- ------ - ------- --- ----------<br>------------- ------ ------ ---- ---- ------- ----- -- ----<br>-------- ------- -- ---------- --- - --- ----- ----- ----<br>---- --- --- ----- --- ---- ---- ------- ----- ---- -------<br>--- --- -- ----- -- --- ---- to --- ---- -- ------ ------<br>--- ----- -- ----,68512.89999997616,68512.20000004768,68049.893,68049.30000007153,68066.561,68516.822,,46,to
screen,html.Screen,0_2_0_1_47,2021-11-19T13:21:57.605Z,,,,,,,,,,,,,,,,53,,,,,,,,,,,,,,523.3780000476836,,response,,,99,,,,,,Space,keypress(Space),,,,,"---- -- ----- -- ------ - ------- --- ----------<br>------------- ------ ------ ---- ---- ------- ----- -- ----<br>-------- ------- -- ---------- --- - --- ----- ----- ----<br>---- --- --- ----- --- ---- ---- ------- ----- ---- -------<br>--- --- -- ----- -- --- ---- -- be, ---- -- ------ ------<br>--- ----- -- ----",69040.89999997616,69040.20000004768,68500.151,68513.20000004768,68516.822,69050.381,,47,"be,"
screen,html.Screen,0_2_0_1_48,2021-11-19T13:21:58.093Z,,,,,,,,,,,,,,,,53,,,,,,,,,,,,,,477.81900004768977,,response,,,99,,,,,,Space,keypress(Space),,,,,---- -- ----- -- ------ - ------- --- ----------<br>------------- ------ ------ ---- ---- ------- ----- -- ----<br>-------- ------- -- ---------- --- - --- ----- ----- ----<br>---- --- --- ----- --- ---- ---- ------- ----- ---- -------<br>--- --- -- ----- -- --- ---- -- --- even -- ------ ------<br>--- ----- -- ----,69528.89999997616,69528.20000004768,69033.709,69041.20000004768,69050.381,69533.715,,48,even
screen,html.Screen,0_2_0_1_49,2021-11-19T13:21:58.613Z,,,,,,,,,,,,,,,,53,,,,,,,,,,,,,,514.3850000238454,,response,,,99,,,,,,Space,keypress(Space),,,,,---- -- ----- -- ------ - ------- --- ----------<br>------------- ------ ------ ---- ---- ------- ----- -- ----<br>-------- ------- -- ---------- --- - --- ----- ----- ----<br>---- --- --- ----- --- ---- ---- ------- ----- ---- -------<br>--- --- -- ----- -- --- ---- -- --- ---- if ------ ------<br>--- ----- -- ----,70048.89999997616,70048.10000002384,69517.045,69529.20000004768,69533.715,70050.493,,49,if
screen,html.Screen,0_2_0_1_50,2021-11-19T13:21:59.101Z,,,,,,,,,,,,,,,,53,,,,,,,,,,,,,,485.5069999999978,,response,,,99,,,,,,Space,keypress(Space),,,,,---- -- ----- -- ------ - ------- --- ----------<br>------------- ------ ------ ---- ---- ------- ----- -- ----<br>-------- ------- -- ---------- --- - --- ----- ----- ----<br>---- --- --- ----- --- ---- ---- ------- ----- ---- -------<br>--- --- -- ----- -- --- ---- -- --- ---- -- that's ------<br>--- ----- -- ----,70536.80000007153,70536,70033.823,70049.10000002384,70050.493,70550.637,,50,that's
screen,html.Screen,0_2_0_1_51,2021-11-19T13:21:59.645Z,,,,,,,,,,,,,,,,53,,,,,,,,,,,,,,529.3629999999976,,response,,,99,,,,,,Space,keypress(Space),,,,,---- -- ----- -- ------ - ------- --- ----------<br>------------- ------ ------ ---- ---- ------- ----- -- ----<br>-------- ------- -- ---------- --- - --- ----- ----- ----<br>---- --- --- ----- --- ---- ---- ------- ----- ---- -------<br>--- --- -- ----- -- --- ---- -- --- ---- -- ------ really<br>--- ----- -- ----,71080.80000007153,71080,70533.967,70537.10000002384,70550.637,71084.086,,51,really
screen,html.Screen,0_2_0_1_52,2021-11-19T13:22:00.165Z,,,,,,,,,,,,,,,,53,,,,,,,,,,,,,,516.2140000715299,,response,,,99,,,,,,Space,keypress(Space),,,,,---- -- ----- -- ------ - ------- --- ----------<br>------------- ------ ------ ---- ---- ------- ----- -- ----<br>-------- ------- -- ---------- --- - --- ----- ----- ----<br>---- --- --- ----- --- ---- ---- ------- ----- ---- -------<br>--- --- -- ----- -- --- ---- -- --- ---- -- ------ ------<br>not ----- -- ----,71601.10000002384,71600.30000007153,71067.416,71081,71084.086,71617.624,,52,not
screen,html.Screen,0_2_0_1_53,2021-11-19T13:22:00.645Z,,,,,,,,,,,,,,,,53,,,,,,,,,,,,,,462.275999976162,,response,,,99,,,,,,Space,keypress(Space),,,,,---- -- ----- -- ------ - ------- --- ----------<br>------------- ------ ------ ---- ---- ------- ----- -- ----<br>-------- ------- -- ---------- --- - --- ----- ----- ----<br>---- --- --- ----- --- ---- ---- ------- ----- ---- -------<br>--- --- -- ----- -- --- ---- -- --- ---- -- ------ ------<br>--- close -- ----,72080.70000004768,72079.89999997616,71600.953,71601.30000007153,71617.624,72084.236,,53,close
screen,html.Screen,0_2_0_1_54,2021-11-19T13:22:01.101Z,,,,,,,,,,,,,,,,53,,,,,,,,,,,,,,451.6639999761537,,response,,,99,,,,,,Space,keypress(Space),,,,,---- -- ----- -- ------ - ------- --- ----------<br>------------- ------ ------ ---- ---- ------- ----- -- ----<br>-------- ------- -- ---------- --- - --- ----- ----- ----<br>---- --- --- ----- --- ---- ---- ------- ----- ---- -------<br>--- --- -- ----- -- --- ---- -- --- ---- -- ------ ------<br>--- ----- at ----,72536.70000004768,72535.89999997616,72067.567,72081,72084.236,72551.173,,54,at
screen,html.Screen,0_2_0_1_55,2021-11-19T13:22:01.605Z,,,,,,,,,,,,,,,,53,,,,,,,,,,,,,,488.7269999761629,,response,,,99,,,,,,Space,keypress(Space),,,,,---- -- ----- -- ------ - ------- --- ----------<br>------------- ------ ------ ---- ---- ------- ----- -- ----<br>-------- ------- -- ---------- --- - --- ----- ----- ----<br>---- --- --- ----- --- ---- ---- ------- ----- ---- -------<br>--- --- -- ----- -- --- ---- -- --- ---- -- ------ ------<br>--- ----- -- all.,73040.70000004768,73039.89999997616,72534.502,72536.89999997616,72551.173,73051.258,,55,all.
Item 99,flow.Loop,0_2_0_1,2021-11-19T13:22:01.609Z,,,,,,,,,,,,,,,,,,,,,,,,,,,,,,30429.616999976155,,completion,,,,F,,,,,,,,,,silence,,73045.10000002384,73039.89999997616,42593.614,42600.300000071526,42610.283,73051.258,,,
Question 1,html.Screen,0_2_0_2,2021-11-19T13:22:05.277Z,,,,,,,,,,,,,,,,,,,,,,,,,,,true,FALSE,,3660.2419999999984,,response,,,99,F,,,,,FALSE,click #choice-2,,,,silence,,76712.89999997616,76711.5,73034.588,73045.30000007153,73051.258,76718.842,,,
Question 2,html.Screen,0_2_0_3,2021-11-19T13:22:08.501Z,,,,,,,,,,,,,,,,,,,,,,,,,,,true,TRUE,,3216.4580000715214,,response,,,99,F,,,,,TRUE,click #choice-1,,,,silence,,79936.5,79935.30000007153,76702.171,76713.10000002384,76718.842,79936.301,,,
Item 99,flow.Sequence,0_2_0,2021-11-19T13:22:08.501Z,,,,,,,,,,,,,,,,,,,,,,,,,,,,,,47327.103000071525,,completion,,,,,,,,,,,,,,,,79936.89999997616,79935.30000007153,32591.524,32604.700000047684,32608.197,79936.301,,,
Holding screen,html.Screen,0_2_1_0,2021-11-19T13:22:18.487Z,,,,,,,,,,,,,,,,,,,,,,,,,,,,,,10002.262999999992,,timeout,,,,,,,,,,,,,,,,89923,89921.894,79919.629,79937.20000004768,79936.301,89938.564,,,
screen,html.Screen,0_2_1_1_0,2021-11-19T13:22:19.436Z,,,,,,,,,,,,,,,,54,,,,,,,,,,,,,,932.6360000476852,,response,,,100,,,,,,Space,keypress(Space),,,,,At --- ---- --- ------ ----- ------- ---- -- --- ------- --<br>------- ---------- ------ -- ----- -- ----- -- ---- ------<br>--- ----- --- --- ------ -------- ----- --- ------ ----- --<br>----- ----- ---------- --- --- ------ ------ ---- -- ------<br>------- --- ------ ----- --- ---- ------- -- ---- --- --<br>------- ------,90872.10000002384,90871.20000004768,89921.894,89923.39999997616,89938.564,90872.323,,0,At
screen,html.Screen,0_2_1_1_1,2021-11-19T13:22:19.980Z,,,,,,,,,,,,,,,,54,,,,,,,,,,,,,,542.3770000476798,,response,,,100,,,,,,Space,keypress(Space),,,,,-- the ---- --- ------ ----- ------- ---- -- --- ------- --<br>------- ---------- ------ -- ----- -- ----- -- ---- ------<br>--- ----- --- --- ------ -------- ----- --- ------ ----- --<br>----- ----- ---------- --- --- ------ ------ ---- -- ------<br>------- --- ------ ----- --- ---- ------- -- ---- --- --<br>------- ------,91415.39999997616,91414.70000004768,90855.652,90872.39999997616,90872.323,91422.373,,1,the
screen,html.Screen,0_2_1_1_2,2021-11-19T13:22:20.540Z,,,,,,,,,,,,,,,,54,,,,,,,,,,,,,,552.227000023835,,response,,,100,,,,,,Space,keypress(Space),,,,,-- --- time --- ------ ----- ------- ---- -- --- ------- --<br>------- ---------- ------ -- ----- -- ----- -- ---- ------<br>--- ----- --- --- ------ -------- ----- --- ------ ----- --<br>----- ----- ---------- --- --- ------ ------ ---- -- ------<br>------- --- ------ ----- --- ---- ------- -- ---- --- --<br>------- ------,91975.39999997616,91974.60000002384,91405.703,91415.60000002384,91422.373,91989.164,,2,time
screen,html.Screen,0_2_1_1_3,2021-11-19T13:22:21.028Z,,,,,,,,,,,,,,,,54,,,,,,,,,,,,,,473.43600002383755,,response,,,100,,,,,,Space,keypress(Space),,,,,-- --- ---- the ------ ----- ------- ---- -- --- ------- --<br>------- ---------- ------ -- ----- -- ----- -- ---- ------<br>--- ----- --- --- ------ -------- ----- --- ------ ----- --<br>----- ----- ---------- --- --- ------ ------ ---- -- ------<br>------- --- ------ ----- --- ---- ------- -- ---- --- --<br>------- ------,92463.30000007153,92462.60000002384,91972.494,91975.60000002384,91989.164,92472.62,,3,the
screen,html.Screen,0_2_1_1_4,2021-11-19T13:22:21.588Z,,,,,,,,,,,,,,,,54,,,,,,,,,,,,,,549.8800000000047,,response,,,100,,,,,,Space,keypress(Space),,,,,-- --- ---- --- French ----- ------- ---- -- --- ------- --<br>------- ---------- ------ -- ----- -- ----- -- ---- ------<br>--- ----- --- --- ------ -------- ----- --- ------ ----- --<br>----- ----- ---------- --- --- ------ ------ ---- -- ------<br>------- --- ------ ----- --- ---- ------- -- ---- --- --<br>------- ------,93023.30000007153,93022.5,92455.95,92463.60000002384,92472.62,93039.411,,4,French
screen,html.Screen,0_2_1_1_5,2021-11-19T13:22:22.100Z,,,,,,,,,,,,,,,,54,,,,,,,,,,,,,,495.0890000000072,,response,,,100,,,,,,Space,keypress(Space),,,,,-- --- ---- --- ------ crown ------- ---- -- --- ------- --<br>------- ---------- ------ -- ----- -- ----- -- ---- ------<br>--- ----- --- --- ------ -------- ----- --- ------ ----- --<br>----- ----- ---------- --- --- ------ ------ ---- -- ------<br>------- --- ------ ----- --- ---- ------- -- ---- --- --<br>------- ------,93535.5,93534.5,93022.741,93024.89999997616,93039.411,93539.571,,5,crown
screen,html.Screen,0_2_1_1_6,2021-11-19T13:22:22.764Z,,,,,,,,,,,,,,,,54,,,,,,,,,,,,,,658.9290000000037,,response,,,100,,,,,,Space,keypress(Space),,,,,-- --- ---- --- ------ ----- secured ---- -- --- ------- --<br>------- ---------- ------ -- ----- -- ----- -- ---- ------<br>--- ----- --- --- ------ -------- ----- --- ------ ----- --<br>----- ----- ---------- --- --- ------ ------ ---- -- ------<br>------- --- ------ ----- --- ---- ------- -- ---- --- --<br>------- ------,94199.20000004768,94198.5,93522.901,93535.70000004768,93539.571,94206.363,,6,secured
screen,html.Screen,0_2_1_1_7,2021-11-19T13:22:23.332Z,,,,,,,,,,,,,,,,54,,,,,,,,,,,,,,560.1370000000024,,response,,,100,,,,,,Space,keypress(Space),,,,,-- --- ---- --- ------ ----- ------- much -- --- ------- --<br>------- ---------- ------ -- ----- -- ----- -- ---- ------<br>--- ----- --- --- ------ -------- ----- --- ------ ----- --<br>----- ----- ---------- --- --- ------ ------ ---- -- ------<br>------- --- ------ ----- --- ---- ------- -- ---- --- --<br>------- ------,94767.20000004768,94766.5,94189.693,94199.39999997616,94206.363,94773.158,,7,much
screen,html.Screen,0_2_1_1_8,2021-11-19T13:22:23.780Z,,,,,,,,,,,,,,,,54,,,,,,,,,,,,,,441.24199997616233,,response,,,100,,,,,,Space,keypress(Space),,,,,-- --- ---- --- ------ ----- ------- ---- of --- ------- --<br>------- ---------- ------ -- ----- -- ----- -- ---- ------<br>--- ----- --- --- ------ -------- ----- --- ------ ----- --<br>----- ----- ---------- --- --- ------ ------ ---- -- ------<br>------- --- ------ ----- --- ---- ------- -- ---- --- --<br>------- ------,95215.20000004768,95214.39999997616,94756.488,94767.39999997616,94773.158,95223.303,,8,of
screen,html.Screen,0_2_1_1_9,2021-11-19T13:22:24.219Z,,,,,,,,,,,,,,,,54,,,,,,,,,,,,,,431.09699997615826,,response,,,100,,,,,,Space,keypress(Space),,,,,-- --- ---- --- ------ ----- ------- ---- -- its ------- --<br>------- ---------- ------ -- ----- -- ----- -- ---- ------<br>--- ----- --- --- ------ -------- ----- --- ------ ----- --<br>----- ----- ---------- --- --- ------ ------ ---- -- ------<br>------- --- ------ ----- --- ---- ------- -- ---- --- --<br>------- ------,95655.10000002384,95654.39999997616,95206.633,95215.30000007153,95223.303,95656.73,,9,its
screen,html.Screen,0_2_1_1_10,2021-11-19T13:22:24.691Z,,,,,,,,,,,,,,,,54,,,,,,,,,,,,,,469.57000007152965,,response,,,100,,,,,,Space,keypress(Space),,,,,-- --- ---- --- ------ ----- ------- ---- -- --- revenue --<br>------- ---------- ------ -- ----- -- ----- -- ---- ------<br>--- ----- --- --- ------ -------- ----- --- ------ ----- --<br>----- ----- ---------- --- --- ------ ------ ---- -- ------<br>------- --- ------ ----- --- ---- ------- -- ---- --- --<br>------- ------,96127.10000002384,96126.30000007153,95640.06,95655.39999997616,95656.73,96140.169,,10,revenue
screen,html.Screen,0_2_1_1_11,2021-11-19T13:22:25.179Z,,,,,,,,,,,,,,,,54,,,,,,,,,,,,,,474.0310000476893,,response,,,100,,,,,,Space,keypress(Space),,,,,-- --- ---- --- ------ ----- ------- ---- -- --- ------- by<br>------- ---------- ------ -- ----- -- ----- -- ---- ------<br>--- ----- --- --- ------ -------- ----- --- ------ ----- --<br>----- ----- ---------- --- --- ------ ------ ---- -- ------<br>------- --- ------ ----- --- ---- ------- -- ---- --- --<br>------- ------,96615,96614.20000004768,96123.499,96127.39999997616,96140.169,96623.622,,11,by
screen,html.Screen,0_2_1_1_12,2021-11-19T13:22:25.684Z,,,,,,,,,,,,,,,,54,,,,,,,,,,,,,,494.5780000476807,,response,,,100,,,,,,Space,keypress(Space),,,,,-- --- ---- --- ------ ----- ------- ---- -- --- ------- --<br>issuing ---------- ------ -- ----- -- ----- -- ---- ------<br>--- ----- --- --- ------ -------- ----- --- ------ ----- --<br>----- ----- ---------- --- --- ------ ------ ---- -- ------<br>------- --- ------ ----- --- ---- ------- -- ---- --- --<br>------- ------,97119.20000004768,97118.20000004768,96606.952,96615.30000007153,96623.622,97123.745,,12,issuing
screen,html.Screen,0_2_1_1_13,2021-11-19T13:22:26.187Z,,,,,,,,,,,,,,,,54,,,,,,,,,,,,,,498.4550000476884,,response,,,100,,,,,,Space,keypress(Space),,,,,-- --- ---- --- ------ ----- ------- ---- -- --- ------- --<br>------- government ------ -- ----- -- ----- -- ---- ------<br>--- ----- --- --- ------ -------- ----- --- ------ ----- --<br>----- ----- ---------- --- --- ------ ------ ---- -- ------<br>------- --- ------ ----- --- ---- ------- -- ---- --- --<br>------- ------,97623,97622.20000004768,97107.075,97119.39999997616,97123.745,97640.572,,13,government
screen,html.Screen,0_2_1_1_14,2021-11-19T13:22:26.755Z,,,,,,,,,,,,,,,,54,,,,,,,,,,,,,,549.5280000238417,,response,,,100,,,,,,Space,keypress(Space),,,,,-- --- ---- --- ------ ----- ------- ---- -- --- ------- --<br>------- ---------- bonds. -- ----- -- ----- -- ---- ------<br>--- ----- --- --- ------ -------- ----- --- ------ ----- --<br>----- ----- ---------- --- --- ------ ------ ---- -- ------<br>------- --- ------ ----- --- ---- ------- -- ---- --- --<br>------- ------,98191,98190.10000002384,97623.902,97623.20000004768,97640.572,98207.247,,14,bonds.
screen,html.Screen,0_2_1_1_15,2021-11-19T13:22:27.251Z,,,,,,,,,,,,,,,,54,,,,,,,,,,,,,,478.9530000476807,,response,,,100,,,,,,Space,keypress(Space),,,,,-- --- ---- --- ------ ----- ------- ---- -- --- ------- --<br>------- ---------- ------ In ----- -- ----- -- ---- ------<br>--- ----- --- --- ------ -------- ----- --- ------ ----- --<br>----- ----- ---------- --- --- ------ ------ ---- -- ------<br>------- --- ------ ----- --- ---- ------- -- ---- --- --<br>------- ------,98686.89999997616,98686.20000004768,98190.578,98191.20000004768,98207.247,98690.878,,15,In
screen,html.Screen,0_2_1_1_16,2021-11-19T13:22:27.835Z,,,,,,,,,,,,,,,,54,,,,,,,,,,,,,,579.2220000238449,,response,,,100,,,,,,Space,keypress(Space),,,,,"-- --- ---- --- ------ ----- ------- ---- -- --- ------- --<br>------- ---------- ------ -- 1727, -- ----- -- ---- ------<br>--- ----- --- --- ------ -------- ----- --- ------ ----- --<br>----- ----- ---------- --- --- ------ ------ ---- -- ------<br>------- --- ------ ----- --- ---- ------- -- ---- --- --<br>------- ------",99270.89999997616,99270.10000002384,98674.207,98687.20000004768,98690.878,99274.285,,16,"1727,"
screen,html.Screen,0_2_1_1_17,2021-11-19T13:22:28.331Z,,,,,,,,,,,,,,,,54,,,,,,,,,,,,,,491.81500002383837,,response,,,100,,,,,,Space,keypress(Space),,,,,-- --- ---- --- ------ ----- ------- ---- -- --- ------- --<br>------- ---------- ------ -- ----- in ----- -- ---- ------<br>--- ----- --- --- ------ -------- ----- --- ------ ----- --<br>----- ----- ---------- --- --- ------ ------ ---- -- ------<br>------- --- ------ ----- --- ---- ------- -- ---- --- --<br>------- ------,99766.80000007153,99766.10000002384,99257.615,99271.20000004768,99274.285,99774.372,,17,in
screen,html.Screen,0_2_1_1_18,2021-11-19T13:22:28.867Z,,,,,,,,,,,,,,,,54,,,,,,,,,,,,,,527.7280000238388,,response,,,100,,,,,,Space,keypress(Space),,,,,-- --- ---- --- ------ ----- ------- ---- -- --- ------- --<br>------- ---------- ------ -- ----- -- order -- ---- ------<br>--- ----- --- --- ------ -------- ----- --- ------ ----- --<br>----- ----- ---------- --- --- ------ ------ ---- -- ------<br>------- --- ------ ----- --- ---- ------- -- ---- --- --<br>------- ------,100302.80000007153,100302.10000002384,99757.702,99767.10000002384,99774.372,100307.845,,18,order
screen,html.Screen,0_2_1_1_19,2021-11-19T13:22:29.467Z,,,,,,,,,,,,,,,,54,,,,,,,,,,,,,,594.4550000715244,,response,,,100,,,,,,Space,keypress(Space),,,,,-- --- ---- --- ------ ----- ------- ---- -- --- ------- --<br>------- ---------- ------ -- ----- -- ----- to ---- ------<br>--- ----- --- --- ------ -------- ----- --- ------ ----- --<br>----- ----- ---------- --- --- ------ ------ ---- -- ------<br>------- --- ------ ----- --- ---- ------- -- ---- --- --<br>------- ------,100903.10000002384,100902.30000007153,100291.175,100303,100307.845,100907.967,,19,to
screen,html.Screen,0_2_1_1_20,2021-11-19T13:22:29.955Z,,,,,,,,,,,,,,,,54,,,,,,,,,,,,,,482.0329999999958,,response,,,100,,,,,,Space,keypress(Space),,,,,-- --- ---- --- ------ ----- ------- ---- -- --- ------- --<br>------- ---------- ------ -- ----- -- ----- -- save ------<br>--- ----- --- --- ------ -------- ----- --- ------ ----- --<br>----- ----- ---------- --- --- ------ ------ ---- -- ------<br>------- --- ------ ----- --- ---- ------- -- ---- --- --<br>------- ------,101390.70000004768,101390,100891.297,100903.39999997616,100907.967,101408.176,,20,save
screen,html.Screen,0_2_1_1_21,2021-11-19T13:22:30.403Z,,,,,,,,,,,,,,,,54,,,,,,,,,,,,,,429.7239999761514,,response,,,100,,,,,,Space,keypress(Space),,,,,"-- --- ---- --- ------ ----- ------- ---- -- --- ------- --<br>------- ---------- ------ -- ----- -- ----- -- ---- money,<br>--- ----- --- --- ------ -------- ----- --- ------ ----- --<br>----- ----- ---------- --- --- ------ ------ ---- -- ------<br>------- --- ------ ----- --- ---- ------- -- ---- --- --<br>------- ------",101838.70000004768,101837.89999997616,101391.505,101390.89999997616,101408.176,101841.574,,21,"money,"
screen,html.Screen,0_2_1_1_22,2021-11-19T13:22:30.859Z,,,,,,,,,,,,,,,,54,,,,,,,,,,,,,,452.2260000715323,,response,,,100,,,,,,Space,keypress(Space),,,,,-- --- ---- --- ------ ----- ------- ---- -- --- ------- --<br>------- ---------- ------ -- ----- -- ----- -- ---- ------<br>the ----- --- --- ------ -------- ----- --- ------ ----- --<br>----- ----- ---------- --- --- ------ ------ ---- -- ------<br>------- --- ------ ----- --- ---- ------- -- ---- --- --<br>------- ------,102294.60000002384,102293.80000007153,101824.904,101839,101841.574,102308.342,,22,the
screen,html.Screen,0_2_1_1_23,2021-11-19T13:22:31.275Z,,,,,,,,,,,,,,,,54,,,,,,,,,,,,,,401.55799997615395,,response,,,100,,,,,,Space,keypress(Space),,,,,-- --- ---- --- ------ ----- ------- ---- -- --- ------- --<br>------- ---------- ------ -- ----- -- ----- -- ---- ------<br>--- state --- --- ------ -------- ----- --- ------ ----- --<br>----- ----- ---------- --- --- ------ ------ ---- -- ------<br>------- --- ------ ----- --- ---- ------- -- ---- --- --<br>------- ------,102710.60000002384,102709.89999997616,102291.672,102294.80000007153,102308.342,102725.175,,23,state
screen,html.Screen,0_2_1_1_24,2021-11-19T13:22:31.691Z,,,,,,,,,,,,,,,,54,,,,,,,,,,,,,,400.62500007152266,,response,,,100,,,,,,Space,keypress(Space),,,,,-- --- ---- --- ------ ----- ------- ---- -- --- ------- --<br>------- ---------- ------ -- ----- -- ----- -- ---- ------<br>--- ----- cut --- ------ -------- ----- --- ------ ----- --<br>----- ----- ---------- --- --- ------ ------ ---- -- ------<br>------- --- ------ ----- --- ---- ------- -- ---- --- --<br>------- ------,103126.5,103125.80000007153,102708.504,102710.89999997616,102725.175,103141.765,,24,cut
screen,html.Screen,0_2_1_1_25,2021-11-19T13:22:32.067Z,,,,,,,,,,,,,,,,54,,,,,,,,,,,,,,360.03500007152616,,response,,,100,,,,,,Space,keypress(Space),,,,,-- --- ---- --- ------ ----- ------- ---- -- --- ------- --<br>------- ---------- ------ -- ----- -- ----- -- ---- ------<br>--- ----- --- the ------ -------- ----- --- ------ ----- --<br>----- ----- ---------- --- --- ------ ------ ---- -- ------<br>------- --- ------ ----- --- ---- ------- -- ---- --- --<br>------- ------,103502.5,103501.80000007153,103125.097,103126.80000007153,103141.765,103508.733,,25,the
screen,html.Screen,0_2_1_1_26,2021-11-19T13:22:32.491Z,,,,,,,,,,,,,,,,54,,,,,,,,,,,,,,416.9670000476908,,response,,,100,,,,,,Space,keypress(Space),,,,,-- --- ---- --- ------ ----- ------- ---- -- --- ------- --<br>------- ---------- ------ -- ----- -- ----- -- ---- ------<br>--- ----- --- --- bonds' -------- ----- --- ------ ----- --<br>----- ----- ---------- --- --- ------ ------ ---- -- ------<br>------- --- ------ ----- --- ---- ------- -- ---- --- --<br>------- ------,103926.60000002384,103925.70000004768,103492.061,103502.80000007153,103508.733,103942.093,,26,bonds'
screen,html.Screen,0_2_1_1_27,2021-11-19T13:22:32.995Z,,,,,,,,,,,,,,,,54,,,,,,,,,,,,,,487.60700004769024,,response,,,100,,,,,,Space,keypress(Space),,,,,-- --- ---- --- ------ ----- ------- ---- -- --- ------- --<br>------- ---------- ------ -- ----- -- ----- -- ---- ------<br>--- ----- --- --- ------ interest ----- --- ------ ----- --<br>----- ----- ---------- --- --- ------ ------ ---- -- ------<br>------- --- ------ ----- --- ---- ------- -- ---- --- --<br>------- ------,104430.5,104429.70000004768,103925.423,103926.80000007153,103942.093,104442.113,,27,interest
screen,html.Screen,0_2_1_1_28,2021-11-19T13:22:33.507Z,,,,,,,,,,,,,,,,54,,,,,,,,,,,,,,499.58700004768616,,response,,,100,,,,,,Space,keypress(Space),,,,,-- --- ---- --- ------ ----- ------- ---- -- --- ------- --<br>------- ---------- ------ -- ----- -- ----- -- ---- ------<br>--- ----- --- --- ------ -------- rate. --- ------ ----- --<br>----- ----- ---------- --- --- ------ ------ ---- -- ------<br>------- --- ------ ----- --- ---- ------- -- ---- --- --<br>------- ------,104942.39999997616,104941.70000004768,104425.444,104430.70000004768,104442.113,104959.053,,28,rate.
screen,html.Screen,0_2_1_1_29,2021-11-19T13:22:34.011Z,,,,,,,,,,,,,,,,54,,,,,,,,,,,,,,486.547000023842,,response,,,100,,,,,,Space,keypress(Space),,,,,-- --- ---- --- ------ ----- ------- ---- -- --- ------- --<br>------- ---------- ------ -- ----- -- ----- -- ---- ------<br>--- ----- --- --- ------ -------- ----- The ------ ----- --<br>----- ----- ---------- --- --- ------ ------ ---- -- ------<br>------- --- ------ ----- --- ---- ------- -- ---- --- --<br>------- ------,105446.39999997616,105445.60000002384,104942.382,104942.60000002384,104959.053,105459.121,,29,The
screen,html.Screen,0_2_1_1_30,2021-11-19T13:22:34.419Z,,,,,,,,,,,,,,,,54,,,,,,,,,,,,,,394.4790000238427,,response,,,100,,,,,,Space,keypress(Space),,,,,-- --- ---- --- ------ ----- ------- ---- -- --- ------- --<br>------- ---------- ------ -- ----- -- ----- -- ---- ------<br>--- ----- --- --- ------ -------- ----- --- market ----- --<br>----- ----- ---------- --- --- ------ ------ ---- -- ------<br>------- --- ------ ----- --- ---- ------- -- ---- --- --<br>------- ------,105854.39999997616,105853.60000002384,105442.451,105446.60000002384,105459.121,105859.206,,30,market
screen,html.Screen,0_2_1_1_31,2021-11-19T13:22:34.899Z,,,,,,,,,,,,,,,,54,,,,,,,,,,,,,,474.2939999999944,,response,,,100,,,,,,Space,keypress(Space),,,,,-- --- ---- --- ------ ----- ------- ---- -- --- ------- --<br>------- ---------- ------ -- ----- -- ----- -- ---- ------<br>--- ----- --- --- ------ -------- ----- --- ------ value --<br>----- ----- ---------- --- --- ------ ------ ---- -- ------<br>------- --- ------ ----- --- ---- ------- -- ---- --- --<br>------- ------,106334.20000004768,106333.5,105842.536,105854.60000002384,105859.206,106342.681,,31,value
screen,html.Screen,0_2_1_1_32,2021-11-19T13:22:35.371Z,,,,,,,,,,,,,,,,54,,,,,,,,,,,,,,462.81900000000314,,response,,,100,,,,,,Space,keypress(Space),,,,,-- --- ---- --- ------ ----- ------- ---- -- --- ------- --<br>------- ---------- ------ -- ----- -- ----- -- ---- ------<br>--- ----- --- --- ------ -------- ----- --- ------ ----- of<br>----- ----- ---------- --- --- ------ ------ ---- -- ------<br>------- --- ------ ----- --- ---- ------- -- ---- --- --<br>------- ------,106806.30000007153,106805.5,106326.011,106334.60000002384,106342.681,106809.428,,32,of
screen,html.Screen,0_2_1_1_33,2021-11-19T13:22:35.947Z,,,,,,,,,,,,,,,,54,,,,,,,,,,,,,,572.0720000000001,,response,,,100,,,,,,Space,keypress(Space),,,,,-- --- ---- --- ------ ----- ------- ---- -- --- ------- --<br>------- ---------- ------ -- ----- -- ----- -- ---- ------<br>--- ----- --- --- ------ -------- ----- --- ------ ----- --<br>these ----- ---------- --- --- ------ ------ ---- -- ------<br>------- --- ------ ----- --- ---- ------- -- ---- --- --<br>------- ------,107382.20000004768,107381.5,106792.758,106806.5,106809.428,107392.881,,33,these
screen,html.Screen,0_2_1_1_34,2021-11-19T13:22:36.451Z,,,,,,,,,,,,,,,,54,,,,,,,,,,,,,,492.61900000000605,,response,,,100,,,,,,Space,keypress(Space),,,,,-- --- ---- --- ------ ----- ------- ---- -- --- ------- --<br>------- ---------- ------ -- ----- -- ----- -- ---- ------<br>--- ----- --- --- ------ -------- ----- --- ------ ----- --<br>----- bonds ---------- --- --- ------ ------ ---- -- ------<br>------- --- ------ ----- --- ---- ------- -- ---- --- --<br>------- ------,107886.30000007153,107885.5,107376.211,107382.5,107392.881,107893.091,,34,bonds
screen,html.Screen,0_2_1_1_35,2021-11-19T13:22:37.043Z,,,,,,,,,,,,,,,,54,,,,,,,,,,,,,,584.4089999999997,,response,,,100,,,,,,Space,keypress(Space),,,,,"-- --- ---- --- ------ ----- ------- ---- -- --- ------- --<br>------- ---------- ------ -- ----- -- ----- -- ---- ------<br>--- ----- --- --- ------ -------- ----- --- ------ ----- --<br>----- ----- plummeted, --- --- ------ ------ ---- -- ------<br>------- --- ------ ----- --- ---- ------- -- ---- --- --<br>------- ------",108478.30000007153,108477.5,107876.42,107886.60000002384,107893.091,108493.187,,35,"plummeted,"
screen,html.Screen,0_2_1_1_36,2021-11-19T13:22:37.643Z,,,,,,,,,,,,,,,,54,,,,,,,,,,,,,,584.2129999761528,,response,,,100,,,,,,Space,keypress(Space),,,,,-- --- ---- --- ------ ----- ------- ---- -- --- ------- --<br>------- ---------- ------ -- ----- -- ----- -- ---- ------<br>--- ----- --- --- ------ -------- ----- --- ------ ----- --<br>----- ----- ---------- and --- ------ ------ ---- -- ------<br>------- --- ------ ----- --- ---- ------- -- ---- --- --<br>------- ------,109078.20000004768,109077.39999997616,108476.517,108478.39999997616,108493.187,109093.334,,36,and
screen,html.Screen,0_2_1_1_37,2021-11-19T13:22:38.123Z,,,,,,,,,,,,,,,,54,,,,,,,,,,,,,,463.966000071523,,response,,,100,,,,,,Space,keypress(Space),,,,,-- --- ---- --- ------ ----- ------- ---- -- --- ------- --<br>------- ---------- ------ -- ----- -- ----- -- ---- ------<br>--- ----- --- --- ------ -------- ----- --- ------ ----- --<br>----- ----- ---------- --- the ------ ------ ---- -- ------<br>------- --- ------ ----- --- ---- ------- -- ---- --- --<br>------- ------,109558.20000004768,109557.30000007153,109076.664,109078.39999997616,109093.334,109560.124,,37,the
screen,html.Screen,0_2_1_1_38,2021-11-19T13:22:38.627Z,,,,,,,,,,,,,,,,54,,,,,,,,,,,,,,501.275999976162,,response,,,100,,,,,,Space,keypress(Space),,,,,-- --- ---- --- ------ ----- ------- ---- -- --- ------- --<br>------- ---------- ------ -- ----- -- ----- -- ---- ------<br>--- ----- --- --- ------ -------- ----- --- ------ ----- --<br>----- ----- ---------- --- --- market ------ ---- -- ------<br>------- --- ------ ----- --- ---- ------- -- ---- --- --<br>------- ------,110062.20000004768,110061.39999997616,109543.454,109558.39999997616,109560.124,110076.79,,38,market
screen,html.Screen,0_2_1_1_39,2021-11-19T13:22:39.090Z,,,,,,,,,,,,,,,,54,,,,,,,,,,,,,,448.510000071532,,response,,,100,,,,,,Space,keypress(Space),,,,,-- --- ---- --- ------ ----- ------- ---- -- --- ------- --<br>------- ---------- ------ -- ----- -- ----- -- ---- ------<br>--- ----- --- --- ------ -------- ----- --- ------ ----- --<br>----- ----- ---------- --- --- ------ became ---- -- ------<br>------- --- ------ ----- --- ---- ------- -- ---- --- --<br>------- ------,110526.10000002384,110525.30000007153,110060.121,110062.39999997616,110076.79,110527.103,,39,became
screen,html.Screen,0_2_1_1_40,2021-11-19T13:22:39.579Z,,,,,,,,,,,,,,,,54,,,,,,,,,,,,,,486.49700002383906,,response,,,100,,,,,,Space,keypress(Space),,,,,-- --- ---- --- ------ ----- ------- ---- -- --- ------- --<br>------- ---------- ------ -- ----- -- ----- -- ---- ------<br>--- ----- --- --- ------ -------- ----- --- ------ ----- --<br>----- ----- ---------- --- --- ------ ------ wary -- ------<br>------- --- ------ ----- --- ---- ------- -- ---- --- --<br>------- ------,111014.30000007153,111013.60000002384,110510.431,110526.30000007153,110527.103,111027.14,,40,wary
screen,html.Screen,0_2_1_1_41,2021-11-19T13:22:40.026Z,,,,,,,,,,,,,,,,54,,,,,,,,,,,,,,434.0600000476843,,response,,,100,,,,,,Space,keypress(Space),,,,,-- --- ---- --- ------ ----- ------- ---- -- --- ------- --<br>------- ---------- ------ -- ----- -- ----- -- ---- ------<br>--- ----- --- --- ------ -------- ----- --- ------ ----- --<br>----- ----- ---------- --- --- ------ ------ ---- of ------<br>------- --- ------ ----- --- ---- ------- -- ---- --- --<br>------- ------,111462,111461.20000004768,111010.47,111014.60000002384,111027.14,111477.249,,41,of
screen,html.Screen,0_2_1_1_42,2021-11-19T13:22:40.460Z,,,,,,,,,,,,,,,,54,,,,,,,,,,,,,,415.95100004768756,,response,,,100,,,,,,Space,keypress(Space),,,,,-- --- ---- --- ------ ----- ------- ---- -- --- ------- --<br>------- ---------- ------ -- ----- -- ----- -- ---- ------<br>--- ----- --- --- ------ -------- ----- --- ------ ----- --<br>----- ----- ---------- --- --- ------ ------ ---- -- French<br>------- --- ------ ----- --- ---- ------- -- ---- --- --<br>------- ------,111895.5,111893.20000004768,111460.579,111462.20000004768,111477.249,111910.744,,42,French
screen,html.Screen,0_2_1_1_43,2021-11-19T13:22:40.970Z,,,,,,,,,,,,,,,,54,,,,,,,,,,,,,,494.45600004767766,,response,,,100,,,,,,Space,keypress(Space),,,,,-- --- ---- --- ------ ----- ------- ---- -- --- ------- --<br>------- ---------- ------ -- ----- -- ----- -- ---- ------<br>--- ----- --- --- ------ -------- ----- --- ------ ----- --<br>----- ----- ---------- --- --- ------ ------ ---- -- ------<br>credit. --- ------ ----- --- ---- ------- -- ---- --- --<br>------- ------,112406,112405.20000004768,111894.073,111895.70000004768,111910.744,112410.673,,43,credit.
screen,html.Screen,0_2_1_1_44,2021-11-19T13:22:41.418Z,,,,,,,,,,,,,,,,54,,,,,,,,,,,,,,442.5270000476885,,response,,,100,,,,,,Space,keypress(Space),,,,,-- --- ---- --- ------ ----- ------- ---- -- --- ------- --<br>------- ---------- ------ -- ----- -- ----- -- ---- ------<br>--- ----- --- --- ------ -------- ----- --- ------ ----- --<br>----- ----- ---------- --- --- ------ ------ ---- -- ------<br>------- The ------ ----- --- ---- ------- -- ---- --- --<br>------- ------,112854,112853.20000004768,112394.005,112406.10000002384,112410.673,112861.02,,44,The
screen,html.Screen,0_2_1_1_45,2021-11-19T13:22:41.898Z,,,,,,,,,,,,,,,,54,,,,,,,,,,,,,,472.0800000238378,,response,,,100,,,,,,Space,keypress(Space),,,,,-- --- ---- --- ------ ----- ------- ---- -- --- ------- --<br>------- ---------- ------ -- ----- -- ----- -- ---- ------<br>--- ----- --- --- ------ -------- ----- --- ------ ----- --<br>----- ----- ---------- --- --- ------ ------ ---- -- ------<br>------- --- French ----- --- ---- ------- -- ---- --- --<br>------- ------,113333.89999997616,113333.10000002384,112844.348,112854.10000002384,112861.02,113344.351,,45,French
screen,html.Screen,0_2_1_1_46,2021-11-19T13:22:42.362Z,,,,,,,,,,,,,,,,54,,,,,,,,,,,,,,452.6490000000049,,response,,,100,,,,,,Space,keypress(Space),,,,,-- --- ---- --- ------ ----- ------- ---- -- --- ------- --<br>------- ---------- ------ -- ----- -- ----- -- ---- ------<br>--- ----- --- --- ------ -------- ----- --- ------ ----- --<br>----- ----- ---------- --- --- ------ ------ ---- -- ------<br>------- --- ------ state --- ---- ------- -- ---- --- --<br>------- ------,113797.80000007153,113797,113327.681,113334.10000002384,113344.351,113811.136,,46,state
screen,html.Screen,0_2_1_1_47,2021-11-19T13:22:42.818Z,,,,,,,,,,,,,,,,54,,,,,,,,,,,,,,441.8640000000014,,response,,,100,,,,,,Space,keypress(Space),,,,,-- --- ---- --- ------ ----- ------- ---- -- --- ------- --<br>------- ---------- ------ -- ----- -- ----- -- ---- ------<br>--- ----- --- --- ------ -------- ----- --- ------ ----- --<br>----- ----- ---------- --- --- ------ ------ ---- -- ------<br>------- --- ------ ----- was ---- ------- -- ---- --- --<br>------- ------,114253.89999997616,114253,113794.466,113798.10000002384,113811.136,114261.253,,47,was
screen,html.Screen,0_2_1_1_48,2021-11-19T13:22:43.298Z,,,,,,,,,,,,,,,,54,,,,,,,,,,,,,,471.747000000003,,response,,,100,,,,,,Space,keypress(Space),,,,,-- --- ---- --- ------ ----- ------- ---- -- --- ------- --<br>------- ---------- ------ -- ----- -- ----- -- ---- ------<br>--- ----- --- --- ------ -------- ----- --- ------ ----- --<br>----- ----- ---------- --- --- ------ ------ ---- -- ------<br>------- --- ------ ----- --- left ------- -- ---- --- --<br>------- ------,114733.80000007153,114733,114244.583,114254,114261.253,114744.695,,48,left
screen,html.Screen,0_2_1_1_49,2021-11-19T13:22:43.858Z,,,,,,,,,,,,,,,,54,,,,,,,,,,,,,,548.304999999993,,response,,,100,,,,,,Space,keypress(Space),,,,,-- --- ---- --- ------ ----- ------- ---- -- --- ------- --<br>------- ---------- ------ -- ----- -- ----- -- ---- ------<br>--- ----- --- --- ------ -------- ----- --- ------ ----- --<br>----- ----- ---------- --- --- ------ ------ ---- -- ------<br>------- --- ------ ----- --- ---- without -- ---- --- --<br>------- ------,115293.80000007153,115293,114728.025,114734,114744.695,115294.829,,49,without
screen,html.Screen,0_2_1_1_50,2021-11-19T13:22:44.330Z,,,,,,,,,,,,,,,,54,,,,,,,,,,,,,,470.07099997616024,,response,,,100,,,,,,Space,keypress(Space),,,,,-- --- ---- --- ------ ----- ------- ---- -- --- ------- --<br>------- ---------- ------ -- ----- -- ----- -- ---- ------<br>--- ----- --- --- ------ -------- ----- --- ------ ----- --<br>----- ----- ---------- --- --- ------ ------ ---- -- ------<br>------- --- ------ ----- --- ---- ------- an ---- --- --<br>------- ------,115765.70000004768,115764.89999997616,115278.159,115294.10000002384,115294.829,115778.28,,50,an
screen,html.Screen,0_2_1_1_51,2021-11-19T13:22:44.754Z,,,,,,,,,,,,,,,,54,,,,,,,,,,,,,,410.6199999761593,,response,,,100,,,,,,Space,keypress(Space),,,,,-- --- ---- --- ------ ----- ------- ---- -- --- ------- --<br>------- ---------- ------ -- ----- -- ----- -- ---- ------<br>--- ----- --- --- ------ -------- ----- --- ------ ----- --<br>----- ----- ---------- --- --- ------ ------ ---- -- ------<br>------- --- ------ ----- --- ---- ------- -- easy --- --<br>------- ------,116189.70000004768,116188.89999997616,115761.61,115765.89999997616,115778.28,116195.055,,51,easy
screen,html.Screen,0_2_1_1_52,2021-11-19T13:22:45.218Z,,,,,,,,,,,,,,,,54,,,,,,,,,,,,,,457.8449999761651,,response,,,100,,,,,,Space,keypress(Space),,,,,-- --- ---- --- ------ ----- ------- ---- -- --- ------- --<br>------- ---------- ------ -- ----- -- ----- -- ---- ------<br>--- ----- --- --- ------ -------- ----- --- ------ ----- --<br>----- ----- ---------- --- --- ------ ------ ---- -- ------<br>------- --- ------ ----- --- ---- ------- -- ---- way --<br>------- ------,116653.60000002384,116652.89999997616,116178.385,116190,116195.055,116661.825,,52,way
screen,html.Screen,0_2_1_1_53,2021-11-19T13:22:45.674Z,,,,,,,,,,,,,,,,54,,,,,,,,,,,,,,447.07499997616105,,response,,,100,,,,,,Space,keypress(Space),,,,,-- --- ---- --- ------ ----- ------- ---- -- --- ------- --<br>------- ---------- ------ -- ----- -- ----- -- ---- ------<br>--- ----- --- --- ------ -------- ----- --- ------ ----- --<br>----- ----- ---------- --- --- ------ ------ ---- -- ------<br>------- --- ------ ----- --- ---- ------- -- ---- --- of<br>------- ------,117109.70000004768,117108.89999997616,116645.155,116653.89999997616,116661.825,117111.992,,53,of
screen,html.Screen,0_2_1_1_54,2021-11-19T13:22:46.114Z,,,,,,,,,,,,,,,,54,,,,,,,,,,,,,,436.9079999761598,,response,,,100,,,,,,Space,keypress(Space),,,,,-- --- ---- --- ------ ----- ------- ---- -- --- ------- --<br>------- ---------- ------ -- ----- -- ----- -- ---- ------<br>--- ----- --- --- ------ -------- ----- --- ------ ----- --<br>----- ----- ---------- --- --- ------ ------ ---- -- ------<br>------- --- ------ ----- --- ---- ------- -- ---- --- --<br>raising ------,117549.60000002384,117548.89999997616,117095.321,117109.89999997616,117111.992,117562.066,,54,raising
screen,html.Screen,0_2_1_1_55,2021-11-19T13:22:46.474Z,,,,,,,,,,,,,,,,54,,,,,,,,,,,,,,346.7340000715194,,response,,,100,,,,,,Space,keypress(Space),,,,,-- --- ---- --- ------ ----- ------- ---- -- --- ------- --<br>------- ---------- ------ -- ----- -- ----- -- ---- ------<br>--- ----- --- --- ------ -------- ----- --- ------ ----- --<br>----- ----- ---------- --- --- ------ ------ ---- -- ------<br>------- --- ------ ----- --- ---- ------- -- ---- --- --<br>------- money.,117909.60000002384,117908.80000007153,117545.396,117549.80000007153,117562.066,117912.152,,55,money.
Item 100,flow.Loop,0_2_1_1,2021-11-19T13:22:46.474Z,,,,,,,,,,,,,,,,,,,,,,,,,,,,,,27970.236000071527,,completion,,,,F,,,,,,,,,,silence,,117910,117908.80000007153,89921.894,89923.20000004768,89938.564,117912.152,,,
Question 1,html.Screen,0_2_1_2,2021-11-19T13:22:49.278Z,,,,,,,,,,,,,,,,,,,,,,,,,,,true,TRUE,,2796.2479999761563,,response,,,100,F,,,,,TRUE,click #choice-1,,,,silence,,120709.5,120708.39999997616,117895.482,117910.20000004768,117912.152,120712.795,,,
Question 2,html.Screen,0_2_1_3,2021-11-19T13:22:52.989Z,,,,,,,,,,,,,,,,,,,,,,,,,,,true,FALSE,,3707.3050000238436,,response,,,100,F,,,,,FALSE,click #choice-2,,,,silence,,124421.20000004768,124420.10000002384,120696.126,120709.80000007153,120712.795,124430.384,,,
Item 100,flow.Sequence,0_2_1,2021-11-19T13:22:52.990Z,,,,,,,,,,,,,,,,,,,,,,,,,,,,,,44483.799000023835,,completion,,,,,,,,,,,,,,,,124421.60000002384,124420.10000002384,79919.629,79937.10000002384,79936.301,124430.384,,,
End of Practice,html.Page,0_2_2,2021-11-19T13:22:58.614Z,,,,,,,,,,,,,,,,,,,,,,,,,,,,,,5614.716000023836,,form submission,,,,,,,,,,,,,,,,130045.60000002384,130045.10000002384,124413.715,124421.80000007153,124430.384,130047.161,,,
Practice,flow.Sequence,0_2,2021-11-19T13:22:58.614Z,,,,,,,,,,,,,,,,,,,,,,,,,,,,,,97436.90300002384,,completion,,,,,,,,,,,,,,,,130046.10000002384,130045.10000002384,32591.524,32604.600000023842,32608.197,130047.161,,,
Trap_instruction,html.Page,0_3_0,2021-11-19T13:23:02.893Z,,,,,,,,,,,,,,,,,,,,,,,,,,,,,,4277.839000000007,,form submission,,,,,,,,,,,,,,,,134325.5,134325,130030.494,130046.5,130047.161,134366.07,,,
trap_trial,html.Screen,0_3_1,2021-11-19T13:23:05.469Z,,,,,,,,,,,,,,,,,,,,,,,,,,,true,1,,2533.2300000715186,,response,,,,,,,,,1,click #choice-1,,,,,,136900.5,136899.30000007153,134316.06,134325.70000004768,134366.07,136903.385,,,
end of trap trial,html.Page,0_3_2,2021-11-19T13:23:07.101Z,,,,,,,,,,,,,,,,,,,,,,,,,,,,,,1629.2150000238325,,form submission,,,,,,,,,,,,,,,,138533.10000002384,138532.60000002384,136886.692,136900.80000007153,136903.385,138533.789,,,
Trap 1,flow.Sequence,0_3,2021-11-19T13:23:07.102Z,,,,,,,,,,,,,,,,,,,,,,,,,,,,,,8485.439000023849,,completion,,,,,,,,,,,,,,,,138533.5,138532.60000002384,130030.494,130046.39999997616,130047.161,138533.789,,,
Standby,html.Page,0_4_0,2021-11-19T13:23:15.088Z,,,,,,,,,,,,,,,,,,,,,,,,,,,,,,8001.094000000012,,timeout,,,,,,,,,,,,,,,,146520.10000002384,146518.214,138517.119,138533.89999997616,138533.789,146534.883,,,
Holding screen,html.Screen,0_4_1_0_0,2021-11-19T13:23:22.091Z,,,,,,,,,,,,,,,,,,,,,,,,,,,,,,7002.5229999999865,,timeout,,,,,,,,,,,,,,,,153522.5,153520.736,146518.214,146520.5,146534.883,153537.406,,,
screen,html.Screen,0_4_1_0_1_0,2021-11-19T13:23:22.876Z,,,,,,,,,,,,,,,,11,,,,,,,,,,,,,,769.3940000715374,,response,,,4,F,,,,,Space,keypress(Space),,,,instrumental,Known -- ---- --- -- --- -------- ------------ ---------- --<br>- ------- ------ --------- -- ------------ -- --- ---- -----<br>------ ---- ---- ------ ------ ------- --- ----- ---------<br>---- --- -------- -------- --- --- -- ------- --- --- -----<br>-- --- ------ ------- --- --- -------- ---- --------- --<br>---------- -- -------- ----------------,154307.80000007153,154306.80000007153,153520.736,153522.89999997616,153537.406,154320.8,,0,Known
screen,html.Screen,0_4_1_0_1_1,2021-11-19T13:23:23.299Z,,,,,,,,,,,,,,,,11,,,,,,,,,,,,,,409.3000000238535,,response,,,4,F,,,,,Space,keypress(Space),,,,instrumental,----- as ---- --- -- --- -------- ------------ ---------- --<br>- ------- ------ --------- -- ------------ -- --- ---- -----<br>------ ---- ---- ------ ------ ------- --- ----- ---------<br>---- --- -------- -------- --- --- -- ------- --- --- -----<br>-- --- ------ ------- --- --- -------- ---- --------- --<br>---------- -- -------- ----------------,154730.89999997616,154730.10000002384,154304.131,154308.20000004768,154320.8,154737.824,,1,as
screen,html.Screen,0_4_1_0_1_2,2021-11-19T13:23:23.747Z,,,,,,,,,,,,,,,,11,,,,,,,,,,,,,,440.37600004769047,,response,,,4,F,,,,,Space,keypress(Space),,,,instrumental,----- -- Rapa --- -- --- -------- ------------ ---------- --<br>- ------- ------ --------- -- ------------ -- --- ---- -----<br>------ ---- ---- ------ ------ ------- --- ----- ---------<br>---- --- -------- -------- --- --- -- ------- --- --- -----<br>-- --- ------ ------- --- --- -------- ---- --------- --<br>---------- -- -------- ----------------,155179.20000004768,155178.20000004768,154721.153,154731.30000007153,154737.824,155187.769,,2,Rapa
screen,html.Screen,0_4_1_0_1_3,2021-11-19T13:23:24.163Z,,,,,,,,,,,,,,,,11,,,,,,,,,,,,,,406.4310000476835,,response,,,4,F,,,,,Space,keypress(Space),,,,instrumental,----- -- ---- Nui -- --- -------- ------------ ---------- --<br>- ------- ------ --------- -- ------------ -- --- ---- -----<br>------ ---- ---- ------ ------ ------- --- ----- ---------<br>---- --- -------- -------- --- --- -- ------- --- --- -----<br>-- --- ------ ------- --- --- -------- ---- --------- --<br>---------- -- -------- ----------------,155595,155594.20000004768,155171.1,155179.39999997616,155187.769,155604.73,,3,Nui
screen,html.Screen,0_4_1_0_1_4,2021-11-19T13:23:24.635Z,,,,,,,,,,,,,,,,11,,,,,,,,,,,,,,461.3700000238314,,response,,,4,F,,,,,Space,keypress(Space),,,,instrumental,----- -- ---- --- to --- -------- ------------ ---------- --<br>- ------- ------ --------- -- ------------ -- --- ---- -----<br>------ ---- ---- ------ ------ ------- --- ----- ---------<br>---- --- -------- -------- --- --- -- ------- --- --- -----<br>-- --- ------ ------- --- --- -------- ---- --------- --<br>---------- -- -------- ----------------,156067,156066.10000002384,155588.058,155595.30000007153,155604.73,156071.399,,4,to
screen,html.Screen,0_4_1_0_1_5,2021-11-19T13:23:25.035Z,,,,,,,,,,,,,,,,11,,,,,,,,,,,,,,394.70100002383697,,response,,,4,F,,,,,Space,keypress(Space),,,,instrumental,----- -- ---- --- -- the -------- ------------ ---------- --<br>- ------- ------ --------- -- ------------ -- --- ---- -----<br>------ ---- ---- ------ ------ ------- --- ----- ---------<br>---- --- -------- -------- --- --- -- ------- --- --- -----<br>-- --- ------ ------- --- --- -------- ---- --------- --<br>---------- -- -------- ----------------,156467,156466.10000002384,156054.729,156067.30000007153,156071.399,156471.511,,5,the
screen,html.Screen,0_4_1_0_1_6,2021-11-19T13:23:25.499Z,,,,,,,,,,,,,,,,11,,,,,,,,,,,,,,458.4890000000014,,response,,,4,F,,,,,Space,keypress(Space),,,,instrumental,----- -- ---- --- -- --- island's ------------ ---------- --<br>- ------- ------ --------- -- ------------ -- --- ---- -----<br>------ ---- ---- ------ ------ ------- --- ----- ---------<br>---- --- -------- -------- --- --- -- ------- --- --- -----<br>-- --- ------ ------- --- --- -------- ---- --------- --<br>---------- -- -------- ----------------,156930.80000007153,156930,156454.841,156467.20000004768,156471.511,156938.303,,6,island's
screen,html.Screen,0_4_1_0_1_7,2021-11-19T13:23:26.107Z,,,,,,,,,,,,,,,,11,,,,,,,,,,,,,,599.6969999999856,,response,,,4,F,,,,,Space,keypress(Space),,,,instrumental,"----- -- ---- --- -- --- -------- inhabitants, ---------- --<br>- ------- ------ --------- -- ------------ -- --- ---- -----<br>------ ---- ---- ------ ------ ------- --- ----- ---------<br>---- --- -------- -------- --- --- -- ------- --- --- -----<br>-- --- ------ ------- --- --- -------- ---- --------- --<br>---------- -- -------- ----------------",157538.89999997616,157538,156921.633,156931,156938.303,157555.083,,7,"inhabitants,"
screen,html.Screen,0_4_1_0_1_8,2021-11-19T13:23:27.859Z,,,,,,,,,,,,,,,,11,,,,,,,,,,,,,,1734.7170000715123,,response,,,4,F,,,,,Space,keypress(Space),,,,instrumental,----- -- ---- --- -- --- -------- ------------ Rongorongo --<br>- ------- ------ --------- -- ------------ -- --- ---- -----<br>------ ---- ---- ------ ------ ------- --- ----- ---------<br>---- --- -------- -------- --- --- -- ------- --- --- -----<br>-- --- ------ ------- --- --- -------- ---- --------- --<br>---------- -- -------- ----------------,159290.70000004768,159289.80000007153,157538.413,157539.10000002384,157555.083,159305.473,,8,Rongorongo
screen,html.Screen,0_4_1_0_1_9,2021-11-19T13:23:28.347Z,,,,,,,,,,,,,,,,11,,,,,,,,,,,,,,472.42699997616,,response,,,4,F,,,,,Space,keypress(Space),,,,instrumental,----- -- ---- --- -- --- -------- ------------ ---------- is<br>- ------- ------ --------- -- ------------ -- --- ---- -----<br>------ ---- ---- ------ ------ ------- --- ----- ---------<br>---- --- -------- -------- --- --- -- ------- --- --- -----<br>-- --- ------ ------- --- --- -------- ---- --------- --<br>---------- -- -------- ----------------,159778.80000007153,159777.89999997616,159288.803,159291,159305.473,159789.014,,9,is
screen,html.Screen,0_4_1_0_1_10,2021-11-19T13:23:28.819Z,,,,,,,,,,,,,,,,11,,,,,,,,,,,,,,460.78600007153,,response,,,4,F,,,,,Space,keypress(Space),,,,instrumental,----- -- ---- --- -- --- -------- ------------ ---------- --<br>a ------- ------ --------- -- ------------ -- --- ---- -----<br>------ ---- ---- ------ ------ ------- --- ----- ---------<br>---- --- -------- -------- --- --- -- ------- --- --- -----<br>-- --- ------ ------- --- --- -------- ---- --------- --<br>---------- -- -------- ----------------,160250.60000002384,160249.80000007153,159772.344,159779,159789.014,160255.776,,10,a
screen,html.Screen,0_4_1_0_1_11,2021-11-19T13:23:29.411Z,,,,,,,,,,,,,,,,11,,,,,,,,,,,,,,586.024000071513,,response,,,4,F,,,,,Space,keypress(Space),,,,instrumental,----- -- ---- --- -- --- -------- ------------ ---------- --<br>- writing ------ --------- -- ------------ -- --- ---- -----<br>------ ---- ---- ------ ------ ------- --- ----- ---------<br>---- --- -------- -------- --- --- -- ------- --- --- -----<br>-- --- ------ ------- --- --- -------- ---- --------- --<br>---------- -- -------- ----------------,160842.60000002384,160841.80000007153,160239.106,160250.80000007153,160255.776,160855.902,,11,writing
screen,html.Screen,0_4_1_0_1_12,2021-11-19T13:23:30.019Z,,,,,,,,,,,,,,,,11,,,,,,,,,,,,,,593.7980000476819,,response,,,4,F,,,,,Space,keypress(Space),,,,instrumental,----- -- ---- --- -- --- -------- ------------ ---------- --<br>- ------- system --------- -- ------------ -- --- ---- -----<br>------ ---- ---- ------ ------ ------- --- ----- ---------<br>---- --- -------- -------- --- --- -- ------- --- --- -----<br>-- --- ------ ------- --- --- -------- ---- --------- --<br>---------- -- -------- ----------------,161450.5,161449.70000004768,160839.232,160842.80000007153,160855.902,161455.927,,12,system
screen,html.Screen,0_4_1_0_1_13,2021-11-19T13:23:30.747Z,,,,,,,,,,,,,,,,11,,,,,,,,,,,,,,721.7730000476877,,response,,,4,F,,,,,Space,keypress(Space),,,,instrumental,----- -- ---- --- -- --- -------- ------------ ---------- --<br>- ------- ------ comprised -- ------------ -- --- ---- -----<br>------ ---- ---- ------ ------ ------- --- ----- ---------<br>---- --- -------- -------- --- --- -- ------- --- --- -----<br>-- --- ------ ------- --- --- -------- ---- --------- --<br>---------- -- -------- ----------------,162178.60000002384,162177.70000004768,161439.258,161450.70000004768,161455.927,162189.643,,13,comprised
screen,html.Screen,0_4_1_0_1_14,2021-11-19T13:23:31.395Z,,,,,,,,,,,,,,,,11,,,,,,,,,,,,,,636.0570000476728,,response,,,4,F,,,,,Space,keypress(Space),,,,instrumental,----- -- ---- --- -- --- -------- ------------ ---------- --<br>- ------- ------ --------- of ------------ -- --- ---- -----<br>------ ---- ---- ------ ------ ------- --- ----- ---------<br>---- --- -------- -------- --- --- -- ------- --- --- -----<br>-- --- ------ ------- --- --- -------- ---- --------- --<br>---------- -- -------- ----------------,162826.39999997616,162825.70000004768,162172.972,162178.89999997616,162189.643,162839.584,,14,of
screen,html.Screen,0_4_1_0_1_15,2021-11-19T13:23:32.450Z,,,,,,,,,,,,,,,,11,,,,,,,,,,,,,,1042.0160000238393,,response,,,4,F,,,,,Space,keypress(Space),,,,instrumental,----- -- ---- --- -- --- -------- ------------ ---------- --<br>- ------- ------ --------- -- pictographs. -- --- ---- -----<br>------ ---- ---- ------ ------ ------- --- ----- ---------<br>---- --- -------- -------- --- --- -- ------- --- --- -----<br>-- --- ------ ------- --- --- -------- ---- --------- --<br>---------- -- -------- ----------------,163882.39999997616,163881.60000002384,162822.915,162826.70000004768,162839.584,163890.046,,15,pictographs.
screen,html.Screen,0_4_1_0_1_16,2021-11-19T13:23:33.043Z,,,,,,,,,,,,,,,,11,,,,,,,,,,,,,,583.853999976156,,response,,,4,F,,,,,Space,keypress(Space),,,,instrumental,----- -- ---- --- -- --- -------- ------------ ---------- --<br>- ------- ------ --------- -- ------------ It --- ---- -----<br>------ ---- ---- ------ ------ ------- --- ----- ---------<br>---- --- -------- -------- --- --- -- ------- --- --- -----<br>-- --- ------ ------- --- --- -------- ---- --------- --<br>---------- -- -------- ----------------,164474.80000007153,164473.89999997616,163873.375,163882.70000004768,163890.046,164490.075,,16,It
screen,html.Screen,0_4_1_0_1_17,2021-11-19T13:23:33.666Z,,,,,,,,,,,,,,,,11,,,,,,,,,,,,,,607.4249999999884,,response,,,4,F,,,,,Space,keypress(Space),,,,instrumental,----- -- ---- --- -- --- -------- ------------ ---------- --<br>- ------- ------ --------- -- ------------ -- has ---- -----<br>------ ---- ---- ------ ------ ------- --- ----- ---------<br>---- --- -------- -------- --- --- -- ------- --- --- -----<br>-- --- ------ ------- --- --- -------- ---- --------- --<br>---------- -- -------- ----------------,165098.30000007153,165097.5,164473.405,164475.20000004768,164490.075,165106.935,,17,has
screen,html.Screen,0_4_1_0_1_18,2021-11-19T13:23:34.210Z,,,,,,,,,,,,,,,,11,,,,,,,,,,,,,,534.5650000000023,,response,,,4,F,,,,,Space,keypress(Space),,,,instrumental,----- -- ---- --- -- --- -------- ------------ ---------- --<br>- ------- ------ --------- -- ------------ -- --- been -----<br>------ ---- ---- ------ ------ ------- --- ----- ---------<br>---- --- -------- -------- --- --- -- ------- --- --- -----<br>-- --- ------ ------- --- --- -------- ---- --------- --<br>---------- -- -------- ----------------,165642.20000004768,165641.5,165090.265,165098.5,165106.935,165657.054,,18,been
screen,html.Screen,0_4_1_0_1_19,2021-11-19T13:23:34.738Z,,,,,,,,,,,,,,,,11,,,,,,,,,,,,,,512.2460000715218,,response,,,4,F,,,,,Space,keypress(Space),,,,instrumental,----- -- ---- --- -- --- -------- ------------ ---------- --<br>- ------- ------ --------- -- ------------ -- --- ---- found<br>------ ---- ---- ------ ------ ------- --- ----- ---------<br>---- --- -------- -------- --- --- -- ------- --- --- -----<br>-- --- ------ ------- --- --- -------- ---- --------- --<br>---------- -- -------- ----------------,166170.20000004768,166169.30000007153,165640.384,165642.5,165657.054,166173.834,,19,found
screen,html.Screen,0_4_1_0_1_20,2021-11-19T13:23:35.378Z,,,,,,,,,,,,,,,,11,,,,,,,,,,,,,,635.466000071523,,response,,,4,F,,,,,Space,keypress(Space),,,,instrumental,----- -- ---- --- -- --- -------- ------------ ---------- --<br>- ------- ------ --------- -- ------------ -- --- ---- -----<br>carved ---- ---- ------ ------ ------- --- ----- ---------<br>---- --- -------- -------- --- --- -- ------- --- --- -----<br>-- --- ------ ------- --- --- -------- ---- --------- --<br>---------- -- -------- ----------------,166810.10000002384,166809.30000007153,166157.164,166170.39999997616,166173.834,166824.084,,20,carved
screen,html.Screen,0_4_1_0_1_21,2021-11-19T13:23:35.898Z,,,,,,,,,,,,,,,,11,,,,,,,,,,,,,,505.216000071523,,response,,,4,F,,,,,Space,keypress(Space),,,,instrumental,----- -- ---- --- -- --- -------- ------------ ---------- --<br>- ------- ------ --------- -- ------------ -- --- ---- -----<br>------ into ---- ------ ------ ------- --- ----- ---------<br>---- --- -------- -------- --- --- -- ------- --- --- -----<br>-- --- ------ ------- --- --- -------- ---- --------- --<br>---------- -- -------- ----------------,167330.20000004768,167329.30000007153,166807.413,166810.30000007153,166824.084,167340.808,,21,into
screen,html.Screen,0_4_1_0_1_22,2021-11-19T13:23:36.498Z,,,,,,,,,,,,,,,,11,,,,,,,,,,,,,,588.3920000476937,,response,,,4,F,,,,,Space,keypress(Space),,,,instrumental,----- -- ---- --- -- --- -------- ------------ ---------- --<br>- ------- ------ --------- -- ------------ -- --- ---- -----<br>------ ---- many ------ ------ ------- --- ----- ---------<br>---- --- -------- -------- --- --- -- ------- --- --- -----<br>-- --- ------ ------- --- --- -------- ---- --------- --<br>---------- -- -------- ----------------,167930,167929.20000004768,167324.138,167330.39999997616,167340.808,167940.96,,22,many
screen,html.Screen,0_4_1_0_1_23,2021-11-19T13:23:37.098Z,,,,,,,,,,,,,,,,11,,,,,,,,,,,,,,588.2400000476919,,response,,,4,F,,,,,Space,keypress(Space),,,,instrumental,----- -- ---- --- -- --- -------- ------------ ---------- --<br>- ------- ------ --------- -- ------------ -- --- ---- -----<br>------ ---- ---- oblong ------ ------- --- ----- ---------<br>---- --- -------- -------- --- --- -- ------- --- --- -----<br>-- --- ------ ------- --- --- -------- ---- --------- --<br>---------- -- -------- ----------------,168530,168529.20000004768,167924.29,167930.20000004768,167940.96,168541.105,,23,oblong
screen,html.Screen,0_4_1_0_1_24,2021-11-19T13:23:37.634Z,,,,,,,,,,,,,,,,11,,,,,,,,,,,,,,524.0950000476732,,response,,,4,F,,,,,Space,keypress(Space),,,,instrumental,----- -- ---- --- -- --- -------- ------------ ---------- --<br>- ------- ------ --------- -- ------------ -- --- ---- -----<br>------ ---- ---- ------ wooden ------- --- ----- ---------<br>---- --- -------- -------- --- --- -- ------- --- --- -----<br>-- --- ------ ------- --- --- -------- ---- --------- --<br>---------- -- -------- ----------------,169066,169065.20000004768,168524.435,168530.30000007153,168541.105,169074.453,,24,wooden
screen,html.Screen,0_4_1_0_1_25,2021-11-19T13:23:38.322Z,,,,,,,,,,,,,,,,11,,,,,,,,,,,,,,678.7470000476751,,response,,,4,F,,,,,Space,keypress(Space),,,,instrumental,----- -- ---- --- -- --- -------- ------------ ---------- --<br>- ------- ------ --------- -- ------------ -- --- ---- -----<br>------ ---- ---- ------ ------ tablets --- ----- ---------<br>---- --- -------- -------- --- --- -- ------- --- --- -----<br>-- --- ------ ------- --- --- -------- ---- --------- --<br>---------- -- -------- ----------------,169753.89999997616,169753.20000004768,169057.784,169066.30000007153,169074.453,169758.104,,25,tablets
screen,html.Screen,0_4_1_0_1_26,2021-11-19T13:23:38.826Z,,,,,,,,,,,,,,,,11,,,,,,,,,,,,,,498.9960000238498,,response,,,4,F,,,,,Space,keypress(Space),,,,instrumental,----- -- ---- --- -- --- -------- ------------ ---------- --<br>- ------- ------ --------- -- ------------ -- --- ---- -----<br>------ ---- ---- ------ ------ ------- and ----- ---------<br>---- --- -------- -------- --- --- -- ------- --- --- -----<br>-- --- ------ ------- --- --- -------- ---- --------- --<br>---------- -- -------- ----------------,170257.89999997616,170257.10000002384,169741.433,169754.20000004768,169758.104,170274.755,,26,and
screen,html.Screen,0_4_1_0_1_27,2021-11-19T13:23:39.386Z,,,,,,,,,,,,,,,,11,,,,,,,,,,,,,,542.3450000238372,,response,,,4,F,,,,,Space,keypress(Space),,,,instrumental,----- -- ---- --- -- --- -------- ------------ ---------- --<br>- ------- ------ --------- -- ------------ -- --- ---- -----<br>------ ---- ---- ------ ------ ------- --- other ---------<br>---- --- -------- -------- --- --- -- ------- --- --- -----<br>-- --- ------ ------- --- --- -------- ---- --------- --<br>---------- -- -------- ----------------,170817.89999997616,170817.10000002384,170258.086,170258.20000004768,170274.755,170825.063,,27,other
screen,html.Screen,0_4_1_0_1_28,2021-11-19T13:23:39.914Z,,,,,,,,,,,,,,,,11,,,,,,,,,,,,,,520.0370000238472,,response,,,4,F,,,,,Space,keypress(Space),,,,instrumental,----- -- ---- --- -- --- -------- ------------ ---------- --<br>- ------- ------ --------- -- ------------ -- --- ---- -----<br>------ ---- ---- ------ ------ ------- --- ----- artifacts<br>---- --- -------- -------- --- --- -- ------- --- --- -----<br>-- --- ------ ------- --- --- -------- ---- --------- --<br>---------- -- -------- ----------------,171345.80000007153,171345.10000002384,170808.392,170818.20000004768,170825.063,171358.446,,28,artifacts
screen,html.Screen,0_4_1_0_1_29,2021-11-19T13:23:40.474Z,,,,,,,,,,,,,,,,11,,,,,,,,,,,,,,546.5540000000037,,response,,,4,F,,,,,Space,keypress(Space),,,,instrumental,----- -- ---- --- -- --- -------- ------------ ---------- --<br>- ------- ------ --------- -- ------------ -- --- ---- -----<br>------ ---- ---- ------ ------ ------- --- ----- ---------<br>from --- -------- -------- --- --- -- ------- --- --- -----<br>-- --- ------ ------- --- --- -------- ---- --------- --<br>---------- -- -------- ----------------,171905.80000007153,171905,171341.776,171346.10000002384,171358.446,171908.496,,29,from
screen,html.Screen,0_4_1_0_1_30,2021-11-19T13:23:40.954Z,,,,,,,,,,,,,,,,11,,,,,,,,,,,,,,476.50399999998626,,response,,,4,F,,,,,Space,keypress(Space),,,,instrumental,----- -- ---- --- -- --- -------- ------------ ---------- --<br>- ------- ------ --------- -- ------------ -- --- ---- -----<br>------ ---- ---- ------ ------ ------- --- ----- ---------<br>---- the -------- -------- --- --- -- ------- --- --- -----<br>-- --- ------ ------- --- --- -------- ---- --------- --<br>---------- -- -------- ----------------,172385.80000007153,172385,171891.827,171906,171908.496,172392.101,,30,the
screen,html.Screen,0_4_1_0_1_31,2021-11-19T13:23:41.506Z,,,,,,,,,,,,,,,,11,,,,,,,,,,,,,,544.8990000000049,,response,,,4,F,,,,,Space,keypress(Space),,,,instrumental,----- -- ---- --- -- --- -------- ------------ ---------- --<br>- ------- ------ --------- -- ------------ -- --- ---- -----<br>------ ---- ---- ------ ------ ------- --- ----- ---------<br>---- --- island's -------- --- --- -- ------- --- --- -----<br>-- --- ------ ------- --- --- -------- ---- --------- --<br>---------- -- -------- ----------------,172937.70000004768,172937,172375.43,172386,172392.101,172942.167,,31,island's
screen,html.Screen,0_4_1_0_1_32,2021-11-19T13:23:42.074Z,,,,,,,,,,,,,,,,11,,,,,,,,,,,,,,562.8330000000133,,response,,,4,F,,,,,Space,keypress(Space),,,,instrumental,----- -- ---- --- -- --- -------- ------------ ---------- --<br>- ------- ------ --------- -- ------------ -- --- ---- -----<br>------ ---- ---- ------ ------ ------- --- ----- ---------<br>---- --- -------- history. --- --- -- ------- --- --- -----<br>-- --- ------ ------- --- --- -------- ---- --------- --<br>---------- -- -------- ----------------,173505.70000004768,173505,172925.497,172938,172942.167,173508.992,,32,history.
screen,html.Screen,0_4_1_0_1_33,2021-11-19T13:23:42.602Z,,,,,,,,,,,,,,,,11,,,,,,,,,,,,,,523.9079999761598,,response,,,4,F,,,,,Space,keypress(Space),,,,instrumental,----- -- ---- --- -- --- -------- ------------ ---------- --<br>- ------- ------ --------- -- ------------ -- --- ---- -----<br>------ ---- ---- ------ ------ ------- --- ----- ---------<br>---- --- -------- -------- The --- -- ------- --- --- -----<br>-- --- ------ ------- --- --- -------- ---- --------- --<br>---------- -- -------- ----------------,174033.60000002384,174032.89999997616,173492.322,173505.89999997616,173508.992,174042.346,,33,The
screen,html.Screen,0_4_1_0_1_34,2021-11-19T13:23:43.122Z,,,,,,,,,,,,,,,,11,,,,,,,,,,,,,,510.85400004769326,,response,,,4,F,,,,,Space,keypress(Space),,,,instrumental,----- -- ---- --- -- --- -------- ------------ ---------- --<br>- ------- ------ --------- -- ------------ -- --- ---- -----<br>------ ---- ---- ------ ------ ------- --- ----- ---------<br>---- --- -------- -------- --- art -- ------- --- --- -----<br>-- --- ------ ------- --- --- -------- ---- --------- --<br>---------- -- -------- ----------------,174554,174553.20000004768,174025.677,174033.80000007153,174042.346,174559.299,,34,art
screen,html.Screen,0_4_1_0_1_35,2021-11-19T13:23:43.642Z,,,,,,,,,,,,,,,,11,,,,,,,,,,,,,,513.5010000715265,,response,,,4,F,,,,,Space,keypress(Space),,,,instrumental,----- -- ---- --- -- --- -------- ------------ ---------- --<br>- ------- ------ --------- -- ------------ -- --- ---- -----<br>------ ---- ---- ------ ------ ------- --- ----- ---------<br>---- --- -------- -------- --- --- of ------- --- --- -----<br>-- --- ------ ------- --- --- -------- ---- --------- --<br>---------- -- -------- ----------------,175073.60000002384,175072.80000007153,174542.628,174554.20000004768,174559.299,175075.878,,35,of
screen,html.Screen,0_4_1_0_1_36,2021-11-19T13:23:44.130Z,,,,,,,,,,,,,,,,11,,,,,,,,,,,,,,484.9220000715286,,response,,,4,F,,,,,Space,keypress(Space),,,,instrumental,----- -- ---- --- -- --- -------- ------------ ---------- --<br>- ------- ------ --------- -- ------------ -- --- ---- -----<br>------ ---- ---- ------ ------ ------- --- ----- ---------<br>---- --- -------- -------- --- --- -- writing --- --- -----<br>-- --- ------ ------- --- --- -------- ---- --------- --<br>---------- -- -------- ----------------,175561.60000002384,175560.80000007153,175059.21,175073.80000007153,175075.878,175576.215,,36,writing
screen,html.Screen,0_4_1_0_1_37,2021-11-19T13:23:44.602Z,,,,,,,,,,,,,,,,11,,,,,,,,,,,,,,456.58500007152907,,response,,,4,F,,,,,Space,keypress(Space),,,,instrumental,----- -- ---- --- -- --- -------- ------------ ---------- --<br>- ------- ------ --------- -- ------------ -- --- ---- -----<br>------ ---- ---- ------ ------ ------- --- ----- ---------<br>---- --- -------- -------- --- --- -- ------- was --- -----<br>-- --- ------ ------- --- --- -------- ---- --------- --<br>---------- -- -------- ----------------,176033.5,176032.80000007153,175559.544,175561.80000007153,175576.215,176042.834,,37,was
screen,html.Screen,0_4_1_0_1_38,2021-11-19T13:23:45.058Z,,,,,,,,,,,,,,,,11,,,,,,,,,,,,,,445.86600004768115,,response,,,4,F,,,,,Space,keypress(Space),,,,instrumental,----- -- ---- --- -- --- -------- ------------ ---------- --<br>- ------- ------ --------- -- ------------ -- --- ---- -----<br>------ ---- ---- ------ ------ ------- --- ----- ---------<br>---- --- -------- -------- --- --- -- ------- --- not -----<br>-- --- ------ ------- --- --- -------- ---- --------- --<br>---------- -- -------- ----------------,176489.5,176488.70000004768,176026.165,176033.80000007153,176042.834,176493.144,,38,not
screen,html.Screen,0_4_1_0_1_39,2021-11-19T13:23:45.506Z,,,,,,,,,,,,,,,,11,,,,,,,,,,,,,,443.5560000476835,,response,,,4,F,,,,,Space,keypress(Space),,,,instrumental,----- -- ---- --- -- --- -------- ------------ ---------- --<br>- ------- ------ --------- -- ------------ -- --- ---- -----<br>------ ---- ---- ------ ------ ------- --- ----- ---------<br>---- --- -------- -------- --- --- -- ------- --- --- known<br>-- --- ------ ------- --- --- -------- ---- --------- --<br>---------- -- -------- ----------------,176937.39999997616,176936.70000004768,176476.472,176489.80000007153,176493.144,176943.011,,39,known
screen,html.Screen,0_4_1_0_1_40,2021-11-19T13:23:45.994Z,,,,,,,,,,,,,,,,11,,,,,,,,,,,,,,481.58900002384325,,response,,,4,F,,,,,Space,keypress(Space),,,,instrumental,----- -- ---- --- -- --- -------- ------------ ---------- --<br>- ------- ------ --------- -- ------------ -- --- ---- -----<br>------ ---- ---- ------ ------ ------- --- ----- ---------<br>---- --- -------- -------- --- --- -- ------- --- --- -----<br>in --- ------ ------- --- --- -------- ---- --------- --<br>---------- -- -------- ----------------,177425.39999997616,177424.60000002384,176926.343,176937.70000004768,176943.011,177426.656,,40,in
screen,html.Screen,0_4_1_0_1_41,2021-11-19T13:23:46.465Z,,,,,,,,,,,,,,,,11,,,,,,,,,,,,,,469.94400002385373,,response,,,4,F,,,,,Space,keypress(Space),,,,instrumental,----- -- ---- --- -- --- -------- ------------ ---------- --<br>- ------- ------ --------- -- ------------ -- --- ---- -----<br>------ ---- ---- ------ ------ ------- --- ----- ---------<br>---- --- -------- -------- --- --- -- ------- --- --- -----<br>-- any ------ ------- --- --- -------- ---- --------- --<br>---------- -- -------- ----------------,177897.39999997616,177896.60000002384,177409.985,177425.70000004768,177426.656,177910.069,,41,any
screen,html.Screen,0_4_1_0_1_42,2021-11-19T13:23:46.977Z,,,,,,,,,,,,,,,,11,,,,,,,,,,,,,,498.4310000000114,,response,,,4,F,,,,,Space,keypress(Space),,,,instrumental,----- -- ---- --- -- --- -------- ------------ ---------- --<br>- ------- ------ --------- -- ------------ -- --- ---- -----<br>------ ---- ---- ------ ------ ------- --- ----- ---------<br>---- --- -------- -------- --- --- -- ------- --- --- -----<br>-- --- nearby ------- --- --- -------- ---- --------- --<br>---------- -- -------- ----------------,178409.30000007153,178408.5,177893.399,177897.60000002384,177910.069,178426.839,,42,nearby
screen,html.Screen,0_4_1_0_1_43,2021-11-19T13:23:47.625Z,,,,,,,,,,,,,,,,11,,,,,,,,,,,,,,629.6609999999928,,response,,,4,F,,,,,Space,keypress(Space),,,,instrumental,----- -- ---- --- -- --- -------- ------------ ---------- --<br>- ------- ------ --------- -- ------------ -- --- ---- -----<br>------ ---- ---- ------ ------ ------- --- ----- ---------<br>---- --- -------- -------- --- --- -- ------- --- --- -----<br>-- --- ------ islands --- --- -------- ---- --------- --<br>---------- -- -------- ----------------,179057.30000007153,179056.5,178410.169,178409.5,178426.839,179060.331,,43,islands
screen,html.Screen,0_4_1_0_1_44,2021-11-19T13:23:48.193Z,,,,,,,,,,,,,,,,11,,,,,,,,,,,,,,564.1689999999944,,response,,,4,F,,,,,Space,keypress(Space),,,,instrumental,----- -- ---- --- -- --- -------- ------------ ---------- --<br>- ------- ------ --------- -- ------------ -- --- ---- -----<br>------ ---- ---- ------ ------ ------- --- ----- ---------<br>---- --- -------- -------- --- --- -- ------- --- --- -----<br>-- --- ------ ------- and --- -------- ---- --------- --<br>---------- -- -------- ----------------,179625.39999997616,179624.5,179043.661,179057.5,179060.331,179627.109,,44,and
screen,html.Screen,0_4_1_0_1_45,2021-11-19T13:23:48.737Z,,,,,,,,,,,,,,,,11,,,,,,,,,,,,,,541.2909999761614,,response,,,4,F,,,,,Space,keypress(Space),,,,instrumental,----- -- ---- --- -- --- -------- ------------ ---------- --<br>- ------- ------ --------- -- ------------ -- --- ---- -----<br>------ ---- ---- ------ ------ ------- --- ----- ---------<br>---- --- -------- -------- --- --- -- ------- --- --- -----<br>-- --- ------ ------- --- the -------- ---- --------- --<br>---------- -- -------- ----------------,180169.20000004768,180168.39999997616,179610.439,179625.60000002384,179627.109,180177.284,,45,the
screen,html.Screen,0_4_1_0_1_46,2021-11-19T13:23:49.303Z,,,,,,,,,,,,,,,,11,,,,,,,,,,,,,,559.1159999761439,,response,,,4,F,,,,,Space,keypress(Space),,,,instrumental,----- -- ---- --- -- --- -------- ------------ ---------- --<br>- ------- ------ --------- -- ------------ -- --- ---- -----<br>------ ---- ---- ------ ------ ------- --- ----- ---------<br>---- --- -------- -------- --- --- -- ------- --- --- -----<br>-- --- ------ ------- --- --- script's ---- --------- --<br>---------- -- -------- ----------------,180737.20000004768,180736.39999997616,180160.614,180169.39999997616,180177.284,180744.059,,46,script's
screen,html.Screen,0_4_1_0_1_47,2021-11-19T13:23:49.879Z,,,,,,,,,,,,,,,,11,,,,,,,,,,,,,,568.3409999761498,,response,,,4,F,,,,,Space,keypress(Space),,,,instrumental,----- -- ---- --- -- --- -------- ------------ ---------- --<br>- ------- ------ --------- -- ------------ -- --- ---- -----<br>------ ---- ---- ------ ------ ------- --- ----- ---------<br>---- --- -------- -------- --- --- -- ------- --- --- -----<br>-- --- ------ ------- --- --- -------- mere --------- --<br>---------- -- -------- ----------------,181313.20000004768,181312.39999997616,180727.389,180737.39999997616,180744.059,181327.533,,47,mere
screen,html.Screen,0_4_1_0_1_48,2021-11-19T13:23:50.431Z,,,,,,,,,,,,,,,,11,,,,,,,,,,,,,,536.8669999761623,,response,,,4,F,,,,,Space,keypress(Space),,,,instrumental,----- -- ---- --- -- --- -------- ------------ ---------- --<br>- ------- ------ --------- -- ------------ -- --- ---- -----<br>------ ---- ---- ------ ------ ------- --- ----- ---------<br>---- --- -------- -------- --- --- -- ------- --- --- -----<br>-- --- ------ ------- --- --- -------- ---- existence --<br>---------- -- -------- ----------------,181865.20000004768,181864.39999997616,181310.863,181313.39999997616,181327.533,181877.554,,48,existence
screen,html.Screen,0_4_1_0_1_49,2021-11-19T13:23:50.951Z,,,,,,,,,,,,,,,,11,,,,,,,,,,,,,,506.74600007152185,,response,,,4,F,,,,,Space,keypress(Space),,,,instrumental,----- -- ---- --- -- --- -------- ------------ ---------- --<br>- ------- ------ --------- -- ------------ -- --- ---- -----<br>------ ---- ---- ------ ------ ------- --- ----- ---------<br>---- --- -------- -------- --- --- -- ------- --- --- -----<br>-- --- ------ ------- --- --- -------- ---- --------- is<br>---------- -- -------- ----------------,182385.10000002384,182384.30000007153,181860.885,181865.39999997616,181877.554,182394.579,,49,is
screen,html.Screen,0_4_1_0_1_50,2021-11-19T13:23:51.543Z,,,,,,,,,,,,,,,,11,,,,,,,,,,,,,,581.6210000476858,,response,,,4,F,,,,,Space,keypress(Space),,,,instrumental,----- -- ---- --- -- --- -------- ------------ ---------- --<br>- ------- ------ --------- -- ------------ -- --- ---- -----<br>------ ---- ---- ------ ------ ------- --- ----- ---------<br>---- --- -------- -------- --- --- -- ------- --- --- -----<br>-- --- ------ ------- --- --- -------- ---- --------- --<br>sufficient -- -------- ----------------,182977.10000002384,182976.20000004768,182377.907,182385.39999997616,182394.579,182994.599,,50,sufficient
