sender,sender_type,sender_id,timestamp,meta,,Blues,Classical,Country,Dance,Electronic,Folk,Gospel,Hip-Hop,Jazz,Latin,Musical/Film,New-age,Pop,Provo_ID,R&B,Rap,Reggae,Religious,Rock,Soul,Swing,Traditional,age,artist_name,correct,correctResponse,distraction,duration,education,ended_on,familiarity,gender,item,list,music_frequency,offensiveness,pleasantness,preference,response,response_action,snippet_file,song_name,song_rating,sound,text,time_commit,time_end,time_render,time_run,time_show,time_switch,url,word,word_ID
Instructions,html.Page,0_0,2021-11-05T12:20:07.502Z,"{""labjs_version"":""20.2.3"",""labjs_build"":{""flavor"":""production"",""commit"":""7ea907d66ca8aeef8054924ca5d82ffbe11e34e5""},""location"":""https://run.pavlovia.org/mvasilev/lab_music_e/"",""userAgent"":""Mozilla/5.0 (Windows NT 6.1; Win64; x64) AppleWebKit/537.36 (KHTML, like Gecko) Chrome/95.0.4638.54 Safari/537.36"",""platform"":""Win32"",""language"":""en-US"",""locale"":""en-US"",""timeZone"":""Europe/London"",""timezoneOffset"":0,""screen_width"":1920,""screen_height"":1080,""scroll_width"":1920,""scroll_height"":959,""window_innerWidth"":1920,""window_innerHeight"":1007,""devicePixelRatio"":1}",,,,,,,,,,,,,,,,,,,,,,,,,,,,,24362.998999994037,,form submission,,,,,,,,,,,,,,,,33101.40000000596,33100.09999999404,8703.761,8713.79999999702,8737.101,33094.456,{},,
Headphones,html.Page,0_1,2021-11-05T12:20:10.620Z,,,,,,,,,,,,,,,,,,,,,,,,,,,,,,3124.5440000000017,,form submission,,,,,,,,,,,,,,,,36219.40000000596,36219,33077.723,33102.09999999404,33094.456,36227.632,,,
Holding screen,html.Screen,0_2_0_0,2021-11-05T12:20:20.621Z,,,,,,,,,,,,,,,,,,,,,,,,,,,,,,10002.443,,timeout,,,,,,,,,,,,,,,,46221.09999999404,46213.406,36210.962,36219.90000000596,36227.632,46230.075,,,
screen,html.Screen,0_2_0_1_0,2021-11-05T12:20:21.533Z,,,,,,,,,,,,,,,,53,,,,,,,,,,,,,,900.8250000059634,,response,,,99,,,,,,Space,keypress(Space),,,,,When -- ----- -- ------ - ------- --- ----------<br>------------- ------ ------ ---- ---- ------- ----- -- ----<br>-------- ------- -- ---------- --- - --- ----- ----- ----<br>---- --- --- ----- --- ---- ---- ------- ----- ---- -------<br>--- --- -- ----- -- --- ---- -- --- ---- -- ------ ------<br>--- ----- -- ----,47132.29999999702,47130.90000000596,46213.406,46221.5,46230.075,47147.272,,0,When
screen,html.Screen,0_2_0_1_1,2021-11-05T12:20:22.276Z,,,,,,,,,,,,,,,,53,,,,,,,,,,,,,,727.5279999970226,,response,,,99,,,,,,Space,keypress(Space),,,,,---- it ----- -- ------ - ------- --- ----------<br>------------- ------ ------ ---- ---- ------- ----- -- ----<br>-------- ------- -- ---------- --- - --- ----- ----- ----<br>---- --- --- ----- --- ---- ---- ------- ----- ---- -------<br>--- --- -- ----- -- --- ---- -- --- ---- -- ------ ------<br>--- ----- -- ----,47875.70000000298,47874.79999999702,47130.6,47132.70000000298,47147.272,47880.714,,1,it
screen,html.Screen,0_2_0_1_2,2021-11-05T12:20:23.036Z,,,,,,,,,,,,,,,,53,,,,,,,,,,,,,,753.9860000029803,,response,,,99,,,,,,Space,keypress(Space),,,,,---- -- comes -- ------ - ------- --- ----------<br>------------- ------ ------ ---- ---- ------- ----- -- ----<br>-------- ------- -- ---------- --- - --- ----- ----- ----<br>---- --- --- ----- --- ---- ---- ------- ----- ---- -------<br>--- --- -- ----- -- --- ---- -- --- ---- -- ------ ------<br>--- ----- -- ----,48635.70000000298,48634.70000000298,47864.044,47876,47880.714,48647.583,,2,comes
screen,html.Screen,0_2_0_1_3,2021-11-05T12:20:23.444Z,,,,,,,,,,,,,,,,53,,,,,,,,,,,,,,395.1170000029815,,response,,,99,,,,,,Space,keypress(Space),,,,,---- -- ----- to ------ - ------- --- ----------<br>------------- ------ ------ ---- ---- ------- ----- -- ----<br>-------- ------- -- ---------- --- - --- ----- ----- ----<br>---- --- --- ----- --- ---- ---- ------- ----- ---- -------<br>--- --- -- ----- -- --- ---- -- --- ---- -- ------ ------<br>--- ----- -- ----,49043.70000000298,49042.70000000298,48630.913,48636,48647.583,49047.708,,3,to
screen,html.Screen,0_2_0_1_4,2021-11-05T12:20:24.068Z,,,,,,,,,,,,,,,,53,,,,,,,,,,,,,,618.8919999940408,,response,,,99,,,,,,Space,keypress(Space),,,,,---- -- ----- -- having - ------- --- ----------<br>------------- ------ ------ ---- ---- ------- ----- -- ----<br>-------- ------- -- ---------- --- - --- ----- ----- ----<br>---- --- --- ----- --- ---- ---- ------- ----- ---- -------<br>--- --- -- ----- -- --- ---- -- --- ---- -- ------ ------<br>--- ----- -- ----,49667.90000000596,49666.59999999404,49031.038,49044.09999999404,49047.708,49681.155,,4,having
screen,html.Screen,0_2_0_1_5,2021-11-05T12:20:24.676Z,,,,,,,,,,,,,,,,53,,,,,,,,,,,,,,593.5450000029814,,response,,,99,,,,,,Space,keypress(Space),,,,,---- -- ----- -- ------ a ------- --- ----------<br>------------- ------ ------ ---- ---- ------- ----- -- ----<br>-------- ------- -- ---------- --- - --- ----- ----- ----<br>---- --- --- ----- --- ---- ---- ------- ----- ---- -------<br>--- --- -- ----- -- --- ---- -- --- ---- -- ------ ------<br>--- ----- -- ----,50275.5,50274.70000000298,49664.485,49668.29999999702,49681.155,50281.395,,5,a
screen,html.Screen,0_2_0_1_6,2021-11-05T12:20:25.148Z,,,,,,,,,,,,,,,,53,,,,,,,,,,,,,,465.20499999404274,,response,,,99,,,,,,Space,keypress(Space),,,,,---- -- ----- -- ------ - lasting --- ----------<br>------------- ------ ------ ---- ---- ------- ----- -- ----<br>-------- ------- -- ---------- --- - --- ----- ----- ----<br>---- --- --- ----- --- ---- ---- ------- ----- ---- -------<br>--- --- -- ----- -- --- ---- -- --- ---- -- ------ ------<br>--- ----- -- ----,50747.59999999404,50746.59999999404,50264.724,50276,50281.395,50764.801,,6,lasting
screen,html.Screen,0_2_0_1_7,2021-11-05T12:20:25.732Z,,,,,,,,,,,,,,,,53,,,,,,,,,,,,,,565.7989999940401,,response,,,99,,,,,,Space,keypress(Space),,,,,---- -- ----- -- ------ - ------- and ----------<br>------------- ------ ------ ---- ---- ------- ----- -- ----<br>-------- ------- -- ---------- --- - --- ----- ----- ----<br>---- --- --- ----- --- ---- ---- ------- ----- ---- -------<br>--- --- -- ----- -- --- ---- -- --- ---- -- ------ ------<br>--- ----- -- ----,51331.5,51330.59999999404,50748.131,50747.90000000596,50764.801,51348.332,,7,and
screen,html.Screen,0_2_0_1_8,2021-11-05T12:20:26.372Z,,,,,,,,,,,,,,,,53,,,,,,,,,,,,,,622.1679999999978,,response,,,99,,,,,,Space,keypress(Space),,,,,---- -- ----- -- ------ - ------- --- fulfilling<br>------------- ------ ------ ---- ---- ------- ----- -- ----<br>-------- ------- -- ---------- --- - --- ----- ----- ----<br>---- --- --- ----- --- ---- ---- ------- ----- ---- -------<br>--- --- -- ----- -- --- ---- -- --- ---- -- ------ ------<br>--- ----- -- ----,51971.70000000298,51970.5,51331.661,51331.90000000596,51348.332,51981.749,,8,fulfilling
screen,html.Screen,0_2_0_1_9,2021-11-05T12:20:27.028Z,,,,,,,,,,,,,,,,53,,,,,,,,,,,,,,644.7509999999966,,response,,,99,,,,,,Space,keypress(Space),,,,,"---- -- ----- -- ------ - ------- --- ----------<br>relationship, ------ ------ ---- ---- ------- ----- -- ----<br>-------- ------- -- ---------- --- - --- ----- ----- ----<br>---- --- --- ----- --- ---- ---- ------- ----- ---- -------<br>--- --- -- ----- -- --- ---- -- --- ---- -- ------ ------<br>--- ----- -- ----",52627.5,52626.5,51965.079,51972,51981.749,52631.996,,9,"relationship,"
screen,html.Screen,0_2_0_1_10,2021-11-05T12:20:27.820Z,,,,,,,,,,,,,,,,53,,,,,,,,,,,,,,786.9040000059613,,response,,,99,,,,,,Space,keypress(Space),,,,,---- -- ----- -- ------ - ------- --- ----------<br>------------- common ------ ---- ---- ------- ----- -- ----<br>-------- ------- -- ---------- --- - --- ----- ----- ----<br>---- --- --- ----- --- ---- ---- ------- ----- ---- -------<br>--- --- -- ----- -- --- ---- -- --- ---- -- ------ ------<br>--- ----- -- ----,53420,53418.90000000596,52615.325,52627.70000000298,52631.996,53432.211,,10,common
screen,html.Screen,0_2_0_1_11,2021-11-05T12:20:28.412Z,,,,,,,,,,,,,,,,53,,,,,,,,,,,,,,578.1890000059575,,response,,,99,,,,,,Space,keypress(Space),,,,,---- -- ----- -- ------ - ------- --- ----------<br>------------- ------ wisdom ---- ---- ------- ----- -- ----<br>-------- ------- -- ---------- --- - --- ----- ----- ----<br>---- --- --- ----- --- ---- ---- ------- ----- ---- -------<br>--- --- -- ----- -- --- ---- -- --- ---- -- ------ ------<br>--- ----- -- ----,54011.40000000596,54010.40000000596,53415.54,53420.20000000298,53432.211,54015.516,,11,wisdom
screen,html.Screen,0_2_0_1_12,2021-11-05T12:20:28.827Z,,,,,,,,,,,,,,,,53,,,,,,,,,,,,,,410.8840000059572,,response,,,99,,,,,,Space,keypress(Space),,,,,---- -- ----- -- ------ - ------- --- ----------<br>------------- ------ ------ says ---- ------- ----- -- ----<br>-------- ------- -- ---------- --- - --- ----- ----- ----<br>---- --- --- ----- --- ---- ---- ------- ----- ---- -------<br>--- --- -- ----- -- --- ---- -- --- ---- -- ------ ------<br>--- ----- -- ----,54427.29999999702,54426.40000000596,53998.847,54011.59999999404,54015.516,54432.461,,12,says
screen,html.Screen,0_2_0_1_13,2021-11-05T12:20:29.267Z,,,,,,,,,,,,,,,,53,,,,,,,,,,,,,,433.9390000059575,,response,,,99,,,,,,Space,keypress(Space),,,,,---- -- ----- -- ------ - ------- --- ----------<br>------------- ------ ------ ---- that ------- ----- -- ----<br>-------- ------- -- ---------- --- - --- ----- ----- ----<br>---- --- --- ----- --- ---- ---- ------- ----- ---- -------<br>--- --- -- ----- -- --- ---- -- --- ---- -- ------ ------<br>--- ----- -- ----,54867.20000000298,54866.40000000596,54415.79,54427.5,54432.461,54882.532,,13,that
screen,html.Screen,0_2_0_1_14,2021-11-05T12:20:29.747Z,,,,,,,,,,,,,,,,53,,,,,,,,,,,,,,463.7679999970205,,response,,,99,,,,,,Space,keypress(Space),,,,,---- -- ----- -- ------ - ------- --- ----------<br>------------- ------ ------ ---- ---- feeling ----- -- ----<br>-------- ------- -- ---------- --- - --- ----- ----- ----<br>---- --- --- ----- --- ---- ---- ------- ----- ---- -------<br>--- --- -- ----- -- --- ---- -- --- ---- -- ------ ------<br>--- ----- -- ----,55347.09999999404,55346.29999999702,54865.862,54867.5,54882.532,55349.306,,14,feeling
screen,html.Screen,0_2_0_1_15,2021-11-05T12:20:30.323Z,,,,,,,,,,,,,,,,53,,,,,,,,,,,,,,572.9939999970229,,response,,,99,,,,,,Space,keypress(Space),,,,,---- -- ----- -- ------ - ------- --- ----------<br>------------- ------ ------ ---- ---- ------- close -- ----<br>-------- ------- -- ---------- --- - --- ----- ----- ----<br>---- --- --- ----- --- ---- ---- ------- ----- ---- -------<br>--- --- -- ----- -- --- ---- -- --- ---- -- ------ ------<br>--- ----- -- ----,55923.20000000298,55922.29999999702,55332.636,55347.40000000596,55349.306,55932.666,,15,close
screen,html.Screen,0_2_0_1_16,2021-11-05T12:20:30.667Z,,,,,,,,,,,,,,,,53,,,,,,,,,,,,,,333.63399999702233,,response,,,99,,,,,,Space,keypress(Space),,,,,---- -- ----- -- ------ - ------- --- ----------<br>------------- ------ ------ ---- ---- ------- ----- to ----<br>-------- ------- -- ---------- --- - --- ----- ----- ----<br>---- --- --- ----- --- ---- ---- ------- ----- ---- -------<br>--- --- -- ----- -- --- ---- -- --- ---- -- ------ ------<br>--- ----- -- ----,56267.09999999404,56266.29999999702,55915.997,55923.40000000596,55932.666,56282.981,,16,to
screen,html.Screen,0_2_0_1_17,2021-11-05T12:20:31.067Z,,,,,,,,,,,,,,,,53,,,,,,,,,,,,,,383.21900000298047,,response,,,99,,,,,,Space,keypress(Space),,,,,---- -- ----- -- ------ - ------- --- ----------<br>------------- ------ ------ ---- ---- ------- ----- -- your<br>-------- ------- -- ---------- --- - --- ----- ----- ----<br>---- --- --- ----- --- ---- ---- ------- ----- ---- -------<br>--- --- -- ----- -- --- ---- -- --- ---- -- ------ ------<br>--- ----- -- ----,56667.09999999404,56666.20000000298,56266.309,56267.40000000596,56282.981,56682.988,,17,your
screen,html.Screen,0_2_0_1_18,2021-11-05T12:20:31.603Z,,,,,,,,,,,,,,,,53,,,,,,,,,,,,,,519.2120000029827,,response,,,99,,,,,,Space,keypress(Space),,,,,---- -- ----- -- ------ - ------- --- ----------<br>------------- ------ ------ ---- ---- ------- ----- -- ----<br>romantic ------- -- ---------- --- - --- ----- ----- ----<br>---- --- --- ----- --- ---- ---- ------- ----- ---- -------<br>--- --- -- ----- -- --- ---- -- --- ---- -- ------ ------<br>--- ----- -- ----,57203.09999999404,57202.20000000298,56666.318,56667.40000000596,56682.988,57216.304,,18,romantic
screen,html.Screen,0_2_0_1_19,2021-11-05T12:20:32.267Z,,,,,,,,,,,,,,,,53,,,,,,,,,,,,,,649.8960000029838,,response,,,99,,,,,,Space,keypress(Space),,,,,---- -- ----- -- ------ - ------- --- ----------<br>------------- ------ ------ ---- ---- ------- ----- -- ----<br>-------- partner -- ---------- --- - --- ----- ----- ----<br>---- --- --- ----- --- ---- ---- ------- ----- ---- -------<br>--- --- -- ----- -- --- ---- -- --- ---- -- ------ ------<br>--- ----- -- ----,57867.09999999404,57866.20000000298,57199.636,57203.29999999702,57216.304,57883.433,,19,partner
screen,html.Screen,0_2_0_1_20,2021-11-05T12:20:32.659Z,,,,,,,,,,,,,,,,53,,,,,,,,,,,,,,374.76700000298297,,response,,,99,,,,,,Space,keypress(Space),,,,,---- -- ----- -- ------ - ------- --- ----------<br>------------- ------ ------ ---- ---- ------- ----- -- ----<br>-------- ------- is ---------- --- - --- ----- ----- ----<br>---- --- --- ----- --- ---- ---- ------- ----- ---- -------<br>--- --- -- ----- -- --- ---- -- --- ---- -- ------ ------<br>--- ----- -- ----,58259,58258.20000000298,57866.761,57867.29999999702,57883.433,58266.746,,20,is
screen,html.Screen,0_2_0_1_21,2021-11-05T12:20:32.987Z,,,,,,,,,,,,,,,,53,,,,,,,,,,,,,,319.35399999404035,,response,,,99,,,,,,Space,keypress(Space),,,,,---- -- ----- -- ------ - ------- --- ----------<br>------------- ------ ------ ---- ---- ------- ----- -- ----<br>-------- ------- -- paramount. --- - --- ----- ----- ----<br>---- --- --- ----- --- ---- ---- ------- ----- ---- -------<br>--- --- -- ----- -- --- ---- -- --- ---- -- ------ ------<br>--- ----- -- ----,58587,58586.09999999404,58250.076,58259.29999999702,58266.746,58600.15,,21,paramount.
screen,html.Screen,0_2_0_1_22,2021-11-05T12:20:34.251Z,,,,,,,,,,,,,,,,53,,,,,,,,,,,,,,1249.949999994038,,response,,,99,,,,,,Space,keypress(Space),,,,,---- -- ----- -- ------ - ------- --- ----------<br>------------- ------ ------ ---- ---- ------- ----- -- ----<br>-------- ------- -- ---------- But - --- ----- ----- ----<br>---- --- --- ----- --- ---- ---- ------- ----- ---- -------<br>--- --- -- ----- -- --- ---- -- --- ---- -- ------ ------<br>--- ----- -- ----,59850.90000000596,59850.09999999404,58583.48,58587.5,58600.15,59867.097,,22,But
screen,html.Screen,0_2_0_1_23,2021-11-05T12:20:34.510Z,,,,,,,,,,,,,,,,53,,,,,,,,,,,,,,238.90299999999843,,response,,,99,,,,,,Space,keypress(Space),,,,,---- -- ----- -- ------ - ------- --- ----------<br>------------- ------ ------ ---- ---- ------- ----- -- ----<br>-------- ------- -- ---------- --- a --- ----- ----- ----<br>---- --- --- ----- --- ---- ---- ------- ----- ---- -------<br>--- --- -- ----- -- --- ---- -- --- ---- -- ------ ------<br>--- ----- -- ----,60106.90000000596,60106,59850.427,59851.20000000298,59867.097,60117.087,,23,a
screen,html.Screen,0_2_0_1_24,2021-11-05T12:20:34.814Z,,,,,,,,,,,,,,,,53,,,,,,,,,,,,,,293.01299999404,,response,,,99,,,,,,Space,keypress(Space),,,,,---- -- ----- -- ------ - ------- --- ----------<br>------------- ------ ------ ---- ---- ------- ----- -- ----<br>-------- ------- -- ---------- --- - new ----- ----- ----<br>---- --- --- ----- --- ---- ---- ------- ----- ---- -------<br>--- --- -- ----- -- --- ---- -- --- ---- -- ------ ------<br>--- ----- -- ----,60410.90000000596,60410.09999999404,60100.418,60107.20000000298,60117.087,60417.249,,24,new
screen,html.Screen,0_2_0_1_25,2021-11-05T12:20:35.078Z,,,,,,,,,,,,,,,,53,,,,,,,,,,,,,,256.8509999940361,,response,,,99,,,,,,Space,keypress(Space),,,,,---- -- ----- -- ------ - ------- --- ----------<br>------------- ------ ------ ---- ---- ------- ----- -- ----<br>-------- ------- -- ---------- --- - --- study ----- ----<br>---- --- --- ----- --- ---- ---- ------- ----- ---- -------<br>--- --- -- ----- -- --- ---- -- --- ---- -- ------ ------<br>--- ----- -- ----,60674.79999999702,60674.09999999404,60400.579,60411.09999999404,60417.249,60684.024,,25,study
screen,html.Screen,0_2_0_1_26,2021-11-05T12:20:35.958Z,,,,,,,,,,,,,,,,53,,,,,,,,,,,,,,869.9760000000024,,response,,,99,,,,,,Space,keypress(Space),,,,,---- -- ----- -- ------ - ------- --- ----------<br>------------- ------ ------ ---- ---- ------- ----- -- ----<br>-------- ------- -- ---------- --- - --- ----- finds ----<br>---- --- --- ----- --- ---- ---- ------- ----- ---- -------<br>--- --- -- ----- -- --- ---- -- --- ---- -- ------ ------<br>--- ----- -- ----,61554.90000000596,61554,60667.353,60675.09999999404,60684.024,61567.695,,26,finds
screen,html.Screen,0_2_0_1_27,2021-11-05T12:20:36.518Z,,,,,,,,,,,,,,,,53,,,,,,,,,,,,,,546.3050000000003,,response,,,99,,,,,,Space,keypress(Space),,,,,---- -- ----- -- ------ - ------- --- ----------<br>------------- ------ ------ ---- ---- ------- ----- -- ----<br>-------- ------- -- ---------- --- - --- ----- ----- that<br>---- --- --- ----- --- ---- ---- ------- ----- ---- -------<br>--- --- -- ----- -- --- ---- -- --- ---- -- ------ ------<br>--- ----- -- ----,62114.79999999702,62114,61551.023,61555.09999999404,61567.695,62117.771,,27,that
screen,html.Screen,0_2_0_1_28,2021-11-05T12:20:37.102Z,,,,,,,,,,,,,,,,53,,,,,,,,,,,,,,580.2289999999994,,response,,,99,,,,,,Space,keypress(Space),,,,,---- -- ----- -- ------ - ------- --- ----------<br>------------- ------ ------ ---- ---- ------- ----- -- ----<br>-------- ------- -- ---------- --- - --- ----- ----- ----<br>it's --- --- ----- --- ---- ---- ------- ----- ---- -------<br>--- --- -- ----- -- --- ---- -- --- ---- -- ------ ------<br>--- ----- -- ----,62698.70000000298,62698,62101.1,62115,62117.771,62701.189,,28,it's
screen,html.Screen,0_2_0_1_29,2021-11-05T12:20:37.398Z,,,,,,,,,,,,,,,,53,,,,,,,,,,,,,,292.711000005962,,response,,,99,,,,,,Space,keypress(Space),,,,,---- -- ----- -- ------ - ------- --- ----------<br>------------- ------ ------ ---- ---- ------- ----- -- ----<br>-------- ------- -- ---------- --- - --- ----- ----- ----<br>---- not --- ----- --- ---- ---- ------- ----- ---- -------<br>--- --- -- ----- -- --- ---- -- --- ---- -- ------ ------<br>--- ----- -- ----,62994.79999999702,62993.90000000596,62684.519,62699,62701.189,63001.295,,29,not
screen,html.Screen,0_2_0_1_30,2021-11-05T12:20:37.646Z,,,,,,,,,,,,,,,,53,,,,,,,,,,,,,,240.6050000059622,,response,,,99,,,,,,Space,keypress(Space),,,,,---- -- ----- -- ------ - ------- --- ----------<br>------------- ------ ------ ---- ---- ------- ----- -- ----<br>-------- ------- -- ---------- --- - --- ----- ----- ----<br>---- --- how ----- --- ---- ---- ------- ----- ---- -------<br>--- --- -- ----- -- --- ---- -- --- ---- -- ------ ------<br>--- ----- -- ----,63242.79999999702,63241.90000000596,62984.625,62995,63001.295,63251.365,,30,how
screen,html.Screen,0_2_0_1_31,2021-11-05T12:20:38.087Z,,,,,,,,,,,,,,,,53,,,,,,,,,,,,,,431.0350000059625,,response,,,99,,,,,,Space,keypress(Space),,,,,---- -- ----- -- ------ - ------- --- ----------<br>------------- ------ ------ ---- ---- ------- ----- -- ----<br>-------- ------- -- ---------- --- - --- ----- ----- ----<br>---- --- --- close --- ---- ---- ------- ----- ---- -------<br>--- --- -- ----- -- --- ---- -- --- ---- -- ------ ------<br>--- ----- -- ----,63683.20000000298,63682.40000000596,63234.695,63243,63251.365,63684.842,,31,close
screen,html.Screen,0_2_0_1_32,2021-11-05T12:20:38.542Z,,,,,,,,,,,,,,,,53,,,,,,,,,,,,,,453.05800000596355,,response,,,99,,,,,,Space,keypress(Space),,,,,---- -- ----- -- ------ - ------- --- ----------<br>------------- ------ ------ ---- ---- ------- ----- -- ----<br>-------- ------- -- ---------- --- - --- ----- ----- ----<br>---- --- --- ----- you ---- ---- ------- ----- ---- -------<br>--- --- -- ----- -- --- ---- -- --- ---- -- ------ ------<br>--- ----- -- ----,64138.70000000298,64137.90000000596,63668.171,63683.5,63684.842,64151.593,,32,you
screen,html.Screen,0_2_0_1_33,2021-11-05T12:20:38.982Z,,,,,,,,,,,,,,,,53,,,,,,,,,,,,,,426.206999997019,,response,,,99,,,,,,Space,keypress(Space),,,,,---- -- ----- -- ------ - ------- --- ----------<br>------------- ------ ------ ---- ---- ------- ----- -- ----<br>-------- ------- -- ---------- --- - --- ----- ----- ----<br>---- --- --- ----- --- feel ---- ------- ----- ---- -------<br>--- --- -- ----- -- --- ---- -- --- ---- -- ------ ------<br>--- ----- -- ----,64579.09999999404,64577.79999999702,64134.923,64139,64151.593,64585.01,,33,feel
screen,html.Screen,0_2_0_1_34,2021-11-05T12:20:39.494Z,,,,,,,,,,,,,,,,53,,,,,,,,,,,,,,504.78999999701773,,response,,,99,,,,,,Space,keypress(Space),,,,,---- -- ----- -- ------ - ------- --- ----------<br>------------- ------ ------ ---- ---- ------- ----- -- ----<br>-------- ------- -- ---------- --- - --- ----- ----- ----<br>---- --- --- ----- --- ---- that ------- ----- ---- -------<br>--- --- -- ----- -- --- ---- -- --- ---- -- ------ ------<br>--- ----- -- ----,65090.59999999404,65089.79999999702,64568.34,64579.29999999702,64585.01,65101.819,,34,that
screen,html.Screen,0_2_0_1_35,2021-11-05T12:20:40.382Z,,,,,,,,,,,,,,,,53,,,,,,,,,,,,,,875.8810000029771,,response,,,99,,,,,,Space,keypress(Space),,,,,---- -- ----- -- ------ - ------- --- ----------<br>------------- ------ ------ ---- ---- ------- ----- -- ----<br>-------- ------- -- ---------- --- - --- ----- ----- ----<br>---- --- --- ----- --- ---- ---- matters ----- ---- -------<br>--- --- -- ----- -- --- ---- -- --- ---- -- ------ ------<br>--- ----- -- ----,65978.59999999404,65977.70000000298,65085.149,65090.90000000596,65101.819,65985.358,,35,matters
screen,html.Screen,0_2_0_1_36,2021-11-05T12:20:40.790Z,,,,,,,,,,,,,,,,53,,,,,,,,,,,,,,400.44199999702687,,response,,,99,,,,,,Space,keypress(Space),,,,,"---- -- ----- -- ------ - ------- --- ----------<br>------------- ------ ------ ---- ---- ------- ----- -- ----<br>-------- ------- -- ---------- --- - --- ----- ----- ----<br>---- --- --- ----- --- ---- ---- ------- most, ---- -------<br>--- --- -- ----- -- --- ---- -- --- ---- -- ------ ------<br>--- ----- -- ----",66387,66385.79999999702,65968.688,65978.79999999702,65985.358,66402.206,,36,"most,"
screen,html.Screen,0_2_0_1_37,2021-11-05T12:20:41.110Z,,,,,,,,,,,,,,,,53,,,,,,,,,,,,,,303.49400000297464,,response,,,99,,,,,,Space,keypress(Space),,,,,---- -- ----- -- ------ - ------- --- ----------<br>------------- ------ ------ ---- ---- ------- ----- -- ----<br>-------- ------- -- ---------- --- - --- ----- ----- ----<br>---- --- --- ----- --- ---- ---- ------- ----- it's -------<br>--- --- -- ----- -- --- ---- -- --- ---- -- ------ ------<br>--- ----- -- ----,66706.5,66705.70000000298,66385.535,66387.29999999702,66402.206,66718.925,,37,it's
screen,html.Screen,0_2_0_1_38,2021-11-05T12:20:41.534Z,,,,,,,,,,,,,,,,53,,,,,,,,,,,,,,410.7750000029773,,response,,,99,,,,,,Space,keypress(Space),,,,,---- -- ----- -- ------ - ------- --- ----------<br>------------- ------ ------ ---- ---- ------- ----- -- ----<br>-------- ------- -- ---------- --- - --- ----- ----- ----<br>---- --- --- ----- --- ---- ---- ------- ----- ---- whether<br>--- --- -- ----- -- --- ---- -- --- ---- -- ------ ------<br>--- ----- -- ----,67130.5,67129.70000000298,66702.255,66706.79999999702,66718.925,67152.223,,38,whether
screen,html.Screen,0_2_0_1_39,2021-11-05T12:20:41.998Z,,,,,,,,,,,,,,,,53,,,,,,,,,,,,,,441.4770000029821,,response,,,99,,,,,,Space,keypress(Space),,,,,---- -- ----- -- ------ - ------- --- ----------<br>------------- ------ ------ ---- ---- ------- ----- -- ----<br>-------- ------- -- ---------- --- - --- ----- ----- ----<br>---- --- --- ----- --- ---- ---- ------- ----- ---- -------<br>you --- -- ----- -- --- ---- -- --- ---- -- ------ ------<br>--- ----- -- ----,67594.5,67593.70000000298,67135.555,67130.70000000298,67152.223,67602.611,,39,you
screen,html.Screen,0_2_0_1_40,2021-11-05T12:20:42.310Z,,,,,,,,,,,,,,,,53,,,,,,,,,,,,,,302.9889999940351,,response,,,99,,,,,,Space,keypress(Space),,,,,---- -- ----- -- ------ - ------- --- ----------<br>------------- ------ ------ ---- ---- ------- ----- -- ----<br>-------- ------- -- ---------- --- - --- ----- ----- ----<br>---- --- --- ----- --- ---- ---- ------- ----- ---- -------<br>--- are -- ----- -- --- ---- -- --- ---- -- ------ ------<br>--- ----- -- ----,67906.5,67905.59999999404,67585.938,67594.70000000298,67602.611,67919.145,,40,are
screen,html.Screen,0_2_0_1_41,2021-11-05T12:20:42.654Z,,,,,,,,,,,,,,,,53,,,,,,,,,,,,,,330.45499999403546,,response,,,99,,,,,,Space,keypress(Space),,,,,---- -- ----- -- ------ - ------- --- ----------<br>------------- ------ ------ ---- ---- ------- ----- -- ----<br>-------- ------- -- ---------- --- - --- ----- ----- ----<br>---- --- --- ----- --- ---- ---- ------- ----- ---- -------<br>--- --- as ----- -- --- ---- -- --- ---- -- ------ ------<br>--- ----- -- ----,68250.29999999702,68249.59999999404,67902.476,67906.70000000298,67919.145,68252.602,,41,as
screen,html.Screen,0_2_0_1_42,2021-11-05T12:20:42.966Z,,,,,,,,,,,,,,,,53,,,,,,,,,,,,,,308.9979999940406,,response,,,99,,,,,,Space,keypress(Space),,,,,---- -- ----- -- ------ - ------- --- ----------<br>------------- ------ ------ ---- ---- ------- ----- -- ----<br>-------- ------- -- ---------- --- - --- ----- ----- ----<br>---- --- --- ----- --- ---- ---- ------- ----- ---- -------<br>--- --- -- close -- --- ---- -- --- ---- -- ------ ------<br>--- ----- -- ----,68562.5,68561.59999999404,68235.932,68250.59999999404,68252.602,68569.345,,42,close
screen,html.Screen,0_2_0_1_43,2021-11-05T12:20:43.254Z,,,,,,,,,,,,,,,,53,,,,,,,,,,,,,,280.15499999999884,,response,,,99,,,,,,Space,keypress(Space),,,,,---- -- ----- -- ------ - ------- --- ----------<br>------------- ------ ------ ---- ---- ------- ----- -- ----<br>-------- ------- -- ---------- --- - --- ----- ----- ----<br>---- --- --- ----- --- ---- ---- ------- ----- ---- -------<br>--- --- -- ----- as --- ---- -- --- ---- -- ------ ------<br>--- ----- -- ----,68850.29999999702,68849.5,68552.675,68562.70000000298,68569.345,68852.758,,43,as
screen,html.Screen,0_2_0_1_44,2021-11-05T12:20:43.486Z,,,,,,,,,,,,,,,,53,,,,,,,,,,,,,,228.74199999999837,,response,,,99,,,,,,Space,keypress(Space),,,,,---- -- ----- -- ------ - ------- --- ----------<br>------------- ------ ------ ---- ---- ------- ----- -- ----<br>-------- ------- -- ---------- --- - --- ----- ----- ----<br>---- --- --- ----- --- ---- ---- ------- ----- ---- -------<br>--- --- -- ----- -- you ---- -- --- ---- -- ------ ------<br>--- ----- -- ----,69082.40000000596,69081.5,68836.088,68850.5,68852.758,69086.312,,44,you
screen,html.Screen,0_2_0_1_45,2021-11-05T12:20:43.790Z,,,,,,,,,,,,,,,,53,,,,,,,,,,,,,,299.2879999940342,,response,,,99,,,,,,Space,keypress(Space),,,,,---- -- ----- -- ------ - ------- --- ----------<br>------------- ------ ------ ---- ---- ------- ----- -- ----<br>-------- ------- -- ---------- --- - --- ----- ----- ----<br>---- --- --- ----- --- ---- ---- ------- ----- ---- -------<br>--- --- -- ----- -- --- want -- --- ---- -- ------ ------<br>--- ----- -- ----,69386.40000000596,69385.59999999404,69069.638,69082.59999999404,69086.312,69402.942,,45,want
screen,html.Screen,0_2_0_1_46,2021-11-05T12:20:44.086Z,,,,,,,,,,,,,,,,53,,,,,,,,,,,,,,278.55800000000454,,response,,,99,,,,,,Space,keypress(Space),,,,,---- -- ----- -- ------ - ------- --- ----------<br>------------- ------ ------ ---- ---- ------- ----- -- ----<br>-------- ------- -- ---------- --- - --- ----- ----- ----<br>---- --- --- ----- --- ---- ---- ------- ----- ---- -------<br>--- --- -- ----- -- --- ---- to --- ---- -- ------ ------<br>--- ----- -- ----,69682.29999999702,69681.5,69386.272,69386.59999999404,69402.942,69703.027,,46,to
screen,html.Screen,0_2_0_1_47,2021-11-05T12:20:44.422Z,,,,,,,,,,,,,,,,53,,,,,,,,,,,,,,314.3730000059586,,response,,,99,,,,,,Space,keypress(Space),,,,,"---- -- ----- -- ------ - ------- --- ----------<br>------------- ------ ------ ---- ---- ------- ----- -- ----<br>-------- ------- -- ---------- --- - --- ----- ----- ----<br>---- --- --- ----- --- ---- ---- ------- ----- ---- -------<br>--- --- -- ----- -- --- ---- -- be, ---- -- ------ ------<br>--- ----- -- ----",70018.20000000298,70017.40000000596,69686.357,69682.5,69703.027,70036.433,,47,"be,"
screen,html.Screen,0_2_0_1_48,2021-11-05T12:20:44.734Z,,,,,,,,,,,,,,,,53,,,,,,,,,,,,,,293.06699999999546,,response,,,99,,,,,,Space,keypress(Space),,,,,---- -- ----- -- ------ - ------- --- ----------<br>------------- ------ ------ ---- ---- ------- ----- -- ----<br>-------- ------- -- ---------- --- - --- ----- ----- ----<br>---- --- --- ----- --- ---- ---- ------- ----- ---- -------<br>--- --- -- ----- -- --- ---- -- --- even -- ------ ------<br>--- ----- -- ----,70330.20000000298,70329.5,70019.763,70018.40000000596,70036.433,70336.507,,48,even
screen,html.Screen,0_2_0_1_49,2021-11-05T12:20:45.238Z,,,,,,,,,,,,,,,,53,,,,,,,,,,,,,,496.8930000059627,,response,,,99,,,,,,Space,keypress(Space),,,,,---- -- ----- -- ------ - ------- --- ----------<br>------------- ------ ------ ---- ---- ------- ----- -- ----<br>-------- ------- -- ---------- --- - --- ----- ----- ----<br>---- --- --- ----- --- ---- ---- ------- ----- ---- -------<br>--- --- -- ----- -- --- ---- -- --- ---- if ------ ------<br>--- ----- -- ----,70834.29999999702,70833.40000000596,70319.837,70330.5,70336.507,70836.673,,49,if
screen,html.Screen,0_2_0_1_50,2021-11-05T12:20:45.574Z,,,,,,,,,,,,,,,,53,,,,,,,,,,,,,,332.72700000596524,,response,,,99,,,,,,Space,keypress(Space),,,,,---- -- ----- -- ------ - ------- --- ----------<br>------------- ------ ------ ---- ---- ------- ----- -- ----<br>-------- ------- -- ---------- --- - --- ----- ----- ----<br>---- --- --- ----- --- ---- ---- ------- ----- ---- -------<br>--- --- -- ----- -- --- ---- -- --- ---- -- that's ------<br>--- ----- -- ----,71170.20000000298,71169.40000000596,70820.002,70834.5,70836.673,71186.571,,50,that's
screen,html.Screen,0_2_0_1_51,2021-11-05T12:20:45.990Z,,,,,,,,,,,,,,,,53,,,,,,,,,,,,,,398.8290000059642,,response,,,99,,,,,,Space,keypress(Space),,,,,---- -- ----- -- ------ - ------- --- ----------<br>------------- ------ ------ ---- ---- ------- ----- -- ----<br>-------- ------- -- ---------- --- - --- ----- ----- ----<br>---- --- --- ----- --- ---- ---- ------- ----- ---- -------<br>--- --- -- ----- -- --- ---- -- --- ---- -- ------ really<br>--- ----- -- ----,71586.20000000298,71585.40000000596,71169.903,71170.5,71186.571,71603.568,,51,really
screen,html.Screen,0_2_0_1_52,2021-11-05T12:20:46.342Z,,,,,,,,,,,,,,,,53,,,,,,,,,,,,,,333.83200000596116,,response,,,99,,,,,,Space,keypress(Space),,,,,---- -- ----- -- ------ - ------- --- ----------<br>------------- ------ ------ ---- ---- ------- ----- -- ----<br>-------- ------- -- ---------- --- - --- ----- ----- ----<br>---- --- --- ----- --- ---- ---- ------- ----- ---- -------<br>--- --- -- ----- -- --- ---- -- --- ---- -- ------ ------<br>not ----- -- ----,71938.20000000298,71937.40000000596,71586.896,71586.5,71603.568,71953.636,,52,not
screen,html.Screen,0_2_0_1_53,2021-11-05T12:20:46.638Z,,,,,,,,,,,,,,,,53,,,,,,,,,,,,,,279.76400000596186,,response,,,99,,,,,,Space,keypress(Space),,,,,---- -- ----- -- ------ - ------- --- ----------<br>------------- ------ ------ ---- ---- ------- ----- -- ----<br>-------- ------- -- ---------- --- - --- ----- ----- ----<br>---- --- --- ----- --- ---- ---- ------- ----- ---- -------<br>--- --- -- ----- -- --- ---- -- --- ---- -- ------ ------<br>--- close -- ----,72234.29999999702,72233.40000000596,71936.965,71938.40000000596,71953.636,72236.996,,53,close
screen,html.Screen,0_2_0_1_54,2021-11-05T12:20:47.062Z,,,,,,,,,,,,,,,,53,,,,,,,,,,,,,,420.4040000059613,,response,,,99,,,,,,Space,keypress(Space),,,,,---- -- ----- -- ------ - ------- --- ----------<br>------------- ------ ------ ---- ---- ------- ----- -- ----<br>-------- ------- -- ---------- --- - --- ----- ----- ----<br>---- --- --- ----- --- ---- ---- ------- ----- ---- -------<br>--- --- -- ----- -- --- ---- -- --- ---- -- ------ ------<br>--- ----- at ----,72658.20000000298,72657.40000000596,72220.326,72234.5,72236.996,72670.479,,54,at
screen,html.Screen,0_2_0_1_55,2021-11-05T12:20:47.422Z,,,,,,,,,,,,,,,,53,,,,,,,,,,,,,,346.82099999701313,,response,,,99,,,,,,Space,keypress(Space),,,,,---- -- ----- -- ------ - ------- --- ----------<br>------------- ------ ------ ---- ---- ------- ----- -- ----<br>-------- ------- -- ---------- --- - --- ----- ----- ----<br>---- --- --- ----- --- ---- ---- ------- ----- ---- -------<br>--- --- -- ----- -- --- ---- -- --- ---- -- ------ ------<br>--- ----- -- all.,73018.20000000298,73017.29999999702,72653.808,72658.40000000596,72670.479,73037.245,,55,all.
Item 99,flow.Loop,0_2_0_1,2021-11-05T12:20:47.426Z,,,,,,,,,,,,,,,,,,,,,,,,,,,,,,26787.224999997023,,completion,,,,E,,,,,,,,,,silence,,73022.90000000596,73017.29999999702,46213.406,46221.40000000596,46230.075,73037.245,,,
Question 1,html.Screen,0_2_0_2,2021-11-05T12:20:53.943Z,,,,,,,,,,,,,,,,,,,,,,,,,,,true,FALSE,,6501.255000000005,,response,,,99,E,,,,,FALSE,click #choice-2,,,,silence,,79540,79538.5,73020.574,73023.09999999404,73037.245,79555.536,,,
Question 2,html.Screen,0_2_0_3,2021-11-05T12:20:59.059Z,,,,,,,,,,,,,,,,,,,,,,,,,,,true,TRUE,,5098.464000000007,,response,,,99,E,,,,,TRUE,click #choice-1,,,,silence,,84655.09999999404,84654,79538.866,79540.29999999702,79555.536,84656.903,,,
Item 99,flow.Sequence,0_2_0,2021-11-05T12:20:59.059Z,,,,,,,,,,,,,,,,,,,,,,,,,,,,,,48426.368,,completion,,,,,,,,,,,,,,,,84655.59999999404,84654,36210.962,36219.90000000596,36227.632,84656.903,,,
Holding screen,html.Screen,0_2_1_0,2021-11-05T12:21:09.047Z,,,,,,,,,,,,,,,,,,,,,,,,,,,,,,10002.604999999996,,timeout,,,,,,,,,,,,,,,,94643.70000000298,94642.837,84640.232,84656,84656.903,94659.508,,,
screen,html.Screen,0_2_1_1_0,2021-11-05T12:21:10.085Z,,,,,,,,,,,,,,,,54,,,,,,,,,,,,,,1020.9919999999984,,response,,,100,,,,,,Space,keypress(Space),,,,,At --- ---- --- ------ ----- ------- ---- -- --- ------- --<br>------- ---------- ------ -- ----- -- ----- -- ---- ------<br>--- ----- --- --- ------ -------- ----- --- ------ ----- --<br>----- ----- ---------- --- --- ------ ------ ---- -- ------<br>------- --- ------ ----- --- ---- ------- -- ---- --- --<br>------- ------,95681.40000000596,95680.5,94642.837,94643.79999999702,94659.508,95692.836,,0,At
screen,html.Screen,0_2_1_1_1,2021-11-05T12:21:11.212Z,,,,,,,,,,,,,,,,54,,,,,,,,,,,,,,1115.1640000000043,,response,,,100,,,,,,Space,keypress(Space),,,,,-- the ---- --- ------ ----- ------- ---- -- --- ------- --<br>------- ---------- ------ -- ----- -- ----- -- ---- ------<br>--- ----- --- --- ------ -------- ----- --- ------ ----- --<br>----- ----- ---------- --- --- ------ ------ ---- -- ------<br>------- --- ------ ----- --- ---- ------- -- ---- --- --<br>------- ------,96808.79999999702,96808,95676.167,95681.59999999404,95692.836,96826.536,,1,the
screen,html.Screen,0_2_1_1_2,2021-11-05T12:21:11.500Z,,,,,,,,,,,,,,,,54,,,,,,,,,,,,,,269.4640000000072,,response,,,100,,,,,,Space,keypress(Space),,,,,-- --- time --- ------ ----- ------- ---- -- --- ------- --<br>------- ---------- ------ -- ----- -- ----- -- ---- ------<br>--- ----- --- --- ------ -------- ----- --- ------ ----- --<br>----- ----- ---------- --- --- ------ ------ ---- -- ------<br>------- --- ------ ----- --- ---- ------- -- ---- --- --<br>------- ------,97096.79999999702,97096,96809.866,96809.09999999404,96826.536,97110.139,,2,time
screen,html.Screen,0_2_1_1_3,2021-11-05T12:21:11.820Z,,,,,,,,,,,,,,,,54,,,,,,,,,,,,,,305.8610000000044,,response,,,100,,,,,,Space,keypress(Space),,,,,-- --- ---- the ------ ----- ------- ---- -- --- ------- --<br>------- ---------- ------ -- ----- -- ----- -- ---- ------<br>--- ----- --- --- ------ -------- ----- --- ------ ----- --<br>----- ----- ---------- --- --- ------ ------ ---- -- ------<br>------- --- ------ ----- --- ---- ------- -- ---- --- --<br>------- ------,97416.79999999702,97416,97093.468,97097.09999999404,97110.139,97426.86,,3,the
screen,html.Screen,0_2_1_1_4,2021-11-05T12:21:12.158Z,,,,,,,,,,,,,,,,54,,,,,,,,,,,,,,325.1399999999994,,response,,,100,,,,,,Space,keypress(Space),,,,,-- --- ---- --- French ----- ------- ---- -- --- ------- --<br>------- ---------- ------ -- ----- -- ----- -- ---- ------<br>--- ----- --- --- ------ -------- ----- --- ------ ----- --<br>----- ----- ---------- --- --- ------ ------ ---- -- ------<br>------- --- ------ ----- --- ---- ------- -- ---- --- --<br>------- ------,97754.09999999404,97752,97410.189,97417,97426.86,97760.205,,4,French
screen,html.Screen,0_2_1_1_5,2021-11-05T12:21:12.452Z,,,,,,,,,,,,,,,,54,,,,,,,,,,,,,,287.79499999999825,,response,,,100,,,,,,Space,keypress(Space),,,,,-- --- ---- --- ------ crown ------- ---- -- --- ------- --<br>------- ---------- ------ -- ----- -- ----- -- ---- ------<br>--- ----- --- --- ------ -------- ----- --- ------ ----- --<br>----- ----- ---------- --- --- ------ ------ ---- -- ------<br>------- --- ------ ----- --- ---- ------- -- ---- --- --<br>------- ------,98048.79999999702,98048,97743.536,97754.40000000596,97760.205,98060.31,,5,crown
screen,html.Screen,0_2_1_1_6,2021-11-05T12:21:12.788Z,,,,,,,,,,,,,,,,54,,,,,,,,,,,,,,323.6900000000023,,response,,,100,,,,,,Space,keypress(Space),,,,,-- --- ---- --- ------ ----- secured ---- -- --- ------- --<br>------- ---------- ------ -- ----- -- ----- -- ---- ------<br>--- ----- --- --- ------ -------- ----- --- ------ ----- --<br>----- ----- ---------- --- --- ------ ------ ---- -- ------<br>------- --- ------ ----- --- ---- ------- -- ---- --- --<br>------- ------,98384.79999999702,98384,98043.64,98049.09999999404,98060.31,98393.715,,6,secured
screen,html.Screen,0_2_1_1_7,2021-11-05T12:21:13.116Z,,,,,,,,,,,,,,,,54,,,,,,,,,,,,,,318.18500000596396,,response,,,100,,,,,,Space,keypress(Space),,,,,-- --- ---- --- ------ ----- ------- much -- --- ------- --<br>------- ---------- ------ -- ----- -- ----- -- ---- ------<br>--- ----- --- --- ------ -------- ----- --- ------ ----- --<br>----- ----- ---------- --- --- ------ ------ ---- -- ------<br>------- --- ------ ----- --- ---- ------- -- ---- --- --<br>------- ------,98712.79999999702,98711.90000000596,98377.045,98385,98393.715,98727.193,,7,much
screen,html.Screen,0_2_1_1_8,2021-11-05T12:21:13.388Z,,,,,,,,,,,,,,,,54,,,,,,,,,,,,,,256.8070000000007,,response,,,100,,,,,,Space,keypress(Space),,,,,-- --- ---- --- ------ ----- ------- ---- of --- ------- --<br>------- ---------- ------ -- ----- -- ----- -- ---- ------<br>--- ----- --- --- ------ -------- ----- --- ------ ----- --<br>----- ----- ---------- --- --- ------ ------ ---- -- ------<br>------- --- ------ ----- --- ---- ------- -- ---- --- --<br>------- ------,98984.79999999702,98984,98710.522,98713,98727.193,98993.923,,8,of
screen,html.Screen,0_2_1_1_9,2021-11-05T12:21:13.700Z,,,,,,,,,,,,,,,,54,,,,,,,,,,,,,,302.0770000000048,,response,,,100,,,,,,Space,keypress(Space),,,,,-- --- ---- --- ------ ----- ------- ---- -- its ------- --<br>------- ---------- ------ -- ----- -- ----- -- ---- ------<br>--- ----- --- --- ------ -------- ----- --- ------ ----- --<br>----- ----- ---------- --- --- ------ ------ ---- -- ------<br>------- --- ------ ----- --- ---- ------- -- ---- --- --<br>------- ------,99296.70000000298,99296,98977.252,98985,98993.923,99310.636,,9,its
screen,html.Screen,0_2_1_1_10,2021-11-05T12:21:14.108Z,,,,,,,,,,,,,,,,54,,,,,,,,,,,,,,393.26400000596186,,response,,,100,,,,,,Space,keypress(Space),,,,,-- --- ---- --- ------ ----- ------- ---- -- --- revenue --<br>------- ---------- ------ -- ----- -- ----- -- ---- ------<br>--- ----- --- --- ------ -------- ----- --- ------ ----- --<br>----- ----- ---------- --- --- ------ ------ ---- -- ------<br>------- --- ------ ----- --- ---- ------- -- ---- --- --<br>------- ------,99704.70000000298,99703.90000000596,99293.966,99297,99310.636,99710.684,,10,revenue
screen,html.Screen,0_2_1_1_11,2021-11-05T12:21:14.500Z,,,,,,,,,,,,,,,,54,,,,,,,,,,,,,,385.11599999702594,,response,,,100,,,,,,Space,keypress(Space),,,,,-- --- ---- --- ------ ----- ------- ---- -- --- ------- by<br>------- ---------- ------ -- ----- -- ----- -- ---- ------<br>--- ----- --- --- ------ -------- ----- --- ------ ----- --<br>----- ----- ---------- --- --- ------ ------ ---- -- ------<br>------- --- ------ ----- --- ---- ------- -- ---- --- --<br>------- ------,100096.70000000298,100095.79999999702,99694.015,99704.90000000596,99710.684,100110.874,,11,by
screen,html.Screen,0_2_1_1_12,2021-11-05T12:21:15.092Z,,,,,,,,,,,,,,,,54,,,,,,,,,,,,,,577.0260000059643,,response,,,100,,,,,,Space,keypress(Space),,,,,-- --- ---- --- ------ ----- ------- ---- -- --- ------- --<br>issuing ---------- ------ -- ----- -- ----- -- ---- ------<br>--- ----- --- --- ------ -------- ----- --- ------ ----- --<br>----- ----- ---------- --- --- ------ ------ ---- -- ------<br>------- --- ------ ----- --- ---- ------- -- ---- --- --<br>------- ------,100688.59999999404,100687.90000000596,100094.203,100096.90000000596,100110.874,100694.31,,12,issuing
screen,html.Screen,0_2_1_1_13,2021-11-05T12:21:15.332Z,,,,,,,,,,,,,,,,54,,,,,,,,,,,,,,233.5900000059628,,response,,,100,,,,,,Space,keypress(Space),,,,,-- --- ---- --- ------ ----- ------- ---- -- --- ------- --<br>------- government ------ -- ----- -- ----- -- ---- ------<br>--- ----- --- --- ------ -------- ----- --- ------ ----- --<br>----- ----- ---------- --- --- ------ ------ ---- -- ------<br>------- --- ------ ----- --- ---- ------- -- ---- --- --<br>------- ------,100928.70000000298,100927.90000000596,100677.64,100688.90000000596,100694.31,100944.294,,13,government
screen,html.Screen,0_2_1_1_14,2021-11-05T12:21:17.236Z,,,,,,,,,,,,,,,,54,,,,,,,,,,,,,,1887.5059999970254,,response,,,100,,,,,,Space,keypress(Space),,,,,-- --- ---- --- ------ ----- ------- ---- -- --- ------- --<br>------- ---------- bonds. -- ----- -- ----- -- ---- ------<br>--- ----- --- --- ------ -------- ----- --- ------ ----- --<br>----- ----- ---------- --- --- ------ ------ ---- -- ------<br>------- --- ------ ----- --- ---- ------- -- ---- --- --<br>------- ------,102832.5,102831.79999999702,100927.625,100928.90000000596,100944.294,102844.918,,14,bonds.
screen,html.Screen,0_2_1_1_15,2021-11-05T12:21:17.700Z,,,,,,,,,,,,,,,,54,,,,,,,,,,,,,,450.7820000029751,,response,,,100,,,,,,Space,keypress(Space),,,,,-- --- ---- --- ------ ----- ------- ---- -- --- ------- --<br>------- ---------- ------ In ----- -- ----- -- ---- ------<br>--- ----- --- --- ------ -------- ----- --- ------ ----- --<br>----- ----- ---------- --- --- ------ ------ ---- -- ------<br>------- --- ------ ----- --- ---- ------- -- ---- --- --<br>------- ------,103296.5,103295.70000000298,102828.247,102832.79999999702,102844.918,103311.651,,15,In
screen,html.Screen,0_2_1_1_16,2021-11-05T12:21:18.004Z,,,,,,,,,,,,,,,,54,,,,,,,,,,,,,,287.9489999940415,,response,,,100,,,,,,Space,keypress(Space),,,,,"-- --- ---- --- ------ ----- ------- ---- -- --- ------- --<br>------- ---------- ------ -- 1727, -- ----- -- ---- ------<br>--- ----- --- --- ------ -------- ----- --- ------ ----- --<br>----- ----- ---------- --- --- ------ ------ ---- -- ------<br>------- --- ------ ----- --- ---- ------- -- ---- --- --<br>------- ------",103600.40000000596,103599.59999999404,103294.981,103296.70000000298,103311.651,103611.722,,16,"1727,"
screen,html.Screen,0_2_1_1_17,2021-11-05T12:21:18.380Z,,,,,,,,,,,,,,,,54,,,,,,,,,,,,,,363.97800000298594,,response,,,100,,,,,,Space,keypress(Space),,,,,-- --- ---- --- ------ ----- ------- ---- -- --- ------- --<br>------- ---------- ------ -- ----- in ----- -- ---- ------<br>--- ----- --- --- ------ -------- ----- --- ------ ----- --<br>----- ----- ---------- --- --- ------ ------ ---- -- ------<br>------- --- ------ ----- --- ---- ------- -- ---- --- --<br>------- ------,103976.5,103975.70000000298,103595.052,103600.70000000298,103611.722,103978.552,,17,in
screen,html.Screen,0_2_1_1_18,2021-11-05T12:21:19.116Z,,,,,,,,,,,,,,,,54,,,,,,,,,,,,,,733.0479999940435,,response,,,100,,,,,,Space,keypress(Space),,,,,-- --- ---- --- ------ ----- ------- ---- -- --- ------- --<br>------- ---------- ------ -- ----- -- order -- ---- ------<br>--- ----- --- --- ------ -------- ----- --- ------ ----- --<br>----- ----- ---------- --- --- ------ ------ ---- -- ------<br>------- --- ------ ----- --- ---- ------- -- ---- --- --<br>------- ------,104712.40000000596,104711.59999999404,103961.881,103976.70000000298,103978.552,104728.675,,18,order
screen,html.Screen,0_2_1_1_19,2021-11-05T12:21:19.476Z,,,,,,,,,,,,,,,,54,,,,,,,,,,,,,,342.9249999940366,,response,,,100,,,,,,Space,keypress(Space),,,,,-- --- ---- --- ------ ----- ------- ---- -- --- ------- --<br>------- ---------- ------ -- ----- -- ----- to ---- ------<br>--- ----- --- --- ------ -------- ----- --- ------ ----- --<br>----- ----- ---------- --- --- ------ ------ ---- -- ------<br>------- --- ------ ----- --- ---- ------- -- ---- --- --<br>------- ------,105072.40000000596,105071.59999999404,104712.005,104712.70000000298,104728.675,105078.773,,19,to
screen,html.Screen,0_2_1_1_20,2021-11-05T12:21:19.764Z,,,,,,,,,,,,,,,,54,,,,,,,,,,,,,,280.8269999940385,,response,,,100,,,,,,Space,keypress(Space),,,,,-- --- ---- --- ------ ----- ------- ---- -- --- ------- --<br>------- ---------- ------ -- ----- -- ----- -- save ------<br>--- ----- --- --- ------ -------- ----- --- ------ ----- --<br>----- ----- ---------- --- --- ------ ------ ---- -- ------<br>------- --- ------ ----- --- ---- ------- -- ---- --- --<br>------- ------,105360.40000000596,105359.59999999404,105062.103,105072.70000000298,105078.773,105362.203,,20,save
screen,html.Screen,0_2_1_1_21,2021-11-05T12:21:20.380Z,,,,,,,,,,,,,,,,54,,,,,,,,,,,,,,613.7970000000059,,response,,,100,,,,,,Space,keypress(Space),,,,,"-- --- ---- --- ------ ----- ------- ---- -- --- ------- --<br>------- ---------- ------ -- ----- -- ----- -- ---- money,<br>--- ----- --- --- ------ -------- ----- --- ------ ----- --<br>----- ----- ---------- --- --- ------ ------ ---- -- ------<br>------- --- ------ ----- --- ---- ------- -- ---- --- --<br>------- ------",105976.79999999702,105976,105345.533,105360.59999999404,105362.203,105979.011,,21,"money,"
screen,html.Screen,0_2_1_1_22,2021-11-05T12:21:21.676Z,,,,,,,,,,,,,,,,54,,,,,,,,,,,,,,1292.3890000059619,,response,,,100,,,,,,Space,keypress(Space),,,,,-- --- ---- --- ------ ----- ------- ---- -- --- ------- --<br>------- ---------- ------ -- ----- -- ----- -- ---- ------<br>the ----- --- --- ------ -------- ----- --- ------ ----- --<br>----- ----- ---------- --- --- ------ ------ ---- -- ------<br>------- --- ------ ----- --- ---- ------- -- ---- --- --<br>------- ------,107272.29999999702,107271.40000000596,105962.341,105977.09999999404,105979.011,107279.164,,22,the
screen,html.Screen,0_2_1_1_23,2021-11-05T12:21:22.052Z,,,,,,,,,,,,,,,,54,,,,,,,,,,,,,,368.3359999999957,,response,,,100,,,,,,Space,keypress(Space),,,,,-- --- ---- --- ------ ----- ------- ---- -- --- ------- --<br>------- ---------- ------ -- ----- -- ----- -- ---- ------<br>--- state --- --- ------ -------- ----- --- ------ ----- --<br>----- ----- ---------- --- --- ------ ------ ---- -- ------<br>------- --- ------ ----- --- ---- ------- -- ---- --- --<br>------- ------,107648.20000000298,107647.5,107262.495,107272.59999999404,107279.164,107662.847,,23,state
screen,html.Screen,0_2_1_1_24,2021-11-05T12:21:22.580Z,,,,,,,,,,,,,,,,54,,,,,,,,,,,,,,512.5530000059662,,response,,,100,,,,,,Space,keypress(Space),,,,,-- --- ---- --- ------ ----- ------- ---- -- --- ------- --<br>------- ---------- ------ -- ----- -- ----- -- ---- ------<br>--- ----- cut --- ------ -------- ----- --- ------ ----- --<br>----- ----- ---------- --- --- ------ ------ ---- -- ------<br>------- --- ------ ----- --- ---- ------- -- ---- --- --<br>------- ------,108176.20000000298,108175.40000000596,107646.176,107648.5,107662.847,108179.564,,24,cut
screen,html.Screen,0_2_1_1_25,2021-11-05T12:21:23.484Z,,,,,,,,,,,,,,,,54,,,,,,,,,,,,,,899.836000005962,,response,,,100,,,,,,Space,keypress(Space),,,,,-- --- ---- --- ------ ----- ------- ---- -- --- ------- --<br>------- ---------- ------ -- ----- -- ----- -- ---- ------<br>--- ----- --- the ------ -------- ----- --- ------ ----- --<br>----- ----- ---------- --- --- ------ ------ ---- -- ------<br>------- --- ------ ----- --- ---- ------- -- ---- --- --<br>------- ------,109080.20000000298,109079.40000000596,108162.894,108176.5,108179.564,109096.32,,25,the
screen,html.Screen,0_2_1_1_26,2021-11-05T12:21:23.828Z,,,,,,,,,,,,,,,,54,,,,,,,,,,,,,,327.0800000059535,,response,,,100,,,,,,Space,keypress(Space),,,,,-- --- ---- --- ------ ----- ------- ---- -- --- ------- --<br>------- ---------- ------ -- ----- -- ----- -- ---- ------<br>--- ----- --- --- bonds' -------- ----- --- ------ ----- --<br>----- ----- ---------- --- --- ------ ------ ---- -- ------<br>------- --- ------ ----- --- ---- ------- -- ---- --- --<br>------- ------,109424.20000000298,109423.40000000596,109079.651,109080.5,109096.32,109430.006,,26,bonds'
screen,html.Screen,0_2_1_1_27,2021-11-05T12:21:24.620Z,,,,,,,,,,,,,,,,54,,,,,,,,,,,,,,785.2939999970258,,response,,,100,,,,,,Space,keypress(Space),,,,,-- --- ---- --- ------ ----- ------- ---- -- --- ------- --<br>------- ---------- ------ -- ----- -- ----- -- ---- ------<br>--- ----- --- --- ------ interest ----- --- ------ ----- --<br>----- ----- ---------- --- --- ------ ------ ---- -- ------<br>------- --- ------ ----- --- ---- ------- -- ---- --- --<br>------- ------,110216.09999999404,110215.29999999702,109413.334,109424.40000000596,109430.006,110230.086,,27,interest
screen,html.Screen,0_2_1_1_28,2021-11-05T12:21:25.059Z,,,,,,,,,,,,,,,,54,,,,,,,,,,,,,,425.2139999970241,,response,,,100,,,,,,Space,keypress(Space),,,,,-- --- ---- --- ------ ----- ------- ---- -- --- ------- --<br>------- ---------- ------ -- ----- -- ----- -- ---- ------<br>--- ----- --- --- ------ -------- rate. --- ------ ----- --<br>----- ----- ---------- --- --- ------ ------ ---- -- ------<br>------- --- ------ ----- --- ---- ------- -- ---- --- --<br>------- ------,110656,110655.29999999702,110213.416,110216.40000000596,110230.086,110663.595,,28,rate.
screen,html.Screen,0_2_1_1_29,2021-11-05T12:21:25.827Z,,,,,,,,,,,,,,,,54,,,,,,,,,,,,,,759.7049999970186,,response,,,100,,,,,,Space,keypress(Space),,,,,-- --- ---- --- ------ ----- ------- ---- -- --- ------- --<br>------- ---------- ------ -- ----- -- ----- -- ---- ------<br>--- ----- --- --- ------ -------- ----- The ------ ----- --<br>----- ----- ---------- --- --- ------ ------ ---- -- ------<br>------- --- ------ ----- --- ---- ------- -- ---- --- --<br>------- ------,111424,111423.29999999702,110646.924,110656.29999999702,110663.595,111430.402,,29,The
screen,html.Screen,0_2_1_1_30,2021-11-05T12:21:26.163Z,,,,,,,,,,,,,,,,54,,,,,,,,,,,,,,328.79800000297837,,response,,,100,,,,,,Space,keypress(Space),,,,,-- --- ---- --- ------ ----- ------- ---- -- --- ------- --<br>------- ---------- ------ -- ----- -- ----- -- ---- ------<br>--- ----- --- --- ------ -------- ----- --- market ----- --<br>----- ----- ---------- --- --- ------ ------ ---- -- ------<br>------- --- ------ ----- --- ---- ------- -- ---- --- --<br>------- ------,111760,111759.20000000298,111413.732,111424.29999999702,111430.402,111763.843,,30,market
screen,html.Screen,0_2_1_1_31,2021-11-05T12:21:26.507Z,,,,,,,,,,,,,,,,54,,,,,,,,,,,,,,339.35700000298675,,response,,,100,,,,,,Space,keypress(Space),,,,,-- --- ---- --- ------ ----- ------- ---- -- --- ------- --<br>------- ---------- ------ -- ----- -- ----- -- ---- ------<br>--- ----- --- --- ------ -------- ----- --- ------ value --<br>----- ----- ---------- --- --- ------ ------ ---- -- ------<br>------- --- ------ ----- --- ---- ------- -- ---- --- --<br>------- ------,112104,112103.20000000298,111747.173,111760.29999999702,111763.843,112113.934,,31,value
screen,html.Screen,0_2_1_1_32,2021-11-05T12:21:27.379Z,,,,,,,,,,,,,,,,54,,,,,,,,,,,,,,861.1659999940457,,response,,,100,,,,,,Space,keypress(Space),,,,,-- --- ---- --- ------ ----- ------- ---- -- --- ------- --<br>------- ---------- ------ -- ----- -- ----- -- ---- ------<br>--- ----- --- --- ------ -------- ----- --- ------ ----- of<br>----- ----- ---------- --- --- ------ ------ ---- -- ------<br>------- --- ------ ----- --- ---- ------- -- ---- --- --<br>------- ------,112975.90000000596,112975.09999999404,112097.264,112104.20000000298,112113.934,112980.783,,32,of
screen,html.Screen,0_2_1_1_33,2021-11-05T12:21:27.707Z,,,,,,,,,,,,,,,,54,,,,,,,,,,,,,,322.3169999940437,,response,,,100,,,,,,Space,keypress(Space),,,,,-- --- ---- --- ------ ----- ------- ---- -- --- ------- --<br>------- ---------- ------ -- ----- -- ----- -- ---- ------<br>--- ----- --- --- ------ -------- ----- --- ------ ----- --<br>these ----- ---------- --- --- ------ ------ ---- -- ------<br>------- --- ------ ----- --- ---- ------- -- ---- --- --<br>------- ------,113303.90000000596,113303.09999999404,112964.113,112976.20000000298,112980.783,113314.215,,33,these
screen,html.Screen,0_2_1_1_34,2021-11-05T12:21:27.963Z,,,,,,,,,,,,,,,,54,,,,,,,,,,,,,,244.7850000000035,,response,,,100,,,,,,Space,keypress(Space),,,,,-- --- ---- --- ------ ----- ------- ---- -- --- ------- --<br>------- ---------- ------ -- ----- -- ----- -- ---- ------<br>--- ----- --- --- ------ -------- ----- --- ------ ----- --<br>----- bonds ---------- --- --- ------ ------ ---- -- ------<br>------- --- ------ ----- --- ---- ------- -- ---- --- --<br>------- ------,113559.90000000596,113559,113297.545,113304.20000000298,113314.215,113564.306,,34,bonds
screen,html.Screen,0_2_1_1_35,2021-11-05T12:21:28.259Z,,,,,,,,,,,,,,,,54,,,,,,,,,,,,,,290.69400000000314,,response,,,100,,,,,,Space,keypress(Space),,,,,"-- --- ---- --- ------ ----- ------- ---- -- --- ------- --<br>------- ---------- ------ -- ----- -- ----- -- ---- ------<br>--- ----- --- --- ------ -------- ----- --- ------ ----- --<br>----- ----- plummeted, --- --- ------ ------ ---- -- ------<br>------- --- ------ ----- --- ---- ------- -- ---- --- --<br>------- ------",113855.79999999702,113855,113547.636,113560.09999999404,113564.306,113864.41,,35,"plummeted,"
screen,html.Screen,0_2_1_1_36,2021-11-05T12:21:28.603Z,,,,,,,,,,,,,,,,54,,,,,,,,,,,,,,334.68999999403604,,response,,,100,,,,,,Space,keypress(Space),,,,,-- --- ---- --- ------ ----- ------- ---- -- --- ------- --<br>------- ---------- ------ -- ----- -- ----- -- ---- ------<br>--- ----- --- --- ------ -------- ----- --- ------ ----- --<br>----- ----- ---------- and --- ------ ------ ---- -- ------<br>------- --- ------ ----- --- ---- ------- -- ---- --- --<br>------- ------,114199.90000000596,114199.09999999404,113847.739,113856.09999999404,113864.41,114214.312,,36,and
screen,html.Screen,0_2_1_1_37,2021-11-05T12:21:28.883Z,,,,,,,,,,,,,,,,54,,,,,,,,,,,,,,264.68799999999464,,response,,,100,,,,,,Space,keypress(Space),,,,,-- --- ---- --- ------ ----- ------- ---- -- --- ------- --<br>------- ---------- ------ -- ----- -- ----- -- ---- ------<br>--- ----- --- --- ------ -------- ----- --- ------ ----- --<br>----- ----- ---------- --- the ------ ------ ---- -- ------<br>------- --- ------ ----- --- ---- ------- -- ---- --- --<br>------- ------,114479.79999999702,114479,114197.645,114200.20000000298,114214.312,114481.291,,37,the
screen,html.Screen,0_2_1_1_38,2021-11-05T12:21:29.123Z,,,,,,,,,,,,,,,,54,,,,,,,,,,,,,,237.8089999940421,,response,,,100,,,,,,Space,keypress(Space),,,,,-- --- ---- --- ------ ----- ------- ---- -- --- ------- --<br>------- ---------- ------ -- ----- -- ----- -- ---- ------<br>--- ----- --- --- ------ -------- ----- --- ------ ----- --<br>----- ----- ---------- --- --- market ------ ---- -- ------<br>------- --- ------ ----- --- ---- ------- -- ---- --- --<br>------- ------,114719.79999999702,114719.09999999404,114464.618,114480.09999999404,114481.291,114731.306,,38,market
screen,html.Screen,0_2_1_1_39,2021-11-05T12:21:29.507Z,,,,,,,,,,,,,,,,54,,,,,,,,,,,,,,371.69400000000314,,response,,,100,,,,,,Space,keypress(Space),,,,,-- --- ---- --- ------ ----- ------- ---- -- --- ------- --<br>------- ---------- ------ -- ----- -- ----- -- ---- ------<br>--- ----- --- --- ------ -------- ----- --- ------ ----- --<br>----- ----- ---------- --- --- ------ became ---- -- ------<br>------- --- ------ ----- --- ---- ------- -- ---- --- --<br>------- ------,115103.79999999702,115103,114714.635,114720,114731.306,115114.545,,39,became
screen,html.Screen,0_2_1_1_40,2021-11-05T12:21:30.043Z,,,,,,,,,,,,,,,,54,,,,,,,,,,,,,,524.4550000000017,,response,,,100,,,,,,Space,keypress(Space),,,,,-- --- ---- --- ------ ----- ------- ---- -- --- ------- --<br>------- ---------- ------ -- ----- -- ----- -- ---- ------<br>--- ----- --- --- ------ -------- ----- --- ------ ----- --<br>----- ----- ---------- --- --- ------ ------ wary -- ------<br>------- --- ------ ----- --- ---- ------- -- ---- --- --<br>------- ------,115639.79999999702,115639,115097.878,115104.20000000298,115114.545,115648.349,,40,wary
screen,html.Screen,0_2_1_1_41,2021-11-05T12:21:30.500Z,,,,,,,,,,,,,,,,54,,,,,,,,,,,,,,447.0510000059585,,response,,,100,,,,,,Space,keypress(Space),,,,,-- --- ---- --- ------ ----- ------- ---- -- --- ------- --<br>------- ---------- ------ -- ----- -- ----- -- ---- ------<br>--- ----- --- --- ------ -------- ----- --- ------ ----- --<br>----- ----- ---------- --- --- ------ ------ ---- of ------<br>------- --- ------ ----- --- ---- ------- -- ---- --- --<br>------- ------,116096.20000000298,116095.40000000596,115631.675,115640,115648.349,116098.344,,41,of
screen,html.Screen,0_2_1_1_42,2021-11-05T12:21:30.811Z,,,,,,,,,,,,,,,,54,,,,,,,,,,,,,,308.6560000000027,,response,,,100,,,,,,Space,keypress(Space),,,,,-- --- ---- --- ------ ----- ------- ---- -- --- ------- --<br>------- ---------- ------ -- ----- -- ----- -- ---- ------<br>--- ----- --- --- ------ -------- ----- --- ------ ----- --<br>----- ----- ---------- --- --- ------ ------ ---- -- French<br>------- --- ------ ----- --- ---- ------- -- ---- --- --<br>------- ------,116407.79999999702,116407,116081.673,116096.5,116098.344,116414.973,,42,French
screen,html.Screen,0_2_1_1_43,2021-11-05T12:21:31.187Z,,,,,,,,,,,,,,,,54,,,,,,,,,,,,,,368.02700000000186,,response,,,100,,,,,,Space,keypress(Space),,,,,-- --- ---- --- ------ ----- ------- ---- -- --- ------- --<br>------- ---------- ------ -- ----- -- ----- -- ---- ------<br>--- ----- --- --- ------ -------- ----- --- ------ ----- --<br>----- ----- ---------- --- --- ------ ------ ---- -- ------<br>credit. --- ------ ----- --- ---- ------- -- ---- --- --<br>------- ------,116783.79999999702,116783,116398.304,116408,116414.973,116798.489,,43,credit.
screen,html.Screen,0_2_1_1_44,2021-11-05T12:21:31.723Z,,,,,,,,,,,,,,,,54,,,,,,,,,,,,,,520.4110000059591,,response,,,100,,,,,,Space,keypress(Space),,,,,-- --- ---- --- ------ ----- ------- ---- -- --- ------- --<br>------- ---------- ------ -- ----- -- ----- -- ---- ------<br>--- ----- --- --- ------ -------- ----- --- ------ ----- --<br>----- ----- ---------- --- --- ------ ------ ---- -- ------<br>------- The ------ ----- --- ---- ------- -- ---- --- --<br>------- ------,117319.70000000298,117318.90000000596,116781.818,116784.09999999404,116798.489,117331.992,,44,The
screen,html.Screen,0_2_1_1_45,2021-11-05T12:21:31.947Z,,,,,,,,,,,,,,,,54,,,,,,,,,,,,,,211.00800000000163,,response,,,100,,,,,,Space,keypress(Space),,,,,-- --- ---- --- ------ ----- ------- ---- -- --- ------- --<br>------- ---------- ------ -- ----- -- ----- -- ---- ------<br>--- ----- --- --- ------ -------- ----- --- ------ ----- --<br>----- ----- ---------- --- --- ------ ------ ---- -- ------<br>------- --- French ----- --- ---- ------- -- ---- --- --<br>------- ------,117543.70000000298,117543,117315.321,117319.90000000596,117331.992,117548.515,,45,French
screen,html.Screen,0_2_1_1_46,2021-11-05T12:21:32.227Z,,,,,,,,,,,,,,,,54,,,,,,,,,,,,,,274.38500000596105,,response,,,100,,,,,,Space,keypress(Space),,,,,-- --- ---- --- ------ ----- ------- ---- -- --- ------- --<br>------- ---------- ------ -- ----- -- ----- -- ---- ------<br>--- ----- --- --- ------ -------- ----- --- ------ ----- --<br>----- ----- ---------- --- --- ------ ------ ---- -- ------<br>------- --- ------ state --- ---- ------- -- ---- --- --<br>------- ------,117823.70000000298,117822.90000000596,117531.847,117544,117548.515,117832.115,,46,state
screen,html.Screen,0_2_1_1_47,2021-11-05T12:21:32.547Z,,,,,,,,,,,,,,,,54,,,,,,,,,,,,,,310.7850000059552,,response,,,100,,,,,,Space,keypress(Space),,,,,-- --- ---- --- ------ ----- ------- ---- -- --- ------- --<br>------- ---------- ------ -- ----- -- ----- -- ---- ------<br>--- ----- --- --- ------ -------- ----- --- ------ ----- --<br>----- ----- ---------- --- --- ------ ------ ---- -- ------<br>------- --- ------ ----- was ---- ------- -- ---- --- --<br>------- ------,118143.59999999404,118142.90000000596,117815.443,117823.90000000596,117832.115,118148.859,,47,was
screen,html.Screen,0_2_1_1_48,2021-11-05T12:21:32.875Z,,,,,,,,,,,,,,,,54,,,,,,,,,,,,,,322.0410000059637,,response,,,100,,,,,,Space,keypress(Space),,,,,-- --- ---- --- ------ ----- ------- ---- -- --- ------- --<br>------- ---------- ------ -- ----- -- ----- -- ---- ------<br>--- ----- --- --- ------ -------- ----- --- ------ ----- --<br>----- ----- ---------- --- --- ------ ------ ---- -- ------<br>------- --- ------ ----- --- left ------- -- ---- --- --<br>------- ------,118471.70000000298,118470.90000000596,118132.188,118144,118148.859,118482.235,,48,left
screen,html.Screen,0_2_1_1_49,2021-11-05T12:21:33.291Z,,,,,,,,,,,,,,,,54,,,,,,,,,,,,,,404.5649999970192,,response,,,100,,,,,,Space,keypress(Space),,,,,-- --- ---- --- ------ ----- ------- ---- -- --- ------- --<br>------- ---------- ------ -- ----- -- ----- -- ---- ------<br>--- ----- --- --- ------ -------- ----- --- ------ ----- --<br>----- ----- ---------- --- --- ------ ------ ---- -- ------<br>------- --- ------ ----- --- ---- without -- ---- --- --<br>------- ------,118887.59999999404,118886.79999999702,118465.565,118472,118482.235,118899.042,,49,without
screen,html.Screen,0_2_1_1_50,2021-11-05T12:21:33.787Z,,,,,,,,,,,,,,,,54,,,,,,,,,,,,,,483.7579999970185,,response,,,100,,,,,,Space,keypress(Space),,,,,-- --- ---- --- ------ ----- ------- ---- -- --- ------- --<br>------- ---------- ------ -- ----- -- ----- -- ---- ------<br>--- ----- --- --- ------ -------- ----- --- ------ ----- --<br>----- ----- ---------- --- --- ------ ------ ---- -- ------<br>------- --- ------ ----- --- ---- ------- an ---- --- --<br>------- ------,119383.79999999702,119382.79999999702,118882.371,118887.90000000596,118899.042,119399.111,,50,an
screen,html.Screen,0_2_1_1_51,2021-11-05T12:21:34.179Z,,,,,,,,,,,,,,,,54,,,,,,,,,,,,,,375.5890000029758,,response,,,100,,,,,,Space,keypress(Space),,,,,-- --- ---- --- ------ ----- ------- ---- -- --- ------- --<br>------- ---------- ------ -- ----- -- ----- -- ---- ------<br>--- ----- --- --- ------ -------- ----- --- ------ ----- --<br>----- ----- ---------- --- --- ------ ------ ---- -- ------<br>------- --- ------ ----- --- ---- ------- -- easy --- --<br>------- ------,119775.5,119774.70000000298,119382.441,119383.90000000596,119399.111,119782.601,,51,easy
screen,html.Screen,0_2_1_1_52,2021-11-05T12:21:34.734Z,,,,,,,,,,,,,,,,54,,,,,,,,,,,,,,544.0990000029851,,response,,,100,,,,,,Space,keypress(Space),,,,,-- --- ---- --- ------ ----- ------- ---- -- --- ------- --<br>------- ---------- ------ -- ----- -- ----- -- ---- ------<br>--- ----- --- --- ------ -------- ----- --- ------ ----- --<br>----- ----- ---------- --- --- ------ ------ ---- -- ------<br>------- --- ------ ----- --- ---- ------- -- ---- way --<br>------- ------,120327.5,120326.70000000298,119765.93,119775.79999999702,119782.601,120332.701,,52,way
screen,html.Screen,0_2_1_1_53,2021-11-05T12:21:35.142Z,,,,,,,,,,,,,,,,54,,,,,,,,,,,,,,402.09899999701884,,response,,,100,,,,,,Space,keypress(Space),,,,,-- --- ---- --- ------ ----- ------- ---- -- --- ------- --<br>------- ---------- ------ -- ----- -- ----- -- ---- ------<br>--- ----- --- --- ------ -------- ----- --- ------ ----- --<br>----- ----- ---------- --- --- ------ ------ ---- -- ------<br>------- --- ------ ----- --- ---- ------- -- ---- --- of<br>------- ------,120735.5,120734.79999999702,120316.031,120327.70000000298,120332.701,120749.52,,53,of
screen,html.Screen,0_2_1_1_54,2021-11-05T12:21:35.702Z,,,,,,,,,,,,,,,,54,,,,,,,,,,,,,,545.1800000029762,,response,,,100,,,,,,Space,keypress(Space),,,,,-- --- ---- --- ------ ----- ------- ---- -- --- ------- --<br>------- ---------- ------ -- ----- -- ----- -- ---- ------<br>--- ----- --- --- ------ -------- ----- --- ------ ----- --<br>----- ----- ---------- --- --- ------ ------ ---- -- ------<br>------- --- ------ ----- --- ---- ------- -- ---- --- --<br>raising ------,121295.59999999404,121294.70000000298,120732.849,120735.79999999702,120749.52,121299.621,,54,raising
screen,html.Screen,0_2_1_1_55,2021-11-05T12:21:36.030Z,,,,,,,,,,,,,,,,54,,,,,,,,,,,,,,323.07900000298105,,response,,,100,,,,,,Space,keypress(Space),,,,,-- --- ---- --- ------ ----- ------- ---- -- --- ------- --<br>------- ---------- ------ -- ----- -- ----- -- ---- ------<br>--- ----- --- --- ------ -------- ----- --- ------ ----- --<br>----- ----- ---------- --- --- ------ ------ ---- -- ------<br>------- --- ------ ----- --- ---- ------- -- ---- --- --<br>------- money.,121623.5,121622.70000000298,121282.951,121295.79999999702,121299.621,121633.039,,55,money.
Item 100,flow.Loop,0_2_1_1,2021-11-05T12:21:36.031Z,,,,,,,,,,,,,,,,,,,,,,,,,,,,,,26963.19200000298,,completion,,,,E,,,,,,,,,,silence,,121623.90000000596,121622.70000000298,94642.837,94643.79999999702,94659.508,121633.039,,,
Question 1,html.Screen,0_2_1_2,2021-11-05T12:21:38.862Z,,,,,,,,,,,,,,,,,,,,,,,,,,,true,TRUE,,2821.361000005956,,response,,,100,E,,,,,TRUE,click #choice-1,,,,silence,,124455.59999999404,124454.40000000596,121616.369,121624.09999999404,121633.039,124467.195,,,
Question 2,html.Screen,0_2_1_3,2021-11-05T12:21:42.127Z,,,,,,,,,,,,,,,,,,,,,,,,,,,true,FALSE,,3251.9049999940326,,response,,,100,E,,,,,FALSE,click #choice-2,,,,silence,,127720.29999999702,127719.09999999404,124450.523,124455.79999999702,124467.195,127734.627,,,
Item 100,flow.Sequence,0_2_1,2021-11-05T12:21:42.128Z,,,,,,,,,,,,,,,,,,,,,,,,,,,,,,43062.196999994034,,completion,,,,,,,,,,,,,,,,127720.79999999702,127719.09999999404,84640.232,84655.79999999702,84656.903,127734.627,,,
End of Practice,html.Page,0_2_2,2021-11-05T12:21:47.032Z,,,,,,,,,,,,,,,,,,,,,,,,,,,,,,4889.972999994046,,form submission,,,,,,,,,,,,,,,,132625.20000000298,132624.59999999404,127717.957,127720.90000000596,127734.627,132635.773,,,
Practice,flow.Sequence,0_2,2021-11-05T12:21:47.033Z,,,,,,,,,,,,,,,,,,,,,,,,,,,,,,96396.96799999404,,completion,,,,,,,,,,,,,,,,132625.70000000298,132624.59999999404,36210.962,36219.79999999702,36227.632,132635.773,,,
Trap_instruction,html.Page,0_3_0,2021-11-05T12:21:52.191Z,,,,,,,,,,,,,,,,,,,,,,,,,,,,,,5147.2270000000135,,form submission,,,,,,,,,,,,,,,,137783.70000000298,137783,132619.103,132626,132635.773,137837.179,,,
trap_trial,html.Screen,0_3_1,2021-11-05T12:21:55.708Z,,,,,,,,,,,,,,,,,,,,,,,,,,,true,1,,3463.0210000029765,,response,,,,,,,,,1,click #choice-1,,,,,,141301.5,141300.20000000298,137770.499,137784,137837.179,141304.548,,,
end of trap trial,html.Page,0_3_2,2021-11-05T12:21:57.826Z,,,,,,,,,,,,,,,,,,,,,,,,,,,,,,2114.45199999999,,form submission,,,,,,,,,,,,,,,,143419.5,143419,141287.878,141302,141304.548,143421.922,,,
Trap 1,flow.Sequence,0_3,2021-11-05T12:21:57.827Z,,,,,,,,,,,,,,,,,,,,,,,,,,,,,,10783.227000000014,,completion,,,,,,,,,,,,,,,,143419.90000000596,143419,132619.103,132626,132635.773,143421.922,,,
Standby,html.Page,0_4_0,2021-11-05T12:22:05.816Z,,,,,,,,,,,,,,,,,,,,,,,,,,,,,,8002.181000000011,,timeout,,,,,,,,,,,,,,,,151409,151407.432,143405.252,143420.09999999404,143421.922,151424.103,,,
Holding screen,html.Screen,0_4_1_0_0,2021-11-05T12:22:12.818Z,,,,,,,,,,,,,,,,,,,,,,,,,,,,,,7001.622999999992,,timeout,,,,,,,,,,,,,,,,158410.70000000298,158409.056,151407.432,151409.20000000298,151424.103,158425.726,,,
screen,html.Screen,0_4_1_0_1_0,2021-11-05T12:22:13.541Z,,,,,,,,,,,,,,,,48,,,,,,,,,,,,,,707.3739999940444,,response,,,10,E,,,,,Space,keypress(Space),,,,lyrical,As -- --- ------ ------- --------- ----------- --------<br>--------- -------- --- ------- -- ------- ---- -- ------<br>-- --- -------- -------- ---------- ---- ---- ---- ------<br>-- --------- -- ---- -- --- -- --- ------- -- - -----<br>---------- -- -- -- ---- ----- -- ------ -- --- ------<br>-------,159134.09999999404,159133.09999999404,158409.056,158411.20000000298,158425.726,159142.596,,0,As
screen,html.Screen,0_4_1_0_1_1,2021-11-05T12:22:13.956Z,,,,,,,,,,,,,,,,48,,,,,,,,,,,,,,406.0039999940491,,response,,,10,E,,,,,Space,keypress(Space),,,,lyrical,-- in --- ------ ------- --------- ----------- --------<br>--------- -------- --- ------- -- ------- ---- -- ------<br>-- --- -------- -------- ---------- ---- ---- ---- ------<br>-- --------- -- ---- -- --- -- --- ------- -- - -----<br>---------- -- -- -- ---- ----- -- ------ -- --- ------<br>-------,159549.5,159548.59999999404,159125.926,159134.5,159142.596,159559.409,,1,in
screen,html.Screen,0_4_1_0_1_2,2021-11-05T12:22:14.276Z,,,,,,,,,,,,,,,,48,,,,,,,,,,,,,,309.0909999999858,,response,,,10,E,,,,,Space,keypress(Space),,,,lyrical,-- -- the ------ ------- --------- ----------- --------<br>--------- -------- --- ------- -- ------- ---- -- ------<br>-- --- -------- -------- ---------- ---- ---- ---- ------<br>-- --------- -- ---- -- --- -- --- ------- -- - -----<br>---------- -- -- -- ---- ----- -- ------ -- --- ------<br>-------,159869.29999999702,159868.5,159542.739,159549.79999999702,159559.409,159876.276,,2,the
screen,html.Screen,0_4_1_0_1_3,2021-11-05T12:22:14.668Z,,,,,,,,,,,,,,,,48,,,,,,,,,,,,,,384.2239999999874,,response,,,10,E,,,,,Space,keypress(Space),,,,lyrical,-- -- --- United ------- --------- ----------- --------<br>--------- -------- --- ------- -- ------- ---- -- ------<br>-- --- -------- -------- ---------- ---- ---- ---- ------<br>-- --------- -- ---- -- --- -- --- ------- -- - -----<br>---------- -- -- -- ---- ----- -- ------ -- --- ------<br>-------,160261.40000000596,160260.5,159859.604,159869.5,159876.276,160276.225,,3,United
screen,html.Screen,0_4_1_0_1_4,2021-11-05T12:22:15.309Z,,,,,,,,,,,,,,,,48,,,,,,,,,,,,,,624.4750000029744,,response,,,10,E,,,,,Space,keypress(Space),,,,lyrical,"-- -- --- ------ States, --------- ----------- --------<br>--------- -------- --- ------- -- ------- ---- -- ------<br>-- --- -------- -------- ---------- ---- ---- ---- ------<br>-- --------- -- ---- -- --- -- --- ------- -- - -----<br>---------- -- -- -- ---- ----- -- ------ -- --- ------<br>-------",160901.59999999404,160900.70000000298,160259.556,160261.70000000298,160276.225,160926.635,,4,"States,"
screen,html.Screen,0_4_1_0_1_5,2021-11-05T12:22:15.788Z,,,,,,,,,,,,,,,,48,,,,,,,,,,,,,,453.8649999999907,,response,,,10,E,,,,,Space,keypress(Space),,,,lyrical,-- -- --- ------ ------- Colombian ----------- --------<br>--------- -------- --- ------- -- ------- ---- -- ------<br>-- --- -------- -------- ---------- ---- ---- ---- ------<br>-- --------- -- ---- -- --- -- --- ------- -- - -----<br>---------- -- -- -- ---- ----- -- ------ -- --- ------<br>-------,161381.40000000596,161380.5,160909.962,160901.79999999702,160926.635,161393.272,,5,Colombian
screen,html.Screen,0_4_1_0_1_6,2021-11-05T12:22:16.085Z,,,,,,,,,,,,,,,,48,,,,,,,,,,,,,,283.62800000596326,,response,,,10,E,,,,,Space,keypress(Space),,,,lyrical,-- -- --- ------ ------- --------- legislation --------<br>--------- -------- --- ------- -- ------- ---- -- ------<br>-- --- -------- -------- ---------- ---- ---- ---- ------<br>-- --------- -- ---- -- --- -- --- ------- -- - -----<br>---------- -- -- -- ---- ----- -- ------ -- --- ------<br>-------,161677.70000000298,161676.90000000596,161376.602,161381.59999999404,161393.272,161693.357,,6,legislation
screen,html.Screen,0_4_1_0_1_7,2021-11-05T12:22:16.740Z,,,,,,,,,,,,,,,,48,,,,,,,,,,,,,,639.1430000000109,,response,,,10,E,,,,,Space,keypress(Space),,,,lyrical,-- -- --- ------ ------- --------- ----------- requires<br>--------- -------- --- ------- -- ------- ---- -- ------<br>-- --- -------- -------- ---------- ---- ---- ---- ------<br>-- --------- -- ---- -- --- -- --- ------- -- - -----<br>---------- -- -- -- ---- ----- -- ------ -- --- ------<br>-------,162333.29999999702,162332.5,161676.687,161677.90000000596,161693.357,162360.159,,7,requires
screen,html.Screen,0_4_1_0_1_8,2021-11-05T12:22:17.740Z,,,,,,,,,,,,,,,,48,,,,,,,,,,,,,,972.2410000059463,,response,,,10,E,,,,,Space,keypress(Space),,,,lyrical,-- -- --- ------ ------- --------- ----------- --------<br>travelers -------- --- ------- -- ------- ---- -- ------<br>-- --- -------- -------- ---------- ---- ---- ---- ------<br>-- --------- -- ---- -- --- -- --- ------- -- - -----<br>---------- -- -- -- ---- ----- -- ------ -- --- ------<br>-------,163333.29999999702,163332.40000000596,162343.489,162333.59999999404,162360.159,163343.805,,8,travelers
screen,html.Screen,0_4_1_0_1_9,2021-11-05T12:22:18.404Z,,,,,,,,,,,,,,,,48,,,,,,,,,,,,,,652.3950000029872,,response,,,10,E,,,,,Space,keypress(Space),,,,lyrical,-- -- --- ------ ------- --------- ----------- --------<br>--------- entering --- ------- -- ------- ---- -- ------<br>-- --- -------- -------- ---------- ---- ---- ---- ------<br>-- --------- -- ---- -- --- -- --- ------- -- - -----<br>---------- -- -- -- ---- ----- -- ------ -- --- ------<br>-------,163997.09999999404,163996.20000000298,163327.134,163333.5,163343.805,164010.46,,9,entering
screen,html.Screen,0_4_1_0_1_10,2021-11-05T12:22:18.780Z,,,,,,,,,,,,,,,,48,,,,,,,,,,,,,,361.9400000059686,,response,,,10,E,,,,,Space,keypress(Space),,,,lyrical,-- -- --- ------ ------- --------- ----------- --------<br>--------- -------- the ------- -- ------- ---- -- ------<br>-- --- -------- -------- ---------- ---- ---- ---- ------<br>-- --------- -- ---- -- --- -- --- ------- -- - -----<br>---------- -- -- -- ---- ----- -- ------ -- --- ------<br>-------,164373.20000000298,164372.40000000596,163993.791,163997.29999999702,164010.46,164377.418,,10,the
screen,html.Screen,0_4_1_0_1_11,2021-11-05T12:22:19.060Z,,,,,,,,,,,,,,,,48,,,,,,,,,,,,,,274.88199999701465,,response,,,10,E,,,,,Space,keypress(Space),,,,lyrical,-- -- --- ------ ------- --------- ----------- --------<br>--------- -------- --- country -- ------- ---- -- ------<br>-- --- -------- -------- ---------- ---- ---- ---- ------<br>-- --------- -- ---- -- --- -- --- ------- -- - -----<br>---------- -- -- -- ---- ----- -- ------ -- --- ------<br>-------,164653.20000000298,164652.29999999702,164360.747,164373.5,164377.418,164660.715,,11,country
screen,html.Screen,0_4_1_0_1_12,2021-11-05T12:22:19.396Z,,,,,,,,,,,,,,,,48,,,,,,,,,,,,,,327.4850000029837,,response,,,10,E,,,,,Space,keypress(Space),,,,lyrical,-- -- --- ------ ------- --------- ----------- --------<br>--------- -------- --- ------- to ------- ---- -- ------<br>-- --- -------- -------- ---------- ---- ---- ---- ------<br>-- --------- -- ---- -- --- -- --- ------- -- - -----<br>---------- -- -- -- ---- ----- -- ------ -- --- ------<br>-------,164989.09999999404,164988.20000000298,164644.046,164653.40000000596,164660.715,164994.2,,12,to
screen,html.Screen,0_4_1_0_1_13,2021-11-05T12:22:20.204Z,,,,,,,,,,,,,,,,48,,,,,,,,,,,,,,802.0000000029686,,response,,,10,E,,,,,Space,keypress(Space),,,,lyrical,-- -- --- ------ ------- --------- ----------- --------<br>--------- -------- --- ------- -- declare ---- -- ------<br>-- --- -------- -------- ---------- ---- ---- ---- ------<br>-- --------- -- ---- -- --- -- --- ------- -- - -----<br>---------- -- -- -- ---- ----- -- ------ -- --- ------<br>-------,165797.20000000298,165796.20000000298,164977.529,164989.29999999702,164994.2,165811.175,,13,declare
screen,html.Screen,0_4_1_0_1_14,2021-11-05T12:22:20.484Z,,,,,,,,,,,,,,,,48,,,,,,,,,,,,,,265.0250000029919,,response,,,10,E,,,,,Space,keypress(Space),,,,lyrical,-- -- --- ------ ------- --------- ----------- --------<br>--------- -------- --- ------- -- ------- cash -- ------<br>-- --- -------- -------- ---------- ---- ---- ---- ------<br>-- --------- -- ---- -- --- -- --- ------- -- - -----<br>---------- -- -- -- ---- ----- -- ------ -- --- ------<br>-------,166077,166076.20000000298,165794.503,165797.29999999702,165811.175,166094.543,,14,cash
screen,html.Screen,0_4_1_0_1_15,2021-11-05T12:22:20.876Z,,,,,,,,,,,,,,,,48,,,,,,,,,,,,,,373.6570000029751,,response,,,10,E,,,,,Space,keypress(Space),,,,lyrical,-- -- --- ------ ------- --------- ----------- --------<br>--------- -------- --- ------- -- ------- ---- in ------<br>-- --- -------- -------- ---------- ---- ---- ---- ------<br>-- --------- -- ---- -- --- -- --- ------- -- - -----<br>---------- -- -- -- ---- ----- -- ------ -- --- ------<br>-------,166469,166468.20000000298,166077.872,166077.29999999702,166094.543,166477.907,,15,in
screen,html.Screen,0_4_1_0_1_16,2021-11-05T12:22:21.292Z,,,,,,,,,,,,,,,,48,,,,,,,,,,,,,,406.192999994033,,response,,,10,E,,,,,Space,keypress(Space),,,,lyrical,-- -- --- ------ ------- --------- ----------- --------<br>--------- -------- --- ------- -- ------- ---- -- excess<br>-- --- -------- -------- ---------- ---- ---- ---- ------<br>-- --------- -- ---- -- --- -- --- ------- -- - -----<br>---------- -- -- -- ---- ----- -- ------ -- --- ------<br>-------,166884.90000000596,166884.09999999404,166461.237,166469.20000000298,166477.907,166894.684,,16,excess
screen,html.Screen,0_4_1_0_1_17,2021-11-05T12:22:21.828Z,,,,,,,,,,,,,,,,48,,,,,,,,,,,,,,525.5160000029719,,response,,,10,E,,,,,Space,keypress(Space),,,,lyrical,-- -- --- ------ ------- --------- ----------- --------<br>--------- -------- --- ------- -- ------- ---- -- ------<br>of --- -------- -------- ---------- ---- ---- ---- ------<br>-- --------- -- ---- -- --- -- --- ------- -- - -----<br>---------- -- -- -- ---- ----- -- ------ -- --- ------<br>-------,167421,167420.20000000298,166878.014,166885.29999999702,166894.684,167428.207,,17,of
screen,html.Screen,0_4_1_0_1_18,2021-11-05T12:22:22.148Z,,,,,,,,,,,,,,,,48,,,,,,,,,,,,,,311.99300000298535,,response,,,10,E,,,,,Space,keypress(Space),,,,lyrical,-- -- --- ------ ------- --------- ----------- --------<br>--------- -------- --- ------- -- ------- ---- -- ------<br>-- ten -------- -------- ---------- ---- ---- ---- ------<br>-- --------- -- ---- -- --- -- --- ------- -- - -----<br>---------- -- -- -- ---- ----- -- ------ -- --- ------<br>-------,167741,167740.20000000298,167411.536,167421.20000000298,167428.207,167744.91,,18,ten
screen,html.Screen,0_4_1_0_1_19,2021-11-05T12:22:22.452Z,,,,,,,,,,,,,,,,48,,,,,,,,,,,,,,299.29000000297674,,response,,,10,E,,,,,Space,keypress(Space),,,,lyrical,-- -- --- ------ ------- --------- ----------- --------<br>--------- -------- --- ------- -- ------- ---- -- ------<br>-- --- thousand -------- ---------- ---- ---- ---- ------<br>-- --------- -- ---- -- --- -- --- ------- -- - -----<br>---------- -- -- -- ---- ----- -- ------ -- --- ------<br>-------,168045,168044.20000000298,167728.24,167741.29999999702,167744.91,168061.639,,19,thousand
screen,html.Screen,0_4_1_0_1_20,2021-11-05T12:22:22.852Z,,,,,,,,,,,,,,,,48,,,,,,,,,,,,,,382.46099999404396,,response,,,10,E,,,,,Space,keypress(Space),,,,lyrical,-- -- --- ------ ------- --------- ----------- --------<br>--------- -------- --- ------- -- ------- ---- -- ------<br>-- --- -------- dollars. ---------- ---- ---- ---- ------<br>-- --------- -- ---- -- --- -- --- ------- -- - -----<br>---------- -- -- -- ---- ----- -- ------ -- --- ------<br>-------,168444.90000000596,168444.09999999404,168044.969,168045.20000000298,168061.639,168461.795,,20,dollars.
screen,html.Screen,0_4_1_0_1_21,2021-11-05T12:22:24.052Z,,,,,,,,,,,,,,,,48,,,,,,,,,,,,,,1182.7049999999872,,response,,,10,E,,,,,Space,keypress(Space),,,,lyrical,-- -- --- ------ ------- --------- ----------- --------<br>--------- -------- --- ------- -- ------- ---- -- ------<br>-- --- -------- -------- Concealing ---- ---- ---- ------<br>-- --------- -- ---- -- --- -- --- ------- -- - -----<br>---------- -- -- -- ---- ----- -- ------ -- --- ------<br>-------,169645.29999999702,169644.5,168445.124,168445.20000000298,168461.795,169662.107,,21,Concealing
screen,html.Screen,0_4_1_0_1_22,2021-11-05T12:22:24.388Z,,,,,,,,,,,,,,,,48,,,,,,,,,,,,,,317.89300000001094,,response,,,10,E,,,,,Space,keypress(Space),,,,lyrical,-- -- --- ------ ------- --------- ----------- --------<br>--------- -------- --- ------- -- ------- ---- -- ------<br>-- --- -------- -------- ---------- more ---- ---- ------<br>-- --------- -- ---- -- --- -- --- ------- -- - -----<br>---------- -- -- -- ---- ----- -- ------ -- --- ------<br>-------,169980.90000000596,169980,169645.436,169645.59999999404,169662.107,169995.491,,22,more
screen,html.Screen,0_4_1_0_1_23,2021-11-05T12:22:24.780Z,,,,,,,,,,,,,,,,48,,,,,,,,,,,,,,376.5089999999909,,response,,,10,E,,,,,Space,keypress(Space),,,,lyrical,-- -- --- ------ ------- --------- ----------- --------<br>--------- -------- --- ------- -- ------- ---- -- ------<br>-- --- -------- -------- ---------- ---- than ---- ------<br>-- --------- -- ---- -- --- -- --- ------- -- - -----<br>---------- -- -- -- ---- ----- -- ------ -- --- ------<br>-------,170372.79999999702,170372,169978.821,169981.09999999404,169995.491,170378.911,,23,than
screen,html.Screen,0_4_1_0_1_24,2021-11-05T12:22:25.116Z,,,,,,,,,,,,,,,,48,,,,,,,,,,,,,,329.0890000000072,,response,,,10,E,,,,,Space,keypress(Space),,,,lyrical,-- -- --- ------ ------- --------- ----------- --------<br>--------- -------- --- ------- -- ------- ---- -- ------<br>-- --- -------- -------- ---------- ---- ---- that ------<br>-- --------- -- ---- -- --- -- --- ------- -- - -----<br>---------- -- -- -- ---- ----- -- ------ -- --- ------<br>-------,170708.70000000298,170708,170362.241,170373,170378.911,170712.384,,24,that
screen,html.Screen,0_4_1_0_1_25,2021-11-05T12:22:25.508Z,,,,,,,,,,,,,,,,48,,,,,,,,,,,,,,387.6160000000091,,response,,,10,E,,,,,Space,keypress(Space),,,,lyrical,-- -- --- ------ ------- --------- ----------- --------<br>--------- -------- --- ------- -- ------- ---- -- ------<br>-- --- -------- -------- ---------- ---- ---- ---- amount<br>-- --------- -- ---- -- --- -- --- ------- -- - -----<br>---------- -- -- -- ---- ----- -- ------ -- --- ------<br>-------,171100.79999999702,171100,170695.713,170709,170712.384,171112.453,,25,amount
screen,html.Screen,0_4_1_0_1_26,2021-11-05T12:22:25.932Z,,,,,,,,,,,,,,,,48,,,,,,,,,,,,,,411.44700000595185,,response,,,10,E,,,,,Space,keypress(Space),,,,lyrical,-- -- --- ------ ------- --------- ----------- --------<br>--------- -------- --- ------- -- ------- ---- -- ------<br>-- --- -------- -------- ---------- ---- ---- ---- ------<br>to --------- -- ---- -- --- -- --- ------- -- - -----<br>---------- -- -- -- ---- ----- -- ------ -- --- ------<br>-------,171524.70000000298,171523.90000000596,171095.783,171101,171112.453,171529.03,,26,to
screen,html.Screen,0_4_1_0_1_27,2021-11-05T12:22:26.236Z,,,,,,,,,,,,,,,,48,,,,,,,,,,,,,,298.76999999702093,,response,,,10,E,,,,,Space,keypress(Space),,,,lyrical,-- -- --- ------ ------- --------- ----------- --------<br>--------- -------- --- ------- -- ------- ---- -- ------<br>-- --- -------- -------- ---------- ---- ---- ---- ------<br>-- transport -- ---- -- --- -- --- ------- -- - -----<br>---------- -- -- -- ---- ----- -- ------ -- --- ------<br>-------,171828.70000000298,171827.79999999702,171512.363,171525,171529.03,171846.05,,27,transport
screen,html.Screen,0_4_1_0_1_28,2021-11-05T12:22:26.444Z,,,,,,,,,,,,,,,,48,,,,,,,,,,,,,,189.7499999970314,,response,,,10,E,,,,,Space,keypress(Space),,,,lyrical,-- -- --- ------ ------- --------- ----------- --------<br>--------- -------- --- ------- -- ------- ---- -- ------<br>-- --- -------- -------- ---------- ---- ---- ---- ------<br>-- --------- it ---- -- --- -- --- ------- -- - -----<br>---------- -- -- -- ---- ----- -- ------ -- --- ------<br>-------,172036.70000000298,172035.79999999702,171829.378,171828.90000000596,171846.05,172046.018,,28,it
screen,html.Screen,0_4_1_0_1_29,2021-11-05T12:22:26.708Z,,,,,,,,,,,,,,,,48,,,,,,,,,,,,,,253.88200000594952,,response,,,10,E,,,,,Space,keypress(Space),,,,lyrical,-- -- --- ------ ------- --------- ----------- --------<br>--------- -------- --- ------- -- ------- ---- -- ------<br>-- --- -------- -------- ---------- ---- ---- ---- ------<br>-- --------- -- into -- --- -- --- ------- -- - -----<br>---------- -- -- -- ---- ----- -- ------ -- --- ------<br>-------,172300.70000000298,172299.90000000596,172029.348,172036.90000000596,172046.018,172312.758,,29,into
screen,html.Screen,0_4_1_0_1_30,2021-11-05T12:22:27.132Z,,,,,,,,,,,,,,,,48,,,,,,,,,,,,,,411.14200000595883,,response,,,10,E,,,,,Space,keypress(Space),,,,lyrical,-- -- --- ------ ------- --------- ----------- --------<br>--------- -------- --- ------- -- ------- ---- -- ------<br>-- --- -------- -------- ---------- ---- ---- ---- ------<br>-- --------- -- ---- or --- -- --- ------- -- - -----<br>---------- -- -- -- ---- ----- -- ------ -- --- ------<br>-------,172724.70000000298,172723.90000000596,172296.088,172300.90000000596,172312.758,172729.564,,30,or
screen,html.Screen,0_4_1_0_1_31,2021-11-05T12:22:27.508Z,,,,,,,,,,,,,,,,48,,,,,,,,,,,,,,370.3360000059474,,response,,,10,E,,,,,Space,keypress(Space),,,,lyrical,-- -- --- ------ ------- --------- ----------- --------<br>--------- -------- --- ------- -- ------- ---- -- ------<br>-- --- -------- -------- ---------- ---- ---- ---- ------<br>-- --------- -- ---- -- out -- --- ------- -- - -----<br>---------- -- -- -- ---- ----- -- ------ -- --- ------<br>-------,173100.59999999404,173099.90000000596,172712.893,172724.90000000596,172729.564,173112.908,,31,out
screen,html.Screen,0_4_1_0_1_32,2021-11-05T12:22:28.021Z,,,,,,,,,,,,,,,,48,,,,,,,,,,,,,,498.89199999702396,,response,,,10,E,,,,,Space,keypress(Space),,,,lyrical,-- -- --- ------ ------- --------- ----------- --------<br>--------- -------- --- ------- -- ------- ---- -- ------<br>-- --- -------- -------- ---------- ---- ---- ---- ------<br>-- --------- -- ---- -- --- of --- ------- -- - -----<br>---------- -- -- -- ---- ----- -- ------ -- --- ------<br>-------,173613.79999999702,173611.79999999702,173096.239,173100.90000000596,173112.908,173629.747,,32,of
screen,html.Screen,0_4_1_0_1_33,2021-11-05T12:22:28.388Z,,,,,,,,,,,,,,,,48,,,,,,,,,,,,,,350.05299999701674,,response,,,10,E,,,,,Space,keypress(Space),,,,lyrical,-- -- --- ------ ------- --------- ----------- --------<br>--------- -------- --- ------- -- ------- ---- -- ------<br>-- --- -------- -------- ---------- ---- ---- ---- ------<br>-- --------- -- ---- -- --- -- the ------- -- - -----<br>---------- -- -- -- ---- ----- -- ------ -- --- ------<br>-------,173980.59999999404,173979.79999999702,173613.077,173614,173629.747,173996.551,,33,the
screen,html.Screen,0_4_1_0_1_34,2021-11-05T12:22:28.659Z,,,,,,,,,,,,,,,,48,,,,,,,,,,,,,,255.24899999701302,,response,,,10,E,,,,,Space,keypress(Space),,,,lyrical,-- -- --- ------ ------- --------- ----------- --------<br>--------- -------- --- ------- -- ------- ---- -- ------<br>-- --- -------- -------- ---------- ---- ---- ---- ------<br>-- --------- -- ---- -- --- -- --- country -- - -----<br>---------- -- -- -- ---- ----- -- ------ -- --- ------<br>-------,174252.5,174251.79999999702,173979.88,173980.90000000596,173996.551,174263.169,,34,country
screen,html.Screen,0_4_1_0_1_35,2021-11-05T12:22:28.964Z,,,,,,,,,,,,,,,,48,,,,,,,,,,,,,,292.63099999702536,,response,,,10,E,,,,,Space,keypress(Space),,,,lyrical,-- -- --- ------ ------- --------- ----------- --------<br>--------- -------- --- ------- -- ------- ---- -- ------<br>-- --- -------- -------- ---------- ---- ---- ---- ------<br>-- --------- -- ---- -- --- -- --- ------- is - -----<br>---------- -- -- -- ---- ----- -- ------ -- --- ------<br>-------,174556.59999999404,174555.79999999702,174246.5,174252.79999999702,174263.169,174563.39,,35,is
screen,html.Screen,0_4_1_0_1_36,2021-11-05T12:22:29.331Z,,,,,,,,,,,,,,,,48,,,,,,,,,,,,,,360.31000000296626,,response,,,10,E,,,,,Space,keypress(Space),,,,lyrical,-- -- --- ------ ------- --------- ----------- --------<br>--------- -------- --- ------- -- ------- ---- -- ------<br>-- --- -------- -------- ---------- ---- ---- ---- ------<br>-- --------- -- ---- -- --- -- --- ------- -- a -----<br>---------- -- -- -- ---- ----- -- ------ -- --- ------<br>-------,174924.5,174923.70000000298,174546.718,174556.79999999702,174563.39,174930.075,,36,a
screen,html.Screen,0_4_1_0_1_37,2021-11-05T12:22:29.635Z,,,,,,,,,,,,,,,,48,,,,,,,,,,,,,,297.7249999970081,,response,,,10,E,,,,,Space,keypress(Space),,,,lyrical,-- -- --- ------ ------- --------- ----------- --------<br>--------- -------- --- ------- -- ------- ---- -- ------<br>-- --- -------- -------- ---------- ---- ---- ---- ------<br>-- --------- -- ---- -- --- -- --- ------- -- - crime<br>---------- -- -- -- ---- ----- -- ------ -- --- ------<br>-------,175228.5,175227.79999999702,174913.405,174924.79999999702,174930.075,175230.15,,37,crime
screen,html.Screen,0_4_1_0_1_38,2021-11-05T12:22:29.971Z,,,,,,,,,,,,,,,,48,,,,,,,,,,,,,,333.6499999970256,,response,,,10,E,,,,,Space,keypress(Space),,,,lyrical,-- -- --- ------ ------- --------- ----------- --------<br>--------- -------- --- ------- -- ------- ---- -- ------<br>-- --- -------- -------- ---------- ---- ---- ---- ------<br>-- --------- -- ---- -- --- -- --- ------- -- - -----<br>punishable -- -- -- ---- ----- -- ------ -- --- ------<br>-------,175564.5,175563.79999999702,175213.48,175228.79999999702,175230.15,175580.296,,38,punishable
screen,html.Screen,0_4_1_0_1_39,2021-11-05T12:22:30.307Z,,,,,,,,,,,,,,,,48,,,,,,,,,,,,,,319.40400000297814,,response,,,10,E,,,,,Space,keypress(Space),,,,lyrical,-- -- --- ------ ------- --------- ----------- --------<br>--------- -------- --- ------- -- ------- ---- -- ------<br>-- --- -------- -------- ---------- ---- ---- ---- ------<br>-- --------- -- ---- -- --- -- --- ------- -- - -----<br>---------- by -- -- ---- ----- -- ------ -- --- ------<br>-------,175900.5,175899.70000000298,175563.625,175564.70000000298,175580.296,175913.711,,39,by
screen,html.Screen,0_4_1_0_1_40,2021-11-05T12:22:30.627Z,,,,,,,,,,,,,,,,48,,,,,,,,,,,,,,305.98900000297,,response,,,10,E,,,,,Space,keypress(Space),,,,lyrical,-- -- --- ------ ------- --------- ----------- --------<br>--------- -------- --- ------- -- ------- ---- -- ------<br>-- --- -------- -------- ---------- ---- ---- ---- ------<br>-- --------- -- ---- -- --- -- --- ------- -- - -----<br>---------- -- up -- ---- ----- -- ------ -- --- ------<br>-------,176220.40000000596,176219.70000000298,175897.04,175900.70000000298,175913.711,176230.41,,40,up
screen,html.Screen,0_4_1_0_1_41,2021-11-05T12:22:31.027Z,,,,,,,,,,,,,,,,48,,,,,,,,,,,,,,389.18999999403604,,response,,,10,E,,,,,Space,keypress(Space),,,,lyrical,-- -- --- ------ ------- --------- ----------- --------<br>--------- -------- --- ------- -- ------- ---- -- ------<br>-- --- -------- -------- ---------- ---- ---- ---- ------<br>-- --------- -- ---- -- --- -- --- ------- -- - -----<br>---------- -- -- to ---- ----- -- ------ -- --- ------<br>-------,176620.5,176619.59999999404,176213.74,176220.70000000298,176230.41,176630.523,,41,to
screen,html.Screen,0_4_1_0_1_42,2021-11-05T12:22:31.347Z,,,,,,,,,,,,,,,,48,,,,,,,,,,,,,,309.07699999405304,,response,,,10,E,,,,,Space,keypress(Space),,,,lyrical,-- -- --- ------ ------- --------- ----------- --------<br>--------- -------- --- ------- -- ------- ---- -- ------<br>-- --- -------- -------- ---------- ---- ---- ---- ------<br>-- --------- -- ---- -- --- -- --- ------- -- - -----<br>---------- -- -- -- five ----- -- ------ -- --- ------<br>-------,176940.40000000596,176939.59999999404,176613.853,176620.70000000298,176630.523,176947.15,,42,five
screen,html.Screen,0_4_1_0_1_43,2021-11-05T12:22:31.635Z,,,,,,,,,,,,,,,,48,,,,,,,,,,,,,,280.44999999404536,,response,,,10,E,,,,,Space,keypress(Space),,,,lyrical,-- -- --- ------ ------- --------- ----------- --------<br>--------- -------- --- ------- -- ------- ---- -- ------<br>-- --- -------- -------- ---------- ---- ---- ---- ------<br>-- --------- -- ---- -- --- -- --- ------- -- - -----<br>---------- -- -- -- ---- years -- ------ -- --- ------<br>-------,177228.40000000596,177227.59999999404,176930.482,176940.70000000298,176947.15,177230.643,,43,years
screen,html.Screen,0_4_1_0_1_44,2021-11-05T12:22:31.947Z,,,,,,,,,,,,,,,,48,,,,,,,,,,,,,,308.9569999940286,,response,,,10,E,,,,,Space,keypress(Space),,,,lyrical,-- -- --- ------ ------- --------- ----------- --------<br>--------- -------- --- ------- -- ------- ---- -- ------<br>-- --- -------- -------- ---------- ---- ---- ---- ------<br>-- --------- -- ---- -- --- -- --- ------- -- - -----<br>---------- -- -- -- ---- ----- in ------ -- --- ------<br>-------,177540.29999999702,177539.59999999404,177213.973,177228.59999999404,177230.643,177547.537,,44,in
screen,html.Screen,0_4_1_0_1_45,2021-11-05T12:22:32.275Z,,,,,,,,,,,,,,,,48,,,,,,,,,,,,,,320.06299999402836,,response,,,10,E,,,,,Space,keypress(Space),,,,lyrical,-- -- --- ------ ------- --------- ----------- --------<br>--------- -------- --- ------- -- ------- ---- -- ------<br>-- --- -------- -------- ---------- ---- ---- ---- ------<br>-- --------- -- ---- -- --- -- --- ------- -- - -----<br>---------- -- -- -- ---- ----- -- prison -- --- ------<br>-------,177868.29999999702,177867.59999999404,177530.864,177540.70000000298,177547.537,177880.853,,45,prison
screen,html.Screen,0_4_1_0_1_46,2021-11-05T12:22:32.779Z,,,,,,,,,,,,,,,,48,,,,,,,,,,,,,,490.6469999999972,,response,,,10,E,,,,,Space,keypress(Space),,,,lyrical,-- -- --- ------ ------- --------- ----------- --------<br>--------- -------- --- ------- -- ------- ---- -- ------<br>-- --- -------- -------- ---------- ---- ---- ---- ------<br>-- --------- -- ---- -- --- -- --- ------- -- - -----<br>---------- -- -- -- ---- ----- -- ------ in --- ------<br>-------,178372.40000000596,178371.5,177864.183,177868.59999999404,177880.853,178380.978,,46,in
screen,html.Screen,0_4_1_0_1_47,2021-11-05T12:22:33.123Z,,,,,,,,,,,,,,,,48,,,,,,,,,,,,,,334.5219999999972,,response,,,10,E,,,,,Space,keypress(Space),,,,lyrical,-- -- --- ------ ------- --------- ----------- --------<br>--------- -------- --- ------- -- ------- ---- -- ------<br>-- --- -------- -------- ---------- ---- ---- ---- ------<br>-- --------- -- ---- -- --- -- --- ------- -- - -----<br>---------- -- -- -- ---- ----- -- ------ -- the ------<br>-------,178716.40000000596,178715.5,178364.308,178372.59999999404,178380.978,178731.065,,47,the
screen,html.Screen,0_4_1_0_1_48,2021-11-05T12:22:33.579Z,,,,,,,,,,,,,,,,48,,,,,,,,,,,,,,440.4349999999977,,response,,,10,E,,,,,Space,keypress(Space),,,,lyrical,-- -- --- ------ ------- --------- ----------- --------<br>--------- -------- --- ------- -- ------- ---- -- ------<br>-- --- -------- -------- ---------- ---- ---- ---- ------<br>-- --------- -- ---- -- --- -- --- ------- -- - -----<br>---------- -- -- -- ---- ----- -- ------ -- --- United<br>-------,179172.40000000596,179171.5,178714.395,178716.70000000298,178731.065,179181.186,,48,United
screen,html.Screen,0_4_1_0_1_49,2021-11-05T12:22:34.260Z,,,,,,,,,,,,,,,,48,,,,,,,,,,,,,,670.814000000013,,response,,,10,E,,,,,Space,keypress(Space),,,,lyrical,-- -- --- ------ ------- --------- ----------- --------<br>--------- -------- --- ------- -- ------- ---- -- ------<br>-- --- -------- -------- ---------- ---- ---- ---- ------<br>-- --------- -- ---- -- --- -- --- ------- -- - -----<br>---------- -- -- -- ---- ----- -- ------ -- --- ------<br>States.,179852.79999999702,179852,179164.516,179172.59999999404,179181.186,179864.68,,49,States.
Item 10,flow.Loop,0_4_1_0_1,2021-11-05T12:22:34.260Z,,,,,,,,,,,,,,,,,,,,,,,,,,,,,,21426.274000000005,,completion,,,,,,,,,,,,,,,,179853.09999999404,179852,158409.056,158411.09999999404,158425.726,179864.68,,,
Question 1,html.Screen,0_4_1_0_2,2021-11-05T12:22:37.354Z,,,,,,,,,,,,,,,,,,,,,,,,,,,true,TRUE,,3083.820000000007,,response,,,10,E,,,,,TRUE,click #choice-1,,,,lyrical,,182949.70000000298,182948.5,179848.01,179853.29999999702,179864.68,182965.559,,,
Question 2,html.Screen,0_4_1_0_3,2021-11-05T12:22:43.294Z,,,,,,,,,,,,,,,,,,,,,,,,,,,true,TRUE,,5922.841000005952,,response,,,10,E,,,,,TRUE,click #choice-1,,,,lyrical,,188889.59999999404,188888.40000000596,182948.887,182949.90000000596,182965.559,188900.28,,,
Item 10,flow.Sequence,0_4_1_0,2021-11-05T12:22:43.295Z,,,,,,,,,,,,,,,,,,,,,,,,,,,,,,37464.29700000596,,completion,,,,,,,,,,,,,,,,188890.09999999404,188888.40000000596,151407.432,151409.20000000298,151424.103,188900.28,,,
Holding screen,html.Screen,0_4_1_1_0,2021-11-05T12:22:50.292Z,,,,,,,,,,,,,,,,,,,,,,,,,,,,,,7001.790999999997,,timeout,,,,,,,,,,,,,,,,195887,195885.401,188883.611,188890.5,188900.28,195902.071,,,
screen,html.Screen,0_4_1_1_1_0,2021-11-05T12:22:51.225Z,,,,,,,,,,,,,,,,2,,,,,,,,,,,,,,917.129000002984,,response,,,1,E,,,,,Space,keypress(Space),,,,lyrical,Two ---- ------ --- ------- ---------- ------- ----------<br>--- --------- --- ----------- ------- ----- ------- ---<br>--------- ---- -- --- ---- -- --------- -- ---- -------<br>-- --------- ------ --- ----- ------ ---- --- --------- --<br>------ - ---- -- --- ----------- ------- ---- ----- -----<br>--- -------- - ------ ---- -- ----- ---- --- --- -----------<br>-- -------,196820.09999999404,196819.20000000298,195885.401,195887.70000000298,195902.071,196835.617,,0,Two
screen,html.Screen,0_4_1_1_1_1,2021-11-05T12:22:51.624Z,,,,,,,,,,,,,,,,2,,,,,,,,,,,,,,382.98299999404117,,response,,,1,E,,,,,Space,keypress(Space),,,,lyrical,--- days ------ --- ------- ---------- ------- ----------<br>--- --------- --- ----------- ------- ----- ------- ---<br>--------- ---- -- --- ---- -- --------- -- ---- -------<br>-- --------- ------ --- ----- ------ ---- --- --------- --<br>------ - ---- -- --- ----------- ------- ---- ----- -----<br>--- -------- - ------ ---- -- ----- ---- --- --- -----------<br>-- -------,197219.5,197218.59999999404,196818.947,196820.40000000596,196835.617,197235.889,,1,days
screen,html.Screen,0_4_1_1_1_2,2021-11-05T12:22:51.968Z,,,,,,,,,,,,,,,,2,,,,,,,,,,,,,,326.6110000000044,,response,,,1,E,,,,,Space,keypress(Space),,,,lyrical,"--- ---- later, --- ------- ---------- ------- ----------<br>--- --------- --- ----------- ------- ----- ------- ---<br>--------- ---- -- --- ---- -- --------- -- ---- -------<br>-- --------- ------ --- ----- ------ ---- --- --------- --<br>------ - ---- -- --- ----------- ------- ---- ----- -----<br>--- -------- - ------ ---- -- ----- ---- --- --- -----------<br>-- -------",197563.29999999702,197562.5,197219.218,197219.79999999702,197235.889,197569.245,,2,"later,"
screen,html.Screen,0_4_1_1_1_3,2021-11-05T12:22:52.464Z,,,,,,,,,,,,,,,,2,,,,,,,,,,,,,,489.25500000000466,,response,,,1,E,,,,,Space,keypress(Space),,,,lyrical,--- ---- ------ the ------- ---------- ------- ----------<br>--- --------- --- ----------- ------- ----- ------- ---<br>--------- ---- -- --- ---- -- --------- -- ---- -------<br>-- --------- ------ --- ----- ------ ---- --- --------- --<br>------ - ---- -- --- ----------- ------- ---- ----- -----<br>--- -------- - ------ ---- -- ----- ---- --- --- -----------<br>-- -------,198059.40000000596,198058.5,197552.575,197563.59999999404,197569.245,198069.368,,3,the
