sender,sender_type,sender_id,timestamp,meta,,Blues,Classical,Country,Dance,Electronic,Folk,Gospel,Hip-Hop,Jazz,Latin,Musical/Film,New-age,Pop,Provo_ID,R&B,Rap,Reggae,Religious,Rock,Soul,Swing,Traditional,age,artist_name,correct,correctResponse,distraction,duration,education,ended_on,familiarity,gender,item,list,music_frequency,offensiveness,pleasantness,preference,response,response_action,snippet_file,song_name,song_rating,sound,text,time_commit,time_end,time_render,time_run,time_show,time_switch,url,word,word_ID
Instructions,html.Page,0_0,2021-11-26T10:01:23.680Z,"{""labjs_version"":""20.2.3"",""labjs_build"":{""flavor"":""production"",""commit"":""7ea907d66ca8aeef8054924ca5d82ffbe11e34e5""},""location"":""https://run.pavlovia.org/mvasilev/lab_music_b/"",""userAgent"":""Mozilla/5.0 (Windows NT 6.1; Win64; x64) AppleWebKit/537.36 (KHTML, like Gecko) Chrome/96.0.4664.45 Safari/537.36"",""platform"":""Win32"",""language"":""en-GB"",""locale"":""en-GB"",""timeZone"":""Europe/London"",""timezoneOffset"":0,""screen_width"":1920,""screen_height"":1080,""scroll_width"":1920,""scroll_height"":921,""window_innerWidth"":1920,""window_innerHeight"":969,""devicePixelRatio"":1}",,,,,,,,,,,,,,,,,,,,,,,,,,,,,34604.19100002384,,form submission,,,,,,,,,,,,,,,,43410.40000009537,43409.10000002384,8771.577,8789.900000095367,8804.909,43403.525,{},,
Headphones,html.Page,0_1,2021-11-26T10:01:26.369Z,,,,,,,,,,,,,,,,,,,,,,,,,,,,,,2695.1750000476823,,form submission,,,,,,,,,,,,,,,,46099.300000071526,46098.700000047684,43386.859,43411.10000002384,43403.525,46103.417,,,
Holding screen,html.Screen,0_2_0_0,2021-11-26T10:01:36.362Z,,,,,,,,,,,,,,,,,,,,,,,,,,,,,,10032.932,,timeout,,,,,,,,,,,,,,,,56092.60000002384,56086.351,46086.751,46099.800000071526,46103.417,56136.349,,,
screen,html.Screen,0_2_0_1_0,2021-11-26T10:01:37.364Z,,,,,,,,,,,,,,,,53,,,,,,,,,,,,,,956.3510000476817,,response,,,99,,,,,,Space,keypress(Space),,,,,When -- ----- -- ------ - ------- --- ----------<br>------------- ------ ------ ---- ---- ------- ----- -- ----<br>-------- ------- -- ---------- --- - --- ----- ----- ----<br>---- --- --- ----- --- ---- ---- ------- ----- ---- -------<br>--- --- -- ----- -- --- ---- -- --- ---- -- ------ ------<br>--- ----- -- ----,57094.300000071526,57092.700000047684,56086.351,56093,56136.349,57102.977,,0,When
screen,html.Screen,0_2_0_1_1,2021-11-26T10:01:37.939Z,,,,,,,,,,,,,,,,53,,,,,,,,,,,,,,565.7230000476848,,response,,,99,,,,,,Space,keypress(Space),,,,,---- it ----- -- ------ - ------- --- ----------<br>------------- ------ ------ ---- ---- ------- ----- -- ----<br>-------- ------- -- ---------- --- - --- ----- ----- ----<br>---- --- --- ----- --- ---- ---- ------- ----- ---- -------<br>--- --- -- ----- -- --- ---- -- --- ---- -- ------ ------<br>--- ----- -- ----,57669.700000047684,57668.700000047684,57086.311,57094.700000047684,57102.977,57686.287,,1,it
screen,html.Screen,0_2_0_1_2,2021-11-26T10:01:38.555Z,,,,,,,,,,,,,,,,53,,,,,,,,,,,,,,598.4130000476871,,response,,,99,,,,,,Space,keypress(Space),,,,,---- -- comes -- ------ - ------- --- ----------<br>------------- ------ ------ ---- ---- ------- ----- -- ----<br>-------- ------- -- ---------- --- - --- ----- ----- ----<br>---- --- --- ----- --- ---- ---- ------- ----- ---- -------<br>--- --- -- ----- -- --- ---- -- --- ---- -- ------ ------<br>--- ----- -- ----,58285.60000002384,58284.700000047684,57669.621,57670,57686.287,58302.929,,2,comes
screen,html.Screen,0_2_0_1_3,2021-11-26T10:01:39.419Z,,,,,,,,,,,,,,,,53,,,,,,,,,,,,,,845.6710000238454,,response,,,99,,,,,,Space,keypress(Space),,,,,---- -- ----- to ------ - ------- --- ----------<br>------------- ------ ------ ---- ---- ------- ----- -- ----<br>-------- ------- -- ---------- --- - --- ----- ----- ----<br>---- --- --- ----- --- ---- ---- ------- ----- ---- -------<br>--- --- -- ----- -- --- ---- -- --- ---- -- ------ ------<br>--- ----- -- ----,59149.60000002384,59148.60000002384,58286.263,58285.800000071526,58302.929,59152.895,,3,to
screen,html.Screen,0_2_0_1_4,2021-11-26T10:01:40.147Z,,,,,,,,,,,,,,,,53,,,,,,,,,,,,,,723.7050000238451,,response,,,99,,,,,,Space,keypress(Space),,,,,---- -- ----- -- having - ------- --- ----------<br>------------- ------ ------ ---- ---- ------- ----- -- ----<br>-------- ------- -- ---------- --- - --- ----- ----- ----<br>---- --- --- ----- --- ---- ---- ------- ----- ---- -------<br>--- --- -- ----- -- --- ---- -- --- ---- -- ------ ------<br>--- ----- -- ----,59877.800000071526,59876.60000002384,59136.229,59150.10000002384,59152.895,59886.199,,4,having
screen,html.Screen,0_2_0_1_5,2021-11-26T10:01:40.535Z,,,,,,,,,,,,,,,,53,,,,,,,,,,,,,,374.60100007152505,,response,,,99,,,,,,Space,keypress(Space),,,,,---- -- ----- -- ------ a ------- --- ----------<br>------------- ------ ------ ---- ---- ------- ----- -- ----<br>-------- ------- -- ---------- --- - --- ----- ----- ----<br>---- --- --- ----- --- ---- ---- ------- ----- ---- -------<br>--- --- -- ----- -- --- ---- -- --- ---- -- ------ ------<br>--- ----- -- ----,60261.700000047684,60260.800000071526,59869.533,59878.10000002384,59886.199,60269.517,,5,a
screen,html.Screen,0_2_0_1_6,2021-11-26T10:01:41.031Z,,,,,,,,,,,,,,,,53,,,,,,,,,,,,,,486.9830000000002,,response,,,99,,,,,,Space,keypress(Space),,,,,---- -- ----- -- ------ - lasting --- ----------<br>------------- ------ ------ ---- ---- ------- ----- -- ----<br>-------- ------- -- ---------- --- - --- ----- ----- ----<br>---- --- --- ----- --- ---- ---- ------- ----- ---- -------<br>--- --- -- ----- -- --- ---- -- --- ---- -- ------ ------<br>--- ----- -- ----,60757.40000009537,60756.5,60252.851,60262.200000047684,60269.517,60769.497,,6,lasting
screen,html.Screen,0_2_0_1_7,2021-11-26T10:01:41.423Z,,,,,,,,,,,,,,,,53,,,,,,,,,,,,,,379.002999999997,,response,,,99,,,,,,Space,keypress(Space),,,,,---- -- ----- -- ------ - ------- and ----------<br>------------- ------ ------ ---- ---- ------- ----- -- ----<br>-------- ------- -- ---------- --- - --- ----- ----- ----<br>---- --- --- ----- --- ---- ---- ------- ----- ---- -------<br>--- --- -- ----- -- --- ---- -- --- ---- -- ------ ------<br>--- ----- -- ----,61149.40000009537,61148.5,60752.831,60757.800000071526,60769.497,61152.815,,7,and
screen,html.Screen,0_2_0_1_8,2021-11-26T10:01:42.031Z,,,,,,,,,,,,,,,,53,,,,,,,,,,,,,,603.5850000953651,,response,,,99,,,,,,Space,keypress(Space),,,,,---- -- ----- -- ------ - ------- --- fulfilling<br>------------- ------ ------ ---- ---- ------- ----- -- ----<br>-------- ------- -- ---------- --- - --- ----- ----- ----<br>---- --- --- ----- --- ---- ---- ------- ----- ---- -------<br>--- --- -- ----- -- --- ---- -- --- ---- -- ------ ------<br>--- ----- -- ----,61757.700000047684,61756.40000009537,61136.149,61149.800000071526,61152.815,61769.457,,8,fulfilling
screen,html.Screen,0_2_0_1_9,2021-11-26T10:01:42.623Z,,,,,,,,,,,,,,,,53,,,,,,,,,,,,,,578.9430000953653,,response,,,99,,,,,,Space,keypress(Space),,,,,"---- -- ----- -- ------ - ------- --- ----------<br>relationship, ------ ------ ---- ---- ------- ----- -- ----<br>-------- ------- -- ---------- --- - --- ----- ----- ----<br>---- --- --- ----- --- ---- ---- ------- ----- ---- -------<br>--- --- -- ----- -- --- ---- -- --- ---- -- ------ ------<br>--- ----- -- ----",62349.40000009537,62348.40000009537,61752.791,61758,61769.457,62352.767,,9,"relationship,"
screen,html.Screen,0_2_0_1_10,2021-11-26T10:01:43.375Z,,,,,,,,,,,,,,,,53,,,,,,,,,,,,,,747.6330000953676,,response,,,99,,,,,,Space,keypress(Space),,,,,---- -- ----- -- ------ - ------- --- ----------<br>------------- common ------ ---- ---- ------- ----- -- ----<br>-------- ------- -- ---------- --- - --- ----- ----- ----<br>---- --- --- ----- --- ---- ---- ------- ----- ---- -------<br>--- --- -- ----- -- --- ---- -- --- ---- -- ------ ------<br>--- ----- -- ----,63101.40000009537,63100.40000009537,62336.101,62349.60000002384,62352.767,63102.737,,10,common
screen,html.Screen,0_2_0_1_11,2021-11-26T10:01:44.199Z,,,,,,,,,,,,,,,,53,,,,,,,,,,,,,,821.5630000715246,,response,,,99,,,,,,Space,keypress(Space),,,,,---- -- ----- -- ------ - ------- --- ----------<br>------------- ------ wisdom ---- ---- ------- ----- -- ----<br>-------- ------- -- ---------- --- - --- ----- ----- ----<br>---- --- --- ----- --- ---- ---- ------- ----- ---- -------<br>--- --- -- ----- -- --- ---- -- --- ---- -- ------ ------<br>--- ----- -- ----,63925.300000071526,63924.300000071526,63086.071,63101.60000002384,63102.737,63936.037,,11,wisdom
screen,html.Screen,0_2_0_1_12,2021-11-26T10:01:44.726Z,,,,,,,,,,,,,,,,53,,,,,,,,,,,,,,516.1630000476871,,response,,,99,,,,,,Space,keypress(Space),,,,,---- -- ----- -- ------ - ------- --- ----------<br>------------- ------ ------ says ---- ------- ----- -- ----<br>-------- ------- -- ---------- --- - --- ----- ----- ----<br>---- --- --- ----- --- ---- ---- ------- ----- ---- -------<br>--- --- -- ----- -- --- ---- -- --- ---- -- ------ ------<br>--- ----- -- ----,64453.10000002384,64452.200000047684,63919.371,63925.5,63936.037,64469.349,,12,says
screen,html.Screen,0_2_0_1_13,2021-11-26T10:01:45.182Z,,,,,,,,,,,,,,,,53,,,,,,,,,,,,,,438.85100004768174,,response,,,99,,,,,,Space,keypress(Space),,,,,---- -- ----- -- ------ - ------- --- ----------<br>------------- ------ ------ ---- that ------- ----- -- ----<br>-------- ------- -- ---------- --- - --- ----- ----- ----<br>---- --- --- ----- --- ---- ---- ------- ----- ---- -------<br>--- --- -- ----- -- --- ---- -- --- ---- -- ------ ------<br>--- ----- -- ----,64909.10000002384,64908.200000047684,64452.683,64453.40000009537,64469.349,64919.331,,13,that
screen,html.Screen,0_2_0_1_14,2021-11-26T10:01:45.558Z,,,,,,,,,,,,,,,,53,,,,,,,,,,,,,,364.76900002384355,,response,,,99,,,,,,Space,keypress(Space),,,,,---- -- ----- -- ------ - ------- --- ----------<br>------------- ------ ------ ---- ---- feeling ----- -- ----<br>-------- ------- -- ---------- --- - --- ----- ----- ----<br>---- --- --- ----- --- ---- ---- ------- ----- ---- -------<br>--- --- -- ----- -- --- ---- -- --- ---- -- ------ ------<br>--- ----- -- ----,65285,65284.10000002384,64902.665,64909.300000071526,64919.331,65285.983,,14,feeling
screen,html.Screen,0_2_0_1_15,2021-11-26T10:01:46.238Z,,,,,,,,,,,,,,,,53,,,,,,,,,,,,,,678.1170000238417,,response,,,99,,,,,,Space,keypress(Space),,,,,---- -- ----- -- ------ - ------- --- ----------<br>------------- ------ ------ ---- ---- ------- close -- ----<br>-------- ------- -- ---------- --- - --- ----- ----- ----<br>---- --- --- ----- --- ---- ---- ------- ----- ---- -------<br>--- --- -- ----- -- --- ---- -- --- ---- -- ------ ------<br>--- ----- -- ----,65965,65964.10000002384,65269.317,65285.300000071526,65285.983,65969.289,,15,close
screen,html.Screen,0_2_0_1_16,2021-11-26T10:01:46.694Z,,,,,,,,,,,,,,,,53,,,,,,,,,,,,,,450.81100002383755,,response,,,99,,,,,,Space,keypress(Space),,,,,---- -- ----- -- ------ - ------- --- ----------<br>------------- ------ ------ ---- ---- ------- ----- to ----<br>-------- ------- -- ---------- --- - --- ----- ----- ----<br>---- --- --- ----- --- ---- ---- ------- ----- ---- -------<br>--- --- -- ----- -- --- ---- -- --- ---- -- ------ ------<br>--- ----- -- ----,66421,66420.10000002384,65952.623,65965.20000004768,65969.289,66435.937,,16,to
screen,html.Screen,0_2_0_1_17,2021-11-26T10:01:47.150Z,,,,,,,,,,,,,,,,53,,,,,,,,,,,,,,440.1630000238365,,response,,,99,,,,,,Space,keypress(Space),,,,,---- -- ----- -- ------ - ------- --- ----------<br>------------- ------ ------ ---- ---- ------- ----- -- your<br>-------- ------- -- ---------- --- - --- ----- ----- ----<br>---- --- --- ----- --- ---- ---- ------- ----- ---- -------<br>--- --- -- ----- -- --- ---- -- --- ---- -- ------ ------<br>--- ----- -- ----,66877,66876.10000002384,66419.271,66421.30000007153,66435.937,66885.919,,17,your
screen,html.Screen,0_2_0_1_18,2021-11-26T10:01:47.606Z,,,,,,,,,,,,,,,,53,,,,,,,,,,,,,,446.18100002384745,,response,,,99,,,,,,Space,keypress(Space),,,,,---- -- ----- -- ------ - ------- --- ----------<br>------------- ------ ------ ---- ---- ------- ----- -- ----<br>romantic ------- -- ---------- --- - --- ----- ----- ----<br>---- --- --- ----- --- ---- ---- ------- ----- ---- -------<br>--- --- -- ----- -- --- ---- -- --- ---- -- ------ ------<br>--- ----- -- ----,67332.90000009537,67332.10000002384,66869.253,66877.20000004768,66885.919,67335.901,,18,romantic
screen,html.Screen,0_2_0_1_19,2021-11-26T10:01:48.110Z,,,,,,,,,,,,,,,,53,,,,,,,,,,,,,,500.099000000002,,response,,,99,,,,,,Space,keypress(Space),,,,,---- -- ----- -- ------ - ------- --- ----------<br>------------- ------ ------ ---- ---- ------- ----- -- ----<br>-------- partner -- ---------- --- - --- ----- ----- ----<br>---- --- --- ----- --- ---- ---- ------- ----- ---- -------<br>--- --- -- ----- -- --- ---- -- --- ---- -- ------ ------<br>--- ----- -- ----,67836.80000007153,67836,67319.235,67333.10000002384,67335.901,67852.547,,19,partner
screen,html.Screen,0_2_0_1_20,2021-11-26T10:01:48.574Z,,,,,,,,,,,,,,,,53,,,,,,,,,,,,,,447.45299999999406,,response,,,99,,,,,,Space,keypress(Space),,,,,---- -- ----- -- ------ - ------- --- ----------<br>------------- ------ ------ ---- ---- ------- ----- -- ----<br>-------- ------- is ---------- --- - --- ----- ----- ----<br>---- --- --- ----- --- ---- ---- ------- ----- ---- -------<br>--- --- -- ----- -- --- ---- -- --- ---- -- ------ ------<br>--- ----- -- ----,68300.90000009537,68300,67835.881,67837.10000002384,67852.547,68302.529,,20,is
screen,html.Screen,0_2_0_1_21,2021-11-26T10:01:49.222Z,,,,,,,,,,,,,,,,53,,,,,,,,,,,,,,645.471000000005,,response,,,99,,,,,,Space,keypress(Space),,,,,---- -- ----- -- ------ - ------- --- ----------<br>------------- ------ ------ ---- ---- ------- ----- -- ----<br>-------- ------- -- paramount. --- - --- ----- ----- ----<br>---- --- --- ----- --- ---- ---- ------- ----- ---- -------<br>--- --- -- ----- -- --- ---- -- --- ---- -- ------ ------<br>--- ----- -- ----,68948.70000004768,68948,68285.863,68301.10000002384,68302.529,68952.503,,21,paramount.
screen,html.Screen,0_2_0_1_22,2021-11-26T10:01:49.718Z,,,,,,,,,,,,,,,,53,,,,,,,,,,,,,,491.39700009537046,,response,,,99,,,,,,Space,keypress(Space),,,,,---- -- ----- -- ------ - ------- --- ----------<br>------------- ------ ------ ---- ---- ------- ----- -- ----<br>-------- ------- -- ---------- But - --- ----- ----- ----<br>---- --- --- ----- --- ---- ---- ------- ----- ---- -------<br>--- --- -- ----- -- --- ---- -- --- ---- -- ------ ------<br>--- ----- -- ----,69444.80000007153,69443.90000009537,68935.837,68949.20000004768,68952.503,69452.483,,22,But
screen,html.Screen,0_2_0_1_23,2021-11-26T10:01:50.758Z,,,,,,,,,,,,,,,,53,,,,,,,,,,,,,,1031.7170000476908,,response,,,99,,,,,,Space,keypress(Space),,,,,---- -- ----- -- ------ - ------- --- ----------<br>------------- ------ ------ ---- ---- ------- ----- -- ----<br>-------- ------- -- ---------- --- a --- ----- ----- ----<br>---- --- --- ----- --- ---- ---- ------- ----- ---- -------<br>--- --- -- ----- -- --- ---- -- --- ---- -- ------ ------<br>--- ----- -- ----,70485,70484.20000004768,69435.817,69445.10000002384,69452.483,70502.441,,23,a
screen,html.Screen,0_2_0_1_24,2021-11-26T10:01:51.326Z,,,,,,,,,,,,,,,,53,,,,,,,,,,,,,,549.3590000715194,,response,,,99,,,,,,Space,keypress(Space),,,,,---- -- ----- -- ------ - ------- --- ----------<br>------------- ------ ------ ---- ---- ------- ----- -- ----<br>-------- ------- -- ---------- --- - new ----- ----- ----<br>---- --- --- ----- --- ---- ---- ------- ----- ---- -------<br>--- --- -- ----- -- --- ---- -- --- ---- -- ------ ------<br>--- ----- -- ----,71052.70000004768,71051.80000007153,70485.775,70485.30000007153,70502.441,71069.085,,24,new
screen,html.Screen,0_2_0_1_25,2021-11-26T10:01:51.838Z,,,,,,,,,,,,,,,,53,,,,,,,,,,,,,,494.71500007151917,,response,,,99,,,,,,Space,keypress(Space),,,,,---- -- ----- -- ------ - ------- --- ----------<br>------------- ------ ------ ---- ---- ------- ----- -- ----<br>-------- ------- -- ---------- --- - --- study ----- ----<br>---- --- --- ----- --- ---- ---- ------- ----- ---- -------<br>--- --- -- ----- -- --- ---- -- --- ---- -- ------ ------<br>--- ----- -- ----,71564.60000002384,71563.80000007153,71052.419,71052.80000007153,71069.085,71569.065,,25,study
screen,html.Screen,0_2_0_1_26,2021-11-26T10:01:52.326Z,,,,,,,,,,,,,,,,53,,,,,,,,,,,,,,482.73500007152325,,response,,,99,,,,,,Space,keypress(Space),,,,,---- -- ----- -- ------ - ------- --- ----------<br>------------- ------ ------ ---- ---- ------- ----- -- ----<br>-------- ------- -- ---------- --- - --- ----- finds ----<br>---- --- --- ----- --- ---- ---- ------- ----- ---- -------<br>--- --- -- ----- -- --- ---- -- --- ---- -- ------ ------<br>--- ----- -- ----,72052.60000002384,72051.80000007153,71552.399,71564.80000007153,71569.065,72069.045,,26,finds
screen,html.Screen,0_2_0_1_27,2021-11-26T10:01:52.766Z,,,,,,,,,,,,,,,,53,,,,,,,,,,,,,,422.7550000715273,,response,,,99,,,,,,Space,keypress(Space),,,,,---- -- ----- -- ------ - ------- --- ----------<br>------------- ------ ------ ---- ---- ------- ----- -- ----<br>-------- ------- -- ---------- --- - --- ----- ----- that<br>---- --- --- ----- --- ---- ---- ------- ----- ---- -------<br>--- --- -- ----- -- --- ---- -- --- ---- -- ------ ------<br>--- ----- -- ----,72492.5,72491.80000007153,72052.379,72052.80000007153,72069.045,72502.361,,27,that
screen,html.Screen,0_2_0_1_28,2021-11-26T10:01:53.686Z,,,,,,,,,,,,,,,,53,,,,,,,,,,,,,,909.2390000238374,,response,,,99,,,,,,Space,keypress(Space),,,,,---- -- ----- -- ------ - ------- --- ----------<br>------------- ------ ------ ---- ---- ------- ----- -- ----<br>-------- ------- -- ---------- --- - --- ----- ----- ----<br>it's --- --- ----- --- ---- ---- ------- ----- ---- -------<br>--- --- -- ----- -- --- ---- -- --- ---- -- ------ ------<br>--- ----- -- ----,73412.5,73411.60000002384,72485.695,72492.80000007153,72502.361,73418.991,,28,it's
screen,html.Screen,0_2_0_1_29,2021-11-26T10:01:54.110Z,,,,,,,,,,,,,,,,53,,,,,,,,,,,,,,416.7090000476892,,response,,,99,,,,,,Space,keypress(Space),,,,,---- -- ----- -- ------ - ------- --- ----------<br>------------- ------ ------ ---- ---- ------- ----- -- ----<br>-------- ------- -- ---------- --- - --- ----- ----- ----<br>---- not --- ----- --- ---- ---- ------- ----- ---- -------<br>--- --- -- ----- -- --- ---- -- --- ---- -- ------ ------<br>--- ----- -- ----,73836.5,73835.70000004768,73402.325,73412.70000004768,73418.991,73852.307,,29,not
screen,html.Screen,0_2_0_1_30,2021-11-26T10:01:54.574Z,,,,,,,,,,,,,,,,53,,,,,,,,,,,,,,447.29300002384116,,response,,,99,,,,,,Space,keypress(Space),,,,,---- -- ----- -- ------ - ------- --- ----------<br>------------- ------ ------ ---- ---- ------- ----- -- ----<br>-------- ------- -- ---------- --- - --- ----- ----- ----<br>---- --- how ----- --- ---- ---- ------- ----- ---- -------<br>--- --- -- ----- -- --- ---- -- --- ---- -- ------ ------<br>--- ----- -- ----,74300.40000009537,74299.60000002384,73835.641,73836.80000007153,73852.307,74302.289,,30,how
screen,html.Screen,0_2_0_1_31,2021-11-26T10:01:54.982Z,,,,,,,,,,,,,,,,53,,,,,,,,,,,,,,405.4110000476794,,response,,,99,,,,,,Space,keypress(Space),,,,,---- -- ----- -- ------ - ------- --- ----------<br>------------- ------ ------ ---- ---- ------- ----- -- ----<br>-------- ------- -- ---------- --- - --- ----- ----- ----<br>---- --- --- close --- ---- ---- ------- ----- ---- -------<br>--- --- -- ----- -- --- ---- -- --- ---- -- ------ ------<br>--- ----- -- ----,74708.40000009537,74707.70000004768,74285.623,74300.70000004768,74302.289,74718.939,,31,close
screen,html.Screen,0_2_0_1_32,2021-11-26T10:01:55.358Z,,,,,,,,,,,,,,,,53,,,,,,,,,,,,,,364.66100002384337,,response,,,99,,,,,,Space,keypress(Space),,,,,---- -- ----- -- ------ - ------- --- ----------<br>------------- ------ ------ ---- ---- ------- ----- -- ----<br>-------- ------- -- ---------- --- - --- ----- ----- ----<br>---- --- --- ----- you ---- ---- ------- ----- ---- -------<br>--- --- -- ----- -- --- ---- -- --- ---- -- ------ ------<br>--- ----- -- ----,75084.60000002384,75083.60000002384,74702.273,74708.70000004768,74718.939,75085.591,,32,you
screen,html.Screen,0_2_0_1_33,2021-11-26T10:01:56.126Z,,,,,,,,,,,,,,,,53,,,,,,,,,,,,,,765.9089999999997,,response,,,99,,,,,,Space,keypress(Space),,,,,---- -- ----- -- ------ - ------- --- ----------<br>------------- ------ ------ ---- ---- ------- ----- -- ----<br>-------- ------- -- ---------- --- - --- ----- ----- ----<br>---- --- --- ----- --- feel ---- ------- ----- ---- -------<br>--- --- -- ----- -- --- ---- -- --- ---- -- ------ ------<br>--- ----- -- ----,75852.30000007153,75851.5,75068.925,75084.80000007153,75085.591,75868.893,,33,feel
screen,html.Screen,0_2_0_1_34,2021-11-26T10:01:56.462Z,,,,,,,,,,,,,,,,53,,,,,,,,,,,,,,318.6070000000036,,response,,,99,,,,,,Space,keypress(Space),,,,,---- -- ----- -- ------ - ------- --- ----------<br>------------- ------ ------ ---- ---- ------- ----- -- ----<br>-------- ------- -- ---------- --- - --- ----- ----- ----<br>---- --- --- ----- --- ---- that ------- ----- ---- -------<br>--- --- -- ----- -- --- ---- -- --- ---- -- ------ ------<br>--- ----- -- ----,76188.30000007153,76187.5,75852.227,75852.60000002384,75868.893,76202.213,,34,that
screen,html.Screen,0_2_0_1_35,2021-11-26T10:01:57.014Z,,,,,,,,,,,,,,,,53,,,,,,,,,,,,,,537.2869999999966,,response,,,99,,,,,,Space,keypress(Space),,,,,---- -- ----- -- ------ - ------- --- ----------<br>------------- ------ ------ ---- ---- ------- ----- -- ----<br>-------- ------- -- ---------- --- - --- ----- ----- ----<br>---- --- --- ----- --- ---- ---- matters ----- ---- -------<br>--- --- -- ----- -- --- ---- -- --- ---- -- ------ ------<br>--- ----- -- ----,76740.30000007153,76739.5,76185.547,76188.5,76202.213,76752.191,,35,matters
screen,html.Screen,0_2_0_1_36,2021-11-26T10:01:57.486Z,,,,,,,,,,,,,,,,53,,,,,,,,,,,,,,459.20900009536126,,response,,,99,,,,,,Space,keypress(Space),,,,,"---- -- ----- -- ------ - ------- --- ----------<br>------------- ------ ------ ---- ---- ------- ----- -- ----<br>-------- ------- -- ---------- --- - --- ----- ----- ----<br>---- --- --- ----- --- ---- ---- ------- most, ---- -------<br>--- --- -- ----- -- --- ---- -- --- ---- -- ------ ------<br>--- ----- -- ----",77212.5,77211.40000009537,76735.525,76740.60000002384,76752.191,77218.839,,36,"most,"
screen,html.Screen,0_2_0_1_37,2021-11-26T10:01:57.926Z,,,,,,,,,,,,,,,,53,,,,,,,,,,,,,,432.5610000953602,,response,,,99,,,,,,Space,keypress(Space),,,,,---- -- ----- -- ------ - ------- --- ----------<br>------------- ------ ------ ---- ---- ------- ----- -- ----<br>-------- ------- -- ---------- --- - --- ----- ----- ----<br>---- --- --- ----- --- ---- ---- ------- ----- it's -------<br>--- --- -- ----- -- --- ---- -- --- ---- -- ------ ------<br>--- ----- -- ----,77652.20000004768,77651.40000009537,77202.173,77212.70000004768,77218.839,77668.821,,37,it's
screen,html.Screen,0_2_0_1_38,2021-11-26T10:01:58.342Z,,,,,,,,,,,,,,,,53,,,,,,,,,,,,,,398.57900009537116,,response,,,99,,,,,,Space,keypress(Space),,,,,---- -- ----- -- ------ - ------- --- ----------<br>------------- ------ ------ ---- ---- ------- ----- -- ----<br>-------- ------- -- ---------- --- - --- ----- ----- ----<br>---- --- --- ----- --- ---- ---- ------- ----- ---- whether<br>--- --- -- ----- -- --- ---- -- --- ---- -- ------ ------<br>--- ----- -- ----,78068.20000004768,78067.40000009537,77652.155,77652.5,77668.821,78085.471,,38,whether
screen,html.Screen,0_2_0_1_39,2021-11-26T10:01:58.750Z,,,,,,,,,,,,,,,,53,,,,,,,,,,,,,,389.82900007152057,,response,,,99,,,,,,Space,keypress(Space),,,,,---- -- ----- -- ------ - ------- --- ----------<br>------------- ------ ------ ---- ---- ------- ----- -- ----<br>-------- ------- -- ---------- --- - --- ----- ----- ----<br>---- --- --- ----- --- ---- ---- ------- ----- ---- -------<br>you --- -- ----- -- --- ---- -- --- ---- -- ------ ------<br>--- ----- -- ----,78476.10000002384,78475.30000007153,78068.805,78068.5,78085.471,78485.455,,39,you
screen,html.Screen,0_2_0_1_40,2021-11-26T10:01:59.102Z,,,,,,,,,,,,,,,,53,,,,,,,,,,,,,,341.9450000953657,,response,,,99,,,,,,Space,keypress(Space),,,,,---- -- ----- -- ------ - ------- --- ----------<br>------------- ------ ------ ---- ---- ------- ----- -- ----<br>-------- ------- -- ---------- --- - --- ----- ----- ----<br>---- --- --- ----- --- ---- ---- ------- ----- ---- -------<br>--- are -- ----- -- --- ---- -- --- ---- -- ------ ------<br>--- ----- -- ----,78828.10000002384,78827.40000009537,78468.789,78476.40000009537,78485.455,78835.441,,40,are
screen,html.Screen,0_2_0_1_41,2021-11-26T10:01:59.469Z,,,,,,,,,,,,,,,,53,,,,,,,,,,,,,,359.8590000715194,,response,,,99,,,,,,Space,keypress(Space),,,,,---- -- ----- -- ------ - ------- --- ----------<br>------------- ------ ------ ---- ---- ------- ----- -- ----<br>-------- ------- -- ---------- --- - --- ----- ----- ----<br>---- --- --- ----- --- ---- ---- ------- ----- ---- -------<br>--- --- as ----- -- --- ---- -- --- ---- -- ------ ------<br>--- ----- -- ----,79196.10000002384,79195.30000007153,78818.775,78828.40000009537,78835.441,79202.093,,41,as
screen,html.Screen,0_2_0_1_42,2021-11-26T10:01:59.933Z,,,,,,,,,,,,,,,,53,,,,,,,,,,,,,,457.2070000715321,,response,,,99,,,,,,Space,keypress(Space),,,,,---- -- ----- -- ------ - ------- --- ----------<br>------------- ------ ------ ---- ---- ------- ----- -- ----<br>-------- ------- -- ---------- --- - --- ----- ----- ----<br>---- --- --- ----- --- ---- ---- ------- ----- ---- -------<br>--- --- -- close -- --- ---- -- --- ---- -- ------ ------<br>--- ----- -- ----,79660.10000002384,79659.30000007153,79185.427,79196.40000009537,79202.093,79668.741,,42,close
screen,html.Screen,0_2_0_1_43,2021-11-26T10:02:00.309Z,,,,,,,,,,,,,,,,53,,,,,,,,,,,,,,366.4590000476892,,response,,,99,,,,,,Space,keypress(Space),,,,,---- -- ----- -- ------ - ------- --- ----------<br>------------- ------ ------ ---- ---- ------- ----- -- ----<br>-------- ------- -- ---------- --- - --- ----- ----- ----<br>---- --- --- ----- --- ---- ---- ------- ----- ---- -------<br>--- --- -- ----- as --- ---- -- --- ---- -- ------ ------<br>--- ----- -- ----,80036.10000002384,80035.20000004768,79652.075,79660.30000007153,79668.741,80052.059,,43,as
screen,html.Screen,0_2_0_1_44,2021-11-26T10:02:00.814Z,,,,,,,,,,,,,,,,53,,,,,,,,,,,,,,487.541000023848,,response,,,99,,,,,,Space,keypress(Space),,,,,---- -- ----- -- ------ - ------- --- ----------<br>------------- ------ ------ ---- ---- ------- ----- -- ----<br>-------- ------- -- ---------- --- - --- ----- ----- ----<br>---- --- --- ----- --- ---- ---- ------- ----- ---- -------<br>--- --- -- ----- -- you ---- -- --- ---- -- ------ ------<br>--- ----- -- ----,80540.30000007153,80539.60000002384,80035.393,80036.30000007153,80052.059,80552.039,,44,you
screen,html.Screen,0_2_0_1_45,2021-11-26T10:02:01.181Z,,,,,,,,,,,,,,,,53,,,,,,,,,,,,,,355.1610000476794,,response,,,99,,,,,,Space,keypress(Space),,,,,---- -- ----- -- ------ - ------- --- ----------<br>------------- ------ ------ ---- ---- ------- ----- -- ----<br>-------- ------- -- ---------- --- - --- ----- ----- ----<br>---- --- --- ----- --- ---- ---- ------- ----- ---- -------<br>--- --- -- ----- -- --- want -- --- ---- -- ------ ------<br>--- ----- -- ----,80908.10000002384,80907.20000004768,80535.373,80540.60000002384,80552.039,80918.691,,45,want
screen,html.Screen,0_2_0_1_46,2021-11-26T10:02:01.637Z,,,,,,,,,,,,,,,,53,,,,,,,,,,,,,,444.4090000238357,,response,,,99,,,,,,Space,keypress(Space),,,,,---- -- ----- -- ------ - ------- --- ----------<br>------------- ------ ------ ---- ---- ------- ----- -- ----<br>-------- ------- -- ---------- --- - --- ----- ----- ----<br>---- --- --- ----- --- ---- ---- ------- ----- ---- -------<br>--- --- -- ----- -- --- ---- to --- ---- -- ------ ------<br>--- ----- -- ----,81363.80000007153,81363.10000002384,80902.025,80908.30000007153,80918.691,81368.673,,46,to
screen,html.Screen,0_2_0_1_47,2021-11-26T10:02:02.189Z,,,,,,,,,,,,,,,,53,,,,,,,,,,,,,,546.5270000476885,,response,,,99,,,,,,Space,keypress(Space),,,,,"---- -- ----- -- ------ - ------- --- ----------<br>------------- ------ ------ ---- ---- ------- ----- -- ----<br>-------- ------- -- ---------- --- - --- ----- ----- ----<br>---- --- --- ----- --- ---- ---- ------- ----- ---- -------<br>--- --- -- ----- -- --- ---- -- be, ---- -- ------ ------<br>--- ----- -- ----",81915.90000009537,81915.20000004768,81352.007,81364.10000002384,81368.673,81918.651,,47,"be,"
screen,html.Screen,0_2_0_1_48,2021-11-26T10:02:02.757Z,,,,,,,,,,,,,,,,53,,,,,,,,,,,,,,564.4490000238438,,response,,,99,,,,,,Space,keypress(Space),,,,,---- -- ----- -- ------ - ------- --- ----------<br>------------- ------ ------ ---- ---- ------- ----- -- ----<br>-------- ------- -- ---------- --- - --- ----- ----- ----<br>---- --- --- ----- --- ---- ---- ------- ----- ---- -------<br>--- --- -- ----- -- --- ---- -- --- even -- ------ ------<br>--- ----- -- ----,82483.80000007153,82483.10000002384,81901.985,81916.10000002384,81918.651,82485.295,,48,even
screen,html.Screen,0_2_0_1_49,2021-11-26T10:02:03.181Z,,,,,,,,,,,,,,,,53,,,,,,,,,,,,,,421.70500000000175,,response,,,99,,,,,,Space,keypress(Space),,,,,---- -- ----- -- ------ - ------- --- ----------<br>------------- ------ ------ ---- ---- ------- ----- -- ----<br>-------- ------- -- ---------- --- - --- ----- ----- ----<br>---- --- --- ----- --- ---- ---- ------- ----- ---- -------<br>--- --- -- ----- -- --- ---- -- --- ---- if ------ ------<br>--- ----- -- ----,82907.80000007153,82907,82468.629,82484.10000002384,82485.295,82918.611,,49,if
screen,html.Screen,0_2_0_1_50,2021-11-26T10:02:03.645Z,,,,,,,,,,,,,,,,53,,,,,,,,,,,,,,452.3889999999956,,response,,,99,,,,,,Space,keypress(Space),,,,,---- -- ----- -- ------ - ------- --- ----------<br>------------- ------ ------ ---- ---- ------- ----- -- ----<br>-------- ------- -- ---------- --- - --- ----- ----- ----<br>---- --- --- ----- --- ---- ---- ------- ----- ---- -------<br>--- --- -- ----- -- --- ---- -- --- ---- -- that's ------<br>--- ----- -- ----,83371.80000007153,83371,82901.945,82908,82918.611,83385.259,,50,that's
screen,html.Screen,0_2_0_1_51,2021-11-26T10:02:04.221Z,,,,,,,,,,,,,,,,53,,,,,,,,,,,,,,561.7409999999945,,response,,,99,,,,,,Space,keypress(Space),,,,,---- -- ----- -- ------ - ------- --- ----------<br>------------- ------ ------ ---- ---- ------- ----- -- ----<br>-------- ------- -- ---------- --- - --- ----- ----- ----<br>---- --- --- ----- --- ---- ---- ------- ----- ---- -------<br>--- --- -- ----- -- --- ---- -- --- ---- -- ------ really<br>--- ----- -- ----,83947.80000007153,83947,83368.593,83372,83385.259,83951.903,,51,really
screen,html.Screen,0_2_0_1_52,2021-11-26T10:02:04.661Z,,,,,,,,,,,,,,,,53,,,,,,,,,,,,,,435.0969999999943,,response,,,99,,,,,,Space,keypress(Space),,,,,---- -- ----- -- ------ - ------- --- ----------<br>------------- ------ ------ ---- ---- ------- ----- -- ----<br>-------- ------- -- ---------- --- - --- ----- ----- ----<br>---- --- --- ----- --- ---- ---- ------- ----- ---- -------<br>--- --- -- ----- -- --- ---- -- --- ---- -- ------ ------<br>not ----- -- ----,84387.70000004768,84387,83935.237,83948,83951.903,84401.885,,52,not
screen,html.Screen,0_2_0_1_53,2021-11-26T10:02:05.117Z,,,,,,,,,,,,,,,,53,,,,,,,,,,,,,,441.01500009537267,,response,,,99,,,,,,Space,keypress(Space),,,,,---- -- ----- -- ------ - ------- --- ----------<br>------------- ------ ------ ---- ---- ------- ----- -- ----<br>-------- ------- -- ---------- --- - --- ----- ----- ----<br>---- --- --- ----- --- ---- ---- ------- ----- ---- -------<br>--- --- -- ----- -- --- ---- -- --- ---- -- ------ ------<br>--- close -- ----,84843.70000004768,84842.90000009537,84385.219,84388,84401.885,84851.867,,53,close
screen,html.Screen,0_2_0_1_54,2021-11-26T10:02:05.533Z,,,,,,,,,,,,,,,,53,,,,,,,,,,,,,,407.03300009536906,,response,,,99,,,,,,Space,keypress(Space),,,,,---- -- ----- -- ------ - ------- --- ----------<br>------------- ------ ------ ---- ---- ------- ----- -- ----<br>-------- ------- -- ---------- --- - --- ----- ----- ----<br>---- --- --- ----- --- ---- ---- ------- ----- ---- -------<br>--- --- -- ----- -- --- ---- -- --- ---- -- ------ ------<br>--- ----- at ----,85259.80000007153,85258.90000009537,84835.201,84844,84851.867,85268.517,,54,at
screen,html.Screen,0_2_0_1_55,2021-11-26T10:02:06.205Z,,,,,,,,,,,,,,,,53,,,,,,,,,,,,,,662.3830000953603,,response,,,99,,,,,,Space,keypress(Space),,,,,---- -- ----- -- ------ - ------- --- ----------<br>------------- ------ ------ ---- ---- ------- ----- -- ----<br>-------- ------- -- ---------- --- - --- ----- ----- ----<br>---- --- --- ----- --- ---- ---- ------- ----- ---- -------<br>--- --- -- ----- -- --- ---- -- --- ---- -- ------ ------<br>--- ----- -- all.,85931.70000004768,85930.90000009537,85251.851,85260,85268.517,85951.823,,55,all.
Item 99,flow.Loop,0_2_0_1,2021-11-26T10:02:06.210Z,,,,,,,,,,,,,,,,,,,,,,,,,,,,,,29794.551000095365,,completion,,,,B,,,,,,,,,,silence,,85936.5,85930.90000009537,56086.351,56092.90000009537,56136.349,85951.823,,,
Question 1,html.Screen,0_2_0_2,2021-11-26T10:02:13.633Z,,,,,,,,,,,,,,,,,,,,,,,,,,,false,FALSE,,7406.5770000953635,,response,,,99,B,,,,,TRUE,click #choice-1,,,,silence,,93359.90000009537,93358.40000009537,85935.157,85936.70000004768,85951.823,93368.193,,,
Question 2,html.Screen,0_2_0_3,2021-11-26T10:02:27.856Z,,,,,,,,,,,,,,,,,,,,,,,,,,,false,TRUE,,14213.207000095368,,response,,,99,B,,,,,FALSE,click #choice-2,,,,silence,,107582.60000002384,107581.40000009537,93351.527,93360.20000004768,93368.193,107584.291,,,
Item 99,flow.Sequence,0_2_0,2021-11-26T10:02:27.856Z,,,,,,,,,,,,,,,,,,,,,,,,,,,,,,61477.983000095366,,completion,,,,,,,,,,,,,,,,107583,107581.40000009537,46086.751,46099.700000047684,46103.417,107584.291,,,
Holding screen,html.Screen,0_2_1_0,2021-11-26T10:02:37.842Z,,,,,,,,,,,,,,,,,,,,,,,,,,,,,,9999.600000000006,,timeout,,,,,,,,,,,,,,,,117569.10000002384,117567.225,107567.625,107583.40000009537,107584.291,117583.891,,,
screen,html.Screen,0_2_1_1_0,2021-11-26T10:02:38.635Z,,,,,,,,,,,,,,,,54,,,,,,,,,,,,,,777.2090000238386,,response,,,100,,,,,,Space,keypress(Space),,,,,At --- ---- --- ------ ----- ------- ---- -- --- ------- --<br>------- ---------- ------ -- ----- -- ----- -- ---- ------<br>--- ----- --- --- ------ -------- ----- --- ------ ----- --<br>----- ----- ---------- --- --- ------ ------ ---- -- ------<br>------- --- ------ ----- --- ---- ------- -- ---- --- --<br>------- ------,118362,118361.10000002384,117567.225,117569.40000009537,117583.891,118367.193,,0,At
screen,html.Screen,0_2_1_1_1,2021-11-26T10:02:39.083Z,,,,,,,,,,,,,,,,54,,,,,,,,,,,,,,441.6070000715263,,response,,,100,,,,,,Space,keypress(Space),,,,,-- the ---- --- ------ ----- ------- ---- -- --- ------- --<br>------- ---------- ------ -- ----- -- ----- -- ---- ------<br>--- ----- --- --- ------ -------- ----- --- ------ ----- --<br>----- ----- ---------- --- --- ------ ------ ---- -- ------<br>------- --- ------ ----- --- ---- ------- -- ---- --- --<br>------- ------,118809.60000002384,118808.80000007153,118350.527,118362.30000007153,118367.193,118817.175,,1,the
screen,html.Screen,0_2_1_1_2,2021-11-26T10:02:39.683Z,,,,,,,,,,,,,,,,54,,,,,,,,,,,,,,591.5250000476808,,response,,,100,,,,,,Space,keypress(Space),,,,,-- --- time --- ------ ----- ------- ---- -- --- ------- --<br>------- ---------- ------ -- ----- -- ----- -- ---- ------<br>--- ----- --- --- ------ -------- ----- --- ------ ----- --<br>----- ----- ---------- --- --- ------ ------ ---- -- ------<br>------- --- ------ ----- --- ---- ------- -- ---- --- --<br>------- ------,119409.5,119408.70000004768,118800.509,118809.80000007153,118817.175,119417.151,,2,time
screen,html.Screen,0_2_1_1_3,2021-11-26T10:02:40.663Z,,,,,,,,,,,,,,,,54,,,,,,,,,,,,,,967.5490000476857,,response,,,100,,,,,,Space,keypress(Space),,,,,-- --- ---- the ------ ----- ------- ---- -- --- ------- --<br>------- ---------- ------ -- ----- -- ----- -- ---- ------<br>--- ----- --- --- ------ -------- ----- --- ------ ----- --<br>----- ----- ---------- --- --- ------ ------ ---- -- ------<br>------- --- ------ ----- --- ---- ------- -- ---- --- --<br>------- ------,120385.5,120384.70000004768,119400.485,119409.90000009537,119417.151,120400.445,,3,the
screen,html.Screen,0_2_1_1_4,2021-11-26T10:02:41.200Z,,,,,,,,,,,,,,,,54,,,,,,,,,,,,,,520.2550000476767,,response,,,100,,,,,,Space,keypress(Space),,,,,-- --- ---- --- French ----- ------- ---- -- --- ------- --<br>------- ---------- ------ -- ----- -- ----- -- ---- ------<br>--- ----- --- --- ------ -------- ----- --- ------ ----- --<br>----- ----- ---------- --- --- ------ ------ ---- -- ------<br>------- --- ------ ----- --- ---- ------- -- ---- --- --<br>------- ------,120923.30000007153,120920.70000004768,120383.779,120385.80000007153,120400.445,120933.757,,4,French
screen,html.Screen,0_2_1_1_5,2021-11-26T10:02:41.742Z,,,,,,,,,,,,,,,,54,,,,,,,,,,,,,,530.8430000238441,,response,,,100,,,,,,Space,keypress(Space),,,,,-- --- ---- --- ------ crown ------- ---- -- --- ------- --<br>------- ---------- ------ -- ----- -- ----- -- ---- ------<br>--- ----- --- --- ------ -------- ----- --- ------ ----- --<br>----- ----- ---------- --- --- ------ ------ ---- -- ------<br>------- --- ------ ----- --- ---- ------- -- ---- --- --<br>------- ------,121465.40000009537,121464.60000002384,120917.091,120923.5,120933.757,121467.069,,5,crown
screen,html.Screen,0_2_1_1_6,2021-11-26T10:02:42.198Z,,,,,,,,,,,,,,,,54,,,,,,,,,,,,,,453.5310000238387,,response,,,100,,,,,,Space,keypress(Space),,,,,-- --- ---- --- ------ ----- secured ---- -- --- ------- --<br>------- ---------- ------ -- ----- -- ----- -- ---- ------<br>--- ----- --- --- ------ -------- ----- --- ------ ----- --<br>----- ----- ---------- --- --- ------ ------ ---- -- ------<br>------- --- ------ ----- --- ---- ------- -- ---- --- --<br>------- ------,121921.40000009537,121920.60000002384,121450.403,121465.70000004768,121467.069,121933.717,,6,secured
screen,html.Screen,0_2_1_1_7,2021-11-26T10:02:42.886Z,,,,,,,,,,,,,,,,54,,,,,,,,,,,,,,674.7829999999958,,response,,,100,,,,,,Space,keypress(Space),,,,,-- --- ---- --- ------ ----- ------- much -- --- ------- --<br>------- ---------- ------ -- ----- -- ----- -- ---- ------<br>--- ----- --- --- ------ -------- ----- --- ------ ----- --<br>----- ----- ---------- --- --- ------ ------ ---- -- ------<br>------- --- ------ ----- --- ---- ------- -- ---- --- --<br>------- ------,122609.40000009537,122608.5,121917.051,121921.60000002384,121933.717,122617.023,,7,much
screen,html.Screen,0_2_1_1_8,2021-11-26T10:02:43.494Z,,,,,,,,,,,,,,,,54,,,,,,,,,,,,,,599.5770000238408,,response,,,100,,,,,,Space,keypress(Space),,,,,-- --- ---- --- ------ ----- ------- ---- of --- ------- --<br>------- ---------- ------ -- ----- -- ----- -- ---- ------<br>--- ----- --- --- ------ -------- ----- --- ------ ----- --<br>----- ----- ---------- --- --- ------ ------ ---- -- ------<br>------- --- ------ ----- --- ---- ------- -- ---- --- --<br>------- ------,123217.20000004768,123216.60000002384,122600.357,122609.60000002384,122617.023,123233.665,,8,of
screen,html.Screen,0_2_1_1_9,2021-11-26T10:02:44.110Z,,,,,,,,,,,,,,,,54,,,,,,,,,,,,,,598.7350000953738,,response,,,100,,,,,,Space,keypress(Space),,,,,-- --- ---- --- ------ ----- ------- ---- -- its ------- --<br>------- ---------- ------ -- ----- -- ----- -- ---- ------<br>--- ----- --- --- ------ -------- ----- --- ------ ----- --<br>----- ----- ---------- --- --- ------ ------ ---- -- ------<br>------- --- ------ ----- --- ---- ------- -- ---- --- --<br>------- ------,123833.30000007153,123832.40000009537,123216.999,123217.5,123233.665,123850.307,,9,its
screen,html.Screen,0_2_1_1_10,2021-11-26T10:02:45.286Z,,,,,,,,,,,,,,,,54,,,,,,,,,,,,,,1158.0930000953667,,response,,,100,,,,,,Space,keypress(Space),,,,,-- --- ---- --- ------ ----- ------- ---- -- --- revenue --<br>------- ---------- ------ -- ----- -- ----- -- ---- ------<br>--- ----- --- --- ------ -------- ----- --- ------ ----- --<br>----- ----- ---------- --- --- ------ ------ ---- -- ------<br>------- --- ------ ----- --- ---- ------- -- ---- --- --<br>------- ------,125009.20000004768,125008.40000009537,123833.641,123833.5,123850.307,125016.927,,10,revenue
screen,html.Screen,0_2_1_1_11,2021-11-26T10:02:45.910Z,,,,,,,,,,,,,,,,54,,,,,,,,,,,,,,615.4730000953714,,response,,,100,,,,,,Space,keypress(Space),,,,,-- --- ---- --- ------ ----- ------- ---- -- --- ------- by<br>------- ---------- ------ -- ----- -- ----- -- ---- ------<br>--- ----- --- --- ------ -------- ----- --- ------ ----- --<br>----- ----- ---------- --- --- ------ ------ ---- -- ------<br>------- --- ------ ----- --- ---- ------- -- ---- --- --<br>------- ------,125633.20000004768,125632.40000009537,125000.261,125009.5,125016.927,125650.235,,11,by
screen,html.Screen,0_2_1_1_12,2021-11-26T10:02:46.542Z,,,,,,,,,,,,,,,,54,,,,,,,,,,,,,,614.1650000953668,,response,,,100,,,,,,Space,keypress(Space),,,,,-- --- ---- --- ------ ----- ------- ---- -- --- ------- --<br>issuing ---------- ------ -- ----- -- ----- -- ---- ------<br>--- ----- --- --- ------ -------- ----- --- ------ ----- --<br>----- ----- ---------- --- --- ------ ------ ---- -- ------<br>------- --- ------ ----- --- ---- ------- -- ---- --- --<br>------- ------,126265.20000004768,126264.40000009537,125633.569,125633.40000009537,125650.235,126266.877,,12,issuing
screen,html.Screen,0_2_1_1_13,2021-11-26T10:02:47.078Z,,,,,,,,,,,,,,,,54,,,,,,,,,,,,,,533.4230000715324,,response,,,100,,,,,,Space,keypress(Space),,,,,-- --- ---- --- ------ ----- ------- ---- -- --- ------- --<br>------- government ------ -- ----- -- ----- -- ---- ------<br>--- ----- --- --- ------ -------- ----- --- ------ ----- --<br>----- ----- ---------- --- --- ------ ------ ---- -- ------<br>------- --- ------ ----- --- ---- ------- -- ---- --- --<br>------- ------,126801.10000002384,126800.30000007153,126250.211,126265.40000009537,126266.877,126816.855,,13,government
screen,html.Screen,0_2_1_1_14,2021-11-26T10:02:47.798Z,,,,,,,,,,,,,,,,54,,,,,,,,,,,,,,703.3450000476878,,response,,,100,,,,,,Space,keypress(Space),,,,,-- --- ---- --- ------ ----- ------- ---- -- --- ------- --<br>------- ---------- bonds. -- ----- -- ----- -- ---- ------<br>--- ----- --- --- ------ -------- ----- --- ------ ----- --<br>----- ----- ---------- --- --- ------ ------ ---- -- ------<br>------- --- ------ ----- --- ---- ------- -- ---- --- --<br>------- ------,127521,127520.20000004768,126800.189,126801.40000009537,126816.855,127533.493,,14,bonds.
screen,html.Screen,0_2_1_1_15,2021-11-26T10:02:48.454Z,,,,,,,,,,,,,,,,54,,,,,,,,,,,,,,642.7070000476815,,response,,,100,,,,,,Space,keypress(Space),,,,,-- --- ---- --- ------ ----- ------- ---- -- --- ------- --<br>------- ---------- ------ In ----- -- ----- -- ---- ------<br>--- ----- --- --- ------ -------- ----- --- ------ ----- --<br>----- ----- ---------- --- --- ------ ------ ---- -- ------<br>------- --- ------ ----- --- ---- ------- -- ---- --- --<br>------- ------,128177.10000002384,128176.20000004768,127516.827,127521.30000007153,127533.493,128183.467,,15,In
screen,html.Screen,0_2_1_1_16,2021-11-26T10:02:49.038Z,,,,,,,,,,,,,,,,54,,,,,,,,,,,,,,577.0329999999958,,response,,,100,,,,,,Space,keypress(Space),,,,,"-- --- ---- --- ------ ----- ------- ---- -- --- ------- --<br>------- ---------- ------ -- 1727, -- ----- -- ---- ------<br>--- ----- --- --- ------ -------- ----- --- ------ ----- --<br>----- ----- ---------- --- --- ------ ------ ---- -- ------<br>------- --- ------ ----- --- ---- ------- -- ---- --- --<br>------- ------",128761.30000007153,128760.5,128166.801,128177.30000007153,128183.467,128766.777,,16,"1727,"
screen,html.Screen,0_2_1_1_17,2021-11-26T10:02:49.942Z,,,,,,,,,,,,,,,,54,,,,,,,,,,,,,,897.4230000476819,,response,,,100,,,,,,Space,keypress(Space),,,,,-- --- ---- --- ------ ----- ------- ---- -- --- ------- --<br>------- ---------- ------ -- ----- in ----- -- ---- ------<br>--- ----- --- --- ------ -------- ----- --- ------ ----- --<br>----- ----- ---------- --- --- ------ ------ ---- -- ------<br>------- --- ------ ----- --- ---- ------- -- ---- --- --<br>------- ------,129664.90000009537,129664.20000004768,128750.111,128761.5,128766.777,129666.741,,17,in
screen,html.Screen,0_2_1_1_18,2021-11-26T10:02:50.494Z,,,,,,,,,,,,,,,,54,,,,,,,,,,,,,,549.2590000000055,,response,,,100,,,,,,Space,keypress(Space),,,,,-- --- ---- --- ------ ----- ------- ---- -- --- ------- --<br>------- ---------- ------ -- ----- -- order -- ---- ------<br>--- ----- --- --- ------ -------- ----- --- ------ ----- --<br>----- ----- ---------- --- --- ------ ------ ---- -- ------<br>------- --- ------ ----- --- ---- ------- -- ---- --- --<br>------- ------,130216.90000009537,130216,129650.075,129665.20000004768,129666.741,130233.385,,18,order
screen,html.Screen,0_2_1_1_19,2021-11-26T10:02:51.046Z,,,,,,,,,,,,,,,,54,,,,,,,,,,,,,,534.6150000000052,,response,,,100,,,,,,Space,keypress(Space),,,,,-- --- ---- --- ------ ----- ------- ---- -- --- ------- --<br>------- ---------- ------ -- ----- -- ----- to ---- ------<br>--- ----- --- --- ------ -------- ----- --- ------ ----- --<br>----- ----- ---------- --- --- ------ ------ ---- -- ------<br>------- --- ------ ----- --- ---- ------- -- ---- --- --<br>------- ------,130768.90000009537,130768,130216.719,130217.20000004768,130233.385,130783.363,,19,to
screen,html.Screen,0_2_1_1_20,2021-11-26T10:02:51.750Z,,,,,,,,,,,,,,,,54,,,,,,,,,,,,,,688.6370000000024,,response,,,100,,,,,,Space,keypress(Space),,,,,-- --- ---- --- ------ ----- ------- ---- -- --- ------- --<br>------- ---------- ------ -- ----- -- ----- -- save ------<br>--- ----- --- --- ------ -------- ----- --- ------ ----- --<br>----- ----- ---------- --- --- ------ ------ ---- -- ------<br>------- --- ------ ----- --- ---- ------- -- ---- --- --<br>------- ------,131472.80000007153,131472,130766.697,130769.20000004768,130783.363,131483.335,,20,save
screen,html.Screen,0_2_1_1_21,2021-11-26T10:02:52.422Z,,,,,,,,,,,,,,,,54,,,,,,,,,,,,,,660.5650000953756,,response,,,100,,,,,,Space,keypress(Space),,,,,"-- --- ---- --- ------ ----- ------- ---- -- --- ------- --<br>------- ---------- ------ -- ----- -- ----- -- ---- money,<br>--- ----- --- --- ------ -------- ----- --- ------ ----- --<br>----- ----- ---------- --- --- ------ ------ ---- -- ------<br>------- --- ------ ----- --- ---- ------- -- ---- --- --<br>------- ------",132144.80000007153,132143.90000009537,131466.669,131473,131483.335,132149.975,,21,"money,"
screen,html.Screen,0_2_1_1_22,2021-11-26T10:02:52.854Z,,,,,,,,,,,,,,,,54,,,,,,,,,,,,,,425.9250000953616,,response,,,100,,,,,,Space,keypress(Space),,,,,-- --- ---- --- ------ ----- ------- ---- -- --- ------- --<br>------- ---------- ------ -- ----- -- ----- -- ---- ------<br>the ----- --- --- ------ -------- ----- --- ------ ----- --<br>----- ----- ---------- --- --- ------ ------ ---- -- ------<br>------- --- ------ ----- --- ---- ------- -- ---- --- --<br>------- ------,132576.70000004768,132575.90000009537,132133.309,132145,132149.975,132583.291,,22,the
screen,html.Screen,0_2_1_1_23,2021-11-26T10:02:53.454Z,,,,,,,,,,,,,,,,54,,,,,,,,,,,,,,592.5090000715281,,response,,,100,,,,,,Space,keypress(Space),,,,,-- --- ---- --- ------ ----- ------- ---- -- --- ------- --<br>------- ---------- ------ -- ----- -- ----- -- ---- ------<br>--- state --- --- ------ -------- ----- --- ------ ----- --<br>----- ----- ---------- --- --- ------ ------ ---- -- ------<br>------- --- ------ ----- --- ---- ------- -- ---- --- --<br>------- ------,133176.70000004768,133175.80000007153,132566.625,132577,132583.291,133183.267,,23,state
screen,html.Screen,0_2_1_1_24,2021-11-26T10:02:54.446Z,,,,,,,,,,,,,,,,54,,,,,,,,,,,,,,984.533000071533,,response,,,100,,,,,,Space,keypress(Space),,,,,-- --- ---- --- ------ ----- ------- ---- -- --- ------- --<br>------- ---------- ------ -- ----- -- ----- -- ---- ------<br>--- ----- cut --- ------ -------- ----- --- ------ ----- --<br>----- ----- ---------- --- --- ------ ------ ---- -- ------<br>------- --- ------ ----- --- ---- ------- -- ---- --- --<br>------- ------,134168.60000002384,134167.80000007153,133166.601,133176.90000009537,133183.267,134183.227,,24,cut
screen,html.Screen,0_2_1_1_25,2021-11-26T10:02:54.934Z,,,,,,,,,,,,,,,,54,,,,,,,,,,,,,,472.4730000476702,,response,,,100,,,,,,Space,keypress(Space),,,,,-- --- ---- --- ------ ----- ------- ---- -- --- ------- --<br>------- ---------- ------ -- ----- -- ----- -- ---- ------<br>--- ----- --- the ------ -------- ----- --- ------ ----- --<br>----- ----- ---------- --- --- ------ ------ ---- -- ------<br>------- --- ------ ----- --- ---- ------- -- ---- --- --<br>------- ------,134656.60000002384,134655.70000004768,134166.561,134168.80000007153,134183.227,134666.541,,25,the
screen,html.Screen,0_2_1_1_26,2021-11-26T10:02:55.414Z,,,,,,,,,,,,,,,,54,,,,,,,,,,,,,,469.25900007152813,,response,,,100,,,,,,Space,keypress(Space),,,,,-- --- ---- --- ------ ----- ------- ---- -- --- ------- --<br>------- ---------- ------ -- ----- -- ----- -- ---- ------<br>--- ----- --- --- bonds' -------- ----- --- ------ ----- --<br>----- ----- ---------- --- --- ------ ------ ---- -- ------<br>------- --- ------ ----- --- ---- ------- -- ---- --- --<br>------- ------,135136.5,135135.80000007153,134649.875,134656.80000007153,134666.541,135149.855,,26,bonds'
screen,html.Screen,0_2_1_1_27,2021-11-26T10:02:56.894Z,,,,,,,,,,,,,,,,54,,,,,,,,,,,,,,1465.7450000238314,,response,,,100,,,,,,Space,keypress(Space),,,,,-- --- ---- --- ------ ----- ------- ---- -- --- ------- --<br>------- ---------- ------ -- ----- -- ----- -- ---- ------<br>--- ----- --- --- ------ interest ----- --- ------ ----- --<br>----- ----- ---------- --- --- ------ ------ ---- -- ------<br>------- --- ------ ----- --- ---- ------- -- ---- --- --<br>------- ------,136616.5,136615.60000002384,135133.189,135136.80000007153,135149.855,136633.129,,27,interest
screen,html.Screen,0_2_1_1_28,2021-11-26T10:02:57.365Z,,,,,,,,,,,,,,,,54,,,,,,,,,,,,,,454.37100000001374,,response,,,100,,,,,,Space,keypress(Space),,,,,-- --- ---- --- ------ ----- ------- ---- -- --- ------- --<br>------- ---------- ------ -- ----- -- ----- -- ---- ------<br>--- ----- --- --- ------ -------- rate. --- ------ ----- --<br>----- ----- ---------- --- --- ------ ------ ---- -- ------<br>------- --- ------ ----- --- ---- ------- -- ---- --- --<br>------- ------,137088.40000009537,137087.5,136616.463,136616.80000007153,136633.129,137099.777,,28,rate.
screen,html.Screen,0_2_1_1_29,2021-11-26T10:02:58.709Z,,,,,,,,,,,,,,,,54,,,,,,,,,,,,,,1331.82300002384,,response,,,100,,,,,,Space,keypress(Space),,,,,-- --- ---- --- ------ ----- ------- ---- -- --- ------- --<br>------- ---------- ------ -- ----- -- ----- -- ---- ------<br>--- ----- --- --- ------ -------- ----- The ------ ----- --<br>----- ----- ---------- --- --- ------ ------ ---- -- ------<br>------- --- ------ ----- --- ---- ------- -- ---- --- --<br>------- ------,138432.5,138431.60000002384,137083.111,137088.70000004768,137099.777,138449.723,,29,The
screen,html.Screen,0_2_1_1_30,2021-11-26T10:02:59.230Z,,,,,,,,,,,,,,,,54,,,,,,,,,,,,,,502.1770000953693,,response,,,100,,,,,,Space,keypress(Space),,,,,-- --- ---- --- ------ ----- ------- ---- -- --- ------- --<br>------- ---------- ------ -- ----- -- ----- -- ---- ------<br>--- ----- --- --- ------ -------- ----- --- market ----- --<br>----- ----- ---------- --- --- ------ ------ ---- -- ------<br>------- --- ------ ----- --- ---- ------- -- ---- --- --<br>------- ------,138952.70000004768,138951.90000009537,138433.057,138432.70000004768,138449.723,138966.369,,30,market
screen,html.Screen,0_2_1_1_31,2021-11-26T10:02:59.725Z,,,,,,,,,,,,,,,,54,,,,,,,,,,,,,,481.13099999999395,,response,,,100,,,,,,Space,keypress(Space),,,,,-- --- ---- --- ------ ----- ------- ---- -- --- ------- --<br>------- ---------- ------ -- ----- -- ----- -- ---- ------<br>--- ----- --- --- ------ -------- ----- --- ------ value --<br>----- ----- ---------- --- --- ------ ------ ---- -- ------<br>------- --- ------ ----- --- ---- ------- -- ---- --- --<br>------- ------,139448.30000007153,139447.5,138949.703,138953,138966.369,139449.683,,31,value
screen,html.Screen,0_2_1_1_32,2021-11-26T10:03:00.189Z,,,,,,,,,,,,,,,,54,,,,,,,,,,,,,,461.81700000001,,response,,,100,,,,,,Space,keypress(Space),,,,,-- --- ---- --- ------ ----- ------- ---- -- --- ------- --<br>------- ---------- ------ -- ----- -- ----- -- ---- ------<br>--- ----- --- --- ------ -------- ----- --- ------ ----- of<br>----- ----- ---------- --- --- ------ ------ ---- -- ------<br>------- --- ------ ----- --- ---- ------- -- ---- --- --<br>------- ------,139912.30000007153,139911.5,139433.017,139448.5,139449.683,139916.331,,32,of
screen,html.Screen,0_2_1_1_33,2021-11-26T10:03:01.045Z,,,,,,,,,,,,,,,,54,,,,,,,,,,,,,,851.0690000953618,,response,,,100,,,,,,Space,keypress(Space),,,,,-- --- ---- --- ------ ----- ------- ---- -- --- ------- --<br>------- ---------- ------ -- ----- -- ----- -- ---- ------<br>--- ----- --- --- ------ -------- ----- --- ------ ----- --<br>these ----- ---------- --- --- ------ ------ ---- -- ------<br>------- --- ------ ----- --- ---- ------- -- ---- --- --<br>------- ------,140768.20000004768,140767.40000009537,139899.665,139912.60000002384,139916.331,140782.963,,33,these
screen,html.Screen,0_2_1_1_34,2021-11-26T10:03:01.925Z,,,,,,,,,,,,,,,,54,,,,,,,,,,,,,,864.3370000715367,,response,,,100,,,,,,Space,keypress(Space),,,,,-- --- ---- --- ------ ----- ------- ---- -- --- ------- --<br>------- ---------- ------ -- ----- -- ----- -- ---- ------<br>--- ----- --- --- ------ -------- ----- --- ------ ----- --<br>----- bonds ---------- --- --- ------ ------ ---- -- ------<br>------- --- ------ ----- --- ---- ------- -- ---- --- --<br>------- ------,141648.30000007153,141647.30000007153,140766.297,140768.5,140782.963,141649.595,,34,bonds
screen,html.Screen,0_2_1_1_35,2021-11-26T10:03:02.669Z,,,,,,,,,,,,,,,,54,,,,,,,,,,,,,,741.7050000715244,,response,,,100,,,,,,Space,keypress(Space),,,,,"-- --- ---- --- ------ ----- ------- ---- -- --- ------- --<br>------- ---------- ------ -- ----- -- ----- -- ---- ------<br>--- ----- --- --- ------ -------- ----- --- ------ ----- --<br>----- ----- plummeted, --- --- ------ ------ ---- -- ------<br>------- --- ------ ----- --- ---- ------- -- ---- --- --<br>------- ------",142392.10000002384,142391.30000007153,141632.929,141648.60000002384,141649.595,142399.565,,35,"plummeted,"
screen,html.Screen,0_2_1_1_36,2021-11-26T10:03:03.141Z,,,,,,,,,,,,,,,,54,,,,,,,,,,,,,,463.73500007152325,,response,,,100,,,,,,Space,keypress(Space),,,,,-- --- ---- --- ------ ----- ------- ---- -- --- ------- --<br>------- ---------- ------ -- ----- -- ----- -- ---- ------<br>--- ----- --- --- ------ -------- ----- --- ------ ----- --<br>----- ----- ---------- and --- ------ ------ ---- -- ------<br>------- --- ------ ----- --- ---- ------- -- ---- --- --<br>------- ------,142864.10000002384,142863.30000007153,142382.899,142392.30000007153,142399.565,142866.213,,36,and
screen,html.Screen,0_2_1_1_37,2021-11-26T10:03:03.717Z,,,,,,,,,,,,,,,,54,,,,,,,,,,,,,,572.9870000476949,,response,,,100,,,,,,Space,keypress(Space),,,,,-- --- ---- --- ------ ----- ------- ---- -- --- ------- --<br>------- ---------- ------ -- ----- -- ----- -- ---- ------<br>--- ----- --- --- ------ -------- ----- --- ------ ----- --<br>----- ----- ---------- --- the ------ ------ ---- -- ------<br>------- --- ------ ----- --- ---- ------- -- ---- --- --<br>------- ------,143440,143439.20000004768,142849.547,142864.40000009537,142866.213,143449.523,,37,the
screen,html.Screen,0_2_1_1_38,2021-11-26T10:03:04.237Z,,,,,,,,,,,,,,,,54,,,,,,,,,,,,,,509.6770000476972,,response,,,100,,,,,,Space,keypress(Space),,,,,-- --- ---- --- ------ ----- ------- ---- -- --- ------- --<br>------- ---------- ------ -- ----- -- ----- -- ---- ------<br>--- ----- --- --- ------ -------- ----- --- ------ ----- --<br>----- ----- ---------- --- --- market ------ ---- -- ------<br>------- --- ------ ----- --- ---- ------- -- ---- --- --<br>------- ------,143960,143959.20000004768,143432.857,143440.30000007153,143449.523,143966.169,,38,market
screen,html.Screen,0_2_1_1_39,2021-11-26T10:03:05.285Z,,,,,,,,,,,,,,,,54,,,,,,,,,,,,,,1041.0310000476893,,response,,,100,,,,,,Space,keypress(Space),,,,,-- --- ---- --- ------ ----- ------- ---- -- --- ------- --<br>------- ---------- ------ -- ----- -- ----- -- ---- ------<br>--- ----- --- --- ------ -------- ----- --- ------ ----- --<br>----- ----- ---------- --- --- ------ became ---- -- ------<br>------- --- ------ ----- --- ---- ------- -- ---- --- --<br>------- ------,145008.10000002384,145007.20000004768,143949.503,143960.30000007153,143966.169,145016.127,,39,became
screen,html.Screen,0_2_1_1_40,2021-11-26T10:03:07.109Z,,,,,,,,,,,,,,,,54,,,,,,,,,,,,,,1814.8729999999923,,response,,,100,,,,,,Space,keypress(Space),,,,,-- --- ---- --- ------ ----- ------- ---- -- --- ------- --<br>------- ---------- ------ -- ----- -- ----- -- ---- ------<br>--- ----- --- --- ------ -------- ----- --- ------ ----- --<br>----- ----- ---------- --- --- ------ ------ wary -- ------<br>------- --- ------ ----- --- ---- ------- -- ---- --- --<br>------- ------,146831.90000009537,146831,144999.461,145008.40000009537,145016.127,146849.387,,40,wary
screen,html.Screen,0_2_1_1_41,2021-11-26T10:03:07.621Z,,,,,,,,,,,,,,,,54,,,,,,,,,,,,,,493.6130000000121,,response,,,100,,,,,,Space,keypress(Space),,,,,-- --- ---- --- ------ ----- ------- ---- -- --- ------- --<br>------- ---------- ------ -- ----- -- ----- -- ---- ------<br>--- ----- --- --- ------ -------- ----- --- ------ ----- --<br>----- ----- ---------- --- --- ------ ------ ---- of ------<br>------- --- ------ ----- --- ---- ------- -- ---- --- --<br>------- ------,147343.80000007153,147343,146832.721,146832.10000002384,146849.387,147349.367,,41,of
screen,html.Screen,0_2_1_1_42,2021-11-26T10:03:08.109Z,,,,,,,,,,,,,,,,54,,,,,,,,,,,,,,481.53300009536906,,response,,,100,,,,,,Space,keypress(Space),,,,,-- --- ---- --- ------ ----- ------- ---- -- --- ------- --<br>------- ---------- ------ -- ----- -- ----- -- ---- ------<br>--- ----- --- --- ------ -------- ----- --- ------ ----- --<br>----- ----- ---------- --- --- ------ ------ ---- -- French<br>------- --- ------ ----- --- ---- ------- -- ---- --- --<br>------- ------,147831.70000004768,147830.90000009537,147332.701,147344,147349.367,147849.347,,42,French
screen,html.Screen,0_2_1_1_43,2021-11-26T10:03:09.757Z,,,,,,,,,,,,,,,,54,,,,,,,,,,,,,,1629.8530000476749,,response,,,100,,,,,,Space,keypress(Space),,,,,-- --- ---- --- ------ ----- ------- ---- -- --- ------- --<br>------- ---------- ------ -- ----- -- ----- -- ---- ------<br>--- ----- --- --- ------ -------- ----- --- ------ ----- --<br>----- ----- ---------- --- --- ------ ------ ---- -- ------<br>credit. --- ------ ----- --- ---- ------- -- ---- --- --<br>------- ------,149480,149479.20000004768,147832.681,147832,147849.347,149482.615,,43,credit.
screen,html.Screen,0_2_1_1_44,2021-11-26T10:03:10.397Z,,,,,,,,,,,,,,,,54,,,,,,,,,,,,,,636.1850000715349,,response,,,100,,,,,,Space,keypress(Space),,,,,-- --- ---- --- ------ ----- ------- ---- -- --- ------- --<br>------- ---------- ------ -- ----- -- ----- -- ---- ------<br>--- ----- --- --- ------ -------- ----- --- ------ ----- --<br>----- ----- ---------- --- --- ------ ------ ---- -- ------<br>------- The ------ ----- --- ---- ------- -- ---- --- --<br>------- ------,150119.60000002384,150118.80000007153,149465.949,149480.20000004768,149482.615,150132.589,,44,The
screen,html.Screen,0_2_1_1_45,2021-11-26T10:03:11.245Z,,,,,,,,,,,,,,,,54,,,,,,,,,,,,,,834.1110000476765,,response,,,100,,,,,,Space,keypress(Space),,,,,-- --- ---- --- ------ ----- ------- ---- -- --- ------- --<br>------- ---------- ------ -- ----- -- ----- -- ---- ------<br>--- ----- --- --- ------ -------- ----- --- ------ ----- --<br>----- ----- ---------- --- --- ------ ------ ---- -- ------<br>------- --- French ----- --- ---- ------- -- ---- --- --<br>------- ------,150967.60000002384,150966.70000004768,150115.923,150119.80000007153,150132.589,150982.555,,45,French
screen,html.Screen,0_2_1_1_46,2021-11-26T10:03:11.997Z,,,,,,,,,,,,,,,,54,,,,,,,,,,,,,,736.1450000476907,,response,,,100,,,,,,Space,keypress(Space),,,,,-- --- ---- --- ------ ----- ------- ---- -- --- ------- --<br>------- ---------- ------ -- ----- -- ----- -- ---- ------<br>--- ----- --- --- ------ -------- ----- --- ------ ----- --<br>----- ----- ---------- --- --- ------ ------ ---- -- ------<br>------- --- ------ state --- ---- ------- -- ---- --- --<br>------- ------,151719.5,151718.70000004768,150965.889,150967.80000007153,150982.555,151732.525,,46,state
screen,html.Screen,0_2_1_1_47,2021-11-26T10:03:12.636Z,,,,,,,,,,,,,,,,54,,,,,,,,,,,,,,626.1750000476895,,response,,,100,,,,,,Space,keypress(Space),,,,,-- --- ---- --- ------ ----- ------- ---- -- --- ------- --<br>------- ---------- ------ -- ----- -- ----- -- ---- ------<br>--- ----- --- --- ------ -------- ----- --- ------ ----- --<br>----- ----- ---------- --- --- ------ ------ ---- -- ------<br>------- --- ------ ----- was ---- ------- -- ---- --- --<br>------- ------,152359.40000009537,152358.70000004768,151715.859,151719.70000004768,151732.525,152365.833,,47,was
screen,html.Screen,0_2_1_1_48,2021-11-26T10:03:13.316Z,,,,,,,,,,,,,,,,54,,,,,,,,,,,,,,672.7670000238286,,response,,,100,,,,,,Space,keypress(Space),,,,,-- --- ---- --- ------ ----- ------- ---- -- --- ------- --<br>------- ---------- ------ -- ----- -- ----- -- ---- ------<br>--- ----- --- --- ------ -------- ----- --- ------ ----- --<br>----- ----- ---------- --- --- ------ ------ ---- -- ------<br>------- --- ------ ----- --- left ------- -- ---- --- --<br>------- ------,153039.5,153038.60000002384,152349.167,152359.70000004768,152365.833,153049.139,,48,left
screen,html.Screen,0_2_1_1_49,2021-11-26T10:03:14.132Z,,,,,,,,,,,,,,,,54,,,,,,,,,,,,,,805.4610000238463,,response,,,100,,,,,,Space,keypress(Space),,,,,-- --- ---- --- ------ ----- ------- ---- -- --- ------- --<br>------- ---------- ------ -- ----- -- ----- -- ---- ------<br>--- ----- --- --- ------ -------- ----- --- ------ ----- --<br>----- ----- ---------- --- --- ------ ------ ---- -- ------<br>------- --- ------ ----- --- ---- without -- ---- --- --<br>------- ------,153855.40000009537,153854.60000002384,153032.473,153039.60000002384,153049.139,153865.773,,49,without
screen,html.Screen,0_2_1_1_50,2021-11-26T10:03:14.548Z,,,,,,,,,,,,,,,,54,,,,,,,,,,,,,,404.7270000000135,,response,,,100,,,,,,Space,keypress(Space),,,,,-- --- ---- --- ------ ----- ------- ---- -- --- ------- --<br>------- ---------- ------ -- ----- -- ----- -- ---- ------<br>--- ----- --- --- ------ -------- ----- --- ------ ----- --<br>----- ----- ---------- --- --- ------ ------ ---- -- ------<br>------- --- ------ ----- --- ---- ------- an ---- --- --<br>------- ------,154271.30000007153,154270.5,153849.107,153855.60000002384,153865.773,154282.423,,50,an
screen,html.Screen,0_2_1_1_51,2021-11-26T10:03:14.988Z,,,,,,,,,,,,,,,,54,,,,,,,,,,,,,,428.0769999999902,,response,,,100,,,,,,Space,keypress(Space),,,,,-- --- ---- --- ------ ----- ------- ---- -- --- ------- --<br>------- ---------- ------ -- ----- -- ----- -- ---- ------<br>--- ----- --- --- ------ -------- ----- --- ------ ----- --<br>----- ----- ---------- --- --- ------ ------ ---- -- ------<br>------- --- ------ ----- --- ---- ------- -- easy --- --<br>------- ------,154711.20000004768,154710.5,154265.757,154271.5,154282.423,154715.739,,51,easy
screen,html.Screen,0_2_1_1_52,2021-11-26T10:03:15.540Z,,,,,,,,,,,,,,,,54,,,,,,,,,,,,,,546.661000095366,,response,,,100,,,,,,Space,keypress(Space),,,,,-- --- ---- --- ------ ----- ------- ---- -- --- ------- --<br>------- ---------- ------ -- ----- -- ----- -- ---- ------<br>--- ----- --- --- ------ -------- ----- --- ------ ----- --<br>----- ----- ---------- --- --- ------ ------ ---- -- ------<br>------- --- ------ ----- --- ---- ------- -- ---- way --<br>------- ------,155263.20000004768,155262.40000009537,154699.073,154711.5,154715.739,155265.717,,52,way
screen,html.Screen,0_2_1_1_53,2021-11-26T10:03:16.068Z,,,,,,,,,,,,,,,,54,,,,,,,,,,,,,,524.6830000953632,,response,,,100,,,,,,Space,keypress(Space),,,,,-- --- ---- --- ------ ----- ------- ---- -- --- ------- --<br>------- ---------- ------ -- ----- -- ----- -- ---- ------<br>--- ----- --- --- ------ -------- ----- --- ------ ----- --<br>----- ----- ---------- --- --- ------ ------ ---- -- ------<br>------- --- ------ ----- --- ---- ------- -- ---- --- of<br>------- ------,155791.20000004768,155790.40000009537,155249.051,155263.5,155265.717,155799.029,,53,of
screen,html.Screen,0_2_1_1_54,2021-11-26T10:03:16.412Z,,,,,,,,,,,,,,,,54,,,,,,,,,,,,,,335.3710000953579,,response,,,100,,,,,,Space,keypress(Space),,,,,-- --- ---- --- ------ ----- ------- ---- -- --- ------- --<br>------- ---------- ------ -- ----- -- ----- -- ---- ------<br>--- ----- --- --- ------ -------- ----- --- ------ ----- --<br>----- ----- ---------- --- --- ------ ------ ---- -- ------<br>------- --- ------ ----- --- ---- ------- -- ---- --- --<br>raising ------,156135.20000004768,156134.40000009537,155782.363,155791.40000009537,155799.029,156149.015,,54,raising
screen,html.Screen,0_2_1_1_55,2021-11-26T10:03:17.164Z,,,,,,,,,,,,,,,,54,,,,,,,,,,,,,,737.2850000715116,,response,,,100,,,,,,Space,keypress(Space),,,,,-- --- ---- --- ------ ----- ------- ---- -- --- ------- --<br>------- ---------- ------ -- ----- -- ----- -- ---- ------<br>--- ----- --- --- ------ -------- ----- --- ------ ----- --<br>----- ----- ---------- --- --- ------ ------ ---- -- ------<br>------- --- ------ ----- --- ---- ------- -- ---- --- --<br>------- money.,156887.30000007153,156886.30000007153,156132.349,156135.5,156149.015,156898.985,,55,money.
Item 100,flow.Loop,0_2_1_1,2021-11-26T10:03:17.165Z,,,,,,,,,,,,,,,,,,,,,,,,,,,,,,39302.40900007152,,completion,,,,B,,,,,,,,,,silence,,156887.80000007153,156886.30000007153,117567.225,117569.30000007153,117583.891,156898.985,,,
Question 1,html.Screen,0_2_1_2,2021-11-26T10:03:20.416Z,,,,,,,,,,,,,,,,,,,,,,,,,,,true,TRUE,,3239.115000023856,,response,,,100,B,,,,,TRUE,click #choice-1,,,,silence,,160139.40000009537,160138.10000002384,156882.319,156887.90000009537,156898.985,160148.855,,,
Question 2,html.Screen,0_2_1_3,2021-11-26T10:03:22.568Z,,,,,,,,,,,,,,,,,,,,,,,,,,,false,FALSE,,2141.1449999999895,,response,,,100,B,,,,,TRUE,click #choice-1,,,,silence,,162291,162290,160132.189,160139.60000002384,160148.855,162298.769,,,
Item 100,flow.Sequence,0_2_1,2021-11-26T10:03:22.568Z,,,,,,,,,,,,,,,,,,,,,,,,,,,,,,54705.709,,completion,,,,,,,,,,,,,,,,162291.5,162290,107567.625,107583.30000007153,107584.291,162298.769,,,
End of Practice,html.Page,0_2_2,2021-11-26T10:03:27.649Z,,,,,,,,,,,,,,,,,,,,,,,,,,,,,,5072.531000071525,,form submission,,,,,,,,,,,,,,,,167372.10000002384,167371.30000007153,162282.103,162291.70000004768,162298.769,167381.899,,,
Practice,flow.Sequence,0_2,2021-11-26T10:03:27.650Z,,,,,,,,,,,,,,,,,,,,,,,,,,,,,,121267.88300007152,,completion,,,,,,,,,,,,,,,,167372.60000002384,167371.30000007153,46086.751,46099.60000002384,46103.417,167381.899,,,
Trap_instruction,html.Page,0_3_0,2021-11-26T10:03:32.185Z,,,,,,,,,,,,,,,,,,,,,,,,,,,,,,4525.600999999995,,form submission,,,,,,,,,,,,,,,,171908.10000002384,171907.5,167365.233,167372.90000009537,167381.899,171931.717,,,
trap_trial,html.Screen,0_3_1,2021-11-26T10:03:35.335Z,,,,,,,,,,,,,,,,,,,,,,,,,,,true,1,,3125.3830000238377,,response,,,,,,,,,1,click #choice-1,,,,,,175058.40000009537,175057.10000002384,171898.385,171908.40000009537,171931.717,175064.925,,,
end of trap trial,html.Page,0_3_2,2021-11-26T10:03:41.788Z,,,,,,,,,,,,,,,,,,,,,,,,,,,,,,6441.575000000012,,form submission,,,,,,,,,,,,,,,,181507,181506.5,175048.259,175058.70000004768,175064.925,181531.333,,,
Trap 1,flow.Sequence,0_3,2021-11-26T10:03:41.788Z,,,,,,,,,,,,,,,,,,,,,,,,,,,,,,14124.600999999995,,completion,,,,,,,,,,,,,,,,181507.5,181506.5,167365.233,167372.80000007153,167381.899,181531.333,,,
Standby,html.Page,0_4_0,2021-11-26T10:03:49.797Z,,,,,,,,,,,,,,,,,,,,,,,,,,,,,,7999.679999999993,,timeout,,,,,,,,,,,,,,,,189516.20000004768,189514.347,181514.667,181508,181531.333,189531.013,,,
Holding screen,html.Screen,0_4_1_0_0,2021-11-26T10:03:56.797Z,,,,,,,,,,,,,,,,,,,,,,,,,,,,,,6999.720000000001,,timeout,,,,,,,,,,,,,,,,196515.80000007153,196514.067,189514.347,189516.60000002384,189531.013,196530.733,,,
screen,html.Screen,0_4_1_0_1_0,2021-11-26T10:03:58.782Z,,,,,,,,,,,,,,,,51,,,,,,,,,,,,,,1969.3670000238344,,response,,,13,B,,,,,Space,keypress(Space),,,,lyrical,American -------- --- --- ---- --- --- ------ -- --------<br>---- --------- --- ------- ------------ ---------- ---------<br>--- ---------- ------- ---------- ------- -- -------- ----<br>---- --- ------ ----- ------ -- ---- --- ----- -- - -------<br>-------- -- --- --- -- ----- ----------- ----- -----------<br>---- --- ---------- --- ---- --- -- ----------,198501.20000004768,198500.10000002384,196514.067,196516.20000004768,196530.733,198513.987,,0,American
screen,html.Screen,0_4_1_0_1_1,2021-11-26T10:03:59.557Z,,,,,,,,,,,,,,,,51,,,,,,,,,,,,,,761.71300004769,,response,,,13,B,,,,,Space,keypress(Space),,,,lyrical,-------- industry --- --- ---- --- --- ------ -- --------<br>---- --------- --- ------- ------------ ---------- ---------<br>--- ---------- ------- ---------- ------- -- -------- ----<br>---- --- ------ ----- ------ -- ---- --- ----- -- - -------<br>-------- -- --- --- -- ----- ----------- ----- -----------<br>---- --- ---------- --- ---- --- -- ----------,199276.5,199275.70000004768,198497.321,198501.60000002384,198513.987,199280.623,,1,industry
screen,html.Screen,0_4_1_0_1_2,2021-11-26T10:04:01.173Z,,,,,,,,,,,,,,,,51,,,,,,,,,,,,,,1610.8770000000077,,response,,,13,B,,,,,Space,keypress(Space),,,,lyrical,-------- -------- may --- ---- --- --- ------ -- --------<br>---- --------- --- ------- ------------ ---------- ---------<br>--- ---------- ------- ---------- ------- -- -------- ----<br>---- --- ------ ----- ------ -- ---- --- ----- -- - -------<br>-------- -- --- --- -- ----- ----------- ----- -----------<br>---- --- ---------- --- ---- --- -- ----------,200892.40000009537,200891.5,199263.957,199276.90000009537,199280.623,200897.225,,2,may
screen,html.Screen,0_4_1_0_1_3,2021-11-26T10:04:01.861Z,,,,,,,,,,,,,,,,51,,,,,,,,,,,,,,682.2749999999942,,response,,,13,B,,,,,Space,keypress(Space),,,,lyrical,-------- -------- --- not ---- --- --- ------ -- --------<br>---- --------- --- ------- ------------ ---------- ---------<br>--- ---------- ------- ---------- ------- -- -------- ----<br>---- --- ------ ----- ------ -- ---- --- ----- -- - -------<br>-------- -- --- --- -- ----- ----------- ----- -----------<br>---- --- ---------- --- ---- --- -- ----------,201580.5,201579.5,200880.559,200892.80000007153,200897.225,201597.197,,3,not
screen,html.Screen,0_4_1_0_1_4,2021-11-26T10:04:02.965Z,,,,,,,,,,,,,,,,51,,,,,,,,,,,,,,1086.2030000953819,,response,,,13,B,,,,,Space,keypress(Space),,,,lyrical,-------- -------- --- --- know --- --- ------ -- --------<br>---- --------- --- ------- ------------ ---------- ---------<br>--- ---------- ------- ---------- ------- -- -------- ----<br>---- --- ------ ----- ------ -- ---- --- ----- -- - -------<br>-------- -- --- --- -- ----- ----------- ----- -----------<br>---- --- ---------- --- ---- --- -- ----------,202684.30000007153,202683.40000009537,201580.531,201580.70000004768,201597.197,202697.153,,4,know
screen,html.Screen,0_4_1_0_1_5,2021-11-26T10:04:04.365Z,,,,,,,,,,,,,,,,51,,,,,,,,,,,,,,1386.2470000953763,,response,,,13,B,,,,,Space,keypress(Space),,,,lyrical,"-------- -------- --- --- ---- it, --- ------ -- --------<br>---- --------- --- ------- ------------ ---------- ---------<br>--- ---------- ------- ---------- ------- -- -------- ----<br>---- --- ------ ----- ------ -- ---- --- ----- -- - -------<br>-------- -- --- --- -- ----- ----------- ----- -----------<br>---- --- ---------- --- ---- --- -- ----------",204084.10000002384,204083.40000009537,202680.487,202684.60000002384,202697.153,204097.097,,5,"it,"
screen,html.Screen,0_4_1_0_1_6,2021-11-26T10:04:04.821Z,,,,,,,,,,,,,,,,51,,,,,,,,,,,,,,442.3030000953586,,response,,,13,B,,,,,Space,keypress(Space),,,,lyrical,-------- -------- --- --- ---- --- but ------ -- --------<br>---- --------- --- ------- ------------ ---------- ---------<br>--- ---------- ------- ---------- ------- -- -------- ----<br>---- --- ------ ----- ------ -- ---- --- ----- -- - -------<br>-------- -- --- --- -- ----- ----------- ----- -----------<br>---- --- ---------- --- ---- --- -- ----------,204540.20000004768,204539.40000009537,204080.431,204084.40000009537,204097.097,204547.079,,6,but
screen,html.Screen,0_4_1_0_1_7,2021-11-26T10:04:05.205Z,,,,,,,,,,,,,,,,51,,,,,,,,,,,,,,376.22100007152767,,response,,,13,B,,,,,Space,keypress(Space),,,,lyrical,-------- -------- --- --- ---- --- --- debate -- --------<br>---- --------- --- ------- ------------ ---------- ---------<br>--- ---------- ------- ---------- ------- -- -------- ----<br>---- --- ------ ----- ------ -- ---- --- ----- -- - -------<br>-------- -- --- --- -- ----- ----------- ----- -----------<br>---- --- ---------- --- ---- --- -- ----------,204924.10000002384,204923.30000007153,204530.413,204540.30000007153,204547.079,204930.397,,7,debate
screen,html.Screen,0_4_1_0_1_8,2021-11-26T10:04:05.949Z,,,,,,,,,,,,,,,,51,,,,,,,,,,,,,,736.8030000476865,,response,,,13,B,,,,,Space,keypress(Space),,,,lyrical,-------- -------- --- --- ---- --- --- ------ in --------<br>---- --------- --- ------- ------------ ---------- ---------<br>--- ---------- ------- ---------- ------- -- -------- ----<br>---- --- ------ ----- ------ -- ---- --- ----- -- - -------<br>-------- -- --- --- -- ----- ----------- ----- -----------<br>---- --- ---------- --- ---- --- -- ----------,205668,205667.20000004768,204913.731,204924.30000007153,204930.397,205680.367,,8,in
screen,html.Screen,0_4_1_0_1_9,2021-11-26T10:04:06.885Z,,,,,,,,,,,,,,,,51,,,,,,,,,,,,,,922.9330000715272,,response,,,13,B,,,,,Space,keypress(Space),,,,lyrical,-------- -------- --- --- ---- --- --- ------ -- Congress<br>---- --------- --- ------- ------------ ---------- ---------<br>--- ---------- ------- ---------- ------- -- -------- ----<br>---- --- ------ ----- ------ -- ---- --- ----- -- - -------<br>-------- -- --- --- -- ----- ----------- ----- -----------<br>---- --- ---------- --- ---- --- -- ----------,206604,206603.30000007153,205663.701,205668.30000007153,205680.367,206613.663,,9,Congress
screen,html.Screen,0_4_1_0_1_10,2021-11-26T10:04:07.661Z,,,,,,,,,,,,,,,,51,,,,,,,,,,,,,,765.5370000476833,,response,,,13,B,,,,,Space,keypress(Space),,,,lyrical,-------- -------- --- --- ---- --- --- ------ -- --------<br>over --------- --- ------- ------------ ---------- ---------<br>--- ---------- ------- ---------- ------- -- -------- ----<br>---- --- ------ ----- ------ -- ---- --- ----- -- - -------<br>-------- -- --- --- -- ----- ----------- ----- -----------<br>---- --- ---------- --- ---- --- -- ----------,207379.90000009537,207379.20000004768,206596.997,206604.30000007153,206613.663,207396.965,,10,over
screen,html.Screen,0_4_1_0_1_11,2021-11-26T10:04:08.621Z,,,,,,,,,,,,,,,,51,,,,,,,,,,,,,,942.1350000238454,,response,,,13,B,,,,,Space,keypress(Space),,,,lyrical,-------- -------- --- --- ---- --- --- ------ -- --------<br>---- reforming --- ------- ------------ ---------- ---------<br>--- ---------- ------- ---------- ------- -- -------- ----<br>---- --- ------ ----- ------ -- ---- --- ----- -- - -------<br>-------- -- --- --- -- ----- ----------- ----- -----------<br>---- --- ---------- --- ---- --- -- ----------,208339.90000009537,208339.10000002384,207380.299,207380.20000004768,207396.965,208346.927,,11,reforming
screen,html.Screen,0_4_1_0_1_12,2021-11-26T10:04:09.221Z,,,,,,,,,,,,,,,,51,,,,,,,,,,,,,,592.4730000953714,,response,,,13,B,,,,,Space,keypress(Space),,,,lyrical,-------- -------- --- --- ---- --- --- ------ -- --------<br>---- --------- the ------- ------------ ---------- ---------<br>--- ---------- ------- ---------- ------- -- -------- ----<br>---- --- ------ ----- ------ -- ---- --- ----- -- - -------<br>-------- -- --- --- -- ----- ----------- ----- -----------<br>---- --- ---------- --- ---- --- -- ----------,208940.20000004768,208939.40000009537,208330.261,208340.10000002384,208346.927,208946.903,,12,the
screen,html.Screen,0_4_1_0_1_13,2021-11-26T10:04:10.028Z,,,,,,,,,,,,,,,,51,,,,,,,,,,,,,,800.1970000238507,,response,,,13,B,,,,,Space,keypress(Space),,,,lyrical,-------- -------- --- --- ---- --- --- ------ -- --------<br>---- --------- --- federal ------------ ---------- ---------<br>--- ---------- ------- ---------- ------- -- -------- ----<br>---- --- ------ ----- ------ -- ---- --- ----- -- - -------<br>-------- -- --- --- -- ----- ----------- ----- -----------<br>---- --- ---------- --- ---- --- -- ----------,209747.80000007153,209747.10000002384,208930.237,208940.40000009537,208946.903,209763.537,,13,federal
screen,html.Screen,0_4_1_0_1_14,2021-11-26T10:04:10.869Z,,,,,,,,,,,,,,,,51,,,,,,,,,,,,,,823.4629999999888,,response,,,13,B,,,,,Space,keypress(Space),,,,lyrical,-------- -------- --- --- ---- --- --- ------ -- --------<br>---- --------- --- ------- government's ---------- ---------<br>--- ---------- ------- ---------- ------- -- -------- ----<br>---- --- ------ ----- ------ -- ---- --- ----- -- - -------<br>-------- -- --- --- -- ----- ----------- ----- -----------<br>---- --- ---------- --- ---- --- -- ----------,210587.80000007153,210587,209746.871,209748,209763.537,210596.837,,14,government's
screen,html.Screen,0_4_1_0_1_15,2021-11-26T10:04:11.564Z,,,,,,,,,,,,,,,,51,,,,,,,,,,,,,,686.0630000953679,,response,,,13,B,,,,,Space,keypress(Space),,,,lyrical,-------- -------- --- --- ---- --- --- ------ -- --------<br>---- --------- --- ------- ------------ regulatory ---------<br>--- ---------- ------- ---------- ------- -- -------- ----<br>---- --- ------ ----- ------ -- ---- --- ----- -- - -------<br>-------- -- --- --- -- ----- ----------- ----- -----------<br>---- --- ---------- --- ---- --- -- ----------,211283.70000004768,211282.90000009537,210580.171,210588.10000002384,210596.837,211296.809,,15,regulatory
screen,html.Screen,0_4_1_0_1_16,2021-11-26T10:04:12.460Z,,,,,,,,,,,,,,,,51,,,,,,,,,,,,,,881.9910000715172,,response,,,13,B,,,,,Space,keypress(Space),,,,lyrical,-------- -------- --- --- ---- --- --- ------ -- --------<br>---- --------- --- ------- ------------ ---------- apparatus<br>--- ---------- ------- ---------- ------- -- -------- ----<br>---- --- ------ ----- ------ -- ---- --- ----- -- - -------<br>-------- -- --- --- -- ----- ----------- ----- -----------<br>---- --- ---------- --- ---- --- -- ----------,212179.70000004768,212178.80000007153,211280.143,211283.90000009537,211296.809,212196.773,,16,apparatus
screen,html.Screen,0_4_1_0_1_17,2021-11-26T10:04:13.156Z,,,,,,,,,,,,,,,,51,,,,,,,,,,,,,,678.0270000715391,,response,,,13,B,,,,,Space,keypress(Space),,,,lyrical,-------- -------- --- --- ---- --- --- ------ -- --------<br>---- --------- --- ------- ------------ ---------- ---------<br>may ---------- ------- ---------- ------- -- -------- ----<br>---- --- ------ ----- ------ -- ---- --- ----- -- - -------<br>-------- -- --- --- -- ----- ----------- ----- -----------<br>---- --- ---------- --- ---- --- -- ----------,212875.60000002384,212874.80000007153,212180.107,212179.90000009537,212196.773,212880.079,,17,may
screen,html.Screen,0_4_1_0_1_18,2021-11-26T10:04:14.164Z,,,,,,,,,,,,,,,,51,,,,,,,,,,,,,,1002.6210000476858,,response,,,13,B,,,,,Space,keypress(Space),,,,lyrical,-------- -------- --- --- ---- --- --- ------ -- --------<br>---- --------- --- ------- ------------ ---------- ---------<br>--- profoundly ------- ---------- ------- -- -------- ----<br>---- --- ------ ----- ------ -- ---- --- ----- -- - -------<br>-------- -- --- --- -- ----- ----------- ----- -----------<br>---- --- ---------- --- ---- --- -- ----------,213883.5,213882.70000004768,212863.413,212875.90000009537,212880.079,213896.705,,18,profoundly
screen,html.Screen,0_4_1_0_1_19,2021-11-26T10:04:14.884Z,,,,,,,,,,,,,,,,51,,,,,,,,,,,,,,705.9950000476965,,response,,,13,B,,,,,Space,keypress(Space),,,,lyrical,-------- -------- --- --- ---- --- --- ------ -- --------<br>---- --------- --- ------- ------------ ---------- ---------<br>--- ---------- improve ---------- ------- -- -------- ----<br>---- --- ------ ----- ------ -- ---- --- ----- -- - -------<br>-------- -- --- --- -- ----- ----------- ----- -----------<br>---- --- ---------- --- ---- --- -- ----------,214603.5,214602.70000004768,213880.039,213883.80000007153,213896.705,214613.343,,19,improve
screen,html.Screen,0_4_1_0_1_20,2021-11-26T10:04:15.548Z,,,,,,,,,,,,,,,,51,,,,,,,,,,,,,,653.2570000238484,,response,,,13,B,,,,,Space,keypress(Space),,,,lyrical,-------- -------- --- --- ---- --- --- ------ -- --------<br>---- --------- --- ------- ------------ ---------- ---------<br>--- ---------- ------- companies' ------- -- -------- ----<br>---- --- ------ ----- ------ -- ---- --- ----- -- - -------<br>-------- -- --- --- -- ----- ----------- ----- -----------<br>---- --- ---------- --- ---- --- -- ----------,215267.30000007153,215266.60000002384,214596.677,214603.70000004768,214613.343,215279.983,,20,companies'
screen,html.Screen,0_4_1_0_1_21,2021-11-26T10:04:16.124Z,,,,,,,,,,,,,,,,51,,,,,,,,,,,,,,562.6170000238344,,response,,,13,B,,,,,Space,keypress(Space),,,,lyrical,-------- -------- --- --- ---- --- --- ------ -- --------<br>---- --------- --- ------- ------------ ---------- ---------<br>--- ---------- ------- ---------- ability -- -------- ----<br>---- --- ------ ----- ------ -- ---- --- ----- -- - -------<br>-------- -- --- --- -- ----- ----------- ----- -----------<br>---- --- ---------- --- ---- --- -- ----------,215843.40000009537,215842.60000002384,215263.317,215267.60000002384,215279.983,215846.627,,21,ability
screen,html.Screen,0_4_1_0_1_22,2021-11-26T10:04:16.836Z,,,,,,,,,,,,,,,,51,,,,,,,,,,,,,,707.9730000238342,,response,,,13,B,,,,,Space,keypress(Space),,,,lyrical,-------- -------- --- --- ---- --- --- ------ -- --------<br>---- --------- --- ------- ------------ ---------- ---------<br>--- ---------- ------- ---------- ------- to -------- ----<br>---- --- ------ ----- ------ -- ---- --- ----- -- - -------<br>-------- -- --- --- -- ----- ----------- ----- -----------<br>---- --- ---------- --- ---- --- -- ----------,216555.5,216554.60000002384,215829.961,215843.60000002384,215846.627,216563.265,,22,to
screen,html.Screen,0_4_1_0_1_23,2021-11-26T10:04:17.980Z,,,,,,,,,,,,,,,,51,,,,,,,,,,,,,,1135.234999999986,,response,,,13,B,,,,,Space,keypress(Space),,,,lyrical,-------- -------- --- --- ---- --- --- ------ -- --------<br>---- --------- --- ------- ------------ ---------- ---------<br>--- ---------- ------- ---------- ------- -- survive. ----<br>---- --- ------ ----- ------ -- ---- --- ----- -- - -------<br>-------- -- --- --- -- ----- ----------- ----- -----------<br>---- --- ---------- --- ---- --- -- ----------,217699.30000007153,217698.5,216546.599,216555.80000007153,216563.265,217713.219,,23,survive.
screen,html.Screen,0_4_1_0_1_24,2021-11-26T10:04:18.604Z,,,,,,,,,,,,,,,,51,,,,,,,,,,,,,,609.2809999999881,,response,,,13,B,,,,,Space,keypress(Space),,,,lyrical,-------- -------- --- --- ---- --- --- ------ -- --------<br>---- --------- --- ------- ------------ ---------- ---------<br>--- ---------- ------- ---------- ------- -- -------- This<br>---- --- ------ ----- ------ -- ---- --- ----- -- - -------<br>-------- -- --- --- -- ----- ----------- ----- -----------<br>---- --- ---------- --- ---- --- -- ----------,218323.30000007153,218322.5,217696.553,217699.60000002384,217713.219,218329.861,,24,This
screen,html.Screen,0_4_1_0_1_25,2021-11-26T10:04:19.444Z,,,,,,,,,,,,,,,,51,,,,,,,,,,,,,,832.9390000715211,,response,,,13,B,,,,,Space,keypress(Space),,,,lyrical,-------- -------- --- --- ---- --- --- ------ -- --------<br>---- --------- --- ------- ------------ ---------- ---------<br>--- ---------- ------- ---------- ------- -- -------- ----<br>week --- ------ ----- ------ -- ---- --- ----- -- - -------<br>-------- -- --- --- -- ----- ----------- ----- -----------<br>---- --- ---------- --- ---- --- -- ----------,219163.5,219162.80000007153,218313.195,218323.5,218329.861,219179.827,,25,week
screen,html.Screen,0_4_1_0_1_26,2021-11-26T10:04:20.228Z,,,,,,,,,,,,,,,,51,,,,,,,,,,,,,,766.4730000715354,,response,,,13,B,,,,,Space,keypress(Space),,,,lyrical,-------- -------- --- --- ---- --- --- ------ -- --------<br>---- --------- --- ------- ------------ ---------- ---------<br>--- ---------- ------- ---------- ------- -- -------- ----<br>---- the ------ ----- ------ -- ---- --- ----- -- - -------<br>-------- -- --- --- -- ----- ----------- ----- -----------<br>---- --- ---------- --- ---- --- -- ----------,219947.20000004768,219946.30000007153,219163.161,219163.80000007153,219179.827,219963.129,,26,the
screen,html.Screen,0_4_1_0_1_27,2021-11-26T10:04:21.020Z,,,,,,,,,,,,,,,,51,,,,,,,,,,,,,,775.2710000953812,,response,,,13,B,,,,,Space,keypress(Space),,,,lyrical,-------- -------- --- --- ---- --- --- ------ -- --------<br>---- --------- --- ------- ------------ ---------- ---------<br>--- ---------- ------- ---------- ------- -- -------- ----<br>---- --- Senate ----- ------ -- ---- --- ----- -- - -------<br>-------- -- --- --- -- ----- ----------- ----- -----------<br>---- --- ---------- --- ---- --- -- ----------,220739.10000002384,220738.40000009537,219946.463,219947.40000009537,219963.129,220746.431,,27,Senate
screen,html.Screen,0_4_1_0_1_28,2021-11-26T10:04:21.916Z,,,,,,,,,,,,,,,,51,,,,,,,,,,,,,,887.7690000476723,,response,,,13,B,,,,,Space,keypress(Space),,,,lyrical,-------- -------- --- --- ---- --- --- ------ -- --------<br>---- --------- --- ------- ------------ ---------- ---------<br>--- ---------- ------- ---------- ------- -- -------- ----<br>---- --- ------ seems ------ -- ---- --- ----- -- - -------<br>-------- -- --- --- -- ----- ----------- ----- -----------<br>---- --- ---------- --- ---- --- -- ----------,221635.10000002384,221634.20000004768,220729.765,220739.40000009537,220746.431,221646.395,,28,seems
screen,html.Screen,0_4_1_0_1_29,2021-11-26T10:04:22.660Z,,,,,,,,,,,,,,,,51,,,,,,,,,,,,,,731.8050000476942,,response,,,13,B,,,,,Space,keypress(Space),,,,lyrical,-------- -------- --- --- ---- --- --- ------ -- --------<br>---- --------- --- ------- ------------ ---------- ---------<br>--- ---------- ------- ---------- ------- -- -------- ----<br>---- --- ------ ----- poised -- ---- --- ----- -- - -------<br>-------- -- --- --- -- ----- ----------- ----- -----------<br>---- --- ---------- --- ---- --- -- ----------,222379,222378.20000004768,221629.729,221635.30000007153,221646.395,222396.365,,29,poised
screen,html.Screen,0_4_1_0_1_30,2021-11-26T10:04:23.228Z,,,,,,,,,,,,,,,,51,,,,,,,,,,,,,,549.835000047693,,response,,,13,B,,,,,Space,keypress(Space),,,,lyrical,-------- -------- --- --- ---- --- --- ------ -- --------<br>---- --------- --- ------- ------------ ---------- ---------<br>--- ---------- ------- ---------- ------- -- -------- ----<br>---- --- ------ ----- ------ to ---- --- ----- -- - -------<br>-------- -- --- --- -- ----- ----------- ----- -----------<br>---- --- ---------- --- ---- --- -- ----------,222946.90000009537,222946.20000004768,222379.699,222379.20000004768,222396.365,222963.009,,30,to
screen,html.Screen,0_4_1_0_1_31,2021-11-26T10:04:23.700Z,,,,,,,,,,,,,,,,51,,,,,,,,,,,,,,455.1910000476928,,response,,,13,B,,,,,Space,keypress(Space),,,,lyrical,-------- -------- --- --- ---- --- --- ------ -- --------<br>---- --------- --- ------- ------------ ---------- ---------<br>--- ---------- ------- ---------- ------- -- -------- ----<br>---- --- ------ ----- ------ -- join --- ----- -- - -------<br>-------- -- --- --- -- ----- ----------- ----- -----------<br>---- --- ---------- --- ---- --- -- ----------,223418.90000009537,223418.20000004768,222946.343,222947.10000002384,222963.009,223429.657,,31,join
screen,html.Screen,0_4_1_0_1_32,2021-11-26T10:04:24.197Z,,,,,,,,,,,,,,,,51,,,,,,,,,,,,,,484.5430000476772,,response,,,13,B,,,,,Space,keypress(Space),,,,lyrical,-------- -------- --- --- ---- --- --- ------ -- --------<br>---- --------- --- ------- ------------ ---------- ---------<br>--- ---------- ------- ---------- ------- -- -------- ----<br>---- --- ------ ----- ------ -- ---- the ----- -- - -------<br>-------- -- --- --- -- ----- ----------- ----- -----------<br>---- --- ---------- --- ---- --- -- ----------,223915.90000009537,223914.20000004768,223412.991,223419.20000004768,223429.657,223929.637,,32,the
screen,html.Screen,0_4_1_0_1_33,2021-11-26T10:04:25.060Z,,,,,,,,,,,,,,,,51,,,,,,,,,,,,,,848.463000023854,,response,,,13,B,,,,,Space,keypress(Space),,,,lyrical,-------- -------- --- --- ---- --- --- ------ -- --------<br>---- --------- --- ------- ------------ ---------- ---------<br>--- ---------- ------- ---------- ------- -- -------- ----<br>---- --- ------ ----- ------ -- ---- --- House -- - -------<br>-------- -- --- --- -- ----- ----------- ----- -----------<br>---- --- ---------- --- ---- --- -- ----------,224778.80000007153,224778.10000002384,223912.971,223916.20000004768,223929.637,224796.269,,33,House
screen,html.Screen,0_4_1_0_1_34,2021-11-26T10:04:25.515Z,,,,,,,,,,,,,,,,51,,,,,,,,,,,,,,437.73099999999977,,response,,,13,B,,,,,Space,keypress(Space),,,,lyrical,-------- -------- --- --- ---- --- --- ------ -- --------<br>---- --------- --- ------- ------------ ---------- ---------<br>--- ---------- ------- ---------- ------- -- -------- ----<br>---- --- ------ ----- ------ -- ---- --- ----- in - -------<br>-------- -- --- --- -- ----- ----------- ----- -----------<br>---- --- ---------- --- ---- --- -- ----------,225234.80000007153,225234,224779.603,224779.10000002384,224796.269,225246.251,,34,in
screen,html.Screen,0_4_1_0_1_35,2021-11-26T10:04:26.051Z,,,,,,,,,,,,,,,,51,,,,,,,,,,,,,,523.7490000000107,,response,,,13,B,,,,,Space,keypress(Space),,,,lyrical,-------- -------- --- --- ---- --- --- ------ -- --------<br>---- --------- --- ------- ------------ ---------- ---------<br>--- ---------- ------- ---------- ------- -- -------- ----<br>---- --- ------ ----- ------ -- ---- --- ----- -- a -------<br>-------- -- --- --- -- ----- ----------- ----- -----------<br>---- --- ---------- --- ---- --- -- ----------,225770.70000004768,225770,225229.585,225235.10000002384,225246.251,225779.563,,35,a
screen,html.Screen,0_4_1_0_1_36,2021-11-26T10:04:26.707Z,,,,,,,,,,,,,,,,51,,,,,,,,,,,,,,646.3370000953728,,response,,,13,B,,,,,Space,keypress(Space),,,,lyrical,-------- -------- --- --- ---- --- --- ------ -- --------<br>---- --------- --- ------- ------------ ---------- ---------<br>--- ---------- ------- ---------- ------- -- -------- ----<br>---- --- ------ ----- ------ -- ---- --- ----- -- - massive<br>-------- -- --- --- -- ----- ----------- ----- -----------<br>---- --- ---------- --- ---- --- -- ----------,226426.70000004768,226425.90000009537,225762.897,225771,225779.563,226429.537,,36,massive
screen,html.Screen,0_4_1_0_1_37,2021-11-26T10:04:27.851Z,,,,,,,,,,,,,,,,51,,,,,,,,,,,,,,1140.3630000953563,,response,,,13,B,,,,,Space,keypress(Space),,,,lyrical,-------- -------- --- --- ---- --- --- ------ -- --------<br>---- --------- --- ------- ------------ ---------- ---------<br>--- ---------- ------- ---------- ------- -- -------- ----<br>---- --- ------ ----- ------ -- ---- --- ----- -- - -------<br>overhaul -- --- --- -- ----- ----------- ----- -----------<br>---- --- ---------- --- ---- --- -- ----------,227570.60000002384,227569.90000009537,226412.871,226426.90000009537,226429.537,227579.491,,37,overhaul
screen,html.Screen,0_4_1_0_1_38,2021-11-26T10:04:28.251Z,,,,,,,,,,,,,,,,51,,,,,,,,,,,,,,390.40900009535835,,response,,,13,B,,,,,Space,keypress(Space),,,,lyrical,-------- -------- --- --- ---- --- --- ------ -- --------<br>---- --------- --- ------- ------------ ---------- ---------<br>--- ---------- ------- ---------- ------- -- -------- ----<br>---- --- ------ ----- ------ -- ---- --- ----- -- - -------<br>-------- of --- --- -- ----- ----------- ----- -----------<br>---- --- ---------- --- ---- --- -- ----------,227970.70000004768,227969.90000009537,227562.825,227570.90000009537,227579.491,227979.475,,38,of
screen,html.Screen,0_4_1_0_1_39,2021-11-26T10:04:28.955Z,,,,,,,,,,,,,,,,51,,,,,,,,,,,,,,694.3250000715198,,response,,,13,B,,,,,Space,keypress(Space),,,,lyrical,-------- -------- --- --- ---- --- --- ------ -- --------<br>---- --------- --- ------- ------------ ---------- ---------<br>--- ---------- ------- ---------- ------- -- -------- ----<br>---- --- ------ ----- ------ -- ---- --- ----- -- - -------<br>-------- -- the --- -- ----- ----------- ----- -----------<br>---- --- ---------- --- ---- --- -- ----------,228674.60000002384,228673.80000007153,227962.809,227970.90000009537,227979.475,228679.447,,39,the
screen,html.Screen,0_4_1_0_1_40,2021-11-26T10:04:29.443Z,,,,,,,,,,,,,,,,51,,,,,,,,,,,,,,482.35300007154,,response,,,13,B,,,,,Space,keypress(Space),,,,lyrical,-------- -------- --- --- ---- --- --- ------ -- --------<br>---- --------- --- ------- ------------ ---------- ---------<br>--- ---------- ------- ---------- ------- -- -------- ----<br>---- --- ------ ----- ------ -- ---- --- ----- -- - -------<br>-------- -- --- way -- ----- ----------- ----- -----------<br>---- --- ---------- --- ---- --- -- ----------,229162.70000004768,229161.80000007153,228662.781,228674.90000009537,228679.447,229179.427,,40,way
screen,html.Screen,0_4_1_0_1_41,2021-11-26T10:04:30.164Z,,,,,,,,,,,,,,,,51,,,,,,,,,,,,,,702.6730000238458,,response,,,13,B,,,,,Space,keypress(Space),,,,lyrical,-------- -------- --- --- ---- --- --- ------ -- --------<br>---- --------- --- ------- ------------ ---------- ---------<br>--- ---------- ------- ---------- ------- -- -------- ----<br>---- --- ------ ----- ------ -- ---- --- ----- -- - -------<br>-------- -- --- --- in ----- ----------- ----- -----------<br>---- --- ---------- --- ---- --- -- ----------,229882.90000009537,229882.10000002384,229162.761,229162.90000009537,229179.427,229896.065,,41,in
screen,html.Screen,0_4_1_0_1_42,2021-11-26T10:04:30.835Z,,,,,,,,,,,,,,,,51,,,,,,,,,,,,,,657.7350000715232,,response,,,13,B,,,,,Space,keypress(Space),,,,lyrical,-------- -------- --- --- ---- --- --- ------ -- --------<br>---- --------- --- ------- ------------ ---------- ---------<br>--- ---------- ------- ---------- ------- -- -------- ----<br>---- --- ------ ----- ------ -- ---- --- ----- -- - -------<br>-------- -- --- --- -- which ----------- ----- -----------<br>---- --- ---------- --- ---- --- -- ----------,230554.5,230553.80000007153,229879.399,229883.10000002384,229896.065,230562.705,,42,which
screen,html.Screen,0_4_1_0_1_43,2021-11-26T10:04:31.747Z,,,,,,,,,,,,,,,,51,,,,,,,,,,,,,,902.8950000238547,,response,,,13,B,,,,,Space,keypress(Space),,,,lyrical,-------- -------- --- --- ---- --- --- ------ -- --------<br>---- --------- --- ------- ------------ ---------- ---------<br>--- ---------- ------- ---------- ------- -- -------- ----<br>---- --- ------ ----- ------ -- ---- --- ----- -- - -------<br>-------- -- --- --- -- ----- bureaucrats ----- -----------<br>---- --- ---------- --- ---- --- -- ----------,231466.60000002384,231465.60000002384,230546.039,230554.70000004768,230562.705,231479.335,,43,bureaucrats
screen,html.Screen,0_4_1_0_1_44,2021-11-26T10:04:32.691Z,,,,,,,,,,,,,,,,51,,,,,,,,,,,,,,930.26500002385,,response,,,13,B,,,,,Space,keypress(Space),,,,lyrical,-------- -------- --- --- ---- --- --- ------ -- --------<br>---- --------- --- ------- ------------ ---------- ---------<br>--- ---------- ------- ---------- ------- -- -------- ----<br>---- --- ------ ----- ------ -- ---- --- ----- -- - -------<br>-------- -- --- --- -- ----- ----------- enact -----------<br>---- --- ---------- --- ---- --- -- ----------,232410.40000009537,232409.60000002384,231462.669,231466.90000009537,231479.335,232412.631,,44,enact
screen,html.Screen,0_4_1_0_1_45,2021-11-26T10:04:33.723Z,,,,,,,,,,,,,,,,51,,,,,,,,,,,,,,1028.869000000006,,response,,,13,B,,,,,Space,keypress(Space),,,,lyrical,-------- -------- --- --- ---- --- --- ------ -- --------<br>---- --------- --- ------- ------------ ---------- ---------<br>--- ---------- ------- ---------- ------- -- -------- ----<br>---- --- ------ ----- ------ -- ---- --- ----- -- - -------<br>-------- -- --- --- -- ----- ----------- ----- regulations<br>---- --- ---------- --- ---- --- -- ----------,233442.30000007153,233441.5,232395.965,232410.60000002384,232412.631,233445.923,,45,regulations
screen,html.Screen,0_4_1_0_1_46,2021-11-26T10:04:34.435Z,,,,,,,,,,,,,,,,51,,,,,,,,,,,,,,707.4770000953577,,response,,,13,B,,,,,Space,keypress(Space),,,,lyrical,-------- -------- --- --- ---- --- --- ------ -- --------<br>---- --------- --- ------- ------------ ---------- ---------<br>--- ---------- ------- ---------- ------- -- -------- ----<br>---- --- ------ ----- ------ -- ---- --- ----- -- - -------<br>-------- -- --- --- -- ----- ----------- ----- -----------<br>that --- ---------- --- ---- --- -- ----------,234154.30000007153,234153.40000009537,233429.257,233442.5,233445.923,234162.561,,46,that
screen,html.Screen,0_4_1_0_1_47,2021-11-26T10:04:34.995Z,,,,,,,,,,,,,,,,51,,,,,,,,,,,,,,550.8390000953805,,response,,,13,B,,,,,Space,keypress(Space),,,,lyrical,-------- -------- --- --- ---- --- --- ------ -- --------<br>---- --------- --- ------- ------------ ---------- ---------<br>--- ---------- ------- ---------- ------- -- -------- ----<br>---- --- ------ ----- ------ -- ---- --- ----- -- - -------<br>-------- -- --- --- -- ----- ----------- ----- -----------<br>---- are ---------- --- ---- --- -- ----------,234714.20000004768,234713.40000009537,234145.895,234154.5,234162.561,234729.205,,47,are
screen,html.Screen,0_4_1_0_1_48,2021-11-26T10:04:35.739Z,,,,,,,,,,,,,,,,51,,,,,,,,,,,,,,728.1950000953802,,response,,,13,B,,,,,Space,keypress(Space),,,,lyrical,-------- -------- --- --- ---- --- --- ------ -- --------<br>---- --------- --- ------- ------------ ---------- ---------<br>--- ---------- ------- ---------- ------- -- -------- ----<br>---- --- ------ ----- ------ -- ---- --- ----- -- - -------<br>-------- -- --- --- -- ----- ----------- ----- -----------<br>---- --- strangling --- ---- --- -- ----------,235458.20000004768,235457.40000009537,234712.539,234714.5,234729.205,235462.509,,48,strangling
screen,html.Screen,0_4_1_0_1_49,2021-11-26T10:04:36.155Z,,,,,,,,,,,,,,,,51,,,,,,,,,,,,,,410.79100007153465,,response,,,13,B,,,,,Space,keypress(Space),,,,lyrical,-------- -------- --- --- ---- --- --- ------ -- --------<br>---- --------- --- ------- ------------ ---------- ---------<br>--- ---------- ------- ---------- ------- -- -------- ----<br>---- --- ------ ----- ------ -- ---- --- ----- -- - -------<br>-------- -- --- --- -- ----- ----------- ----- -----------<br>---- --- ---------- the ---- --- -- ----------,235874.20000004768,235873.30000007153,235445.843,235458.5,235462.509,235879.159,,49,the
screen,html.Screen,0_4_1_0_1_50,2021-11-26T10:04:36.931Z,,,,,,,,,,,,,,,,51,,,,,,,,,,,,,,770.0410000476695,,response,,,13,B,,,,,Space,keypress(Space),,,,lyrical,-------- -------- --- --- ---- --- --- ------ -- --------<br>---- --------- --- ------- ------------ ---------- ---------<br>--- ---------- ------- ---------- ------- -- -------- ----<br>---- --- ------ ----- ------ -- ---- --- ----- -- - -------<br>-------- -- --- --- -- ----- ----------- ----- -----------<br>---- --- ---------- --- life --- -- ----------,236650,236649.20000004768,235862.493,235874.40000009537,235879.159,236662.461,,50,life
