sender,sender_type,sender_id,timestamp,meta,,Blues,Classical,Country,Dance,Electronic,Folk,Gospel,Hip-Hop,Jazz,Latin,Musical/Film,New-age,Pop,Provo_ID,R&B,Rap,Reggae,Religious,Rock,Soul,Swing,Traditional,age,artist_name,correct,correctResponse,distraction,duration,education,ended_on,familiarity,gender,item,list,music_frequency,offensiveness,pleasantness,preference,response,response_action,snippet_file,song_name,song_rating,sound,text,time_commit,time_end,time_render,time_run,time_show,time_switch,url,word,word_ID
Instructions,html.Page,0_0,2021-11-26T12:42:07.529Z,"{""labjs_version"":""20.2.3"",""labjs_build"":{""flavor"":""production"",""commit"":""7ea907d66ca8aeef8054924ca5d82ffbe11e34e5""},""location"":""https://run.pavlovia.org/mvasilev/lab_music_d/"",""userAgent"":""Mozilla/5.0 (Windows NT 6.1; Win64; x64) AppleWebKit/537.36 (KHTML, like Gecko) Chrome/96.0.4664.45 Safari/537.36"",""platform"":""Win32"",""language"":""en-US"",""locale"":""en-US"",""timeZone"":""Europe/London"",""timezoneOffset"":0,""screen_width"":1920,""screen_height"":1080,""scroll_width"":1920,""scroll_height"":921,""window_innerWidth"":1920,""window_innerHeight"":969,""devicePixelRatio"":1}",,,,,,,,,,,,,,,,,,,,,,,,,,,,,40839.827,,form submission,,,,,,,,,,,,,,,,47478.59999999963,47477.5,6604.331,6621.5999999996275,6637.673,47478.905,{},,
Headphones,html.Page,0_1,2021-11-26T12:42:09.946Z,,,,,,,,,,,,,,,,,,,,,,,,,,,,,,2416.595000000001,,form submission,,,,,,,,,,,,,,,,49896,49895.5,47462.228,47479.29999999888,47478.905,49898.276,,,
Holding screen,html.Screen,0_2_0_0,2021-11-26T12:42:19.940Z,,,,,,,,,,,,,,,,,,,,,,,,,,,,,,10002.387999999999,,timeout,,,,,,,,,,,,,,,,59889.699999999255,59883.995,49881.606,49896.59999999963,49898.276,59900.664,,,
screen,html.Screen,0_2_0_1_0,2021-11-26T12:42:21.837Z,,,,,,,,,,,,,,,,53,,,,,,,,,,,,,,1881.535999999258,,response,,,99,,,,,,Space,keypress(Space),,,,,When -- ----- -- ------ - ------- --- ----------<br>------------- ------ ------ ---- ---- ------- ----- -- ----<br>-------- ------- -- ---------- --- - --- ----- ----- ----<br>---- --- --- ----- --- ---- ---- ------- ----- ---- -------<br>--- --- -- ----- -- --- ---- -- --- ---- -- ------ ------<br>--- ----- -- ----,61783.59999999963,61782.199999999255,59883.995,59890.09999999963,59900.664,61784.762,,0,When
screen,html.Screen,0_2_0_1_1,2021-11-26T12:42:22.724Z,,,,,,,,,,,,,,,,53,,,,,,,,,,,,,,884.837999999625,,response,,,99,,,,,,Space,keypress(Space),,,,,---- it ----- -- ------ - ------- --- ----------<br>------------- ------ ------ ---- ---- ------- ----- -- ----<br>-------- ------- -- ---------- --- - --- ----- ----- ----<br>---- --- --- ----- --- ---- ---- ------- ----- ---- -------<br>--- --- -- ----- -- --- ---- -- --- ---- -- ------ ------<br>--- ----- -- ----,62670.5,62669.59999999963,61768.091,61783.89999999851,61784.762,62684.813,,1,it
screen,html.Screen,0_2_0_1_2,2021-11-26T12:42:24.452Z,,,,,,,,,,,,,,,,53,,,,,,,,,,,,,,1712.686999999998,,response,,,99,,,,,,Space,keypress(Space),,,,,---- -- comes -- ------ - ------- --- ----------<br>------------- ------ ------ ---- ---- ------- ----- -- ----<br>-------- ------- -- ---------- --- - --- ----- ----- ----<br>---- --- --- ----- --- ---- ---- ------- ----- ---- -------<br>--- --- -- ----- -- --- ---- -- --- ---- -- ------ ------<br>--- ----- -- ----,64398.39999999851,64397.5,62668.143,62670.699999999255,62684.813,64401.918,,2,comes
screen,html.Screen,0_2_0_1_3,2021-11-26T12:42:24.980Z,,,,,,,,,,,,,,,,53,,,,,,,,,,,,,,523.5820000000022,,response,,,99,,,,,,Space,keypress(Space),,,,,---- -- ----- to ------ - ------- --- ----------<br>------------- ------ ------ ---- ---- ------- ----- -- ----<br>-------- ------- -- ---------- --- - --- ----- ----- ----<br>---- --- --- ----- --- ---- ---- ------- ----- ---- -------<br>--- --- -- ----- -- --- ---- -- --- ---- -- ------ ------<br>--- ----- -- ----,64926.39999999851,64925.5,64385.248,64398.699999999255,64401.918,64935.444,,3,to
screen,html.Screen,0_2_0_1_4,2021-11-26T12:42:25.500Z,,,,,,,,,,,,,,,,53,,,,,,,,,,,,,,510.05599999999686,,response,,,99,,,,,,Space,keypress(Space),,,,,---- -- ----- -- having - ------- --- ----------<br>------------- ------ ------ ---- ---- ------- ----- -- ----<br>-------- ------- -- ---------- --- - --- ----- ----- ----<br>---- --- --- ----- --- ---- ---- ------- ----- ---- -------<br>--- --- -- ----- -- --- ---- -- --- ---- -- ------ ------<br>--- ----- -- ----,65446.59999999963,65445.5,64918.774,64926.89999999851,64935.444,65452.206,,4,having
screen,html.Screen,0_2_0_1_5,2021-11-26T12:42:25.940Z,,,,,,,,,,,,,,,,53,,,,,,,,,,,,,,433.1939999985116,,response,,,99,,,,,,Space,keypress(Space),,,,,---- -- ----- -- ------ a ------- --- ----------<br>------------- ------ ------ ---- ---- ------- ----- -- ----<br>-------- ------- -- ---------- --- - --- ----- ----- ----<br>---- --- --- ----- --- ---- ---- ------- ----- ---- -------<br>--- --- -- ----- -- --- ---- -- --- ---- -- ------ ------<br>--- ----- -- ----,65886.39999999851,65885.39999999851,65435.536,65446.89999999851,65452.206,65902.398,,5,a
screen,html.Screen,0_2_0_1_6,2021-11-26T12:42:26.388Z,,,,,,,,,,,,,,,,53,,,,,,,,,,,,,,431.00199999850884,,response,,,99,,,,,,Space,keypress(Space),,,,,---- -- ----- -- ------ - lasting --- ----------<br>------------- ------ ------ ---- ---- ------- ----- -- ----<br>-------- ------- -- ---------- --- - --- ----- ----- ----<br>---- --- --- ----- --- ---- ---- ------- ----- ---- -------<br>--- --- -- ----- -- --- ---- -- --- ---- -- ------ ------<br>--- ----- -- ----,66334.29999999888,66333.39999999851,65885.727,65886.89999999851,65902.398,66335.797,,6,lasting
screen,html.Screen,0_2_0_1_7,2021-11-26T12:42:26.764Z,,,,,,,,,,,,,,,,53,,,,,,,,,,,,,,373.60299999850395,,response,,,99,,,,,,Space,keypress(Space),,,,,---- -- ----- -- ------ - ------- and ----------<br>------------- ------ ------ ---- ---- ------- ----- -- ----<br>-------- ------- -- ---------- --- - --- ----- ----- ----<br>---- --- --- ----- --- ---- ---- ------- ----- ---- -------<br>--- --- -- ----- -- --- ---- -- --- ---- -- ------ ------<br>--- ----- -- ----,66710.29999999888,66709.39999999851,66319.127,66334.59999999963,66335.797,66719.229,,7,and
screen,html.Screen,0_2_0_1_8,2021-11-26T12:42:27.164Z,,,,,,,,,,,,,,,,53,,,,,,,,,,,,,,390.17099999850325,,response,,,99,,,,,,Space,keypress(Space),,,,,---- -- ----- -- ------ - ------- --- fulfilling<br>------------- ------ ------ ---- ---- ------- ----- -- ----<br>-------- ------- -- ---------- --- - --- ----- ----- ----<br>---- --- --- ----- --- ---- ---- ------- ----- ---- -------<br>--- --- -- ----- -- --- ---- -- --- ---- -- ------ ------<br>--- ----- -- ----,67110.39999999851,67109.39999999851,66702.559,66710.59999999963,66719.229,67119.367,,8,fulfilling
screen,html.Screen,0_2_0_1_9,2021-11-26T12:42:27.644Z,,,,,,,,,,,,,,,,53,,,,,,,,,,,,,,469.93299999888404,,response,,,99,,,,,,Space,keypress(Space),,,,,"---- -- ----- -- ------ - ------- --- ----------<br>relationship, ------ ------ ---- ---- ------- ----- -- ----<br>-------- ------- -- ---------- --- - --- ----- ----- ----<br>---- --- --- ----- --- ---- ---- ------- ----- ---- -------<br>--- --- -- ----- -- --- ---- -- --- ---- -- ------ ------<br>--- ----- -- ----",67590.19999999925,67589.29999999888,67102.696,67110.79999999888,67119.367,67602.708,,9,"relationship,"
screen,html.Screen,0_2_0_1_10,2021-11-26T12:42:28.036Z,,,,,,,,,,,,,,,,53,,,,,,,,,,,,,,378.5919999988837,,response,,,99,,,,,,Space,keypress(Space),,,,,---- -- ----- -- ------ - ------- --- ----------<br>------------- common ------ ---- ---- ------- ----- -- ----<br>-------- ------- -- ---------- --- - --- ----- ----- ----<br>---- --- --- ----- --- ---- ---- ------- ----- ---- -------<br>--- --- -- ----- -- --- ---- -- --- ---- -- ------ ------<br>--- ----- -- ----,67982.19999999925,67981.29999999888,67586.039,67590.5,67602.708,67986.248,,10,common
screen,html.Screen,0_2_0_1_11,2021-11-26T12:42:28.428Z,,,,,,,,,,,,,,,,53,,,,,,,,,,,,,,387.05199999887554,,response,,,99,,,,,,Space,keypress(Space),,,,,---- -- ----- -- ------ - ------- --- ----------<br>------------- ------ wisdom ---- ---- ------- ----- -- ----<br>-------- ------- -- ---------- --- - --- ----- ----- ----<br>---- --- --- ----- --- ---- ---- ------- ----- ---- -------<br>--- --- -- ----- -- --- ---- -- --- ---- -- ------ ------<br>--- ----- -- ----,68374.19999999925,68373.29999999888,67969.577,67982.5,67986.248,68386.308,,11,wisdom
screen,html.Screen,0_2_0_1_12,2021-11-26T12:42:28.828Z,,,,,,,,,,,,,,,,53,,,,,,,,,,,,,,386.8919999992504,,response,,,99,,,,,,Space,keypress(Space),,,,,---- -- ----- -- ------ - ------- --- ----------<br>------------- ------ ------ says ---- ------- ----- -- ----<br>-------- ------- -- ---------- --- - --- ----- ----- ----<br>---- --- --- ----- --- ---- ---- ------- ----- ---- -------<br>--- --- -- ----- -- --- ---- -- --- ---- -- ------ ------<br>--- ----- -- ----,68774.09999999963,68773.19999999925,68369.638,68374.5,68386.308,68786.407,,12,says
screen,html.Screen,0_2_0_1_13,2021-11-26T12:42:29.204Z,,,,,,,,,,,,,,,,53,,,,,,,,,,,,,,362.8929999988759,,response,,,99,,,,,,Space,keypress(Space),,,,,---- -- ----- -- ------ - ------- --- ----------<br>------------- ------ ------ ---- that ------- ----- -- ----<br>-------- ------- -- ---------- --- - --- ----- ----- ----<br>---- --- --- ----- --- ---- ---- ------- ----- ---- -------<br>--- --- -- ----- -- --- ---- -- --- ---- -- ------ ------<br>--- ----- -- ----,69150.09999999963,69149.29999999888,68769.737,68774.29999999888,68786.407,69153.166,,13,that
screen,html.Screen,0_2_0_1_14,2021-11-26T12:42:29.524Z,,,,,,,,,,,,,,,,53,,,,,,,,,,,,,,316.133999998885,,response,,,99,,,,,,Space,keypress(Space),,,,,---- -- ----- -- ------ - ------- --- ----------<br>------------- ------ ------ ---- ---- feeling ----- -- ----<br>-------- ------- -- ---------- --- - --- ----- ----- ----<br>---- --- --- ----- --- ---- ---- ------- ----- ---- -------<br>--- --- -- ----- -- --- ---- -- --- ---- -- ------ ------<br>--- ----- -- ----,69470.09999999963,69469.29999999888,69136.496,69150.29999999888,69153.166,69486.616,,14,feeling
screen,html.Screen,0_2_0_1_15,2021-11-26T12:42:29.932Z,,,,,,,,,,,,,,,,53,,,,,,,,,,,,,,390.48399999963294,,response,,,99,,,,,,Space,keypress(Space),,,,,---- -- ----- -- ------ - ------- --- ----------<br>------------- ------ ------ ---- ---- ------- close -- ----<br>-------- ------- -- ---------- --- - --- ----- ----- ----<br>---- --- --- ----- --- ---- ---- ------- ----- ---- -------<br>--- --- -- ----- -- --- ---- -- --- ---- -- ------ ------<br>--- ----- -- ----,69877.89999999851,69877.09999999963,69469.945,69470.29999999888,69486.616,69886.69,,15,close
screen,html.Screen,0_2_0_1_16,2021-11-26T12:42:30.324Z,,,,,,,,,,,,,,,,53,,,,,,,,,,,,,,382.5099999992526,,response,,,99,,,,,,Space,keypress(Space),,,,,---- -- ----- -- ------ - ------- --- ----------<br>------------- ------ ------ ---- ---- ------- ----- to ----<br>-------- ------- -- ---------- --- - --- ----- ----- ----<br>---- --- --- ----- --- ---- ---- ------- ----- ---- -------<br>--- --- -- ----- -- --- ---- -- --- ---- -- ------ ------<br>--- ----- -- ----,70269.89999999851,70269.19999999925,69870.02,69878.19999999925,69886.69,70286.788,,16,to
screen,html.Screen,0_2_0_1_17,2021-11-26T12:42:30.732Z,,,,,,,,,,,,,,,,53,,,,,,,,,,,,,,390.4119999992545,,response,,,99,,,,,,Space,keypress(Space),,,,,---- -- ----- -- ------ - ------- --- ----------<br>------------- ------ ------ ---- ---- ------- ----- -- your<br>-------- ------- -- ---------- --- - --- ----- ----- ----<br>---- --- --- ----- --- ---- ---- ------- ----- ---- -------<br>--- --- -- ----- -- --- ---- -- --- ---- -- ------ ------<br>--- ----- -- ----,70678,70677.19999999925,70270.118,70270.29999999888,70286.788,70686.761,,17,your
screen,html.Screen,0_2_0_1_18,2021-11-26T12:42:31.204Z,,,,,,,,,,,,,,,,53,,,,,,,,,,,,,,462.33899999962887,,response,,,99,,,,,,Space,keypress(Space),,,,,---- -- ----- -- ------ - ------- --- ----------<br>------------- ------ ------ ---- ---- ------- ----- -- ----<br>romantic ------- -- ---------- --- - --- ----- ----- ----<br>---- --- --- ----- --- ---- ---- ------- ----- ---- -------<br>--- --- -- ----- -- --- ---- -- --- ---- -- ------ ------<br>--- ----- -- ----,71149.79999999888,71149.09999999963,70670.093,70678.19999999925,70686.761,71153.613,,18,romantic
screen,html.Screen,0_2_0_1_19,2021-11-26T12:42:31.587Z,,,,,,,,,,,,,,,,53,,,,,,,,,,,,,,379.38700000000244,,response,,,99,,,,,,Space,keypress(Space),,,,,---- -- ----- -- ------ - ------- --- ----------<br>------------- ------ ------ ---- ---- ------- ----- -- ----<br>-------- partner -- ---------- --- - --- ----- ----- ----<br>---- --- --- ----- --- ---- ---- ------- ----- ---- -------<br>--- --- -- ----- -- --- ---- -- --- ---- -- ------ ------<br>--- ----- -- ----,71533.79999999888,71533,71136.943,71150.09999999963,71153.613,71537.177,,19,partner
screen,html.Screen,0_2_0_1_20,2021-11-26T12:42:31.972Z,,,,,,,,,,,,,,,,53,,,,,,,,,,,,,,380.32300000000396,,response,,,99,,,,,,Space,keypress(Space),,,,,---- -- ----- -- ------ - ------- --- ----------<br>------------- ------ ------ ---- ---- ------- ----- -- ----<br>-------- ------- is ---------- --- - --- ----- ----- ----<br>---- --- --- ----- --- ---- ---- ------- ----- ---- -------<br>--- --- -- ----- -- --- ---- -- --- ---- -- ------ ------<br>--- ----- -- ----,71918.19999999925,71917.5,71520.505,71534,71537.177,71920.562,,20,is
screen,html.Screen,0_2_0_1_21,2021-11-26T12:42:32.579Z,,,,,,,,,,,,,,,,53,,,,,,,,,,,,,,604.5379999996221,,response,,,99,,,,,,Space,keypress(Space),,,,,---- -- ----- -- ------ - ------- --- ----------<br>------------- ------ ------ ---- ---- ------- ----- -- ----<br>-------- ------- -- paramount. --- - --- ----- ----- ----<br>---- --- --- ----- --- ---- ---- ------- ----- ---- -------<br>--- --- -- ----- -- --- ---- -- --- ---- -- ------ ------<br>--- ----- -- ----,72525.79999999888,72525.09999999963,71903.891,71918.5,71920.562,72537.315,,21,paramount.
screen,html.Screen,0_2_0_1_22,2021-11-26T12:42:33.099Z,,,,,,,,,,,,,,,,53,,,,,,,,,,,,,,507.6849999999977,,response,,,99,,,,,,Space,keypress(Space),,,,,---- -- ----- -- ------ - ------- --- ----------<br>------------- ------ ------ ---- ---- ------- ----- -- ----<br>-------- ------- -- ---------- But - --- ----- ----- ----<br>---- --- --- ----- --- ---- ---- ------- ----- ---- -------<br>--- --- -- ----- -- --- ---- -- --- ---- -- ------ ------<br>--- ----- -- ----,73045.79999999888,73045,72520.645,72526.19999999925,72537.315,73054.174,,22,But
screen,html.Screen,0_2_0_1_23,2021-11-26T12:42:33.491Z,,,,,,,,,,,,,,,,53,,,,,,,,,,,,,,382.7259999985108,,response,,,99,,,,,,Space,keypress(Space),,,,,---- -- ----- -- ------ - ------- --- ----------<br>------------- ------ ------ ---- ---- ------- ----- -- ----<br>-------- ------- -- ---------- --- a --- ----- ----- ----<br>---- --- --- ----- --- ---- ---- ------- ----- ---- -------<br>--- --- -- ----- -- --- ---- -- --- ---- -- ------ ------<br>--- ----- -- ----,73437.79999999888,73436.89999999851,73037.503,73046,73054.174,73454.281,,23,a
screen,html.Screen,0_2_0_1_24,2021-11-26T12:42:33.771Z,,,,,,,,,,,,,,,,53,,,,,,,,,,,,,,262.6189999985072,,response,,,99,,,,,,Space,keypress(Space),,,,,---- -- ----- -- ------ - ------- --- ----------<br>------------- ------ ------ ---- ---- ------- ----- -- ----<br>-------- ------- -- ---------- --- - new ----- ----- ----<br>---- --- --- ----- --- ---- ---- ------- ----- ---- -------<br>--- --- -- ----- -- --- ---- -- --- ---- -- ------ ------<br>--- ----- -- ----,73717.69999999925,73716.89999999851,73437.61,73438,73454.281,73720.961,,24,new
screen,html.Screen,0_2_0_1_25,2021-11-26T12:42:34.059Z,,,,,,,,,,,,,,,,53,,,,,,,,,,,,,,283.9389999985142,,response,,,99,,,,,,Space,keypress(Space),,,,,---- -- ----- -- ------ - ------- --- ----------<br>------------- ------ ------ ---- ---- ------- ----- -- ----<br>-------- ------- -- ---------- --- - --- study ----- ----<br>---- --- --- ----- --- ---- ---- ------- ----- ---- -------<br>--- --- -- ----- -- --- ---- -- --- ---- -- ------ ------<br>--- ----- -- ----,74005.69999999925,74004.89999999851,73704.291,73717.89999999851,73720.961,74021.078,,25,study
screen,html.Screen,0_2_0_1_26,2021-11-26T12:42:34.347Z,,,,,,,,,,,,,,,,53,,,,,,,,,,,,,,271.8219999985158,,response,,,99,,,,,,Space,keypress(Space),,,,,---- -- ----- -- ------ - ------- --- ----------<br>------------- ------ ------ ---- ---- ------- ----- -- ----<br>-------- ------- -- ---------- --- - --- ----- finds ----<br>---- --- --- ----- --- ---- ---- ------- ----- ---- -------<br>--- --- -- ----- -- --- ---- -- --- ---- -- ------ ------<br>--- ----- -- ----,74293.59999999963,74292.89999999851,74004.407,74006,74021.078,74304.315,,26,finds
screen,html.Screen,0_2_0_1_27,2021-11-26T12:42:34.595Z,,,,,,,,,,,,,,,,53,,,,,,,,,,,,,,236.48499999888008,,response,,,99,,,,,,Space,keypress(Space),,,,,---- -- ----- -- ------ - ------- --- ----------<br>------------- ------ ------ ---- ---- ------- ----- -- ----<br>-------- ------- -- ---------- --- - --- ----- ----- that<br>---- --- --- ----- --- ---- ---- ------- ----- ---- -------<br>--- --- -- ----- -- --- ---- -- --- ---- -- ------ ------<br>--- ----- -- ----,74541.59999999963,74540.79999999888,74287.648,74293.79999999888,74304.315,74554.609,,27,that
screen,html.Screen,0_2_0_1_28,2021-11-26T12:42:34.899Z,,,,,,,,,,,,,,,,53,,,,,,,,,,,,,,290.1909999988857,,response,,,99,,,,,,Space,keypress(Space),,,,,---- -- ----- -- ------ - ------- --- ----------<br>------------- ------ ------ ---- ---- ------- ----- -- ----<br>-------- ------- -- ---------- --- - --- ----- ----- ----<br>it's --- --- ----- --- ---- ---- ------- ----- ---- -------<br>--- --- -- ----- -- --- ---- -- --- ---- -- ------ ------<br>--- ----- -- ----,74845.59999999963,74844.79999999888,74537.936,74541.89999999851,74554.609,74854.622,,28,it's
screen,html.Screen,0_2_0_1_29,2021-11-26T12:42:35.244Z,,,,,,,,,,,,,,,,53,,,,,,,,,,,,,,334.377999999997,,response,,,99,,,,,,Space,keypress(Space),,,,,---- -- ----- -- ------ - ------- --- ----------<br>------------- ------ ------ ---- ---- ------- ----- -- ----<br>-------- ------- -- ---------- --- - --- ----- ----- ----<br>---- not --- ----- --- ---- ---- ------- ----- ---- -------<br>--- --- -- ----- -- --- ---- -- --- ---- -- ------ ------<br>--- ----- -- ----,75190,75189,74837.951,74845.79999999888,74854.622,75204.715,,29,not
screen,html.Screen,0_2_0_1_30,2021-11-26T12:42:35.499Z,,,,,,,,,,,,,,,,53,,,,,,,,,,,,,,240.0849999988859,,response,,,99,,,,,,Space,keypress(Space),,,,,---- -- ----- -- ------ - ------- --- ----------<br>------------- ------ ------ ---- ---- ------- ----- -- ----<br>-------- ------- -- ---------- --- - --- ----- ----- ----<br>---- --- how ----- --- ---- ---- ------- ----- ---- -------<br>--- --- -- ----- -- --- ---- -- --- ---- -- ------ ------<br>--- ----- -- ----,75445.59999999963,75444.79999999888,75188.044,75190.29999999888,75204.715,75454.639,,30,how
screen,html.Screen,0_2_0_1_31,2021-11-26T12:42:35.771Z,,,,,,,,,,,,,,,,53,,,,,,,,,,,,,,262.16099999888684,,response,,,99,,,,,,Space,keypress(Space),,,,,---- -- ----- -- ------ - ------- --- ----------<br>------------- ------ ------ ---- ---- ------- ----- -- ----<br>-------- ------- -- ---------- --- - --- ----- ----- ----<br>---- --- --- close --- ---- ---- ------- ----- ---- -------<br>--- --- -- ----- -- --- ---- -- --- ---- -- ------ ------<br>--- ----- -- ----,75717.5,75716.79999999888,75437.971,75445.79999999888,75454.639,75721.485,,31,close
screen,html.Screen,0_2_0_1_32,2021-11-26T12:42:36.155Z,,,,,,,,,,,,,,,,53,,,,,,,,,,,,,,379.31499999888183,,response,,,99,,,,,,Space,keypress(Space),,,,,---- -- ----- -- ------ - ------- --- ----------<br>------------- ------ ------ ---- ---- ------- ----- -- ----<br>-------- ------- -- ---------- --- - --- ----- ----- ----<br>---- --- --- ----- you ---- ---- ------- ----- ---- -------<br>--- --- -- ----- -- --- ---- -- --- ---- -- ------ ------<br>--- ----- -- ----,76101.59999999963,76100.79999999888,75704.814,75717.89999999851,75721.485,76104.924,,32,you
screen,html.Screen,0_2_0_1_33,2021-11-26T12:42:36.539Z,,,,,,,,,,,,,,,,53,,,,,,,,,,,,,,379.87599999888334,,response,,,99,,,,,,Space,keypress(Space),,,,,---- -- ----- -- ------ - ------- --- ----------<br>------------- ------ ------ ---- ---- ------- ----- -- ----<br>-------- ------- -- ---------- --- - --- ----- ----- ----<br>---- --- --- ----- --- feel ---- ------- ----- ---- -------<br>--- --- -- ----- -- --- ---- -- --- ---- -- ------ ------<br>--- ----- -- ----,76485.5,76484.79999999888,76088.253,76101.79999999888,76104.924,76488.354,,33,feel
screen,html.Screen,0_2_0_1_34,2021-11-26T12:42:36.955Z,,,,,,,,,,,,,,,,53,,,,,,,,,,,,,,412.4459999988758,,response,,,99,,,,,,Space,keypress(Space),,,,,---- -- ----- -- ------ - ------- --- ----------<br>------------- ------ ------ ---- ---- ------- ----- -- ----<br>-------- ------- -- ---------- --- - --- ----- ----- ----<br>---- --- --- ----- --- ---- that ------- ----- ---- -------<br>--- --- -- ----- -- --- ---- -- --- ---- -- ------ ------<br>--- ----- -- ----,76901.5,76900.79999999888,76471.683,76485.79999999888,76488.354,76905.034,,34,that
screen,html.Screen,0_2_0_1_35,2021-11-26T12:42:37.323Z,,,,,,,,,,,,,,,,53,,,,,,,,,,,,,,363.6659999992553,,response,,,99,,,,,,Space,keypress(Space),,,,,---- -- ----- -- ------ - ------- --- ----------<br>------------- ------ ------ ---- ---- ------- ----- -- ----<br>-------- ------- -- ---------- --- - --- ----- ----- ----<br>---- --- --- ----- --- ---- ---- matters ----- ---- -------<br>--- --- -- ----- -- --- ---- -- --- ---- -- ------ ------<br>--- ----- -- ----,77269.5,77268.69999999925,76888.365,76901.79999999888,76905.034,77271.916,,35,matters
screen,html.Screen,0_2_0_1_36,2021-11-26T12:42:37.667Z,,,,,,,,,,,,,,,,53,,,,,,,,,,,,,,340.7839999992575,,response,,,99,,,,,,Space,keypress(Space),,,,,"---- -- ----- -- ------ - ------- --- ----------<br>------------- ------ ------ ---- ---- ------- ----- -- ----<br>-------- ------- -- ---------- --- - --- ----- ----- ----<br>---- --- --- ----- --- ---- ---- ------- most, ---- -------<br>--- --- -- ----- -- --- ---- -- --- ---- -- ------ ------<br>--- ----- -- ----",77613.69999999925,77612.69999999925,77255.245,77269.69999999925,77271.916,77621.94,,36,"most,"
screen,html.Screen,0_2_0_1_37,2021-11-26T12:42:38.059Z,,,,,,,,,,,,,,,,53,,,,,,,,,,,,,,382.65999999962514,,response,,,99,,,,,,Space,keypress(Space),,,,,---- -- ----- -- ------ - ------- --- ----------<br>------------- ------ ------ ---- ---- ------- ----- -- ----<br>-------- ------- -- ---------- --- - --- ----- ----- ----<br>---- --- --- ----- --- ---- ---- ------- ----- it's -------<br>--- --- -- ----- -- --- ---- -- --- ---- -- ------ ------<br>--- ----- -- ----,78005.5,78004.59999999963,77605.27,77613.89999999851,77621.94,78022.043,,37,it's
screen,html.Screen,0_2_0_1_38,2021-11-26T12:42:38.891Z,,,,,,,,,,,,,,,,53,,,,,,,,,,,,,,814.5569999996223,,response,,,99,,,,,,Space,keypress(Space),,,,,---- -- ----- -- ------ - ------- --- ----------<br>------------- ------ ------ ---- ---- ------- ----- -- ----<br>-------- ------- -- ---------- --- - --- ----- ----- ----<br>---- --- --- ----- --- ---- ---- ------- ----- ---- whether<br>--- --- -- ----- -- --- ---- -- --- ---- -- ------ ------<br>--- ----- -- ----,78837.59999999963,78836.59999999963,78005.373,78005.69999999925,78022.043,78838.697,,38,whether
screen,html.Screen,0_2_0_1_39,2021-11-26T12:42:39.315Z,,,,,,,,,,,,,,,,53,,,,,,,,,,,,,,421.90299999962735,,response,,,99,,,,,,Space,keypress(Space),,,,,---- -- ----- -- ------ - ------- --- ----------<br>------------- ------ ------ ---- ---- ------- ----- -- ----<br>-------- ------- -- ---------- --- - --- ----- ----- ----<br>---- --- --- ----- --- ---- ---- ------- ----- ---- -------<br>you --- -- ----- -- --- ---- -- --- ---- -- ------ ------<br>--- ----- -- ----,79261.5,79260.59999999963,78822.029,78837.69999999925,78838.697,79272.41,,39,you
screen,html.Screen,0_2_0_1_40,2021-11-26T12:42:39.683Z,,,,,,,,,,,,,,,,53,,,,,,,,,,,,,,356.189999999624,,response,,,99,,,,,,Space,keypress(Space),,,,,---- -- ----- -- ------ - ------- --- ----------<br>------------- ------ ------ ---- ---- ------- ----- -- ----<br>-------- ------- -- ---------- --- - --- ----- ----- ----<br>---- --- --- ----- --- ---- ---- ------- ----- ---- -------<br>--- are -- ----- -- --- ---- -- --- ---- -- ------ ------<br>--- ----- -- ----,79629.29999999888,79628.59999999963,79255.738,79261.69999999925,79272.41,79639.113,,40,are
screen,html.Screen,0_2_0_1_41,2021-11-26T12:42:40.027Z,,,,,,,,,,,,,,,,53,,,,,,,,,,,,,,333.4869999996299,,response,,,99,,,,,,Space,keypress(Space),,,,,---- -- ----- -- ------ - ------- --- ----------<br>------------- ------ ------ ---- ---- ------- ----- -- ----<br>-------- ------- -- ---------- --- - --- ----- ----- ----<br>---- --- --- ----- --- ---- ---- ------- ----- ---- -------<br>--- --- as ----- -- --- ---- -- --- ---- -- ------ ------<br>--- ----- -- ----,79973.29999999888,79972.59999999963,79622.443,79629.59999999963,79639.113,79989.204,,41,as
screen,html.Screen,0_2_0_1_42,2021-11-26T12:42:40.363Z,,,,,,,,,,,,,,,,53,,,,,,,,,,,,,,319.2960000000021,,response,,,99,,,,,,Space,keypress(Space),,,,,---- -- ----- -- ------ - ------- --- ----------<br>------------- ------ ------ ---- ---- ------- ----- -- ----<br>-------- ------- -- ---------- --- - --- ----- ----- ----<br>---- --- --- ----- --- ---- ---- ------- ----- ---- -------<br>--- --- -- close -- --- ---- -- --- ---- -- ------ ------<br>--- ----- -- ----,80309.29999999888,80308.5,79972.534,79973.59999999963,79989.204,80322.623,,42,close
screen,html.Screen,0_2_0_1_43,2021-11-26T12:42:40.707Z,,,,,,,,,,,,,,,,53,,,,,,,,,,,,,,329.87699999999313,,response,,,99,,,,,,Space,keypress(Space),,,,,---- -- ----- -- ------ - ------- --- ----------<br>------------- ------ ------ ---- ---- ------- ----- -- ----<br>-------- ------- -- ---------- --- - --- ----- ----- ----<br>---- --- --- ----- --- ---- ---- ------- ----- ---- -------<br>--- --- -- ----- as --- ---- -- --- ---- -- ------ ------<br>--- ----- -- ----,80653.29999999888,80652.5,80305.953,80309.5,80322.623,80656.042,,43,as
screen,html.Screen,0_2_0_1_44,2021-11-26T12:42:41.051Z,,,,,,,,,,,,,,,,53,,,,,,,,,,,,,,340.3579999985086,,response,,,99,,,,,,Space,keypress(Space),,,,,---- -- ----- -- ------ - ------- --- ----------<br>------------- ------ ------ ---- ---- ------- ----- -- ----<br>-------- ------- -- ---------- --- - --- ----- ----- ----<br>---- --- --- ----- --- ---- ---- ------- ----- ---- -------<br>--- --- -- ----- -- you ---- -- --- ---- -- ------ ------<br>--- ----- -- ----,80997.19999999925,80996.39999999851,80639.372,80653.5,80656.042,81005.999,,44,you
screen,html.Screen,0_2_0_1_45,2021-11-26T12:42:41.363Z,,,,,,,,,,,,,,,,53,,,,,,,,,,,,,,302.4009999985137,,response,,,99,,,,,,Space,keypress(Space),,,,,---- -- ----- -- ------ - ------- --- ----------<br>------------- ------ ------ ---- ---- ------- ----- -- ----<br>-------- ------- -- ---------- --- - --- ----- ----- ----<br>---- --- --- ----- --- ---- ---- ------- ----- ---- -------<br>--- --- -- ----- -- --- want -- --- ---- -- ------ ------<br>--- ----- -- ----,81309.19999999925,81308.39999999851,80989.331,80997.5,81005.999,81322.944,,45,want
screen,html.Screen,0_2_0_1_46,2021-11-26T12:42:41.691Z,,,,,,,,,,,,,,,,53,,,,,,,,,,,,,,313.45599999850674,,response,,,99,,,,,,Space,keypress(Space),,,,,---- -- ----- -- ------ - ------- --- ----------<br>------------- ------ ------ ---- ---- ------- ----- -- ----<br>-------- ------- -- ---------- --- - --- ----- ----- ----<br>---- --- --- ----- --- ---- ---- ------- ----- ---- -------<br>--- --- -- ----- -- --- ---- to --- ---- -- ------ ------<br>--- ----- -- ----,81637.09999999963,81636.39999999851,81306.272,81309.39999999851,81322.944,81639.599,,46,to
screen,html.Screen,0_2_0_1_47,2021-11-26T12:42:41.979Z,,,,,,,,,,,,,,,,53,,,,,,,,,,,,,,285.3009999985079,,response,,,99,,,,,,Space,keypress(Space),,,,,"---- -- ----- -- ------ - ------- --- ----------<br>------------- ------ ------ ---- ---- ------- ----- -- ----<br>-------- ------- -- ---------- --- - --- ----- ----- ----<br>---- --- --- ----- --- ---- ---- ------- ----- ---- -------<br>--- --- -- ----- -- --- ---- -- be, ---- -- ------ ------<br>--- ----- -- ----",81925.59999999963,81924.89999999851,81622.929,81637.29999999888,81639.599,81939.686,,47,"be,"
screen,html.Screen,0_2_0_1_48,2021-11-26T12:42:42.307Z,,,,,,,,,,,,,,,,53,,,,,,,,,,,,,,312.71399999850837,,response,,,99,,,,,,Space,keypress(Space),,,,,---- -- ----- -- ------ - ------- --- ----------<br>------------- ------ ------ ---- ---- ------- ----- -- ----<br>-------- ------- -- ---------- --- - --- ----- ----- ----<br>---- --- --- ----- --- ---- ---- ------- ----- ---- -------<br>--- --- -- ----- -- --- ---- -- --- even -- ------ ------<br>--- ----- -- ----,82253.09999999963,82252.39999999851,81923.016,81925.89999999851,81939.686,82256.471,,48,even
screen,html.Screen,0_2_0_1_49,2021-11-26T12:42:42.627Z,,,,,,,,,,,,,,,,53,,,,,,,,,,,,,,315.9289999985049,,response,,,99,,,,,,Space,keypress(Space),,,,,---- -- ----- -- ------ - ------- --- ----------<br>------------- ------ ------ ---- ---- ------- ----- -- ----<br>-------- ------- -- ---------- --- - --- ----- ----- ----<br>---- --- --- ----- --- ---- ---- ------- ----- ---- -------<br>--- --- -- ----- -- --- ---- -- --- ---- if ------ ------<br>--- ----- -- ----,82573.09999999963,82572.39999999851,82239.8,82253.39999999851,82256.471,82589.808,,49,if
screen,html.Screen,0_2_0_1_50,2021-11-26T12:42:42.939Z,,,,,,,,,,,,,,,,53,,,,,,,,,,,,,,294.4919999988779,,response,,,99,,,,,,Space,keypress(Space),,,,,---- -- ----- -- ------ - ------- --- ----------<br>------------- ------ ------ ---- ---- ------- ----- -- ----<br>-------- ------- -- ---------- --- - --- ----- ----- ----<br>---- --- --- ----- --- ---- ---- ------- ----- ---- -------<br>--- --- -- ----- -- --- ---- -- --- ---- -- that's ------<br>--- ----- -- ----,82885,82884.29999999888,82573.139,82573.39999999851,82589.808,82889.949,,50,that's
screen,html.Screen,0_2_0_1_51,2021-11-26T12:42:43.267Z,,,,,,,,,,,,,,,,53,,,,,,,,,,,,,,322.35099999888916,,response,,,99,,,,,,Space,keypress(Space),,,,,---- -- ----- -- ------ - ------- --- ----------<br>------------- ------ ------ ---- ---- ------- ----- -- ----<br>-------- ------- -- ---------- --- - --- ----- ----- ----<br>---- --- --- ----- --- ---- ---- ------- ----- ---- -------<br>--- --- -- ----- -- --- ---- -- --- ---- -- ------ really<br>--- ----- -- ----,83213.09999999963,83212.29999999888,82873.278,82885.29999999888,82889.949,83223.34,,51,really
screen,html.Screen,0_2_0_1_52,2021-11-26T12:42:43.579Z,,,,,,,,,,,,,,,,53,,,,,,,,,,,,,,300.9599999988859,,response,,,99,,,,,,Space,keypress(Space),,,,,---- -- ----- -- ------ - ------- --- ----------<br>------------- ------ ------ ---- ---- ------- ----- -- ----<br>-------- ------- -- ---------- --- - --- ----- ----- ----<br>---- --- --- ----- --- ---- ---- ------- ----- ---- -------<br>--- --- -- ----- -- --- ---- -- --- ---- -- ------ ------<br>not ----- -- ----,83525,83524.29999999888,83206.67,83213.39999999851,83223.34,83539.975,,52,not
screen,html.Screen,0_2_0_1_53,2021-11-26T12:42:43.875Z,,,,,,,,,,,,,,,,53,,,,,,,,,,,,,,280.3249999988766,,response,,,99,,,,,,Space,keypress(Space),,,,,---- -- ----- -- ------ - ------- --- ----------<br>------------- ------ ------ ---- ---- ------- ----- -- ----<br>-------- ------- -- ---------- --- - --- ----- ----- ----<br>---- --- --- ----- --- ---- ---- ------- ----- ---- -------<br>--- --- -- ----- -- --- ---- -- --- ---- -- ------ ------<br>--- close -- ----,83821.09999999963,83820.29999999888,83523.307,83525.29999999888,83539.975,83823.592,,53,close
screen,html.Screen,0_2_0_1_54,2021-11-26T12:42:44.179Z,,,,,,,,,,,,,,,,53,,,,,,,,,,,,,,300.60799999925075,,response,,,99,,,,,,Space,keypress(Space),,,,,---- -- ----- -- ------ - ------- --- ----------<br>------------- ------ ------ ---- ---- ------- ----- -- ----<br>-------- ------- -- ---------- --- - --- ----- ----- ----<br>---- --- --- ----- --- ---- ---- ------- ----- ---- -------<br>--- --- -- ----- -- --- ---- -- --- ---- -- ------ ------<br>--- ----- at ----,84124.89999999851,84124.19999999925,83806.919,83821.29999999888,83823.592,84140.233,,54,at
screen,html.Screen,0_2_0_1_55,2021-11-26T12:42:44.491Z,,,,,,,,,,,,,,,,53,,,,,,,,,,,,,,296.0669999988895,,response,,,99,,,,,,Space,keypress(Space),,,,,---- -- ----- -- ------ - ------- --- ----------<br>------------- ------ ------ ---- ---- ------- ----- -- ----<br>-------- ------- -- ---------- --- - --- ----- ----- ----<br>---- --- --- ----- --- ---- ---- ------- ----- ---- -------<br>--- --- -- ----- -- --- ---- -- --- ---- -- ------ ------<br>--- ----- -- all.,84437,84436.29999999888,84123.563,84125.19999999925,84140.233,84456.984,,55,all.
Item 99,flow.Loop,0_2_0_1,2021-11-26T12:42:44.496Z,,,,,,,,,,,,,,,,,,,,,,,,,,,,,,24535.635999998885,,completion,,,,D,,,,,,,,,,silence,,84442.09999999963,84436.29999999888,59883.995,59890,59900.664,84456.984,,,
Question 1,html.Screen,0_2_0_2,2021-11-26T12:42:49.867Z,,,,,,,,,,,,,,,,,,,,,,,,,,,false,FALSE,,5354.715999999258,,response,,,99,D,,,,,TRUE,click #choice-1,,,,silence,,89813,89811.69999999925,84440.314,84442.5,84456.984,89824.982,,,
Question 2,html.Screen,0_2_0_3,2021-11-26T12:42:53.690Z,,,,,,,,,,,,,,,,,,,,,,,,,,,true,TRUE,,3810.5179999999964,,response,,,99,D,,,,,TRUE,click #choice-1,,,,silence,,93636.69999999925,93635.5,89808.312,89813.29999999888,89824.982,93642.672,,,
Item 99,flow.Sequence,0_2_0,2021-11-26T12:42:53.691Z,,,,,,,,,,,,,,,,,,,,,,,,,,,,,,43737.224,,completion,,,,,,,,,,,,,,,,93637.19999999925,93635.5,49881.606,49896.5,49898.276,93642.672,,,
Holding screen,html.Screen,0_2_1_0,2021-11-26T12:43:03.684Z,,,,,,,,,,,,,,,,,,,,,,,,,,,,,,10002.193,,timeout,,,,,,,,,,,,,,,,103629.79999999888,103628.196,93625.997,93637.59999999963,93642.672,103644.865,,,
screen,html.Screen,0_2_1_1_0,2021-11-26T12:43:06.154Z,,,,,,,,,,,,,,,,54,,,,,,,,,,,,,,2454.6349999999948,,response,,,100,,,,,,Space,keypress(Space),,,,,At --- ---- --- ------ ----- ------- ---- -- --- ------- --<br>------- ---------- ------ -- ----- -- ----- -- ---- ------<br>--- ----- --- --- ------ -------- ----- --- ------ ----- --<br>----- ----- ---------- --- --- ------ ------ ---- -- ------<br>------- --- ------ ----- --- ---- ------- -- ---- --- --<br>------- ------,106100.19999999925,106099.5,103628.196,103630.29999999888,103644.865,106112.464,,0,At
screen,html.Screen,0_2_1_1_1,2021-11-26T12:43:07.513Z,,,,,,,,,,,,,,,,54,,,,,,,,,,,,,,1346.3359999988752,,response,,,100,,,,,,Space,keypress(Space),,,,,-- the ---- --- ------ ----- ------- ---- -- --- ------- --<br>------- ---------- ------ -- ----- -- ----- -- ---- ------<br>--- ----- --- --- ------ -------- ----- --- ------ ----- --<br>----- ----- ---------- --- --- ------ ------ ---- -- ------<br>------- --- ------ ----- --- ---- ------- -- ---- --- --<br>------- ------,107459.59999999963,107458.79999999888,106095.793,106100.5,106112.464,107462.391,,1,the
screen,html.Screen,0_2_1_1_2,2021-11-26T12:43:07.865Z,,,,,,,,,,,,,,,,54,,,,,,,,,,,,,,348.3089999992517,,response,,,100,,,,,,Space,keypress(Space),,,,,-- --- time --- ------ ----- ------- ---- -- --- ------- --<br>------- ---------- ------ -- ----- -- ----- -- ---- ------<br>--- ----- --- --- ------ -------- ----- --- ------ ----- --<br>----- ----- ---------- --- --- ------ ------ ---- -- ------<br>------- --- ------ ----- --- ---- ------- -- ---- --- --<br>------- ------,107811.5,107810.69999999925,107445.722,107459.89999999851,107462.391,107812.733,,2,time
screen,html.Screen,0_2_1_1_3,2021-11-26T12:43:08.241Z,,,,,,,,,,,,,,,,54,,,,,,,,,,,,,,374.0669999988895,,response,,,100,,,,,,Space,keypress(Space),,,,,-- --- ---- the ------ ----- ------- ---- -- --- ------- --<br>------- ---------- ------ -- ----- -- ----- -- ---- ------<br>--- ----- --- --- ------ -------- ----- --- ------ ----- --<br>----- ----- ---------- --- --- ------ ------ ---- -- ------<br>------- --- ------ ----- --- ---- ------- -- ---- --- --<br>------- ------,108187.5,108186.79999999888,107796.063,107811.79999999888,107812.733,108196.164,,3,the
screen,html.Screen,0_2_1_1_4,2021-11-26T12:43:08.569Z,,,,,,,,,,,,,,,,54,,,,,,,,,,,,,,318.53599999925063,,response,,,100,,,,,,Space,keypress(Space),,,,,-- --- ---- --- French ----- ------- ---- -- --- ------- --<br>------- ---------- ------ -- ----- -- ----- -- ---- ------<br>--- ----- --- --- ------ -------- ----- --- ------ ----- --<br>----- ----- ---------- --- --- ------ ------ ---- -- ------<br>------- --- ------ ----- --- ---- ------- -- ---- --- --<br>------- ------,108515.5,108514.69999999925,108179.494,108187.89999999851,108196.164,108529.624,,4,French
screen,html.Screen,0_2_1_1_5,2021-11-26T12:43:08.913Z,,,,,,,,,,,,,,,,54,,,,,,,,,,,,,,329.0759999992588,,response,,,100,,,,,,Space,keypress(Space),,,,,-- --- ---- --- ------ crown ------- ---- -- --- ------- --<br>------- ---------- ------ -- ----- -- ----- -- ---- ------<br>--- ----- --- --- ------ -------- ----- --- ------ ----- --<br>----- ----- ---------- --- --- ------ ------ ---- -- ------<br>------- --- ------ ----- --- ---- ------- -- ---- --- --<br>------- ------,108859.5,108858.69999999925,108512.953,108515.69999999925,108529.624,108863.12,,5,crown
screen,html.Screen,0_2_1_1_6,2021-11-26T12:43:09.273Z,,,,,,,,,,,,,,,,54,,,,,,,,,,,,,,355.4799999996321,,response,,,100,,,,,,Space,keypress(Space),,,,,-- --- ---- --- ------ ----- secured ---- -- --- ------- --<br>------- ---------- ------ -- ----- -- ----- -- ---- ------<br>--- ----- --- --- ------ -------- ----- --- ------ ----- --<br>----- ----- ---------- --- --- ------ ------ ---- -- ------<br>------- --- ------ ----- --- ---- ------- -- ---- --- --<br>------- ------,109219.5,109218.59999999963,108846.448,108859.69999999925,108863.12,109229.67,,6,secured
screen,html.Screen,0_2_1_1_7,2021-11-26T12:43:09.641Z,,,,,,,,,,,,,,,,54,,,,,,,,,,,,,,356.9299999996292,,response,,,100,,,,,,Space,keypress(Space),,,,,-- --- ---- --- ------ ----- ------- much -- --- ------- --<br>------- ---------- ------ -- ----- -- ----- -- ---- ------<br>--- ----- --- --- ------ -------- ----- --- ------ ----- --<br>----- ----- ---------- --- --- ------ ------ ---- -- ------<br>------- --- ------ ----- --- ---- ------- -- ---- --- --<br>------- ------,109587.39999999851,109586.59999999963,109213.002,109219.69999999925,109229.67,109596.679,,7,much
screen,html.Screen,0_2_1_1_8,2021-11-26T12:43:09.937Z,,,,,,,,,,,,,,,,54,,,,,,,,,,,,,,285.92099999962375,,response,,,100,,,,,,Space,keypress(Space),,,,,-- --- ---- --- ------ ----- ------- ---- of --- ------- --<br>------- ---------- ------ -- ----- -- ----- -- ---- ------<br>--- ----- --- --- ------ -------- ----- --- ------ ----- --<br>----- ----- ---------- --- --- ------ ------ ---- -- ------<br>------- --- ------ ----- --- ---- ------- -- ---- --- --<br>------- ------,109883.39999999851,109882.59999999963,109580.006,109587.69999999925,109596.679,109896.592,,8,of
screen,html.Screen,0_2_1_1_9,2021-11-26T12:43:10.241Z,,,,,,,,,,,,,,,,54,,,,,,,,,,,,,,290.0079999996233,,response,,,100,,,,,,Space,keypress(Space),,,,,-- --- ---- --- ------ ----- ------- ---- -- its ------- --<br>------- ---------- ------ -- ----- -- ----- -- ---- ------<br>--- ----- --- --- ------ -------- ----- --- ------ ----- --<br>----- ----- ---------- --- --- ------ ------ ---- -- ------<br>------- --- ------ ----- --- ---- ------- -- ---- --- --<br>------- ------,110187.39999999851,110186.59999999963,109879.923,109883.59999999963,109896.592,110196.637,,9,its
screen,html.Screen,0_2_1_1_10,2021-11-26T12:43:10.553Z,,,,,,,,,,,,,,,,54,,,,,,,,,,,,,,301.86299999999756,,response,,,100,,,,,,Space,keypress(Space),,,,,-- --- ---- --- ------ ----- ------- ---- -- --- revenue --<br>------- ---------- ------ -- ----- -- ----- -- ---- ------<br>--- ----- --- --- ------ -------- ----- --- ------ ----- --<br>----- ----- ---------- --- --- ------ ------ ---- -- ------<br>------- --- ------ ----- --- ---- ------- -- ---- --- --<br>------- ------,110499.29999999888,110498.5,110179.968,110187.59999999963,110196.637,110513.57,,10,revenue
screen,html.Screen,0_2_1_1_11,2021-11-26T12:43:10.961Z,,,,,,,,,,,,,,,,54,,,,,,,,,,,,,,392.929999999993,,response,,,100,,,,,,Space,keypress(Space),,,,,-- --- ---- --- ------ ----- ------- ---- -- --- ------- by<br>------- ---------- ------ -- ----- -- ----- -- ---- ------<br>--- ----- --- --- ------ -------- ----- --- ------ ----- --<br>----- ----- ---------- --- --- ------ ------ ---- -- ------<br>------- --- ------ ----- --- ---- ------- -- ---- --- --<br>------- ------,110907.29999999888,110906.5,110496.897,110499.59999999963,110513.57,110913.544,,11,by
screen,html.Screen,0_2_1_1_12,2021-11-26T12:43:11.401Z,,,,,,,,,,,,,,,,54,,,,,,,,,,,,,,432.9560000000056,,response,,,100,,,,,,Space,keypress(Space),,,,,-- --- ---- --- ------ ----- ------- ---- -- --- ------- --<br>issuing ---------- ------ -- ----- -- ----- -- ---- ------<br>--- ----- --- --- ------ -------- ----- --- ------ ----- --<br>----- ----- ---------- --- --- ------ ------ ---- -- ------<br>------- --- ------ ----- --- ---- ------- -- ---- --- --<br>------- ------,111347.39999999851,111346.5,110896.874,110907.5,110913.544,111363.653,,12,issuing
screen,html.Screen,0_2_1_1_13,2021-11-26T12:43:11.961Z,,,,,,,,,,,,,,,,54,,,,,,,,,,,,,,543.1469999988767,,response,,,100,,,,,,Space,keypress(Space),,,,,-- --- ---- --- ------ ----- ------- ---- -- --- ------- --<br>------- government ------ -- ----- -- ----- -- ---- ------<br>--- ----- --- --- ------ -------- ----- --- ------ ----- --<br>----- ----- ---------- --- --- ------ ------ ---- -- ------<br>------- --- ------ ----- --- ---- ------- -- ---- --- --<br>------- ------,111907.59999999963,111906.79999999888,111346.983,111347.59999999963,111363.653,111913.686,,13,government
screen,html.Screen,0_2_1_1_14,2021-11-26T12:43:12.401Z,,,,,,,,,,,,,,,,54,,,,,,,,,,,,,,432.8139999999985,,response,,,100,,,,,,Space,keypress(Space),,,,,-- --- ---- --- ------ ----- ------- ---- -- --- ------- --<br>------- ---------- bonds. -- ----- -- ----- -- ---- ------<br>--- ----- --- --- ------ -------- ----- --- ------ ----- --<br>----- ----- ---------- --- --- ------ ------ ---- -- ------<br>------- --- ------ ----- --- ---- ------- -- ---- --- --<br>------- ------,112347.29999999888,112346.5,111897.017,111907.89999999851,111913.686,112364.028,,14,bonds.
screen,html.Screen,0_2_1_1_15,2021-11-26T12:43:12.841Z,,,,,,,,,,,,,,,,54,,,,,,,,,,,,,,422.3719999985042,,response,,,100,,,,,,Space,keypress(Space),,,,,-- --- ---- --- ------ ----- ------- ---- -- --- ------- --<br>------- ---------- ------ In ----- -- ----- -- ---- ------<br>--- ----- --- --- ------ -------- ----- --- ------ ----- --<br>----- ----- ---------- --- --- ------ ------ ---- -- ------<br>------- --- ------ ----- --- ---- ------- -- ---- --- --<br>------- ------,112787.19999999925,112786.39999999851,112347.356,112347.59999999963,112364.028,112797.252,,15,In
screen,html.Screen,0_2_1_1_16,2021-11-26T12:43:13.177Z,,,,,,,,,,,,,,,,54,,,,,,,,,,,,,,325.14799999851675,,response,,,100,,,,,,Space,keypress(Space),,,,,"-- --- ---- --- ------ ----- ------- ---- -- --- ------- --<br>------- ---------- ------ -- 1727, -- ----- -- ---- ------<br>--- ----- --- --- ------ -------- ----- --- ------ ----- --<br>----- ----- ---------- --- --- ------ ------ ---- -- ------<br>------- --- ------ ----- --- ---- ------- -- ---- --- --<br>------- ------",113123.19999999925,113122.39999999851,112780.583,112787.5,112797.252,113130.866,,16,"1727,"
screen,html.Screen,0_2_1_1_17,2021-11-26T12:43:13.609Z,,,,,,,,,,,,,,,,54,,,,,,,,,,,,,,423.53399999851536,,response,,,100,,,,,,Space,keypress(Space),,,,,-- --- ---- --- ------ ----- ------- ---- -- --- ------- --<br>------- ---------- ------ -- ----- in ----- -- ---- ------<br>--- ----- --- --- ------ -------- ----- --- ------ ----- --<br>----- ----- ---------- --- --- ------ ------ ---- -- ------<br>------- --- ------ ----- --- ---- ------- -- ---- --- --<br>------- ------,113555.19999999925,113554.39999999851,113114.194,113123.39999999851,113130.866,113564.222,,17,in
screen,html.Screen,0_2_1_1_18,2021-11-26T12:43:14.361Z,,,,,,,,,,,,,,,,54,,,,,,,,,,,,,,742.0779999988881,,response,,,100,,,,,,Space,keypress(Space),,,,,-- --- ---- --- ------ ----- ------- ---- -- --- ------- --<br>------- ---------- ------ -- ----- -- order -- ---- ------<br>--- ----- --- --- ------ -------- ----- --- ------ ----- --<br>----- ----- ---------- --- --- ------ ------ ---- -- ------<br>------- --- ------ ----- --- ---- ------- -- ---- --- --<br>------- ------,114307.09999999963,114306.29999999888,113547.552,113555.39999999851,113564.222,114314.368,,18,order
screen,html.Screen,0_2_1_1_19,2021-11-26T12:43:14.881Z,,,,,,,,,,,,,,,,54,,,,,,,,,,,,,,512.0319999985077,,response,,,100,,,,,,Space,keypress(Space),,,,,-- --- ---- --- ------ ----- ------- ---- -- --- ------- --<br>------- ---------- ------ -- ----- -- ----- to ---- ------<br>--- ----- --- --- ------ -------- ----- --- ------ ----- --<br>----- ----- ---------- --- --- ------ ------ ---- -- ------<br>------- --- ------ ----- --- ---- ------- -- ---- --- --<br>------- ------,114827.09999999963,114826.39999999851,114297.698,114307.29999999888,114314.368,114831.257,,19,to
screen,html.Screen,0_2_1_1_20,2021-11-26T12:43:15.193Z,,,,,,,,,,,,,,,,54,,,,,,,,,,,,,,307.0429999988846,,response,,,100,,,,,,Space,keypress(Space),,,,,-- --- ---- --- ------ ----- ------- ---- -- --- ------- --<br>------- ---------- ------ -- ----- -- ----- -- save ------<br>--- ----- --- --- ------ -------- ----- --- ------ ----- --<br>----- ----- ---------- --- --- ------ ------ ---- -- ------<br>------- --- ------ ----- --- ---- ------- -- ---- --- --<br>------- ------,115139.09999999963,115138.29999999888,114814.586,114827.39999999851,114831.257,115147.954,,20,save
screen,html.Screen,0_2_1_1_21,2021-11-26T12:43:15.536Z,,,,,,,,,,,,,,,,54,,,,,,,,,,,,,,333.945999998512,,response,,,100,,,,,,Space,keypress(Space),,,,,"-- --- ---- --- ------ ----- ------- ---- -- --- ------- --<br>------- ---------- ------ -- ----- -- ----- -- ---- money,<br>--- ----- --- --- ------ -------- ----- --- ------ ----- --<br>----- ----- ---------- --- --- ------ ------ ---- -- ------<br>------- --- ------ ----- --- ---- ------- -- ---- --- --<br>------- ------",115482.09999999963,115481.89999999851,115131.284,115139.39999999851,115147.954,115498.029,,21,"money,"
screen,html.Screen,0_2_1_1_22,2021-11-26T12:43:15.904Z,,,,,,,,,,,,,,,,54,,,,,,,,,,,,,,351.7709999988874,,response,,,100,,,,,,Space,keypress(Space),,,,,-- --- ---- --- ------ ----- ------- ---- -- --- ------- --<br>------- ---------- ------ -- ----- -- ----- -- ---- ------<br>the ----- --- --- ------ -------- ----- --- ------ ----- --<br>----- ----- ---------- --- --- ------ ------ ---- -- ------<br>------- --- ------ ----- --- ---- ------- -- ---- --- --<br>------- ------,115850.09999999963,115849.79999999888,115481.359,115482.19999999925,115498.029,115864.784,,22,the
screen,html.Screen,0_2_1_1_23,2021-11-26T12:43:16.249Z,,,,,,,,,,,,,,,,54,,,,,,,,,,,,,,329.9159999992553,,response,,,100,,,,,,Space,keypress(Space),,,,,-- --- ---- --- ------ ----- ------- ---- -- --- ------- --<br>------- ---------- ------ -- ----- -- ----- -- ---- ------<br>--- state --- --- ------ -------- ----- --- ------ ----- --<br>----- ----- ---------- --- --- ------ ------ ---- -- ------<br>------- --- ------ ----- --- ---- ------- -- ---- --- --<br>------- ------,116195.39999999851,116194.69999999925,115848.113,115850.09999999963,115864.784,116197.98,,23,state
screen,html.Screen,0_2_1_1_24,2021-11-26T12:43:16.601Z,,,,,,,,,,,,,,,,54,,,,,,,,,,,,,,348.219999999259,,response,,,100,,,,,,Space,keypress(Space),,,,,-- --- ---- --- ------ ----- ------- ---- -- --- ------- --<br>------- ---------- ------ -- ----- -- ----- -- ---- ------<br>--- ----- cut --- ------ -------- ----- --- ------ ----- --<br>----- ----- ---------- --- --- ------ ------ ---- -- ------<br>------- --- ------ ----- --- ---- ------- -- ---- --- --<br>------- ------,116547,116546.19999999925,116181.314,116195.69999999925,116197.98,116548.227,,24,cut
screen,html.Screen,0_2_1_1_25,2021-11-26T12:43:16.929Z,,,,,,,,,,,,,,,,54,,,,,,,,,,,,,,325.972999999256,,response,,,100,,,,,,Space,keypress(Space),,,,,-- --- ---- --- ------ ----- ------- ---- -- --- ------- --<br>------- ---------- ------ -- ----- -- ----- -- ---- ------<br>--- ----- --- the ------ -------- ----- --- ------ ----- --<br>----- ----- ---------- --- --- ------ ------ ---- -- ------<br>------- --- ------ ----- --- ---- ------- -- ---- --- --<br>------- ------,116875,116874.19999999925,116531.557,116547.19999999925,116548.227,116881.816,,25,the
screen,html.Screen,0_2_1_1_26,2021-11-26T12:43:17.225Z,,,,,,,,,,,,,,,,54,,,,,,,,,,,,,,288.2839999996213,,response,,,100,,,,,,Space,keypress(Space),,,,,-- --- ---- --- ------ ----- ------- ---- -- --- ------- --<br>------- ---------- ------ -- ----- -- ----- -- ---- ------<br>--- ----- --- --- bonds' -------- ----- --- ------ ----- --<br>----- ----- ---------- --- --- ------ ------ ---- -- ------<br>------- --- ------ ----- --- ---- ------- -- ---- --- --<br>------- ------,117171,117170.09999999963,116865.143,116875.29999999888,116881.816,117181.791,,26,bonds'
screen,html.Screen,0_2_1_1_27,2021-11-26T12:43:17.577Z,,,,,,,,,,,,,,,,54,,,,,,,,,,,,,,340.30899999963003,,response,,,100,,,,,,Space,keypress(Space),,,,,-- --- ---- --- ------ ----- ------- ---- -- --- ------- --<br>------- ---------- ------ -- ----- -- ----- -- ---- ------<br>--- ----- --- --- ------ interest ----- --- ------ ----- --<br>----- ----- ---------- --- --- ------ ------ ---- -- ------<br>------- --- ------ ----- --- ---- ------- -- ---- --- --<br>------- ------,117523,117522.09999999963,117165.121,117171.19999999925,117181.791,117531.825,,27,interest
screen,html.Screen,0_2_1_1_28,2021-11-26T12:43:17.921Z,,,,,,,,,,,,,,,,54,,,,,,,,,,,,,,334.2749999996304,,response,,,100,,,,,,Space,keypress(Space),,,,,-- --- ---- --- ------ ----- ------- ---- -- --- ------- --<br>------- ---------- ------ -- ----- -- ----- -- ---- ------<br>--- ----- --- --- ------ -------- rate. --- ------ ----- --<br>----- ----- ---------- --- --- ------ ------ ---- -- ------<br>------- --- ------ ----- --- ---- ------- -- ---- --- --<br>------- ------,117866.89999999851,117866.09999999963,117515.156,117523.19999999925,117531.825,117882.001,,28,rate.
screen,html.Screen,0_2_1_1_29,2021-11-26T12:43:18.257Z,,,,,,,,,,,,,,,,54,,,,,,,,,,,,,,320.09899999962363,,response,,,100,,,,,,Space,keypress(Space),,,,,-- --- ---- --- ------ ----- ------- ---- -- --- ------- --<br>------- ---------- ------ -- ----- -- ----- -- ---- ------<br>--- ----- --- --- ------ -------- ----- The ------ ----- --<br>----- ----- ---------- --- --- ------ ------ ---- -- ------<br>------- --- ------ ----- --- ---- ------- -- ---- --- --<br>------- ------,118202.89999999851,118202.09999999963,117865.33,117867.09999999963,117882.001,118215.371,,29,The
screen,html.Screen,0_2_1_1_30,2021-11-26T12:43:18.593Z,,,,,,,,,,,,,,,,54,,,,,,,,,,,,,,322.7289999996283,,response,,,100,,,,,,Space,keypress(Space),,,,,-- --- ---- --- ------ ----- ------- ---- -- --- ------- --<br>------- ---------- ------ -- ----- -- ----- -- ---- ------<br>--- ----- --- --- ------ -------- ----- --- market ----- --<br>----- ----- ---------- --- --- ------ ------ ---- -- ------<br>------- --- ------ ----- --- ---- ------- -- ---- --- --<br>------- ------,118538.89999999851,118538.09999999963,118198.701,118203.09999999963,118215.371,118548.826,,30,market
screen,html.Screen,0_2_1_1_31,2021-11-26T12:43:18.905Z,,,,,,,,,,,,,,,,54,,,,,,,,,,,,,,301.27399999962654,,response,,,100,,,,,,Space,keypress(Space),,,,,-- --- ---- --- ------ ----- ------- ---- -- --- ------- --<br>------- ---------- ------ -- ----- -- ----- -- ---- ------<br>--- ----- --- --- ------ -------- ----- --- ------ value --<br>----- ----- ---------- --- --- ------ ------ ---- -- ------<br>------- --- ------ ----- --- ---- ------- -- ---- --- --<br>------- ------,118850.89999999851,118850.09999999963,118532.155,118539.09999999963,118548.826,118865.428,,31,value
screen,html.Screen,0_2_1_1_32,2021-11-26T12:43:19.232Z,,,,,,,,,,,,,,,,54,,,,,,,,,,,,,,312.6719999996276,,response,,,100,,,,,,Space,keypress(Space),,,,,-- --- ---- --- ------ ----- ------- ---- -- --- ------- --<br>------- ---------- ------ -- ----- -- ----- -- ---- ------<br>--- ----- --- --- ------ -------- ----- --- ------ ----- of<br>----- ----- ---------- --- --- ------ ------ ---- -- ------<br>------- --- ------ ----- --- ---- ------- -- ---- --- --<br>------- ------,119178.79999999888,119178.09999999963,118848.76,118851.09999999963,118865.428,119182.356,,32,of
screen,html.Screen,0_2_1_1_33,2021-11-26T12:43:19.592Z,,,,,,,,,,,,,,,,54,,,,,,,,,,,,,,355.64400000000023,,response,,,100,,,,,,Space,keypress(Space),,,,,-- --- ---- --- ------ ----- ------- ---- -- --- ------- --<br>------- ---------- ------ -- ----- -- ----- -- ---- ------<br>--- ----- --- --- ------ -------- ----- --- ------ ----- --<br>these ----- ---------- --- --- ------ ------ ---- -- ------<br>------- --- ------ ----- --- ---- ------- -- ---- --- --<br>------- ------,119538.79999999888,119538,119165.684,119179,119182.356,119549.032,,33,these
screen,html.Screen,0_2_1_1_34,2021-11-26T12:43:19.960Z,,,,,,,,,,,,,,,,54,,,,,,,,,,,,,,356.9679999999935,,response,,,100,,,,,,Space,keypress(Space),,,,,-- --- ---- --- ------ ----- ------- ---- -- --- ------- --<br>------- ---------- ------ -- ----- -- ----- -- ---- ------<br>--- ----- --- --- ------ -------- ----- --- ------ ----- --<br>----- bonds ---------- --- --- ------ ------ ---- -- ------<br>------- --- ------ ----- --- ---- ------- -- ---- --- --<br>------- ------,119906.79999999888,119906,119532.362,119539,119549.032,119915.84,,34,bonds
screen,html.Screen,0_2_1_1_35,2021-11-26T12:43:20.297Z,,,,,,,,,,,,,,,,54,,,,,,,,,,,,,,326.1600000000035,,response,,,100,,,,,,Space,keypress(Space),,,,,"-- --- ---- --- ------ ----- ------- ---- -- --- ------- --<br>------- ---------- ------ -- ----- -- ----- -- ---- ------<br>--- ----- --- --- ------ -------- ----- --- ------ ----- --<br>----- ----- plummeted, --- --- ------ ------ ---- -- ------<br>------- --- ------ ----- --- ---- ------- -- ---- --- --<br>------- ------",120242.79999999888,120242,119899.169,119907.09999999963,119915.84,120249.202,,35,"plummeted,"
screen,html.Screen,0_2_1_1_36,2021-11-26T12:43:20.688Z,,,,,,,,,,,,,,,,54,,,,,,,,,,,,,,384.7979999999952,,response,,,100,,,,,,Space,keypress(Space),,,,,-- --- ---- --- ------ ----- ------- ---- -- --- ------- --<br>------- ---------- ------ -- ----- -- ----- -- ---- ------<br>--- ----- --- --- ------ -------- ----- --- ------ ----- --<br>----- ----- ---------- and --- ------ ------ ---- -- ------<br>------- --- ------ ----- --- ---- ------- -- ---- --- --<br>------- ------,120634.69999999925,120634,120232.532,120243.09999999963,120249.202,120649.315,,36,and
screen,html.Screen,0_2_1_1_37,2021-11-26T12:43:21.088Z,,,,,,,,,,,,,,,,54,,,,,,,,,,,,,,384.58499999850756,,response,,,100,,,,,,Space,keypress(Space),,,,,-- --- ---- --- ------ ----- ------- ---- -- --- ------- --<br>------- ---------- ------ -- ----- -- ----- -- ---- ------<br>--- ----- --- --- ------ -------- ----- --- ------ ----- --<br>----- ----- ---------- --- the ------ ------ ---- -- ------<br>------- --- ------ ----- --- ---- ------- -- ---- --- --<br>------- ------,121034.69999999925,121033.89999999851,120632.645,120635.09999999963,120649.315,121049.452,,37,the
screen,html.Screen,0_2_1_1_38,2021-11-26T12:43:21.448Z,,,,,,,,,,,,,,,,54,,,,,,,,,,,,,,344.4479999985051,,response,,,100,,,,,,Space,keypress(Space),,,,,-- --- ---- --- ------ ----- ------- ---- -- --- ------- --<br>------- ---------- ------ -- ----- -- ----- -- ---- ------<br>--- ----- --- --- ------ -------- ----- --- ------ ----- --<br>----- ----- ---------- --- --- market ------ ---- -- ------<br>------- --- ------ ----- --- ---- ------- -- ---- --- --<br>------- ------,121394.59999999963,121393.89999999851,121032.781,121034.89999999851,121049.452,121399.389,,38,market
screen,html.Screen,0_2_1_1_39,2021-11-26T12:43:21.792Z,,,,,,,,,,,,,,,,54,,,,,,,,,,,,,,338.5109999985143,,response,,,100,,,,,,Space,keypress(Space),,,,,-- --- ---- --- ------ ----- ------- ---- -- --- ------- --<br>------- ---------- ------ -- ----- -- ----- -- ---- ------<br>--- ----- --- --- ------ -------- ----- --- ------ ----- --<br>----- ----- ---------- --- --- ------ became ---- -- ------<br>------- --- ------ ----- --- ---- ------- -- ---- --- --<br>------- ------,121738.69999999925,121737.89999999851,121382.721,121394.89999999851,121399.389,121749.631,,39,became
screen,html.Screen,0_2_1_1_40,2021-11-26T12:43:22.108Z,,,,,,,,,,,,,,,,54,,,,,,,,,,,,,,300.26899999851594,,response,,,100,,,,,,Space,keypress(Space),,,,,-- --- ---- --- ------ ----- ------- ---- -- --- ------- --<br>------- ---------- ------ -- ----- -- ----- -- ---- ------<br>--- ----- --- --- ------ -------- ----- --- ------ ----- --<br>----- ----- ---------- --- --- ------ ------ wary -- ------<br>------- --- ------ ----- --- ---- ------- -- ---- --- --<br>------- ------,122050.69999999925,122049.89999999851,121732.96,121739,121749.631,122066.38,,40,wary
screen,html.Screen,0_2_1_1_41,2021-11-26T12:43:22.436Z,,,,,,,,,,,,,,,,54,,,,,,,,,,,,,,311.41999999887776,,response,,,100,,,,,,Space,keypress(Space),,,,,-- --- ---- --- ------ ----- ------- ---- -- --- ------- --<br>------- ---------- ------ -- ----- -- ----- -- ---- ------<br>--- ----- --- --- ------ -------- ----- --- ------ ----- --<br>----- ----- ---------- --- --- ------ ------ ---- of ------<br>------- --- ------ ----- --- ---- ------- -- ---- --- --<br>------- ------,122378.59999999963,122377.79999999888,122049.709,122051,122066.38,122383.071,,41,of
screen,html.Screen,0_2_1_1_42,2021-11-26T12:43:22.748Z,,,,,,,,,,,,,,,,54,,,,,,,,,,,,,,306.8289999985136,,response,,,100,,,,,,Space,keypress(Space),,,,,-- --- ---- --- ------ ----- ------- ---- -- --- ------- --<br>------- ---------- ------ -- ----- -- ----- -- ---- ------<br>--- ----- --- --- ------ -------- ----- --- ------ ----- --<br>----- ----- ---------- --- --- ------ ------ ---- -- French<br>------- --- ------ ----- --- ---- ------- -- ---- --- --<br>------- ------,122690.59999999963,122689.89999999851,122366.401,122380.19999999925,122383.071,122699.726,,42,French
screen,html.Screen,0_2_1_1_43,2021-11-26T12:43:23.108Z,,,,,,,,,,,,,,,,54,,,,,,,,,,,,,,350.0739999988873,,response,,,100,,,,,,Space,keypress(Space),,,,,-- --- ---- --- ------ ----- ------- ---- -- --- ------- --<br>------- ---------- ------ -- ----- -- ----- -- ---- ------<br>--- ----- --- --- ------ -------- ----- --- ------ ----- --<br>----- ----- ---------- --- --- ------ ------ ---- -- ------<br>credit. --- ------ ----- --- ---- ------- -- ---- --- --<br>------- ------,123050.59999999963,123049.79999999888,122683.058,122690.79999999888,122699.726,123066.651,,43,credit.
screen,html.Screen,0_2_1_1_44,2021-11-26T12:43:23.411Z,,,,,,,,,,,,,,,,54,,,,,,,,,,,,,,287.1489999988844,,response,,,100,,,,,,Space,keypress(Space),,,,,-- --- ---- --- ------ ----- ------- ---- -- --- ------- --<br>------- ---------- ------ -- ----- -- ----- -- ---- ------<br>--- ----- --- --- ------ -------- ----- --- ------ ----- --<br>----- ----- ---------- --- --- ------ ------ ---- -- ------<br>------- The ------ ----- --- ---- ------- -- ---- --- --<br>------- ------,123354.5,123353.79999999888,123049.979,123050.79999999888,123066.651,123366.702,,44,The
screen,html.Screen,0_2_1_1_45,2021-11-26T12:43:23.740Z,,,,,,,,,,,,,,,,54,,,,,,,,,,,,,,315.09799999887764,,response,,,100,,,,,,Space,keypress(Space),,,,,-- --- ---- --- ------ ----- ------- ---- -- --- ------- --<br>------- ---------- ------ -- ----- -- ----- -- ---- ------<br>--- ----- --- --- ------ -------- ----- --- ------ ----- --<br>----- ----- ---------- --- --- ------ ------ ---- -- ------<br>------- --- French ----- --- ---- ------- -- ---- --- --<br>------- ------,123682.59999999963,123681.79999999888,123350.031,123354.79999999888,123366.702,123700.063,,45,French
screen,html.Screen,0_2_1_1_46,2021-11-26T12:43:24.051Z,,,,,,,,,,,,,,,,54,,,,,,,,,,,,,,293.73699999888777,,response,,,100,,,,,,Space,keypress(Space),,,,,-- --- ---- --- ------ ----- ------- ---- -- --- ------- --<br>------- ---------- ------ -- ----- -- ----- -- ---- ------<br>--- ----- --- --- ------ -------- ----- --- ------ ----- --<br>----- ----- ---------- --- --- ------ ------ ---- -- ------<br>------- --- ------ state --- ---- ------- -- ---- --- --<br>------- ------,123994.5,123993.79999999888,123683.393,123682.79999999888,123700.063,124000.152,,46,state
screen,html.Screen,0_2_1_1_47,2021-11-26T12:43:24.371Z,,,,,,,,,,,,,,,,54,,,,,,,,,,,,,,313.5479999992531,,response,,,100,,,,,,Space,keypress(Space),,,,,-- --- ---- --- ------ ----- ------- ---- -- --- ------- --<br>------- ---------- ------ -- ----- -- ----- -- ---- ------<br>--- ----- --- --- ------ -------- ----- --- ------ ----- --<br>----- ----- ---------- --- --- ------ ------ ---- -- ------<br>------- --- ------ ----- was ---- ------- -- ---- --- --<br>------- ------,124314.5,124313.69999999925,123983.482,123994.69999999925,124000.152,124316.926,,47,was
screen,html.Screen,0_2_1_1_48,2021-11-26T12:43:24.675Z,,,,,,,,,,,,,,,,54,,,,,,,,,,,,,,300.7739999992482,,response,,,100,,,,,,Space,keypress(Space),,,,,-- --- ---- --- ------ ----- ------- ---- -- --- ------- --<br>------- ---------- ------ -- ----- -- ----- -- ---- ------<br>--- ----- --- --- ------ -------- ----- --- ------ ----- --<br>----- ----- ---------- --- --- ------ ------ ---- -- ------<br>------- --- ------ ----- --- left ------- -- ---- --- --<br>------- ------,124618.29999999888,124617.69999999925,124300.255,124314.69999999925,124316.926,124633.65,,48,left
screen,html.Screen,0_2_1_1_49,2021-11-26T12:43:24.971Z,,,,,,,,,,,,,,,,54,,,,,,,,,,,,,,280.04999999926076,,response,,,100,,,,,,Space,keypress(Space),,,,,-- --- ---- --- ------ ----- ------- ---- -- --- ------- --<br>------- ---------- ------ -- ----- -- ----- -- ---- ------<br>--- ----- --- --- ------ -------- ----- --- ------ ----- --<br>----- ----- ---------- --- --- ------ ------ ---- -- ------<br>------- --- ------ ----- --- ---- without -- ---- --- --<br>------- ------,124914.39999999851,124913.69999999925,124616.98,124618.59999999963,124633.65,124917.043,,49,without
screen,html.Screen,0_2_1_1_50,2021-11-26T12:43:25.260Z,,,,,,,,,,,,,,,,54,,,,,,,,,,,,,,284.7569999988773,,response,,,100,,,,,,Space,keypress(Space),,,,,-- --- ---- --- ------ ----- ------- ---- -- --- ------- --<br>------- ---------- ------ -- ----- -- ----- -- ---- ------<br>--- ----- --- --- ------ -------- ----- --- ------ ----- --<br>----- ----- ---------- --- --- ------ ------ ---- -- ------<br>------- --- ------ ----- --- ---- ------- an ---- --- --<br>------- ------,125202.59999999963,125201.79999999888,124900.373,124914.59999999963,124917.043,125217.152,,50,an
screen,html.Screen,0_2_1_1_51,2021-11-26T12:43:25.555Z,,,,,,,,,,,,,,,,54,,,,,,,,,,,,,,280.4479999996256,,response,,,100,,,,,,Space,keypress(Space),,,,,-- --- ---- --- ------ ----- ------- ---- -- --- ------- --<br>------- ---------- ------ -- ----- -- ----- -- ---- ------<br>--- ----- --- --- ------ -------- ----- --- ------ ----- --<br>----- ----- ---------- --- --- ------ ------ ---- -- ------<br>------- --- ------ ----- --- ---- ------- -- easy --- --<br>------- ------,125498.39999999851,125497.59999999963,125200.481,125202.79999999888,125217.152,125500.514,,51,easy
screen,html.Screen,0_2_1_1_52,2021-11-26T12:43:25.851Z,,,,,,,,,,,,,,,,54,,,,,,,,,,,,,,293.18599999925937,,response,,,100,,,,,,Space,keypress(Space),,,,,-- --- ---- --- ------ ----- ------- ---- -- --- ------- --<br>------- ---------- ------ -- ----- -- ----- -- ---- ------<br>--- ----- --- --- ------ -------- ----- --- ------ ----- --<br>----- ----- ---------- --- --- ------ ------ ---- -- ------<br>------- --- ------ ----- --- ---- ------- -- ---- way --<br>------- ------,125794.39999999851,125793.69999999925,125483.844,125498.69999999925,125500.514,125800.646,,52,way
screen,html.Screen,0_2_1_1_53,2021-11-26T12:43:26.147Z,,,,,,,,,,,,,,,,54,,,,,,,,,,,,,,288.85400000000664,,response,,,100,,,,,,Space,keypress(Space),,,,,-- --- ---- --- ------ ----- ------- ---- -- --- ------- --<br>------- ---------- ------ -- ----- -- ----- -- ---- ------<br>--- ----- --- --- ------ -------- ----- --- ------ ----- --<br>----- ----- ---------- --- --- ------ ------ ---- -- ------<br>------- --- ------ ----- --- ---- ------- -- ---- --- of<br>------- ------,126090.29999999888,126089.5,125783.975,125794.59999999963,125800.646,126100.671,,53,of
screen,html.Screen,0_2_1_1_54,2021-11-26T12:43:26.452Z,,,,,,,,,,,,,,,,54,,,,,,,,,,,,,,293.3289999999979,,response,,,100,,,,,,Space,keypress(Space),,,,,-- --- ---- --- ------ ----- ------- ---- -- --- ------- --<br>------- ---------- ------ -- ----- -- ----- -- ---- ------<br>--- ----- --- --- ------ -------- ----- --- ------ ----- --<br>----- ----- ---------- --- --- ------ ------ ---- -- ------<br>------- --- ------ ----- --- ---- ------- -- ---- --- --<br>raising ------,126394.79999999888,126394,126084.001,126090.5,126100.671,126400.628,,54,raising
screen,html.Screen,0_2_1_1_55,2021-11-26T12:43:26.755Z,,,,,,,,,,,,,,,,54,,,,,,,,,,,,,,296.872000000003,,response,,,100,,,,,,Space,keypress(Space),,,,,-- --- ---- --- ------ ----- ------- ---- -- --- ------- --<br>------- ---------- ------ -- ----- -- ----- -- ---- ------<br>--- ----- --- --- ------ -------- ----- --- ------ ----- --<br>----- ----- ---------- --- --- ------ ------ ---- -- ------<br>------- --- ------ ----- --- ---- ------- -- ---- --- --<br>------- money.,126698.29999999888,126697.5,126383.96,126395,126400.628,126700.916,,55,money.
Item 100,flow.Loop,0_2_1_1,2021-11-26T12:43:26.756Z,,,,,,,,,,,,,,,,,,,,,,,,,,,,,,23052.634999999995,,completion,,,,D,,,,,,,,,,silence,,126698.89999999851,126697.5,103628.196,103630.19999999925,103644.865,126700.916,,,
Question 1,html.Screen,0_2_1_2,2021-11-26T12:43:29.419Z,,,,,,,,,,,,,,,,,,,,,,,,,,,true,TRUE,,2660.2839999992575,,response,,,100,D,,,,,TRUE,click #choice-1,,,,silence,,129362.39999999851,129361.19999999925,126684.243,126699.09999999963,126700.916,129368.126,,,
Question 2,html.Screen,0_2_1_3,2021-11-26T12:43:31.251Z,,,,,,,,,,,,,,,,,,,,,,,,,,,false,FALSE,,1824.9739999996236,,response,,,100,D,,,,,TRUE,click #choice-1,,,,silence,,131194.29999999888,131193.09999999963,129351.456,129362.59999999963,129368.126,131201.691,,,
Item 100,flow.Sequence,0_2_1,2021-11-26T12:43:31.252Z,,,,,,,,,,,,,,,,,,,,,,,,,,,,,,37550.42799999962,,completion,,,,,,,,,,,,,,,,131194.59999999963,131193.09999999963,93625.997,93637.39999999851,93642.672,131201.691,,,
End of Practice,html.Page,0_2_2,2021-11-26T12:43:41.236Z,,,,,,,,,,,,,,,,,,,,,,,,,,,,,,9976.809000000008,,form submission,,,,,,,,,,,,,,,,141179.29999999888,141178.5,131185.023,131194.79999999888,131201.691,141187.71,,,
Practice,flow.Sequence,0_2,2021-11-26T12:43:41.237Z,,,,,,,,,,,,,,,,,,,,,,,,,,,,,,91280.224,,completion,,,,,,,,,,,,,,,,141179.79999999888,141178.5,49881.606,49896.39999999851,49898.276,141187.71,,,
Trap_instruction,html.Page,0_3_0,2021-11-26T12:43:41.547Z,,,,,,,,,,,,,,,,,,,,,,,,,,,,,,302.08999999889056,,form submission,,,,,,,,,,,,,,,,141490.3999999985,141489.79999999888,141171.04,141180.09999999963,141187.71,141521.108,,,
trap_trial,html.Screen,0_3_1,2021-11-26T12:43:45.082Z,,,,,,,,,,,,,,,,,,,,,,,,,,,true,1,,3502.99199999962,,response,,,,,,,,,1,click #choice-1,,,,,,145025.5,145024.09999999963,141487.768,141490.69999999925,141521.108,145037.882,,,
end of trap trial,html.Page,0_3_2,2021-11-26T12:43:46.731Z,,,,,,,,,,,,,,,,,,,,,,,,,,,,,,1635.7179999996151,,form submission,,,,,,,,,,,,,,,,146674.19999999925,146673.59999999963,145021.215,145025.79999999888,145037.882,146689.057,,,
Trap 1,flow.Sequence,0_3,2021-11-26T12:43:46.732Z,,,,,,,,,,,,,,,,,,,,,,,,,,,,,,5485.889999999636,,completion,,,,,,,,,,,,,,,,146674.69999999925,146673.59999999963,141171.04,141180,141187.71,146689.057,,,
Standby,html.Page,0_4_0,2021-11-26T12:43:54.732Z,,,,,,,,,,,,,,,,,,,,,,,,,,,,,,8002.170000000013,,timeout,,,,,,,,,,,,,,,,154675.5,154674.556,146672.387,146675.09999999963,146689.057,154691.227,,,
Holding screen,html.Screen,0_4_1_0_0,2021-11-26T12:44:01.734Z,,,,,,,,,,,,,,,,,,,,,,,,,,,,,,7001.682000000001,,timeout,,,,,,,,,,,,,,,,161677.3999999985,161676.238,154674.556,154675.8999999985,154691.227,161692.909,,,
screen,html.Screen,0_4_1_0_1_0,2021-11-26T12:44:02.498Z,,,,,,,,,,,,,,,,11,,,,,,,,,,,,,,746.7909999992407,,response,,,4,D,,,,,Space,keypress(Space),,,,silence,Known -- ---- --- -- --- -------- ------------ ---------- --<br>- ------- ------ --------- -- ------------ -- --- ---- -----<br>------ ---- ---- ------ ------ ------- --- ----- ---------<br>---- --- -------- -------- --- --- -- ------- --- --- -----<br>-- --- ------ ------- --- --- -------- ---- --------- --<br>---------- -- -------- ----------------,162440.69999999925,162439.69999999925,161676.238,161677.79999999888,161692.909,162443.006,,0,Known
screen,html.Screen,0_4_1_0_1_1,2021-11-26T12:44:02.945Z,,,,,,,,,,,,,,,,11,,,,,,,,,,,,,,444.193999999261,,response,,,4,D,,,,,Space,keypress(Space),,,,silence,----- as ---- --- -- --- -------- ------------ ---------- --<br>- ------- ------ --------- -- ------------ -- --- ---- -----<br>------ ---- ---- ------ ------ ------- --- ----- ---------<br>---- --- -------- -------- --- --- -- ------- --- --- -----<br>-- --- ------ ------- --- --- -------- ---- --------- --<br>---------- -- -------- ----------------,162888,162887.19999999925,162426.336,162440.8999999985,162443.006,162893.118,,1,as
screen,html.Screen,0_4_1_0_1_2,2021-11-26T12:44:03.337Z,,,,,,,,,,,,,,,,11,,,,,,,,,,,,,,386.0819999992673,,response,,,4,D,,,,,Space,keypress(Space),,,,silence,----- -- Rapa --- -- --- -------- ------------ ---------- --<br>- ------- ------ --------- -- ------------ -- --- ---- -----<br>------ ---- ---- ------ ------ ------- --- ----- ---------<br>---- --- -------- -------- --- --- -- ------- --- --- -----<br>-- --- ------ ------- --- --- -------- ---- --------- --<br>---------- -- -------- ----------------,163280,163279.19999999925,162876.448,162888.19999999925,162893.118,163293.294,,2,Rapa
screen,html.Screen,0_4_1_0_1_3,2021-11-26T12:44:03.769Z,,,,,,,,,,,,,,,,11,,,,,,,,,,,,,,417.80599999963306,,response,,,4,D,,,,,Space,keypress(Space),,,,silence,----- -- ---- Nui -- --- -------- ------------ ---------- --<br>- ------- ------ --------- -- ------------ -- --- ---- -----<br>------ ---- ---- ------ ------ ------- --- ----- ---------<br>---- --- -------- -------- --- --- -- ------- --- --- -----<br>-- --- ------ ------- --- --- -------- ---- --------- --<br>---------- -- -------- ----------------,163711.8999999985,163711.09999999963,163276.623,163280.19999999925,163293.294,163726.752,,3,Nui
screen,html.Screen,0_4_1_0_1_4,2021-11-26T12:44:04.145Z,,,,,,,,,,,,,,,,11,,,,,,,,,,,,,,360.3479999996198,,response,,,4,D,,,,,Space,keypress(Space),,,,silence,----- -- ---- --- to --- -------- ------------ ---------- --<br>- ------- ------ --------- -- ------------ -- --- ---- -----<br>------ ---- ---- ------ ------ ------- --- ----- ---------<br>---- --- -------- -------- --- --- -- ------- --- --- -----<br>-- --- ------ ------- --- --- -------- ---- --------- --<br>---------- -- -------- ----------------,164087.8999999985,164087.09999999963,163710.081,163712.09999999963,163726.752,164093.411,,4,to
screen,html.Screen,0_4_1_0_1_5,2021-11-26T12:44:04.553Z,,,,,,,,,,,,,,,,11,,,,,,,,,,,,,,401.6889999996347,,response,,,4,D,,,,,Space,keypress(Space),,,,silence,----- -- ---- --- -- the -------- ------------ ---------- --<br>- ------- ------ --------- -- ------------ -- --- ---- -----<br>------ ---- ---- ------ ------ ------- --- ----- ---------<br>---- --- -------- -------- --- --- -- ------- --- --- -----<br>-- --- ------ ------- --- --- -------- ---- --------- --<br>---------- -- -------- ----------------,164495.8999999985,164495.09999999963,164076.742,164088.09999999963,164093.411,164510.225,,5,the
screen,html.Screen,0_4_1_0_1_6,2021-11-26T12:44:04.945Z,,,,,,,,,,,,,,,,11,,,,,,,,,,,,,,376.9749999992491,,response,,,4,D,,,,,Space,keypress(Space),,,,silence,----- -- ---- --- -- --- island's ------------ ---------- --<br>- ------- ------ --------- -- ------------ -- --- ---- -----<br>------ ---- ---- ------ ------ ------- --- ----- ---------<br>---- --- -------- -------- --- --- -- ------- --- --- -----<br>-- --- ------ ------- --- --- -------- ---- --------- --<br>---------- -- -------- ----------------,164887.8999999985,164887.19999999925,164493.555,164496.19999999925,164510.225,164893.658,,6,island's
screen,html.Screen,0_4_1_0_1_7,2021-11-26T12:44:05.345Z,,,,,,,,,,,,,,,,11,,,,,,,,,,,,,,393.54199999925913,,response,,,4,D,,,,,Space,keypress(Space),,,,silence,"----- -- ---- --- -- --- -------- inhabitants, ---------- --<br>- ------- ------ --------- -- ------------ -- --- ---- -----<br>------ ---- ---- ------ ------ ------- --- ----- ---------<br>---- --- -------- -------- --- --- -- ------- --- --- -----<br>-- --- ------ ------- --- --- -------- ---- --------- --<br>---------- -- -------- ----------------",165288.09999999963,165287.19999999925,164876.988,164888.09999999963,164893.658,165293.76,,7,"inhabitants,"
screen,html.Screen,0_4_1_0_1_8,2021-11-26T12:44:05.857Z,,,,,,,,,,,,,,,,11,,,,,,,,,,,,,,505.33999999961816,,response,,,4,D,,,,,Space,keypress(Space),,,,silence,----- -- ---- --- -- --- -------- ------------ Rongorongo --<br>- ------- ------ --------- -- ------------ -- --- ---- -----<br>------ ---- ---- ------ ------ ------- --- ----- ---------<br>---- --- -------- -------- --- --- -- ------- --- --- -----<br>-- --- ------ ------- --- --- -------- ---- --------- --<br>---------- -- -------- ----------------,165799.79999999888,165799.09999999963,165277.09,165288.29999999888,165293.76,165810.536,,8,Rongorongo
screen,html.Screen,0_4_1_0_1_9,2021-11-26T12:44:06.281Z,,,,,,,,,,,,,,,,11,,,,,,,,,,,,,,412.4640000000072,,response,,,4,D,,,,,Space,keypress(Space),,,,silence,----- -- ---- --- -- --- -------- ------------ ---------- is<br>- ------- ------ --------- -- ------------ -- --- ---- -----<br>------ ---- ---- ------ ------ ------- --- ----- ---------<br>---- --- -------- -------- --- --- -- ------- --- --- -----<br>-- --- ------ ------- --- --- -------- ---- --------- --<br>---------- -- -------- ----------------,166223.79999999888,166223,165793.866,165800,165810.536,166227.318,,9,is
screen,html.Screen,0_4_1_0_1_10,2021-11-26T12:44:06.753Z,,,,,,,,,,,,,,,,11,,,,,,,,,,,,,,467.6820000000007,,response,,,4,D,,,,,Space,keypress(Space),,,,silence,----- -- ---- --- -- --- -------- ------------ ---------- --<br>a ------- ------ --------- -- ------------ -- --- ---- -----<br>------ ---- ---- ------ ------ ------- --- ----- ---------<br>---- --- -------- -------- --- --- -- ------- --- --- -----<br>-- --- ------ ------- --- --- -------- ---- --------- --<br>---------- -- -------- ----------------,166695.79999999888,166695,166210.648,166224,166227.318,166710.812,,10,a
screen,html.Screen,0_4_1_0_1_11,2021-11-26T12:44:07.121Z,,,,,,,,,,,,,,,,11,,,,,,,,,,,,,,352.18799999999464,,response,,,4,D,,,,,Space,keypress(Space),,,,silence,----- -- ---- --- -- --- -------- ------------ ---------- --<br>- writing ------ --------- -- ------------ -- --- ---- -----<br>------ ---- ---- ------ ------ ------- --- ----- ---------<br>---- --- -------- -------- --- --- -- ------- --- --- -----<br>-- --- ------ ------- --- --- -------- ---- --------- --<br>---------- -- -------- ----------------,167063.69999999925,167063,166694.141,166696.09999999963,166710.812,167077.406,,11,writing
screen,html.Screen,0_4_1_0_1_12,2021-11-26T12:44:07.553Z,,,,,,,,,,,,,,,,11,,,,,,,,,,,,,,417.49399999852176,,response,,,4,D,,,,,Space,keypress(Space),,,,silence,----- -- ---- --- -- --- -------- ------------ ---------- --<br>- ------- system --------- -- ------------ -- --- ---- -----<br>------ ---- ---- ------ ------ ------- --- ----- ---------<br>---- --- -------- -------- --- --- -- ------- --- --- -----<br>-- --- ------ ------- --- --- -------- ---- --------- --<br>---------- -- -------- ----------------,167495.69999999925,167494.8999999985,167060.738,167064,167077.406,167511.024,,12,system
screen,html.Screen,0_4_1_0_1_13,2021-11-26T12:44:08.121Z,,,,,,,,,,,,,,,,11,,,,,,,,,,,,,,551.7759999988775,,response,,,4,D,,,,,Space,keypress(Space),,,,silence,----- -- ---- --- -- --- -------- ------------ ---------- --<br>- ------- ------ comprised -- ------------ -- --- ---- -----<br>------ ---- ---- ------ ------ ------- --- ----- ---------<br>---- --- -------- -------- --- --- -- ------- --- --- -----<br>-- --- ------ ------- --- --- -------- ---- --------- --<br>---------- -- -------- ----------------,168063.59999999963,168062.79999999888,167494.353,167495.8999999985,167511.024,168077.672,,13,comprised
screen,html.Screen,0_4_1_0_1_14,2021-11-26T12:44:08.577Z,,,,,,,,,,,,,,,,11,,,,,,,,,,,,,,441.2279999985185,,response,,,4,D,,,,,Space,keypress(Space),,,,silence,----- -- ---- --- -- --- -------- ------------ ---------- --<br>- ------- ------ --------- of ------------ -- --- ---- -----<br>------ ---- ---- ------ ------ ------- --- ----- ---------<br>---- --- -------- -------- --- --- -- ------- --- --- -----<br>-- --- ------ ------- --- --- -------- ---- --------- --<br>---------- -- -------- ----------------,168519.69999999925,168518.8999999985,168061.003,168063.8999999985,168077.672,168527.943,,14,of
screen,html.Screen,0_4_1_0_1_15,2021-11-26T12:44:08.929Z,,,,,,,,,,,,,,,,11,,,,,,,,,,,,,,342.9569999985106,,response,,,4,D,,,,,Space,keypress(Space),,,,silence,----- -- ---- --- -- --- -------- ------------ ---------- --<br>- ------- ------ --------- -- pictographs. -- --- ---- -----<br>------ ---- ---- ------ ------ ------- --- ----- ---------<br>---- --- -------- -------- --- --- -- ------- --- --- -----<br>-- --- ------ ------- --- --- -------- ---- --------- --<br>---------- -- -------- ----------------,168871.59999999963,168870.8999999985,168511.272,168519.8999999985,168527.943,168877.98,,15,pictographs.
screen,html.Screen,0_4_1_0_1_16,2021-11-26T12:44:09.945Z,,,,,,,,,,,,,,,,11,,,,,,,,,,,,,,1008.8199999988719,,response,,,4,D,,,,,Space,keypress(Space),,,,silence,----- -- ---- --- -- --- -------- ------------ ---------- --<br>- ------- ------ --------- -- ------------ It --- ---- -----<br>------ ---- ---- ------ ------ ------- --- ----- ---------<br>---- --- -------- -------- --- --- -- ------- --- --- -----<br>-- --- ------ ------- --- --- -------- ---- --------- --<br>---------- -- -------- ----------------,169887.59999999963,169886.79999999888,168861.31,168871.79999999888,168877.98,169894.738,,16,It
screen,html.Screen,0_4_1_0_1_17,2021-11-26T12:44:10.280Z,,,,,,,,,,,,,,,,11,,,,,,,,,,,,,,328.0619999988703,,response,,,4,D,,,,,Space,keypress(Space),,,,silence,----- -- ---- --- -- --- -------- ------------ ---------- --<br>- ------- ------ --------- -- ------------ -- has ---- -----<br>------ ---- ---- ------ ------ ------- --- ----- ---------<br>---- --- -------- -------- --- --- -- ------- --- --- -----<br>-- --- ------ ------- --- --- -------- ---- --------- --<br>---------- -- -------- ----------------,170223.5,170222.79999999888,169878.069,169887.79999999888,169894.738,170228.455,,17,has
screen,html.Screen,0_4_1_0_1_18,2021-11-26T12:44:10.545Z,,,,,,,,,,,,,,,,11,,,,,,,,,,,,,,258.3449999988952,,response,,,4,D,,,,,Space,keypress(Space),,,,silence,----- -- ---- --- -- --- -------- ------------ ---------- --<br>- ------- ------ --------- -- ------------ -- --- been -----<br>------ ---- ---- ------ ------ ------- --- ----- ---------<br>---- --- -------- -------- --- --- -- ------- --- --- -----<br>-- --- ------ ------- --- --- -------- ---- --------- --<br>---------- -- -------- ----------------,170487.5,170486.79999999888,170211.783,170223.69999999925,170228.455,170495.003,,18,been
screen,html.Screen,0_4_1_0_1_19,2021-11-26T12:44:10.896Z,,,,,,,,,,,,,,,,11,,,,,,,,,,,,,,343.69699999925797,,response,,,4,D,,,,,Space,keypress(Space),,,,silence,----- -- ---- --- -- --- -------- ------------ ---------- --<br>- ------- ------ --------- -- ------------ -- --- ---- found<br>------ ---- ---- ------ ------ ------- --- ----- ---------<br>---- --- -------- -------- --- --- -- ------- --- --- -----<br>-- --- ------ ------- --- --- -------- ---- --------- --<br>---------- -- -------- ----------------,170839.5,170838.69999999925,170478.333,170487.69999999925,170495.003,170845.207,,19,found
screen,html.Screen,0_4_1_0_1_20,2021-11-26T12:44:11.160Z,,,,,,,,,,,,,,,,11,,,,,,,,,,,,,,257.49299999926006,,response,,,4,D,,,,,Space,keypress(Space),,,,silence,----- -- ---- --- -- --- -------- ------------ ---------- --<br>- ------- ------ --------- -- ------------ -- --- ---- -----<br>carved ---- ---- ------ ------ ------- --- ----- ---------<br>---- --- -------- -------- --- --- -- ------- --- --- -----<br>-- --- ------ ------- --- --- -------- ---- --------- --<br>---------- -- -------- ----------------,171103.5,171102.69999999925,170828.535,170839.69999999925,170845.207,171111.898,,20,carved
screen,html.Screen,0_4_1_0_1_21,2021-11-26T12:44:11.537Z,,,,,,,,,,,,,,,,11,,,,,,,,,,,,,,366.9019999988959,,response,,,4,D,,,,,Space,keypress(Space),,,,silence,----- -- ---- --- -- --- -------- ------------ ---------- --<br>- ------- ------ --------- -- ------------ -- --- ---- -----<br>------ into ---- ------ ------ ------- --- ----- ---------<br>---- --- -------- -------- --- --- -- ------- --- --- -----<br>-- --- ------ ------- --- --- -------- ---- --------- --<br>---------- -- -------- ----------------,171479.5,171478.79999999888,171095.227,171103.79999999888,171111.898,171495.292,,21,into
screen,html.Screen,0_4_1_0_1_22,2021-11-26T12:44:11.848Z,,,,,,,,,,,,,,,,11,,,,,,,,,,,,,,295.30799999964074,,response,,,4,D,,,,,Space,keypress(Space),,,,silence,----- -- ---- --- -- --- -------- ------------ ---------- --<br>- ------- ------ --------- -- ------------ -- --- ---- -----<br>------ ---- many ------ ------ ------- --- ----- ---------<br>---- --- -------- -------- --- --- -- ------- --- --- -----<br>-- --- ------ ------- --- --- -------- ---- --------- --<br>---------- -- -------- ----------------,171791.3999999985,171790.59999999963,171478.622,171479.69999999925,171495.292,171795.24,,22,many
screen,html.Screen,0_4_1_0_1_23,2021-11-26T12:44:12.336Z,,,,,,,,,,,,,,,,11,,,,,,,,,,,,,,483.45999999926426,,response,,,4,D,,,,,Space,keypress(Space),,,,silence,----- -- ---- --- -- --- -------- ------------ ---------- --<br>- ------- ------ --------- -- ------------ -- --- ---- -----<br>------ ---- ---- oblong ------ ------- --- ----- ---------<br>---- --- -------- -------- --- --- -- ------- --- --- -----<br>-- --- ------ ------- --- --- -------- ---- --------- --<br>---------- -- -------- ----------------,172279.3999999985,172278.69999999925,171778.572,171791.59999999963,171795.24,172295.584,,23,oblong
screen,html.Screen,0_4_1_0_1_24,2021-11-26T12:44:12.761Z,,,,,,,,,,,,,,,,11,,,,,,,,,,,,,,407.5159999996249,,response,,,4,D,,,,,Space,keypress(Space),,,,silence,----- -- ---- --- -- --- -------- ------------ ---------- --<br>- ------- ------ --------- -- ------------ -- --- ---- -----<br>------ ---- ---- ------ wooden ------- --- ----- ---------<br>---- --- -------- -------- --- --- -- ------- --- --- -----<br>-- --- ------ ------- --- --- -------- ---- --------- --<br>---------- -- -------- ----------------,172704,172703.09999999963,172278.912,172279.59999999963,172295.584,172712.318,,24,wooden
screen,html.Screen,0_4_1_0_1_25,2021-11-26T12:44:13.304Z,,,,,,,,,,,,,,,,11,,,,,,,,,,,,,,534.2819999996282,,response,,,4,D,,,,,Space,keypress(Space),,,,silence,----- -- ---- --- -- --- -------- ------------ ---------- --<br>- ------- ------ --------- -- ------------ -- --- ---- -----<br>------ ---- ---- ------ ------ tablets --- ----- ---------<br>---- --- -------- -------- --- --- -- ------- --- --- -----<br>-- --- ------ ------- --- --- -------- ---- --------- --<br>---------- -- -------- ----------------,173247.29999999888,173246.59999999963,172695.647,172704.29999999888,172712.318,173262.253,,25,tablets
screen,html.Screen,0_4_1_0_1_26,2021-11-26T12:44:13.768Z,,,,,,,,,,,,,,,,11,,,,,,,,,,,,,,448.54699999888544,,response,,,4,D,,,,,Space,keypress(Space),,,,silence,----- -- ---- --- -- --- -------- ------------ ---------- --<br>- ------- ------ --------- -- ------------ -- --- ---- -----<br>------ ---- ---- ------ ------ ------- and ----- ---------<br>---- --- -------- -------- --- --- -- ------- --- --- -----<br>-- --- ------ ------- --- --- -------- ---- --------- --<br>---------- -- -------- ----------------,173711.3999999985,173710.79999999888,173245.585,173247.59999999963,173262.253,173712.573,,26,and
screen,html.Screen,0_4_1_0_1_27,2021-11-26T12:44:14.104Z,,,,,,,,,,,,,,,,11,,,,,,,,,,,,,,333.92699999999604,,response,,,4,D,,,,,Space,keypress(Space),,,,silence,----- -- ---- --- -- --- -------- ------------ ---------- --<br>- ------- ------ --------- -- ------------ -- --- ---- -----<br>------ ---- ---- ------ ------ ------- --- other ---------<br>---- --- -------- -------- --- --- -- ------- --- --- -----<br>-- --- ------ ------- --- --- -------- ---- --------- --<br>---------- -- -------- ----------------,174047.3999999985,174046.5,173695.902,173711.69999999925,173712.573,174062.639,,27,other
screen,html.Screen,0_4_1_0_1_28,2021-11-26T12:44:14.976Z,,,,,,,,,,,,,,,,11,,,,,,,,,,,,,,855.8610000000044,,response,,,4,D,,,,,Space,keypress(Space),,,,silence,----- -- ---- --- -- --- -------- ------------ ---------- --<br>- ------- ------ --------- -- ------------ -- --- ---- -----<br>------ ---- ---- ------ ------ ------- --- ----- artifacts<br>---- --- -------- -------- --- --- -- ------- --- --- -----<br>-- --- ------ ------- --- --- -------- ---- --------- --<br>---------- -- -------- ----------------,174919.19999999925,174918.5,174045.968,174047.5,174062.639,174929.466,,28,artifacts
screen,html.Screen,0_4_1_0_1_29,2021-11-26T12:44:15.600Z,,,,,,,,,,,,,,,,11,,,,,,,,,,,,,,612.9339999985241,,response,,,4,D,,,,,Space,keypress(Space),,,,silence,----- -- ---- --- -- --- -------- ------------ ---------- --<br>- ------- ------ --------- -- ------------ -- --- ---- -----<br>------ ---- ---- ------ ------ ------- --- ----- ---------<br>from --- -------- -------- --- --- -- ------- --- --- -----<br>-- --- ------ ------- --- --- -------- ---- --------- --<br>---------- -- -------- ----------------,175543.19999999925,175542.3999999985,174912.796,174919.5,174929.466,175546.273,,29,from
screen,html.Screen,0_4_1_0_1_30,2021-11-26T12:44:15.976Z,,,,,,,,,,,,,,,,11,,,,,,,,,,,,,,372.2270000000135,,response,,,4,D,,,,,Space,keypress(Space),,,,silence,----- -- ---- --- -- --- -------- ------------ ---------- --<br>- ------- ------ --------- -- ------------ -- --- ---- -----<br>------ ---- ---- ------ ------ ------- --- ----- ---------<br>---- the -------- -------- --- --- -- ------- --- --- -----<br>-- --- ------ ------- --- --- -------- ---- --------- --<br>---------- -- -------- ----------------,175919.19999999925,175918.5,175529.603,175543.3999999985,175546.273,175929.699,,30,the
screen,html.Screen,0_4_1_0_1_31,2021-11-26T12:44:16.312Z,,,,,,,,,,,,,,,,11,,,,,,,,,,,,,,324.70099999851664,,response,,,4,D,,,,,Space,keypress(Space),,,,silence,----- -- ---- --- -- --- -------- ------------ ---------- --<br>- ------- ------ --------- -- ------------ -- --- ---- -----<br>------ ---- ---- ------ ------ ------- --- ----- ---------<br>---- --- island's -------- --- --- -- ------- --- --- -----<br>-- --- ------ ------- --- --- -------- ---- --------- --<br>---------- -- -------- ----------------,176255.19999999925,176254.3999999985,175913.029,175919.5,175929.699,176263.185,,31,island's
screen,html.Screen,0_4_1_0_1_32,2021-11-26T12:44:17.080Z,,,,,,,,,,,,,,,,11,,,,,,,,,,,,,,759.2149999985122,,response,,,4,D,,,,,Space,keypress(Space),,,,silence,----- -- ---- --- -- --- -------- ------------ ---------- --<br>- ------- ------ --------- -- ------------ -- --- ---- -----<br>------ ---- ---- ------ ------ ------- --- ----- ---------<br>---- --- -------- history. --- --- -- ------- --- --- -----<br>-- --- ------ ------- --- --- -------- ---- --------- --<br>---------- -- -------- ----------------,177023.19999999925,177022.3999999985,176246.514,176255.3999999985,176263.185,177030.048,,32,history.
screen,html.Screen,0_4_1_0_1_33,2021-11-26T12:44:17.488Z,,,,,,,,,,,,,,,,11,,,,,,,,,,,,,,400.25199999887263,,response,,,4,D,,,,,Space,keypress(Space),,,,silence,----- -- ---- --- -- --- -------- ------------ ---------- --<br>- ------- ------ --------- -- ------------ -- --- ---- -----<br>------ ---- ---- ------ ------ ------- --- ----- ---------<br>---- --- -------- -------- The --- -- ------- --- --- -----<br>-- --- ------ ------- --- --- -------- ---- --------- --<br>---------- -- -------- ----------------,177431.19999999925,177430.29999999888,177013.377,177023.3999999985,177030.048,177446.784,,33,The
screen,html.Screen,0_4_1_0_1_34,2021-11-26T12:44:17.904Z,,,,,,,,,,,,,,,,11,,,,,,,,,,,,,,399.5159999988682,,response,,,4,D,,,,,Space,keypress(Space),,,,silence,----- -- ---- --- -- --- -------- ------------ ---------- --<br>- ------- ------ --------- -- ------------ -- --- ---- -----<br>------ ---- ---- ------ ------ ------- --- ----- ---------<br>---- --- -------- -------- --- art -- ------- --- --- -----<br>-- --- ------ ------- --- --- -------- ---- --------- --<br>---------- -- -------- ----------------,177847.19999999925,177846.29999999888,177430.114,177431.3999999985,177446.784,177863.542,,34,art
screen,html.Screen,0_4_1_0_1_35,2021-11-26T12:44:18.296Z,,,,,,,,,,,,,,,,11,,,,,,,,,,,,,,374.6579999992682,,response,,,4,D,,,,,Space,keypress(Space),,,,silence,----- -- ---- --- -- --- -------- ------------ ---------- --<br>- ------- ------ --------- -- ------------ -- --- ---- -----<br>------ ---- ---- ------ ------ ------- --- ----- ---------<br>---- --- -------- -------- --- --- of ------- --- --- -----<br>-- --- ------ ------- --- --- -------- ---- --------- --<br>---------- -- -------- ----------------,178239,178238.19999999925,177846.872,177847.3999999985,177863.542,178246.979,,35,of
screen,html.Screen,0_4_1_0_1_36,2021-11-26T12:44:18.616Z,,,,,,,,,,,,,,,,11,,,,,,,,,,,,,,311.22099999926286,,response,,,4,D,,,,,Space,keypress(Space),,,,silence,----- -- ---- --- -- --- -------- ------------ ---------- --<br>- ------- ------ --------- -- ------------ -- --- ---- -----<br>------ ---- ---- ------ ------ ------- --- ----- ---------<br>---- --- -------- -------- --- --- -- writing --- --- -----<br>-- --- ------ ------- --- --- -------- ---- --------- --<br>---------- -- -------- ----------------,178559,178558.19999999925,178230.309,178239.19999999925,178246.979,178563.698,,36,writing
screen,html.Screen,0_4_1_0_1_37,2021-11-26T12:44:19.040Z,,,,,,,,,,,,,,,,11,,,,,,,,,,,,,,418.501999999251,,response,,,4,D,,,,,Space,keypress(Space),,,,silence,----- -- ---- --- -- --- -------- ------------ ---------- --<br>- ------- ------ --------- -- ------------ -- --- ---- -----<br>------ ---- ---- ------ ------ ------- --- ----- ---------<br>---- --- -------- -------- --- --- -- ------- was --- -----<br>-- --- ------ ------- --- --- -------- ---- --------- --<br>---------- -- -------- ----------------,178983,178982.19999999925,178547.028,178559.29999999888,178563.698,178997.211,,37,was
screen,html.Screen,0_4_1_0_1_38,2021-11-26T12:44:19.296Z,,,,,,,,,,,,,,,,11,,,,,,,,,,,,,,241.08899999887217,,response,,,4,D,,,,,Space,keypress(Space),,,,silence,----- -- ---- --- -- --- -------- ------------ ---------- --<br>- ------- ------ --------- -- ------------ -- --- ---- -----<br>------ ---- ---- ------ ------ ------- --- ----- ---------<br>---- --- -------- -------- --- --- -- ------- --- not -----<br>-- --- ------ ------- --- --- -------- ---- --------- --<br>---------- -- -------- ----------------,179239,179238.29999999888,178980.54,178983.29999999888,178997.211,179247.239,,38,not
screen,html.Screen,0_4_1_0_1_39,2021-11-26T12:44:19.576Z,,,,,,,,,,,,,,,,11,,,,,,,,,,,,,,270.96099999925354,,response,,,4,D,,,,,Space,keypress(Space),,,,silence,----- -- ---- --- -- --- -------- ------------ ---------- --<br>- ------- ------ --------- -- ------------ -- --- ---- -----<br>------ ---- ---- ------ ------ ------- --- ----- ---------<br>---- --- -------- -------- --- --- -- ------- --- --- known<br>-- --- ------ ------- --- --- -------- ---- --------- --<br>---------- -- -------- ----------------,179519,179518.19999999925,179230.569,179239.29999999888,179247.239,179530.644,,39,known
screen,html.Screen,0_4_1_0_1_40,2021-11-26T12:44:19.928Z,,,,,,,,,,,,,,,,11,,,,,,,,,,,,,,339.5559999992547,,response,,,4,D,,,,,Space,keypress(Space),,,,silence,----- -- ---- --- -- --- -------- ------------ ---------- --<br>- ------- ------ --------- -- ------------ -- --- ---- -----<br>------ ---- ---- ------ ------ ------- --- ----- ---------<br>---- --- -------- -------- --- --- -- ------- --- --- -----<br>in --- ------ ------- --- --- -------- ---- --------- --<br>---------- -- -------- ----------------,179870.8999999985,179870.19999999925,179513.974,179519.29999999888,179530.644,179880.721,,40,in
screen,html.Screen,0_4_1_0_1_41,2021-11-26T12:44:20.352Z,,,,,,,,,,,,,,,,11,,,,,,,,,,,,,,413.378999999637,,response,,,4,D,,,,,Space,keypress(Space),,,,silence,----- -- ---- --- -- --- -------- ------------ ---------- --<br>- ------- ------ --------- -- ------------ -- --- ---- -----<br>------ ---- ---- ------ ------ ------- --- ----- ---------<br>---- --- -------- -------- --- --- -- ------- --- --- -----<br>-- any ------ ------- --- --- -------- ---- --------- --<br>---------- -- -------- ----------------,180295,180294.09999999963,179864.051,179871.09999999963,179880.721,180297.484,,41,any
screen,html.Screen,0_4_1_0_1_42,2021-11-26T12:44:20.648Z,,,,,,,,,,,,,,,,11,,,,,,,,,,,,,,292.7159999992582,,response,,,4,D,,,,,Space,keypress(Space),,,,silence,----- -- ---- --- -- --- -------- ------------ ---------- --<br>- ------- ------ --------- -- ------------ -- --- ---- -----<br>------ ---- ---- ------ ------ ------- --- ----- ---------<br>---- --- -------- -------- --- --- -- ------- --- --- -----<br>-- --- nearby ------- --- --- -------- ---- --------- --<br>---------- -- -------- ----------------,180590.8999999985,180590.19999999925,180280.814,180295.29999999888,180297.484,180597.599,,42,nearby
screen,html.Screen,0_4_1_0_1_43,2021-11-26T12:44:20.984Z,,,,,,,,,,,,,,,,11,,,,,,,,,,,,,,328.50099999964004,,response,,,4,D,,,,,Space,keypress(Space),,,,silence,----- -- ---- --- -- --- -------- ------------ ---------- --<br>- ------- ------ --------- -- ------------ -- --- ---- -----<br>------ ---- ---- ------ ------ ------- --- ----- ---------<br>---- --- -------- -------- --- --- -- ------- --- --- -----<br>-- --- ------ islands --- --- -------- ---- --------- --<br>---------- -- -------- ----------------,180926.8999999985,180926.09999999963,180580.928,180591.09999999963,180597.599,180930.991,,43,islands
screen,html.Screen,0_4_1_0_1_44,2021-11-26T12:44:21.328Z,,,,,,,,,,,,,,,,11,,,,,,,,,,,,,,339.1089999996184,,response,,,4,D,,,,,Space,keypress(Space),,,,silence,----- -- ---- --- -- --- -------- ------------ ---------- --<br>- ------- ------ --------- -- ------------ -- --- ---- -----<br>------ ---- ---- ------ ------ ------- --- ----- ---------<br>---- --- -------- -------- --- --- -- ------- --- --- -----<br>-- --- ------ ------- and --- -------- ---- --------- --<br>---------- -- -------- ----------------,181270.8999999985,181270.09999999963,180914.321,180927.09999999963,180930.991,181281.068,,44,and
screen,html.Screen,0_4_1_0_1_45,2021-11-26T12:44:21.632Z,,,,,,,,,,,,,,,,11,,,,,,,,,,,,,,293.03199999962817,,response,,,4,D,,,,,Space,keypress(Space),,,,silence,----- -- ---- --- -- --- -------- ------------ ---------- --<br>- ------- ------ --------- -- ------------ -- --- ---- -----<br>------ ---- ---- ------ ------ ------- --- ----- ---------<br>---- --- -------- -------- --- --- -- ------- --- --- -----<br>-- --- ------ ------- --- the -------- ---- --------- --<br>---------- -- -------- ----------------,181574.79999999888,181574.09999999963,181264.398,181271.09999999963,181281.068,181581.148,,45,the
screen,html.Screen,0_4_1_0_1_46,2021-11-26T12:44:21.928Z,,,,,,,,,,,,,,,,11,,,,,,,,,,,,,,288.8520000000135,,response,,,4,D,,,,,Space,keypress(Space),,,,silence,----- -- ---- --- -- --- -------- ------------ ---------- --<br>- ------- ------ --------- -- ------------ -- --- ---- -----<br>------ ---- ---- ------ ------ ------- --- ----- ---------<br>---- --- -------- -------- --- --- -- ------- --- --- -----<br>-- --- ------ ------- --- --- script's ---- --------- --<br>---------- -- -------- ----------------,181870.79999999888,181870,181564.478,181575.09999999963,181581.148,181881.251,,46,script's
screen,html.Screen,0_4_1_0_1_47,2021-11-26T12:44:22.204Z,,,,,,,,,,,,,,,,11,,,,,,,,,,,,,,260.7490000000107,,response,,,4,D,,,,,Space,keypress(Space),,,,silence,----- -- ---- --- -- --- -------- ------------ ---------- --<br>- ------- ------ --------- -- ------------ -- --- ---- -----<br>------ ---- ---- ------ ------ ------- --- ----- ---------<br>---- --- -------- -------- --- --- -- ------- --- --- -----<br>-- --- ------ ------- --- --- -------- mere --------- --<br>---------- -- -------- ----------------,182142.79999999888,182142,181864.58,181871.09999999963,181881.251,182147.963,,47,mere
screen,html.Screen,0_4_1_0_1_48,2021-11-26T12:44:22.548Z,,,,,,,,,,,,,,,,11,,,,,,,,,,,,,,338.0370000000112,,response,,,4,D,,,,,Space,keypress(Space),,,,silence,----- -- ---- --- -- --- -------- ------------ ---------- --<br>- ------- ------ --------- -- ------------ -- --- ---- -----<br>------ ---- ---- ------ ------ ------- --- ----- ---------<br>---- --- -------- -------- --- --- -- ------- --- --- -----<br>-- --- ------ ------- --- --- -------- ---- existence --<br>---------- -- -------- ----------------,182486.69999999925,182486,182131.293,182143,182147.963,182498.04,,48,existence
screen,html.Screen,0_4_1_0_1_49,2021-11-26T12:44:22.892Z,,,,,,,,,,,,,,,,11,,,,,,,,,,,,,,332.35999999850173,,response,,,4,D,,,,,Space,keypress(Space),,,,silence,----- -- ---- --- -- --- -------- ------------ ---------- --<br>- ------- ------ --------- -- ------------ -- --- ---- -----<br>------ ---- ---- ------ ------ ------- --- ----- ---------<br>---- --- -------- -------- --- --- -- ------- --- --- -----<br>-- --- ------ ------- --- --- -------- ---- --------- is<br>---------- -- -------- ----------------,182831.19999999925,182830.3999999985,182481.37,182487,182498.04,182848.017,,49,is
screen,html.Screen,0_4_1_0_1_50,2021-11-26T12:44:23.188Z,,,,,,,,,,,,,,,,11,,,,,,,,,,,,,,277.98300000000745,,response,,,4,D,,,,,Space,keypress(Space),,,,silence,----- -- ---- --- -- --- -------- ------------ ---------- --<br>- ------- ------ --------- -- ------------ -- --- ---- -----<br>------ ---- ---- ------ ------ ------- --- ----- ---------<br>---- --- -------- -------- --- --- -- ------- --- --- -----<br>-- --- ------ ------- --- --- -------- ---- --------- --<br>sufficient -- -------- ----------------,183126.69999999925,183126,182831.349,182831.5,182848.017,183131.599,,50,sufficient
screen,html.Screen,0_4_1_0_1_51,2021-11-26T12:44:23.476Z,,,,,,,,,,,,,,,,11,,,,,,,,,,,,,,282.4010000000126,,response,,,4,D,,,,,Space,keypress(Space),,,,silence,----- -- ---- --- -- --- -------- ------------ ---------- --<br>- ------- ------ --------- -- ------------ -- --- ---- -----<br>------ ---- ---- ------ ------ ------- --- ----- ---------<br>---- --- -------- -------- --- --- -- ------- --- --- -----<br>-- --- ------ ------- --- --- -------- ---- --------- --<br>---------- to -------- ----------------,183414.79999999888,183414,183114.927,183126.8999999985,183131.599,183431.611,,51,to
