sender,sender_type,sender_id,timestamp,meta,,Blues,Classical,Country,Dance,Electronic,Folk,Gospel,Hip-Hop,Jazz,Latin,Musical/Film,New-age,Pop,Provo_ID,R&B,Rap,Reggae,Religious,Rock,Soul,Swing,Traditional,age,artist_name,correct,correctResponse,distraction,duration,education,ended_on,familiarity,gender,item,list,music_frequency,offensiveness,pleasantness,preference,response,response_action,snippet_file,song_name,song_rating,sound,text,time_commit,time_end,time_render,time_run,time_show,time_switch,url,word,word_ID
Instructions,html.Page,0_0,2021-11-05T10:58:14.324Z,"{""labjs_version"":""20.2.3"",""labjs_build"":{""flavor"":""production"",""commit"":""7ea907d66ca8aeef8054924ca5d82ffbe11e34e5""},""location"":""https://run.pavlovia.org/mvasilev/lab_music_e/"",""userAgent"":""Mozilla/5.0 (Windows NT 6.1; Win64; x64) AppleWebKit/537.36 (KHTML, like Gecko) Chrome/95.0.4638.69 Safari/537.36"",""platform"":""Win32"",""language"":""en-US"",""locale"":""en-US"",""timeZone"":""Europe/London"",""timezoneOffset"":0,""screen_width"":1920,""screen_height"":1080,""scroll_width"":1920,""scroll_height"":959,""window_innerWidth"":1920,""window_innerHeight"":1007,""devicePixelRatio"":1}",,,,,,,,,,,,,,,,,,,,,,,,,,,,,29328.423,,form submission,,,,,,,,,,,,,,,,45951.89999999106,45951,16605.912,16611.79999999702,16622.577,45954.951,{},,
Headphones,html.Page,0_1,2021-11-05T10:58:17.004Z,,,,,,,,,,,,,,,,,,,,,,,,,,,,,,2675.9489999910584,,form submission,,,,,,,,,,,,,,,,48631.29999999702,48630.89999999106,45938.285,45952.29999999702,45954.951,48637.959,,,
Holding screen,html.Screen,0_2_0_0,2021-11-05T10:58:26.996Z,,,,,,,,,,,,,,,,,,,,,,,,,,,,,,10066.115999999995,,timeout,,,,,,,,,,,,,,,,58624.20000000298,58620.75,48621.294,48631.59999999404,48637.959,58704.075,,,
screen,html.Screen,0_2_0_1_0,2021-11-05T10:58:28.328Z,,,,,,,,,,,,,,,,53,,,,,,,,,,,,,,1251.0249999940424,,response,,,99,,,,,,Space,keypress(Space),,,,,When -- ----- -- ------ - ------- --- ----------<br>------------- ------ ------ ---- ---- ------- ----- -- ----<br>-------- ------- -- ---------- --- - --- ----- ----- ----<br>---- --- --- ----- --- ---- ---- ------- ----- ---- -------<br>--- --- -- ----- -- --- ---- -- --- ---- -- ------ ------<br>--- ----- -- ----,59956.09999999404,59955.09999999404,58620.75,58624.5,58704.075,59970.717,,0,When
screen,html.Screen,0_2_0_1_1,2021-11-05T10:58:28.771Z,,,,,,,,,,,,,,,,53,,,,,,,,,,,,,,424.08299999702285,,response,,,99,,,,,,Space,keypress(Space),,,,,---- it ----- -- ------ - ------- --- ----------<br>------------- ------ ------ ---- ---- ------- ----- -- ----<br>-------- ------- -- ---------- --- - --- ----- ----- ----<br>---- --- --- ----- --- ---- ---- ------- ----- ---- -------<br>--- --- -- ----- -- --- ---- -- --- ---- -- ------ ------<br>--- ----- -- ----,60395.39999999106,60394.79999999702,59954.052,59956.39999999106,59970.717,60404.14,,1,it
screen,html.Screen,0_2_0_1_2,2021-11-05T10:58:29.187Z,,,,,,,,,,,,,,,,53,,,,,,,,,,,,,,406.5600000029808,,response,,,99,,,,,,Space,keypress(Space),,,,,---- -- comes -- ------ - ------- --- ----------<br>------------- ------ ------ ---- ---- ------- ----- -- ----<br>-------- ------- -- ---------- --- - --- ----- ----- ----<br>---- --- --- ----- --- ---- ---- ------- ----- ---- -------<br>--- --- -- ----- -- --- ---- -- --- ---- -- ------ ------<br>--- ----- -- ----,60811.39999999106,60810.70000000298,60387.474,60395.59999999404,60404.14,60820.692,,2,comes
screen,html.Screen,0_2_0_1_3,2021-11-05T10:58:29.515Z,,,,,,,,,,,,,,,,53,,,,,,,,,,,,,,318.10799999701703,,response,,,99,,,,,,Space,keypress(Space),,,,,---- -- ----- to ------ - ------- --- ----------<br>------------- ------ ------ ---- ---- ------- ----- -- ----<br>-------- ------- -- ---------- --- - --- ----- ----- ----<br>---- --- --- ----- --- ---- ---- ------- ----- ---- -------<br>--- --- -- ----- -- --- ---- -- --- ---- -- ------ ------<br>--- ----- -- ----,61139.5,61138.79999999702,60804.027,60811.5,60820.692,61154.029,,3,to
screen,html.Screen,0_2_0_1_4,2021-11-05T10:58:29.883Z,,,,,,,,,,,,,,,,53,,,,,,,,,,,,,,352.57099999403727,,response,,,99,,,,,,Space,keypress(Space),,,,,---- -- ----- -- having - ------- --- ----------<br>------------- ------ ------ ---- ---- ------- ----- -- ----<br>-------- ------- -- ---------- --- - --- ----- ----- ----<br>---- --- --- ----- --- ---- ---- ------- ----- ---- -------<br>--- --- -- ----- -- --- ---- -- --- ---- -- ------ ------<br>--- ----- -- ----,61507.39999999106,61506.59999999404,61137.364,61139.79999999702,61154.029,61520.662,,4,having
screen,html.Screen,0_2_0_1_5,2021-11-05T10:58:30.210Z,,,,,,,,,,,,,,,,53,,,,,,,,,,,,,,313.9379999940429,,response,,,99,,,,,,Space,keypress(Space),,,,,---- -- ----- -- ------ a ------- --- ----------<br>------------- ------ ------ ---- ---- ------- ----- -- ----<br>-------- ------- -- ---------- --- - --- ----- ----- ----<br>---- --- --- ----- --- ---- ---- ------- ----- ---- -------<br>--- --- -- ----- -- --- ---- -- --- ---- -- ------ ------<br>--- ----- -- ----,61835.29999999702,61834.59999999404,61503.997,61507.70000000298,61520.662,61837.352,,5,a
screen,html.Screen,0_2_0_1_6,2021-11-05T10:58:30.659Z,,,,,,,,,,,,,,,,53,,,,,,,,,,,,,,445.2479999940406,,response,,,99,,,,,,Space,keypress(Space),,,,,---- -- ----- -- ------ - lasting --- ----------<br>------------- ------ ------ ---- ---- ------- ----- -- ----<br>-------- ------- -- ---------- --- - --- ----- ----- ----<br>---- --- --- ----- --- ---- ---- ------- ----- ---- -------<br>--- --- -- ----- -- --- ---- -- --- ---- -- ------ ------<br>--- ----- -- ----,62283.39999999106,62282.59999999404,61820.686,61835.70000000298,61837.352,62287.21,,6,lasting
screen,html.Screen,0_2_0_1_7,2021-11-05T10:58:31.123Z,,,,,,,,,,,,,,,,53,,,,,,,,,,,,,,459.3899999940404,,response,,,99,,,,,,Space,keypress(Space),,,,,---- -- ----- -- ------ - ------- and ----------<br>------------- ------ ------ ---- ---- ------- ----- -- ----<br>-------- ------- -- ---------- --- - --- ----- ----- ----<br>---- --- --- ----- --- ---- ---- ------- ----- ---- -------<br>--- --- -- ----- -- --- ---- -- --- ---- -- ------ ------<br>--- ----- -- ----,62747.39999999106,62746.59999999404,62270.546,62283.59999999404,62287.21,62753.978,,7,and
screen,html.Screen,0_2_0_1_8,2021-11-05T10:58:31.619Z,,,,,,,,,,,,,,,,53,,,,,,,,,,,,,,488.62199999403674,,response,,,99,,,,,,Space,keypress(Space),,,,,---- -- ----- -- ------ - ------- --- fulfilling<br>------------- ------ ------ ---- ---- ------- ----- -- ----<br>-------- ------- -- ---------- --- - --- ----- ----- ----<br>---- --- --- ----- --- ---- ---- ------- ----- ---- -------<br>--- --- -- ----- -- --- ---- -- --- ---- -- ------ ------<br>--- ----- -- ----,63243.39999999106,63242.59999999404,62737.312,62747.5,62753.978,63253.891,,8,fulfilling
screen,html.Screen,0_2_0_1_9,2021-11-05T10:58:32.098Z,,,,,,,,,,,,,,,,53,,,,,,,,,,,,,,468.7089999940363,,response,,,99,,,,,,Space,keypress(Space),,,,,"---- -- ----- -- ------ - ------- --- ----------<br>relationship, ------ ------ ---- ---- ------- ----- -- ----<br>-------- ------- -- ---------- --- - --- ----- ----- ----<br>---- --- --- ----- --- ---- ---- ------- ----- ---- -------<br>--- --- -- ----- -- --- ---- -- --- ---- -- ------ ------<br>--- ----- -- ----",63723.29999999702,63722.59999999404,63237.226,63243.59999999404,63253.891,63737.214,,9,"relationship,"
screen,html.Screen,0_2_0_1_10,2021-11-05T10:58:32.466Z,,,,,,,,,,,,,,,,53,,,,,,,,,,,,,,353.28600000000006,,response,,,99,,,,,,Space,keypress(Space),,,,,---- -- ----- -- ------ - ------- --- ----------<br>------------- common ------ ---- ---- ------- ----- -- ----<br>-------- ------- -- ---------- --- - --- ----- ----- ----<br>---- --- --- ----- --- ---- ---- ------- ----- ---- -------<br>--- --- -- ----- -- --- ---- -- --- ---- -- ------ ------<br>--- ----- -- ----,64091.09999999404,64090.5,63720.549,63723.5,63737.214,64103.855,,10,common
screen,html.Screen,0_2_0_1_11,2021-11-05T10:58:32.922Z,,,,,,,,,,,,,,,,53,,,,,,,,,,,,,,442.6449999999968,,response,,,99,,,,,,Space,keypress(Space),,,,,---- -- ----- -- ------ - ------- --- ----------<br>------------- ------ wisdom ---- ---- ------- ----- -- ----<br>-------- ------- -- ---------- --- - --- ----- ----- ----<br>---- --- --- ----- --- ---- ---- ------- ----- ---- -------<br>--- --- -- ----- -- --- ---- -- --- ---- -- ------ ------<br>--- ----- -- ----,64547.09999999404,64546.5,64087.19,64091.39999999106,64103.855,64553.822,,11,wisdom
screen,html.Screen,0_2_0_1_12,2021-11-05T10:58:33.258Z,,,,,,,,,,,,,,,,53,,,,,,,,,,,,,,328.5779999910592,,response,,,99,,,,,,Space,keypress(Space),,,,,---- -- ----- -- ------ - ------- --- ----------<br>------------- ------ ------ says ---- ------- ----- -- ----<br>-------- ------- -- ---------- --- - --- ----- ----- ----<br>---- --- --- ----- --- ---- ---- ------- ----- ---- -------<br>--- --- -- ----- -- --- ---- -- --- ---- -- ------ ------<br>--- ----- -- ----,64883.09999999404,64882.39999999106,64537.157,64547.29999999702,64553.822,64887.157,,12,says
screen,html.Screen,0_2_0_1_13,2021-11-05T10:58:33.603Z,,,,,,,,,,,,,,,,53,,,,,,,,,,,,,,339.34300000000076,,response,,,99,,,,,,Space,keypress(Space),,,,,---- -- ----- -- ------ - ------- --- ----------<br>------------- ------ ------ ---- that ------- ----- -- ----<br>-------- ------- -- ---------- --- - --- ----- ----- ----<br>---- --- --- ----- --- ---- ---- ------- ----- ---- -------<br>--- --- -- ----- -- --- ---- -- --- ---- -- ------ ------<br>--- ----- -- ----,65227.29999999702,65226.5,64870.492,64883.20000000298,64887.157,65237.189,,13,that
screen,html.Screen,0_2_0_1_14,2021-11-05T10:58:33.946Z,,,,,,,,,,,,,,,,53,,,,,,,,,,,,,,333.2109999910608,,response,,,99,,,,,,Space,keypress(Space),,,,,---- -- ----- -- ------ - ------- --- ----------<br>------------- ------ ------ ---- ---- feeling ----- -- ----<br>-------- ------- -- ---------- --- - --- ----- ----- ----<br>---- --- --- ----- --- ---- ---- ------- ----- ---- -------<br>--- --- -- ----- -- --- ---- -- --- ---- -- ------ ------<br>--- ----- -- ----,65571,65570.39999999106,65220.523,65227.5,65237.189,65587.059,,14,feeling
screen,html.Screen,0_2_0_1_15,2021-11-05T10:58:34.298Z,,,,,,,,,,,,,,,,53,,,,,,,,,,,,,,335.24099999702594,,response,,,99,,,,,,Space,keypress(Space),,,,,---- -- ----- -- ------ - ------- --- ----------<br>------------- ------ ------ ---- ---- ------- close -- ----<br>-------- ------- -- ---------- --- - --- ----- ----- ----<br>---- --- --- ----- --- ---- ---- ------- ----- ---- -------<br>--- --- -- ----- -- --- ---- -- --- ---- -- ------ ------<br>--- ----- -- ----,65922.89999999106,65922.29999999702,65570.395,65571.20000000298,65587.059,65937.083,,15,close
screen,html.Screen,0_2_0_1_16,2021-11-05T10:58:34.610Z,,,,,,,,,,,,,,,,53,,,,,,,,,,,,,,297.3169999910606,,response,,,99,,,,,,Space,keypress(Space),,,,,---- -- ----- -- ------ - ------- --- ----------<br>------------- ------ ------ ---- ---- ------- ----- to ----<br>-------- ------- -- ---------- --- - --- ----- ----- ----<br>---- --- --- ----- --- ---- ---- ------- ----- ---- -------<br>--- --- -- ----- -- --- ---- -- --- ---- -- ------ ------<br>--- ----- -- ----,66235,66234.39999999106,65920.418,65923.20000000298,65937.083,66237.068,,16,to
screen,html.Screen,0_2_0_1_17,2021-11-05T10:58:35.106Z,,,,,,,,,,,,,,,,53,,,,,,,,,,,,,,493.4320000000007,,response,,,99,,,,,,Space,keypress(Space),,,,,---- -- ----- -- ------ - ------- --- ----------<br>------------- ------ ------ ---- ---- ------- ----- -- your<br>-------- ------- -- ---------- --- - --- ----- ----- ----<br>---- --- --- ----- --- ---- ---- ------- ----- ---- -------<br>--- --- -- ----- -- --- ---- -- --- ---- -- ------ ------<br>--- ----- -- ----,66731.09999999404,66730.5,66220.403,66235.20000000298,66237.068,66737.033,,17,your
screen,html.Screen,0_2_0_1_18,2021-11-05T10:58:35.538Z,,,,,,,,,,,,,,,,53,,,,,,,,,,,,,,425.3669999910635,,response,,,99,,,,,,Space,keypress(Space),,,,,---- -- ----- -- ------ - ------- --- ----------<br>------------- ------ ------ ---- ---- ------- ----- -- ----<br>romantic ------- -- ---------- --- - --- ----- ----- ----<br>---- --- --- ----- --- ---- ---- ------- ----- ---- -------<br>--- --- -- ----- -- --- ---- -- --- ---- -- ------ ------<br>--- ----- -- ----,67163.09999999404,67162.39999999106,66720.368,66731.29999999702,66737.033,67170.352,,18,romantic
screen,html.Screen,0_2_0_1_19,2021-11-05T10:58:35.938Z,,,,,,,,,,,,,,,,53,,,,,,,,,,,,,,391.9479999970208,,response,,,99,,,,,,Space,keypress(Space),,,,,---- -- ----- -- ------ - ------- --- ----------<br>------------- ------ ------ ---- ---- ------- ----- -- ----<br>-------- partner -- ---------- --- - --- ----- ----- ----<br>---- --- --- ----- --- ---- ---- ------- ----- ---- -------<br>--- --- -- ----- -- --- ---- -- --- ---- -- ------ ------<br>--- ----- -- ----,67562.89999999106,67562.29999999702,67153.687,67163.20000000298,67170.352,67570.333,,19,partner
screen,html.Screen,0_2_0_1_20,2021-11-05T10:58:36.298Z,,,,,,,,,,,,,,,,53,,,,,,,,,,,,,,351.8670000029815,,response,,,99,,,,,,Space,keypress(Space),,,,,---- -- ----- -- ------ - ------- --- ----------<br>------------- ------ ------ ---- ---- ------- ----- -- ----<br>-------- ------- is ---------- --- - --- ----- ----- ----<br>---- --- --- ----- --- ---- ---- ------- ----- ---- -------<br>--- --- -- ----- -- --- ---- -- --- ---- -- ------ ------<br>--- ----- -- ----,67922.79999999702,67922.20000000298,67553.668,67563.09999999404,67570.333,67937.054,,20,is
screen,html.Screen,0_2_0_1_21,2021-11-05T10:58:37.170Z,,,,,,,,,,,,,,,,53,,,,,,,,,,,,,,857.3459999910556,,response,,,99,,,,,,Space,keypress(Space),,,,,---- -- ----- -- ------ - ------- --- ----------<br>------------- ------ ------ ---- ---- ------- ----- -- ----<br>-------- ------- -- paramount. --- - --- ----- ----- ----<br>---- --- --- ----- --- ---- ---- ------- ----- ---- -------<br>--- --- -- ----- -- --- ---- -- --- ---- -- ------ ------<br>--- ----- -- ----,68795,68794.39999999106,67920.388,67923,67937.054,68803.599,,21,paramount.
screen,html.Screen,0_2_0_1_22,2021-11-05T10:58:37.626Z,,,,,,,,,,,,,,,,53,,,,,,,,,,,,,,446.7009999970178,,response,,,99,,,,,,Space,keypress(Space),,,,,---- -- ----- -- ------ - ------- --- ----------<br>------------- ------ ------ ---- ---- ------- ----- -- ----<br>-------- ------- -- ---------- But - --- ----- ----- ----<br>---- --- --- ----- --- ---- ---- ------- ----- ---- -------<br>--- --- -- ----- -- --- ---- -- --- ---- -- ------ ------<br>--- ----- -- ----,69250.89999999106,69250.29999999702,68786.934,68795.29999999702,68803.599,69253.465,,22,But
screen,html.Screen,0_2_0_1_23,2021-11-05T10:58:37.970Z,,,,,,,,,,,,,,,,53,,,,,,,,,,,,,,340.634999994043,,response,,,99,,,,,,Space,keypress(Space),,,,,---- -- ----- -- ------ - ------- --- ----------<br>------------- ------ ------ ---- ---- ------- ----- -- ----<br>-------- ------- -- ---------- --- a --- ----- ----- ----<br>---- --- --- ----- --- ---- ---- ------- ----- ---- -------<br>--- --- -- ----- -- --- ---- -- --- ---- -- ------ ------<br>--- ----- -- ----,69594.79999999702,69594.09999999404,69236.801,69251.09999999404,69253.465,69603.63,,23,a
screen,html.Screen,0_2_0_1_24,2021-11-05T10:58:38.306Z,,,,,,,,,,,,,,,,53,,,,,,,,,,,,,,326.4699999940349,,response,,,99,,,,,,Space,keypress(Space),,,,,---- -- ----- -- ------ - ------- --- ----------<br>------------- ------ ------ ---- ---- ------- ----- -- ----<br>-------- ------- -- ---------- --- - new ----- ----- ----<br>---- --- --- ----- --- ---- ---- ------- ----- ---- -------<br>--- --- -- ----- -- --- ---- -- --- ---- -- ------ ------<br>--- ----- -- ----,69930.79999999702,69930.09999999404,69586.964,69594.89999999106,69603.63,69936.901,,24,new
screen,html.Screen,0_2_0_1_25,2021-11-05T10:58:38.690Z,,,,,,,,,,,,,,,,53,,,,,,,,,,,,,,377.4989999910613,,response,,,99,,,,,,Space,keypress(Space),,,,,---- -- ----- -- ------ - ------- --- ----------<br>------------- ------ ------ ---- ---- ------- ----- -- ----<br>-------- ------- -- ---------- --- - --- study ----- ----<br>---- --- --- ----- --- ---- ---- ------- ----- ---- -------<br>--- --- -- ----- -- --- ---- -- --- ---- -- ------ ------<br>--- ----- -- ----,70315,70314.39999999106,69920.236,69930.89999999106,69936.901,70320.211,,25,study
screen,html.Screen,0_2_0_1_26,2021-11-05T10:58:39.058Z,,,,,,,,,,,,,,,,53,,,,,,,,,,,,,,361.98900000298454,,response,,,99,,,,,,Space,keypress(Space),,,,,---- -- ----- -- ------ - ------- --- ----------<br>------------- ------ ------ ---- ---- ------- ----- -- ----<br>-------- ------- -- ---------- --- - --- ----- finds ----<br>---- --- --- ----- --- ---- ---- ------- ----- ---- -------<br>--- --- -- ----- -- --- ---- -- --- ---- -- ------ ------<br>--- ----- -- ----,70682.70000000298,70682.20000000298,70303.546,70315.20000000298,70320.211,70686.745,,26,finds
screen,html.Screen,0_2_0_1_27,2021-11-05T10:58:39.402Z,,,,,,,,,,,,,,,,53,,,,,,,,,,,,,,339.4550000029849,,response,,,99,,,,,,Space,keypress(Space),,,,,---- -- ----- -- ------ - ------- --- ----------<br>------------- ------ ------ ---- ---- ------- ----- -- ----<br>-------- ------- -- ---------- --- - --- ----- ----- that<br>---- --- --- ----- --- ---- ---- ------- ----- ---- -------<br>--- --- -- ----- -- --- ---- -- --- ---- -- ------ ------<br>--- ----- -- ----,71027,71026.20000000298,70670.082,70682.89999999106,70686.745,71036.877,,27,that
screen,html.Screen,0_2_0_1_28,2021-11-05T10:58:39.818Z,,,,,,,,,,,,,,,,53,,,,,,,,,,,,,,405.2229999940464,,response,,,99,,,,,,Space,keypress(Space),,,,,---- -- ----- -- ------ - ------- --- ----------<br>------------- ------ ------ ---- ---- ------- ----- -- ----<br>-------- ------- -- ---------- --- - --- ----- ----- ----<br>it's --- --- ----- --- ---- ---- ------- ----- ---- -------<br>--- --- -- ----- -- --- ---- -- --- ---- -- ------ ------<br>--- ----- -- ----,71442.70000000298,71442.09999999404,71020.211,71027.09999999404,71036.877,71453.408,,28,it's
screen,html.Screen,0_2_0_1_29,2021-11-05T10:58:40.202Z,,,,,,,,,,,,,,,,53,,,,,,,,,,,,,,372.6919999940437,,response,,,99,,,,,,Space,keypress(Space),,,,,---- -- ----- -- ------ - ------- --- ----------<br>------------- ------ ------ ---- ---- ------- ----- -- ----<br>-------- ------- -- ---------- --- - --- ----- ----- ----<br>---- not --- ----- --- ---- ---- ------- ----- ---- -------<br>--- --- -- ----- -- --- ---- -- --- ---- -- ------ ------<br>--- ----- -- ----,71826.70000000298,71826.09999999404,71436.744,71442.79999999702,71453.408,71836.759,,29,not
screen,html.Screen,0_2_0_1_30,2021-11-05T10:58:40.554Z,,,,,,,,,,,,,,,,53,,,,,,,,,,,,,,341.34099999403406,,response,,,99,,,,,,Space,keypress(Space),,,,,---- -- ----- -- ------ - ------- --- ----------<br>------------- ------ ------ ---- ---- ------- ----- -- ----<br>-------- ------- -- ---------- --- - --- ----- ----- ----<br>---- --- how ----- --- ---- ---- ------- ----- ---- -------<br>--- --- -- ----- -- --- ---- -- --- ---- -- ------ ------<br>--- ----- -- ----,72178.79999999702,72178.09999999404,71820.094,71826.89999999106,71836.759,72186.849,,30,how
screen,html.Screen,0_2_0_1_31,2021-11-05T10:58:40.930Z,,,,,,,,,,,,,,,,53,,,,,,,,,,,,,,367.150999999998,,response,,,99,,,,,,Space,keypress(Space),,,,,---- -- ----- -- ------ - ------- --- ----------<br>------------- ------ ------ ---- ---- ------- ----- -- ----<br>-------- ------- -- ---------- --- - --- ----- ----- ----<br>---- --- --- close --- ---- ---- ------- ----- ---- -------<br>--- --- -- ----- -- --- ---- -- --- ---- -- ------ ------<br>--- ----- -- ----,72554.59999999404,72554,72170.182,72178.89999999106,72186.849,72569.936,,31,close
screen,html.Screen,0_2_0_1_32,2021-11-05T10:58:41.274Z,,,,,,,,,,,,,,,,53,,,,,,,,,,,,,,328.0639999999985,,response,,,99,,,,,,Space,keypress(Space),,,,,---- -- ----- -- ------ - ------- --- ----------<br>------------- ------ ------ ---- ---- ------- ----- -- ----<br>-------- ------- -- ---------- --- - --- ----- ----- ----<br>---- --- --- ----- you ---- ---- ------- ----- ---- -------<br>--- --- -- ----- -- --- ---- -- --- ---- -- ------ ------<br>--- ----- -- ----,72898.59999999404,72898,72553.273,72554.79999999702,72569.936,72903.387,,32,you
screen,html.Screen,0_2_0_1_33,2021-11-05T10:58:41.938Z,,,,,,,,,,,,,,,,53,,,,,,,,,,,,,,658.7129999940371,,response,,,99,,,,,,Space,keypress(Space),,,,,---- -- ----- -- ------ - ------- --- ----------<br>------------- ------ ------ ---- ---- ------- ----- -- ----<br>-------- ------- -- ---------- --- - --- ----- ----- ----<br>---- --- --- ----- --- feel ---- ------- ----- ---- -------<br>--- --- -- ----- -- --- ---- -- --- ---- -- ------ ------<br>--- ----- -- ----,73562.70000000298,73562.09999999404,72886.721,72898.79999999702,72903.387,73570.11,,33,feel
screen,html.Screen,0_2_0_1_34,2021-11-05T10:58:42.362Z,,,,,,,,,,,,,,,,53,,,,,,,,,,,,,,415.8899999999994,,response,,,99,,,,,,Space,keypress(Space),,,,,---- -- ----- -- ------ - ------- --- ----------<br>------------- ------ ------ ---- ---- ------- ----- -- ----<br>-------- ------- -- ---------- --- - --- ----- ----- ----<br>---- --- --- ----- --- ---- that ------- ----- ---- -------<br>--- --- -- ----- -- --- ---- -- --- ---- -- ------ ------<br>--- ----- -- ----,73986.70000000298,73986,73553.443,73564.5,73570.11,74003.244,,34,that
screen,html.Screen,0_2_0_1_35,2021-11-05T10:58:42.818Z,,,,,,,,,,,,,,,,53,,,,,,,,,,,,,,438.65599999105325,,response,,,99,,,,,,Space,keypress(Space),,,,,---- -- ----- -- ------ - ------- --- ----------<br>------------- ------ ------ ---- ---- ------- ----- -- ----<br>-------- ------- -- ---------- --- - --- ----- ----- ----<br>---- --- --- ----- --- ---- ---- matters ----- ---- -------<br>--- --- -- ----- -- --- ---- -- --- ---- -- ------ ------<br>--- ----- -- ----,74442.5,74441.89999999106,73986.58,73986.89999999106,74003.244,74453.347,,35,matters
screen,html.Screen,0_2_0_1_36,2021-11-05T10:58:43.266Z,,,,,,,,,,,,,,,,53,,,,,,,,,,,,,,436.552999991065,,response,,,99,,,,,,Space,keypress(Space),,,,,"---- -- ----- -- ------ - ------- --- ----------<br>------------- ------ ------ ---- ---- ------- ----- -- ----<br>-------- ------- -- ---------- --- - --- ----- ----- ----<br>---- --- --- ----- --- ---- ---- ------- most, ---- -------<br>--- --- -- ----- -- --- ---- -- --- ---- -- ------ ------<br>--- ----- -- ----",74890.5,74889.89999999106,74436.681,74442.70000000298,74453.347,74903.19,,36,"most,"
screen,html.Screen,0_2_0_1_37,2021-11-05T10:58:43.690Z,,,,,,,,,,,,,,,,53,,,,,,,,,,,,,,410.60999999701744,,response,,,99,,,,,,Space,keypress(Space),,,,,---- -- ----- -- ------ - ------- --- ----------<br>------------- ------ ------ ---- ---- ------- ----- -- ----<br>-------- ------- -- ---------- --- - --- ----- ----- ----<br>---- --- --- ----- --- ---- ---- ------- ----- it's -------<br>--- --- -- ----- -- --- ---- -- --- ---- -- ------ ------<br>--- ----- -- ----,75314.39999999106,75313.79999999702,74886.526,74890.59999999404,74903.19,75320.001,,37,it's
screen,html.Screen,0_2_0_1_38,2021-11-05T10:58:44.170Z,,,,,,,,,,,,,,,,53,,,,,,,,,,,,,,473.89899999105546,,response,,,99,,,,,,Space,keypress(Space),,,,,---- -- ----- -- ------ - ------- --- ----------<br>------------- ------ ------ ---- ---- ------- ----- -- ----<br>-------- ------- -- ---------- --- - --- ----- ----- ----<br>---- --- --- ----- --- ---- ---- ------- ----- ---- whether<br>--- --- -- ----- -- --- ---- -- --- ---- -- ------ ------<br>--- ----- -- ----,75794.39999999106,75793.89999999106,75303.334,75314.59999999404,75320.001,75803.237,,38,whether
screen,html.Screen,0_2_0_1_39,2021-11-05T10:58:44.618Z,,,,,,,,,,,,,,,,53,,,,,,,,,,,,,,438.6629999910656,,response,,,99,,,,,,Space,keypress(Space),,,,,---- -- ----- -- ------ - ------- --- ----------<br>------------- ------ ------ ---- ---- ------- ----- -- ----<br>-------- ------- -- ---------- --- - --- ----- ----- ----<br>---- --- --- ----- --- ---- ---- ------- ----- ---- -------<br>you --- -- ----- -- --- ---- -- --- ---- -- ------ ------<br>--- ----- -- ----,76242.5,76241.89999999106,75786.572,75794.70000000298,75803.237,76253.194,,39,you
screen,html.Screen,0_2_0_1_40,2021-11-05T10:58:45.042Z,,,,,,,,,,,,,,,,53,,,,,,,,,,,,,,412.6059999970166,,response,,,99,,,,,,Space,keypress(Space),,,,,---- -- ----- -- ------ - ------- --- ----------<br>------------- ------ ------ ---- ---- ------- ----- -- ----<br>-------- ------- -- ---------- --- - --- ----- ----- ----<br>---- --- --- ----- --- ---- ---- ------- ----- ---- -------<br>--- are -- ----- -- --- ---- -- --- ---- -- ------ ------<br>--- ----- -- ----,76666.39999999106,76665.79999999702,76236.529,76242.70000000298,76253.194,76669.863,,40,are
screen,html.Screen,0_2_0_1_41,2021-11-05T10:58:45.506Z,,,,,,,,,,,,,,,,53,,,,,,,,,,,,,,459.9369999970222,,response,,,99,,,,,,Space,keypress(Space),,,,,---- -- ----- -- ------ - ------- --- ----------<br>------------- ------ ------ ---- ---- ------- ----- -- ----<br>-------- ------- -- ---------- --- - --- ----- ----- ----<br>---- --- --- ----- --- ---- ---- ------- ----- ---- -------<br>--- --- as ----- -- --- ---- -- --- ---- -- ------ ------<br>--- ----- -- ----,77130.29999999702,77129.79999999702,76653.198,76666.59999999404,76669.863,77136.497,,41,as
screen,html.Screen,0_2_0_1_42,2021-11-05T10:58:45.866Z,,,,,,,,,,,,,,,,53,,,,,,,,,,,,,,353.2030000029772,,response,,,99,,,,,,Space,keypress(Space),,,,,---- -- ----- -- ------ - ------- --- ----------<br>------------- ------ ------ ---- ---- ------- ----- -- ----<br>-------- ------- -- ---------- --- - --- ----- ----- ----<br>---- --- --- ----- --- ---- ---- ------- ----- ---- -------<br>--- --- -- close -- --- ---- -- --- ---- -- ------ ------<br>--- ----- -- ----,77490.29999999702,77489.70000000298,77119.832,77130.59999999404,77136.497,77503.142,,42,close
screen,html.Screen,0_2_0_1_43,2021-11-05T10:58:46.266Z,,,,,,,,,,,,,,,,53,,,,,,,,,,,,,,386.65799999701267,,response,,,99,,,,,,Space,keypress(Space),,,,,---- -- ----- -- ------ - ------- --- ----------<br>------------- ------ ------ ---- ---- ------- ----- -- ----<br>-------- ------- -- ---------- --- - --- ----- ----- ----<br>---- --- --- ----- --- ---- ---- ------- ----- ---- -------<br>--- --- -- ----- as --- ---- -- --- ---- -- ------ ------<br>--- ----- -- ----,77890.29999999702,77889.79999999702,77486.477,77490.5,77503.142,77903.061,,43,as
screen,html.Screen,0_2_0_1_44,2021-11-05T10:58:46.666Z,,,,,,,,,,,,,,,,53,,,,,,,,,,,,,,386.6390000029787,,response,,,99,,,,,,Space,keypress(Space),,,,,---- -- ----- -- ------ - ------- --- ----------<br>------------- ------ ------ ---- ---- ------- ----- -- ----<br>-------- ------- -- ---------- --- - --- ----- ----- ----<br>---- --- --- ----- --- ---- ---- ------- ----- ---- -------<br>--- --- -- ----- -- you ---- -- --- ---- -- ------ ------<br>--- ----- -- ----,78290.39999999106,78289.70000000298,77886.397,77890.5,77903.061,78303.118,,44,you
screen,html.Screen,0_2_0_1_45,2021-11-05T10:58:47.065Z,,,,,,,,,,,,,,,,53,,,,,,,,,,,,,,386.582000002978,,response,,,99,,,,,,Space,keypress(Space),,,,,---- -- ----- -- ------ - ------- --- ----------<br>------------- ------ ------ ---- ---- ------- ----- -- ----<br>-------- ------- -- ---------- --- - --- ----- ----- ----<br>---- --- --- ----- --- ---- ---- ------- ----- ---- -------<br>--- --- -- ----- -- --- want -- --- ---- -- ------ ------<br>--- ----- -- ----,78690.29999999702,78689.70000000298,78286.452,78290.59999999404,78303.118,78703.07,,45,want
screen,html.Screen,0_2_0_1_46,2021-11-05T10:58:47.425Z,,,,,,,,,,,,,,,,53,,,,,,,,,,,,,,346.63000000297325,,response,,,99,,,,,,Space,keypress(Space),,,,,---- -- ----- -- ------ - ------- --- ----------<br>------------- ------ ------ ---- ---- ------- ----- -- ----<br>-------- ------- -- ---------- --- - --- ----- ----- ----<br>---- --- --- ----- --- ---- ---- ------- ----- ---- -------<br>--- --- -- ----- -- --- ---- to --- ---- -- ------ ------<br>--- ----- -- ----,79050.20000000298,79049.70000000298,78686.405,78690.5,78703.07,79053.047,,46,to
screen,html.Screen,0_2_0_1_47,2021-11-05T10:58:47.801Z,,,,,,,,,,,,,,,,53,,,,,,,,,,,,,,372.6530000029743,,response,,,99,,,,,,Space,keypress(Space),,,,,"---- -- ----- -- ------ - ------- --- ----------<br>------------- ------ ------ ---- ---- ------- ----- -- ----<br>-------- ------- -- ---------- --- - --- ----- ----- ----<br>---- --- --- ----- --- ---- ---- ------- ----- ---- -------<br>--- --- -- ----- -- --- ---- -- be, ---- -- ------ ------<br>--- ----- -- ----",79426.20000000298,79425.70000000298,79036.382,79050.39999999106,79053.047,79436.399,,47,"be,"
screen,html.Screen,0_2_0_1_48,2021-11-05T10:58:48.145Z,,,,,,,,,,,,,,,,53,,,,,,,,,,,,,,333.30100000297534,,response,,,99,,,,,,Space,keypress(Space),,,,,---- -- ----- -- ------ - ------- --- ----------<br>------------- ------ ------ ---- ---- ------- ----- -- ----<br>-------- ------- -- ---------- --- - --- ----- ----- ----<br>---- --- --- ----- --- ---- ---- ------- ----- ---- -------<br>--- --- -- ----- -- --- ---- -- --- even -- ------ ------<br>--- ----- -- ----,79770.20000000298,79769.70000000298,79419.733,79426.39999999106,79436.399,79786.355,,48,even
screen,html.Screen,0_2_0_1_49,2021-11-05T10:58:48.489Z,,,,,,,,,,,,,,,,53,,,,,,,,,,,,,,327.2449999940436,,response,,,99,,,,,,Space,keypress(Space),,,,,---- -- ----- -- ------ - ------- --- ----------<br>------------- ------ ------ ---- ---- ------- ----- -- ----<br>-------- ------- -- ---------- --- - --- ----- ----- ----<br>---- --- --- ----- --- ---- ---- ------- ----- ---- -------<br>--- --- -- ----- -- --- ---- -- --- ---- if ------ ------<br>--- ----- -- ----,80114.29999999702,80113.59999999404,79769.69,79770.5,79786.355,80119.595,,49,if
screen,html.Screen,0_2_0_1_50,2021-11-05T10:58:48.826Z,,,,,,,,,,,,,,,,53,,,,,,,,,,,,,,330.2049999970186,,response,,,99,,,,,,Space,keypress(Space),,,,,---- -- ----- -- ------ - ------- --- ----------<br>------------- ------ ------ ---- ---- ------- ----- -- ----<br>-------- ------- -- ---------- --- - --- ----- ----- ----<br>---- --- --- ----- --- ---- ---- ------- ----- ---- -------<br>--- --- -- ----- -- --- ---- -- --- ---- -- that's ------<br>--- ----- -- ----,80450.5,80449.79999999702,80102.931,80114.39999999106,80119.595,80452.952,,50,that's
screen,html.Screen,0_2_0_1_51,2021-11-05T10:58:49.193Z,,,,,,,,,,,,,,,,53,,,,,,,,,,,,,,364.64799999403476,,response,,,99,,,,,,Space,keypress(Space),,,,,---- -- ----- -- ------ - ------- --- ----------<br>------------- ------ ------ ---- ---- ------- ----- -- ----<br>-------- ------- -- ---------- --- - --- ----- ----- ----<br>---- --- --- ----- --- ---- ---- ------- ----- ---- -------<br>--- --- -- ----- -- --- ---- -- --- ---- -- ------ really<br>--- ----- -- ----,80818.29999999702,80817.59999999404,80436.287,80450.59999999404,80452.952,80819.695,,51,really
screen,html.Screen,0_2_0_1_52,2021-11-05T10:58:49.553Z,,,,,,,,,,,,,,,,53,,,,,,,,,,,,,,357.90499999403255,,response,,,99,,,,,,Space,keypress(Space),,,,,---- -- ----- -- ------ - ------- --- ----------<br>------------- ------ ------ ---- ---- ------- ----- -- ----<br>-------- ------- -- ---------- --- - --- ----- ----- ----<br>---- --- --- ----- --- ---- ---- ------- ----- ---- -------<br>--- --- -- ----- -- --- ---- -- --- ---- -- ------ ------<br>not ----- -- ----,81178.20000000298,81177.59999999404,80803.028,80818.5,80819.695,81186.223,,52,not
screen,html.Screen,0_2_0_1_53,2021-11-05T10:58:49.921Z,,,,,,,,,,,,,,,,53,,,,,,,,,,,,,,359.27700000000186,,response,,,99,,,,,,Space,keypress(Space),,,,,---- -- ----- -- ------ - ------- --- ----------<br>------------- ------ ------ ---- ---- ------- ----- -- ----<br>-------- ------- -- ---------- --- - --- ----- ----- ----<br>---- --- --- ----- --- ---- ---- ------- ----- ---- -------<br>--- --- -- ----- -- --- ---- -- --- ---- -- ------ ------<br>--- close -- ----,81546.09999999404,81545.5,81169.559,81178.29999999702,81186.223,81552.951,,53,close
screen,html.Screen,0_2_0_1_54,2021-11-05T10:58:50.281Z,,,,,,,,,,,,,,,,53,,,,,,,,,,,,,,352.54899999999907,,response,,,99,,,,,,Space,keypress(Space),,,,,---- -- ----- -- ------ - ------- --- ----------<br>------------- ------ ------ ---- ---- ------- ----- -- ----<br>-------- ------- -- ---------- --- - --- ----- ----- ----<br>---- --- --- ----- --- ---- ---- ------- ----- ---- -------<br>--- --- -- ----- -- --- ---- -- --- ---- -- ------ ------<br>--- ----- at ----,81906.09999999404,81905.5,81536.285,81546.29999999702,81552.951,81919.489,,54,at
screen,html.Screen,0_2_0_1_55,2021-11-05T10:58:50.785Z,,,,,,,,,,,,,,,,53,,,,,,,,,,,,,,490.0109999999986,,response,,,99,,,,,,Space,keypress(Space),,,,,---- -- ----- -- ------ - ------- --- ----------<br>------------- ------ ------ ---- ---- ------- ----- -- ----<br>-------- ------- -- ---------- --- - --- ----- ----- ----<br>---- --- --- ----- --- ---- ---- ------- ----- ---- -------<br>--- --- -- ----- -- --- ---- -- --- ---- -- ------ ------<br>--- ----- -- all.,82410.20000000298,82409.5,81902.825,81906.29999999702,81919.489,82419.515,,55,all.
Item 99,flow.Loop,0_2_0_1,2021-11-05T10:58:50.789Z,,,,,,,,,,,,,,,,,,,,,,,,,,,,,,23705.425000000003,,completion,,,,E,,,,,,,,,,silence,,82413.70000000298,82409.5,58620.75,58624.5,58704.075,82419.515,,,
Question 1,html.Screen,0_2_0_2,2021-11-05T10:58:55.525Z,,,,,,,,,,,,,,,,,,,,,,,,,,,true,FALSE,,4729.78499999702,,response,,,99,E,,,,,FALSE,click #choice-2,,,,silence,,87150.20000000298,87149.29999999702,82402.85,82414,82419.515,87152.594,,,
Question 2,html.Screen,0_2_0_3,2021-11-05T10:58:59.897Z,,,,,,,,,,,,,,,,,,,,,,,,,,,true,TRUE,,4368.805999991062,,response,,,99,E,,,,,TRUE,click #choice-1,,,,silence,,91522.29999999702,91521.39999999106,87135.929,87150.39999999106,87152.594,91535.671,,,
Item 99,flow.Sequence,0_2_0,2021-11-05T10:58:59.898Z,,,,,,,,,,,,,,,,,,,,,,,,,,,,,,42883.44099999106,,completion,,,,,,,,,,,,,,,,91522.5,91521.39999999106,48621.294,48631.59999999404,48637.959,91535.671,,,
Holding screen,html.Screen,0_2_1_0,2021-11-05T10:59:09.895Z,,,,,,,,,,,,,,,,,,,,,,,,,,,,,,9999.410999999993,,timeout,,,,,,,,,,,,,,,,101519.39999999106,101518.417,91519.006,91522.79999999702,91535.671,101535.082,,,
screen,html.Screen,0_2_1_1_0,2021-11-05T10:59:10.521Z,,,,,,,,,,,,,,,,54,,,,,,,,,,,,,,609.6180000029854,,response,,,100,,,,,,Space,keypress(Space),,,,,At --- ---- --- ------ ----- ------- ---- -- --- ------- --<br>------- ---------- ------ -- ----- -- ----- -- ---- ------<br>--- ----- --- --- ------ -------- ----- --- ------ ----- --<br>----- ----- ---------- --- --- ------ ------ ---- -- ------<br>------- --- ------ ----- --- ---- ------- -- ---- --- --<br>------- ------,102145.39999999106,102144.70000000298,101518.417,101519.70000000298,101535.082,102151.835,,0,At
screen,html.Screen,0_2_1_1_1,2021-11-05T10:59:10.840Z,,,,,,,,,,,,,,,,54,,,,,,,,,,,,,,312.5649999910529,,response,,,100,,,,,,Space,keypress(Space),,,,,-- the ---- --- ------ ----- ------- ---- -- --- ------- --<br>------- ---------- ------ -- ----- -- ----- -- ---- ------<br>--- ----- --- --- ------ -------- ----- --- ------ ----- --<br>----- ----- ---------- --- --- ------ ------ ---- -- ------<br>------- --- ------ ----- --- ---- ------- -- ---- --- --<br>------- ------,102464.89999999106,102464.39999999106,102135.169,102145.70000000298,102151.835,102468.389,,1,the
screen,html.Screen,0_2_1_1_2,2021-11-05T10:59:11.208Z,,,,,,,,,,,,,,,,54,,,,,,,,,,,,,,363.9109999970242,,response,,,100,,,,,,Space,keypress(Space),,,,,-- --- time --- ------ ----- ------- ---- -- --- ------- --<br>------- ---------- ------ -- ----- -- ----- -- ---- ------<br>--- ----- --- --- ------ -------- ----- --- ------ ----- --<br>----- ----- ---------- --- --- ------ ------ ---- -- ------<br>------- --- ------ ----- --- ---- ------- -- ---- --- --<br>------- ------,102832.89999999106,102832.29999999702,102451.724,102465,102468.389,102835.062,,2,time
screen,html.Screen,0_2_1_1_3,2021-11-05T10:59:12.264Z,,,,,,,,,,,,,,,,54,,,,,,,,,,,,,,1053.2379999970144,,response,,,100,,,,,,Space,keypress(Space),,,,,-- --- ---- the ------ ----- ------- ---- -- --- ------- --<br>------- ---------- ------ -- ----- -- ----- -- ---- ------<br>--- ----- --- --- ------ -------- ----- --- ------ ----- --<br>----- ----- ---------- --- --- ------ ------ ---- -- ------<br>------- --- ------ ----- --- ---- ------- -- ---- --- --<br>------- ------,103889,103888.29999999702,102818.397,102833.09999999404,102835.062,103901.744,,3,the
screen,html.Screen,0_2_1_1_4,2021-11-05T10:59:12.696Z,,,,,,,,,,,,,,,,54,,,,,,,,,,,,,,418.5559999970137,,response,,,100,,,,,,Space,keypress(Space),,,,,-- --- ---- --- French ----- ------- ---- -- --- ------- --<br>------- ---------- ------ -- ----- -- ----- -- ---- ------<br>--- ----- --- --- ------ -------- ----- --- ------ ----- --<br>----- ----- ---------- --- --- ------ ------ ---- -- ------<br>------- --- ------ ----- --- ---- ------- -- ---- --- --<br>------- ------,104320.89999999106,104320.29999999702,103885.078,103889.09999999404,103901.744,104334.848,,4,French
screen,html.Screen,0_2_1_1_5,2021-11-05T10:59:13.648Z,,,,,,,,,,,,,,,,54,,,,,,,,,,,,,,937.3520000029821,,response,,,100,,,,,,Space,keypress(Space),,,,,-- --- ---- --- ------ crown ------- ---- -- --- ------- --<br>------- ---------- ------ -- ----- -- ----- -- ---- ------<br>--- ----- --- --- ------ -------- ----- --- ------ ----- --<br>----- ----- ---------- --- --- ------ ------ ---- -- ------<br>------- --- ------ ----- --- ---- ------- -- ---- --- --<br>------- ------,105272.89999999106,105272.20000000298,104318.184,104321.89999999106,104334.848,105284.91,,5,crown
screen,html.Screen,0_2_1_1_6,2021-11-05T10:59:14.184Z,,,,,,,,,,,,,,,,54,,,,,,,,,,,,,,523.3899999970163,,response,,,100,,,,,,Space,keypress(Space),,,,,-- --- ---- --- ------ ----- secured ---- -- --- ------- --<br>------- ---------- ------ -- ----- -- ----- -- ---- ------<br>--- ----- --- --- ------ -------- ----- --- ------ ----- --<br>----- ----- ---------- --- --- ------ ------ ---- -- ------<br>------- --- ------ ----- --- ---- ------- -- ---- --- --<br>------- ------,105808.89999999106,105808.29999999702,105268.245,105273.09999999404,105284.91,105818.135,,6,secured
screen,html.Screen,0_2_1_1_7,2021-11-05T10:59:14.616Z,,,,,,,,,,,,,,,,54,,,,,,,,,,,,,,422.164999997025,,response,,,100,,,,,,Space,keypress(Space),,,,,-- --- ---- --- ------ ----- ------- much -- --- ------- --<br>------- ---------- ------ -- ----- -- ----- -- ---- ------<br>--- ----- --- --- ------ -------- ----- --- ------ ----- --<br>----- ----- ---------- --- --- ------ ------ ---- -- ------<br>------- --- ------ ----- --- ---- ------- -- ---- --- --<br>------- ------,106240.79999999702,106240.29999999702,105801.471,105809,105818.135,106251.52,,7,much
screen,html.Screen,0_2_1_1_8,2021-11-05T10:59:15.056Z,,,,,,,,,,,,,,,,54,,,,,,,,,,,,,,428.57999999403546,,response,,,100,,,,,,Space,keypress(Space),,,,,-- --- ---- --- ------ ----- ------- ---- of --- ------- --<br>------- ---------- ------ -- ----- -- ----- -- ---- ------<br>--- ----- --- --- ------ -------- ----- --- ------ ----- --<br>----- ----- ---------- --- --- ------ ------ ---- -- ------<br>------- --- ------ ----- --- ---- ------- -- ---- --- --<br>------- ------,106680.70000000298,106680.09999999404,106234.855,106241,106251.52,106684.907,,8,of
screen,html.Screen,0_2_1_1_9,2021-11-05T10:59:15.528Z,,,,,,,,,,,,,,,,54,,,,,,,,,,,,,,467.2930000029737,,response,,,100,,,,,,Space,keypress(Space),,,,,-- --- ---- --- ------ ----- ------- ---- -- its ------- --<br>------- ---------- ------ -- ----- -- ----- -- ---- ------<br>--- ----- --- --- ------ -------- ----- --- ------ ----- --<br>----- ----- ---------- --- --- ------ ------ ---- -- ------<br>------- --- ------ ----- --- ---- ------- -- ---- --- --<br>------- ------,107152.79999999702,107152.20000000298,106668.241,106680.89999999106,106684.907,107168.22,,9,its
screen,html.Screen,0_2_1_1_10,2021-11-05T10:59:15.992Z,,,,,,,,,,,,,,,,54,,,,,,,,,,,,,,447.87999999403837,,response,,,100,,,,,,Space,keypress(Space),,,,,-- --- ---- --- ------ ----- ------- ---- -- --- revenue --<br>------- ---------- ------ -- ----- -- ----- -- ---- ------<br>--- ----- --- --- ------ -------- ----- --- ------ ----- --<br>----- ----- ---------- --- --- ------ ------ ---- -- ------<br>------- --- ------ ----- --- ---- ------- -- ---- --- --<br>------- ------,107616.70000000298,107616.09999999404,107151.554,107152.89999999106,107168.22,107618.016,,10,revenue
screen,html.Screen,0_2_1_1_11,2021-11-05T10:59:16.488Z,,,,,,,,,,,,,,,,54,,,,,,,,,,,,,,494.0839999940363,,response,,,100,,,,,,Space,keypress(Space),,,,,-- --- ---- --- ------ ----- ------- ---- -- --- ------- by<br>------- ---------- ------ -- ----- -- ----- -- ---- ------<br>--- ----- --- --- ------ -------- ----- --- ------ ----- --<br>----- ----- ---------- --- --- ------ ------ ---- -- ------<br>------- --- ------ ----- --- ---- ------- -- ---- --- --<br>------- ------,108112.70000000298,108112.09999999404,107601.353,107616.79999999702,107618.016,108118.174,,11,by
screen,html.Screen,0_2_1_1_12,2021-11-05T10:59:16.944Z,,,,,,,,,,,,,,,,54,,,,,,,,,,,,,,449.92599999404047,,response,,,100,,,,,,Space,keypress(Space),,,,,-- --- ---- --- ------ ----- ------- ---- -- --- ------- --<br>issuing ---------- ------ -- ----- -- ----- -- ---- ------<br>--- ----- --- --- ------ -------- ----- --- ------ ----- --<br>----- ----- ---------- --- --- ------ ------ ---- -- ------<br>------- --- ------ ----- --- ---- ------- -- ---- --- --<br>------- ------,108568.70000000298,108568.09999999404,108101.508,108112.89999999106,108118.174,108584.751,,12,issuing
screen,html.Screen,0_2_1_1_13,2021-11-05T10:59:17.440Z,,,,,,,,,,,,,,,,54,,,,,,,,,,,,,,479.3489999940357,,response,,,100,,,,,,Space,keypress(Space),,,,,-- --- ---- --- ------ ----- ------- ---- -- --- ------- --<br>------- government ------ -- ----- -- ----- -- ---- ------<br>--- ----- --- --- ------ -------- ----- --- ------ ----- --<br>----- ----- ---------- --- --- ------ ------ ---- -- ------<br>------- --- ------ ----- --- ---- ------- -- ---- --- --<br>------- ------,109064.59999999404,109064.09999999404,108568.086,108568.89999999106,108584.751,109068.068,,13,government
screen,html.Screen,0_2_1_1_14,2021-11-05T10:59:17.808Z,,,,,,,,,,,,,,,,54,,,,,,,,,,,,,,363.9320000000007,,response,,,100,,,,,,Space,keypress(Space),,,,,-- --- ---- --- ------ ----- ------- ---- -- --- ------- --<br>------- ---------- bonds. -- ----- -- ----- -- ---- ------<br>--- ----- --- --- ------ -------- ----- --- ------ ----- --<br>----- ----- ---------- --- --- ------ ------ ---- -- ------<br>------- --- ------ ----- --- ---- ------- -- ---- --- --<br>------- ------,109432.5,109432,109051.403,109064.79999999702,109068.068,109434.634,,14,bonds.
screen,html.Screen,0_2_1_1_15,2021-11-05T10:59:18.216Z,,,,,,,,,,,,,,,,54,,,,,,,,,,,,,,405.46599999403406,,response,,,100,,,,,,Space,keypress(Space),,,,,-- --- ---- --- ------ ----- ------- ---- -- --- ------- --<br>------- ---------- ------ In ----- -- ----- -- ---- ------<br>--- ----- --- --- ------ -------- ----- --- ------ ----- --<br>----- ----- ---------- --- --- ------ ------ ---- -- ------<br>------- --- ------ ----- --- ---- ------- -- ---- --- --<br>------- ------,109840.70000000298,109840.09999999404,109417.97,109432.70000000298,109434.634,109851.405,,15,In
screen,html.Screen,0_2_1_1_16,2021-11-05T10:59:19.936Z,,,,,,,,,,,,,,,,54,,,,,,,,,,,,,,1708.5950000000012,,response,,,100,,,,,,Space,keypress(Space),,,,,"-- --- ---- --- ------ ----- ------- ---- -- --- ------- --<br>------- ---------- ------ -- 1727, -- ----- -- ---- ------<br>--- ----- --- --- ------ -------- ----- --- ------ ----- --<br>----- ----- ---------- --- --- ------ ------ ---- -- ------<br>------- --- ------ ----- --- ---- ------- -- ---- --- --<br>------- ------",111560.5,111560,109834.739,109840.79999999702,109851.405,111567.56,,16,"1727,"
screen,html.Screen,0_2_1_1_17,2021-11-05T10:59:20.744Z,,,,,,,,,,,,,,,,54,,,,,,,,,,,,,,800.5399999940419,,response,,,100,,,,,,Space,keypress(Space),,,,,-- --- ---- --- ------ ----- ------- ---- -- --- ------- --<br>------- ---------- ------ -- ----- in ----- -- ---- ------<br>--- ----- --- --- ------ -------- ----- --- ------ ----- --<br>----- ----- ---------- --- --- ------ ------ ---- -- ------<br>------- --- ------ ----- --- ---- ------- -- ---- --- --<br>------- ------,112368.70000000298,112368.09999999404,111550.897,111560.70000000298,111567.56,112384.62,,17,in
screen,html.Screen,0_2_1_1_18,2021-11-05T10:59:21.240Z,,,,,,,,,,,,,,,,54,,,,,,,,,,,,,,479.27999999106396,,response,,,100,,,,,,Space,keypress(Space),,,,,-- --- ---- --- ------ ----- ------- ---- -- --- ------- --<br>------- ---------- ------ -- ----- -- order -- ---- ------<br>--- ----- --- --- ------ -------- ----- --- ------ ----- --<br>----- ----- ---------- --- --- ------ ------ ---- -- ------<br>------- --- ------ ----- --- ---- ------- -- ---- --- --<br>------- ------,112864.5,112863.89999999106,112367.954,112368.79999999702,112384.62,112867.822,,18,order
screen,html.Screen,0_2_1_1_19,2021-11-05T10:59:21.600Z,,,,,,,,,,,,,,,,54,,,,,,,,,,,,,,355.97799999701965,,response,,,100,,,,,,Space,keypress(Space),,,,,-- --- ---- --- ------ ----- ------- ---- -- --- ------- --<br>------- ---------- ------ -- ----- -- ----- to ---- ------<br>--- ----- --- --- ------ -------- ----- --- ------ ----- --<br>----- ----- ---------- --- --- ------ ------ ---- -- ------<br>------- --- ------ ----- --- ---- ------- -- ---- --- --<br>------- ------,113224.29999999702,113223.79999999702,112851.157,112864.70000000298,112867.822,113234.473,,19,to
screen,html.Screen,0_2_1_1_20,2021-11-05T10:59:21.847Z,,,,,,,,,,,,,,,,54,,,,,,,,,,,,,,237.32699999702163,,response,,,100,,,,,,Space,keypress(Space),,,,,-- --- ---- --- ------ ----- ------- ---- -- --- ------- --<br>------- ---------- ------ -- ----- -- ----- -- save ------<br>--- ----- --- --- ------ -------- ----- --- ------ ----- --<br>----- ----- ---------- --- --- ------ ------ ---- -- ------<br>------- --- ------ ----- --- ---- ------- -- ---- --- --<br>------- ------,113472.39999999106,113471.79999999702,113217.808,113224.5,113234.473,113484.535,,20,save
screen,html.Screen,0_2_1_1_21,2021-11-05T10:59:22.448Z,,,,,,,,,,,,,,,,54,,,,,,,,,,,,,,587.2649999970163,,response,,,100,,,,,,Space,keypress(Space),,,,,"-- --- ---- --- ------ ----- ------- ---- -- --- ------- --<br>------- ---------- ------ -- ----- -- ----- -- ---- money,<br>--- ----- --- --- ------ -------- ----- --- ------ ----- --<br>----- ----- ---------- --- --- ------ ------ ---- -- ------<br>------- --- ------ ----- --- ---- ------- -- ---- --- --<br>------- ------",114072.39999999106,114071.79999999702,113467.869,113472.5,113484.535,114084.367,,21,"money,"
screen,html.Screen,0_2_1_1_22,2021-11-05T10:59:22.879Z,,,,,,,,,,,,,,,,54,,,,,,,,,,,,,,419.33300000298186,,response,,,100,,,,,,Space,keypress(Space),,,,,-- --- ---- --- ------ ----- ------- ---- -- --- ------- --<br>------- ---------- ------ -- ----- -- ----- -- ---- ------<br>the ----- --- --- ------ -------- ----- --- ------ ----- --<br>----- ----- ---------- --- --- ------ ------ ---- -- ------<br>------- --- ------ ----- --- ---- ------- -- ---- --- --<br>------- ------,114504.29999999702,114503.70000000298,114067.703,114072.5,114084.367,114517.729,,22,the
screen,html.Screen,0_2_1_1_23,2021-11-05T10:59:23.191Z,,,,,,,,,,,,,,,,54,,,,,,,,,,,,,,297.9710000029736,,response,,,100,,,,,,Space,keypress(Space),,,,,-- --- ---- --- ------ ----- ------- ---- -- --- ------- --<br>------- ---------- ------ -- ----- -- ----- -- ---- ------<br>--- state --- --- ------ -------- ----- --- ------ ----- --<br>----- ----- ---------- --- --- ------ ------ ---- -- ------<br>------- --- ------ ----- --- ---- ------- -- ---- --- --<br>------- ------,114816.29999999702,114815.70000000298,114501.064,114504.39999999106,114517.729,114817.731,,23,state
screen,html.Screen,0_2_1_1_24,2021-11-05T10:59:23.519Z,,,,,,,,,,,,,,,,54,,,,,,,,,,,,,,325.96900000298047,,response,,,100,,,,,,Space,keypress(Space),,,,,-- --- ---- --- ------ ----- ------- ---- -- --- ------- --<br>------- ---------- ------ -- ----- -- ----- -- ---- ------<br>--- ----- cut --- ------ -------- ----- --- ------ ----- --<br>----- ----- ---------- --- --- ------ ------ ---- -- ------<br>------- --- ------ ----- --- ---- ------- -- ---- --- --<br>------- ------,115144.29999999702,115143.70000000298,114801.066,114816.5,114817.731,115151.081,,24,cut
screen,html.Screen,0_2_1_1_25,2021-11-05T10:59:23.815Z,,,,,,,,,,,,,,,,54,,,,,,,,,,,,,,288.61900000297464,,response,,,100,,,,,,Space,keypress(Space),,,,,-- --- ---- --- ------ ----- ------- ---- -- --- ------- --<br>------- ---------- ------ -- ----- -- ----- -- ---- ------<br>--- ----- --- the ------ -------- ----- --- ------ ----- --<br>----- ----- ---------- --- --- ------ ------ ---- -- ------<br>------- --- ------ ----- --- ---- ------- -- ---- --- --<br>------- ------,115440.20000000298,115439.70000000298,115134.415,115144.5,115151.081,115450.933,,25,the
screen,html.Screen,0_2_1_1_26,2021-11-05T10:59:24.119Z,,,,,,,,,,,,,,,,54,,,,,,,,,,,,,,292.666999994035,,response,,,100,,,,,,Space,keypress(Space),,,,,-- --- ---- --- ------ ----- ------- ---- -- --- ------- --<br>------- ---------- ------ -- ----- -- ----- -- ---- ------<br>--- ----- --- --- bonds' -------- ----- --- ------ ----- --<br>----- ----- ---------- --- --- ------ ------ ---- -- ------<br>------- --- ------ ----- --- ---- ------- -- ---- --- --<br>------- ------,115744.20000000298,115743.59999999404,115434.27,115440.39999999106,115450.933,115751.075,,26,bonds'
screen,html.Screen,0_2_1_1_27,2021-11-05T10:59:24.519Z,,,,,,,,,,,,,,,,54,,,,,,,,,,,,,,392.52499999404245,,response,,,100,,,,,,Space,keypress(Space),,,,,-- --- ---- --- ------ ----- ------- ---- -- --- ------- --<br>------- ---------- ------ -- ----- -- ----- -- ---- ------<br>--- ----- --- --- ------ interest ----- --- ------ ----- --<br>----- ----- ---------- --- --- ------ ------ ---- -- ------<br>------- --- ------ ----- --- ---- ------- -- ---- --- --<br>------- ------,116144.20000000298,116143.59999999404,115734.408,115744.39999999106,115751.075,116151.043,,27,interest
screen,html.Screen,0_2_1_1_28,2021-11-05T10:59:24.879Z,,,,,,,,,,,,,,,,54,,,,,,,,,,,,,,352.5569999940344,,response,,,100,,,,,,Space,keypress(Space),,,,,-- --- ---- --- ------ ----- ------- ---- -- --- ------- --<br>------- ---------- ------ -- ----- -- ----- -- ---- ------<br>--- ----- --- --- ------ -------- rate. --- ------ ----- --<br>----- ----- ---------- --- --- ------ ------ ---- -- ------<br>------- --- ------ ----- --- ---- ------- -- ---- --- --<br>------- ------,116504.09999999404,116503.59999999404,116134.377,116144.39999999106,116151.043,116517.66,,28,rate.
screen,html.Screen,0_2_1_1_29,2021-11-05T10:59:25.271Z,,,,,,,,,,,,,,,,54,,,,,,,,,,,,,,377.93999999403604,,response,,,100,,,,,,Space,keypress(Space),,,,,-- --- ---- --- ------ ----- ------- ---- -- --- ------- --<br>------- ---------- ------ -- ----- -- ----- -- ---- ------<br>--- ----- --- --- ------ -------- ----- The ------ ----- --<br>----- ----- ---------- --- --- ------ ------ ---- -- ------<br>------- --- ------ ----- --- ---- ------- -- ---- --- --<br>------- ------,116896.20000000298,116895.59999999404,116500.995,116504.29999999702,116517.66,116900.976,,29,The
screen,html.Screen,0_2_1_1_30,2021-11-05T10:59:25.623Z,,,,,,,,,,,,,,,,54,,,,,,,,,,,,,,346.6239999940444,,response,,,100,,,,,,Space,keypress(Space),,,,,-- --- ---- --- ------ ----- ------- ---- -- --- ------- --<br>------- ---------- ------ -- ----- -- ----- -- ---- ------<br>--- ----- --- --- ------ -------- ----- --- market ----- --<br>----- ----- ---------- --- --- ------ ------ ---- -- ------<br>------- --- ------ ----- --- ---- ------- -- ---- --- --<br>------- ------,117248.09999999404,117247.59999999404,116884.311,116896.29999999702,116900.976,117250.948,,30,market
screen,html.Screen,0_2_1_1_31,2021-11-05T10:59:26.079Z,,,,,,,,,,,,,,,,54,,,,,,,,,,,,,,452.55199999999604,,response,,,100,,,,,,Space,keypress(Space),,,,,-- --- ---- --- ------ ----- ------- ---- -- --- ------- --<br>------- ---------- ------ -- ----- -- ----- -- ---- ------<br>--- ----- --- --- ------ -------- ----- --- ------ value --<br>----- ----- ---------- --- --- ------ ------ ---- -- ------<br>------- --- ------ ----- --- ---- ------- -- ---- --- --<br>------- ------,117704.09999999404,117703.5,117234.283,117248.29999999702,117250.948,117717.518,,31,value
screen,html.Screen,0_2_1_1_32,2021-11-05T10:59:26.495Z,,,,,,,,,,,,,,,,54,,,,,,,,,,,,,,402.08199999404314,,response,,,100,,,,,,Space,keypress(Space),,,,,-- --- ---- --- ------ ----- ------- ---- -- --- ------- --<br>------- ---------- ------ -- ----- -- ----- -- ---- ------<br>--- ----- --- --- ------ -------- ----- --- ------ ----- of<br>----- ----- ---------- --- --- ------ ------ ---- -- ------<br>------- --- ------ ----- --- ---- ------- -- ---- --- --<br>------- ------,118120.20000000298,118119.59999999404,117700.854,117704.29999999702,117717.518,118134.193,,32,of
screen,html.Screen,0_2_1_1_33,2021-11-05T10:59:26.927Z,,,,,,,,,,,,,,,,54,,,,,,,,,,,,,,417.3070000000007,,response,,,100,,,,,,Space,keypress(Space),,,,,-- --- ---- --- ------ ----- ------- ---- -- --- ------- --<br>------- ---------- ------ -- ----- -- ----- -- ---- ------<br>--- ----- --- --- ------ -------- ----- --- ------ ----- --<br>these ----- ---------- --- --- ------ ------ ---- -- ------<br>------- --- ------ ----- --- ---- ------- -- ---- --- --<br>------- ------,118552.09999999404,118551.5,118117.528,118120.29999999702,118134.193,118567.595,,33,these
screen,html.Screen,0_2_1_1_34,2021-11-05T10:59:27.255Z,,,,,,,,,,,,,,,,54,,,,,,,,,,,,,,311.90499999999884,,response,,,100,,,,,,Space,keypress(Space),,,,,-- --- ---- --- ------ ----- ------- ---- -- --- ------- --<br>------- ---------- ------ -- ----- -- ----- -- ---- ------<br>--- ----- --- --- ------ -------- ----- --- ------ ----- --<br>----- bonds ---------- --- --- ------ ------ ---- -- ------<br>------- --- ------ ----- --- ---- ------- -- ---- --- --<br>------- ------,118880.20000000298,118879.5,118550.929,118552.20000000298,118567.595,118884.115,,34,bonds
screen,html.Screen,0_2_1_1_35,2021-11-05T10:59:27.623Z,,,,,,,,,,,,,,,,54,,,,,,,,,,,,,,363.38499999999476,,response,,,100,,,,,,Space,keypress(Space),,,,,"-- --- ---- --- ------ ----- ------- ---- -- --- ------- --<br>------- ---------- ------ -- ----- -- ----- -- ---- ------<br>--- ----- --- --- ------ -------- ----- --- ------ ----- --<br>----- ----- plummeted, --- --- ------ ------ ---- -- ------<br>------- --- ------ ----- --- ---- ------- -- ---- --- --<br>------- ------",119248.20000000298,119247.5,118867.451,118880.29999999702,118884.115,119250.884,,35,"plummeted,"
screen,html.Screen,0_2_1_1_36,2021-11-05T10:59:27.975Z,,,,,,,,,,,,,,,,54,,,,,,,,,,,,,,348.51599999105383,,response,,,100,,,,,,Space,keypress(Space),,,,,-- --- ---- --- ------ ----- ------- ---- -- --- ------- --<br>------- ---------- ------ -- ----- -- ----- -- ---- ------<br>--- ----- --- --- ------ -------- ----- --- ------ ----- --<br>----- ----- ---------- and --- ------ ------ ---- -- ------<br>------- --- ------ ----- --- ---- ------- -- ---- --- --<br>------- ------,119600,119599.39999999106,119234.218,119248.29999999702,119250.884,119617.381,,36,and
screen,html.Screen,0_2_1_1_37,2021-11-05T10:59:28.335Z,,,,,,,,,,,,,,,,54,,,,,,,,,,,,,,342.01899999106536,,response,,,100,,,,,,Space,keypress(Space),,,,,-- --- ---- --- ------ ----- ------- ---- -- --- ------- --<br>------- ---------- ------ -- ----- -- ----- -- ---- ------<br>--- ----- --- --- ------ -------- ----- --- ------ ----- --<br>----- ----- ---------- --- the ------ ------ ---- -- ------<br>------- --- ------ ----- --- ---- ------- -- ---- --- --<br>------- ------,119960,119959.39999999106,119600.718,119600.09999999404,119617.381,119967.451,,37,the
screen,html.Screen,0_2_1_1_38,2021-11-05T10:59:28.802Z,,,,,,,,,,,,,,,,54,,,,,,,,,,,,,,455.9489999910584,,response,,,100,,,,,,Space,keypress(Space),,,,,-- --- ---- --- ------ ----- ------- ---- -- --- ------- --<br>------- ---------- ------ -- ----- -- ----- -- ---- ------<br>--- ----- --- --- ------ -------- ----- --- ------ ----- --<br>----- ----- ---------- --- --- market ------ ---- -- ------<br>------- --- ------ ----- --- ---- ------- -- ---- --- --<br>------- ------,120424,120423.39999999106,119950.786,119960.20000000298,119967.451,120434.01,,38,market
screen,html.Screen,0_2_1_1_39,2021-11-05T10:59:29.258Z,,,,,,,,,,,,,,,,54,,,,,,,,,,,,,,445.38999999106454,,response,,,100,,,,,,Space,keypress(Space),,,,,-- --- ---- --- ------ ----- ------- ---- -- --- ------- --<br>------- ---------- ------ -- ----- -- ----- -- ---- ------<br>--- ----- --- --- ------ -------- ----- --- ------ ----- --<br>----- ----- ---------- --- --- ------ became ---- -- ------<br>------- --- ------ ----- --- ---- ------- -- ---- --- --<br>------- ------,120880,120879.39999999106,120417.346,120424.09999999404,120434.01,120884.185,,39,became
screen,html.Screen,0_2_1_1_40,2021-11-05T10:59:29.594Z,,,,,,,,,,,,,,,,54,,,,,,,,,,,,,,331.1149999970221,,response,,,100,,,,,,Space,keypress(Space),,,,,-- --- ---- --- ------ ----- ------- ---- -- --- ------- --<br>------- ---------- ------ -- ----- -- ----- -- ---- ------<br>--- ----- --- --- ------ -------- ----- --- ------ ----- --<br>----- ----- ---------- --- --- ------ ------ wary -- ------<br>------- --- ------ ----- --- ---- ------- -- ---- --- --<br>------- ------,121216,121215.29999999702,120867.518,120880.20000000298,120884.185,121217.324,,40,wary
screen,html.Screen,0_2_1_1_41,2021-11-05T10:59:29.922Z,,,,,,,,,,,,,,,,54,,,,,,,,,,,,,,325.9759999970265,,response,,,100,,,,,,Space,keypress(Space),,,,,-- --- ---- --- ------ ----- ------- ---- -- --- ------- --<br>------- ---------- ------ -- ----- -- ----- -- ---- ------<br>--- ----- --- --- ------ -------- ----- --- ------ ----- --<br>----- ----- ---------- --- --- ------ ------ ---- of ------<br>------- --- ------ ----- --- ---- ------- -- ---- --- --<br>------- ------,121544,121543.29999999702,121200.66,121216.20000000298,121217.324,121550.685,,41,of
screen,html.Screen,0_2_1_1_42,2021-11-05T10:59:30.355Z,,,,,,,,,,,,,,,,54,,,,,,,,,,,,,,424.51500000298256,,response,,,100,,,,,,Space,keypress(Space),,,,,-- --- ---- --- ------ ----- ------- ---- -- --- ------- --<br>------- ---------- ------ -- ----- -- ----- -- ---- ------<br>--- ----- --- --- ------ -------- ----- --- ------ ----- --<br>----- ----- ---------- --- --- ------ ------ ---- -- French<br>------- --- ------ ----- --- ---- ------- -- ---- --- --<br>------- ------,121977,121975.20000000298,121534.02,121544.20000000298,121550.685,121984.098,,42,French
screen,html.Screen,0_2_1_1_43,2021-11-05T10:59:30.722Z,,,,,,,,,,,,,,,,54,,,,,,,,,,,,,,359.1020000029821,,response,,,100,,,,,,Space,keypress(Space),,,,,-- --- ---- --- ------ ----- ------- ---- -- --- ------- --<br>------- ---------- ------ -- ----- -- ----- -- ---- ------<br>--- ----- --- --- ------ -------- ----- --- ------ ----- --<br>----- ----- ---------- --- --- ------ ------ ---- -- ------<br>credit. --- ------ ----- --- ---- ------- -- ---- --- --<br>------- ------,122343.89999999106,122343.20000000298,121967.431,121977.20000000298,121984.098,122350.712,,43,credit.
screen,html.Screen,0_2_1_1_44,2021-11-05T10:59:31.050Z,,,,,,,,,,,,,,,,54,,,,,,,,,,,,,,320.9880000029807,,response,,,100,,,,,,Space,keypress(Space),,,,,-- --- ---- --- ------ ----- ------- ---- -- --- ------- --<br>------- ---------- ------ -- ----- -- ----- -- ---- ------<br>--- ----- --- --- ------ -------- ----- --- ------ ----- --<br>----- ----- ---------- --- --- ------ ------ ---- -- ------<br>------- The ------ ----- --- ---- ------- -- ---- --- --<br>------- ------,122672.20000000298,122671.70000000298,122334.046,122344,122350.712,122683.91,,44,The
screen,html.Screen,0_2_1_1_45,2021-11-05T10:59:31.402Z,,,,,,,,,,,,,,,,54,,,,,,,,,,,,,,339.3899999970163,,response,,,100,,,,,,Space,keypress(Space),,,,,-- --- ---- --- ------ ----- ------- ---- -- --- ------- --<br>------- ---------- ------ -- ----- -- ----- -- ---- ------<br>--- ----- --- --- ------ -------- ----- --- ------ ----- --<br>----- ----- ---------- --- --- ------ ------ ---- -- ------<br>------- --- French ----- --- ---- ------- -- ---- --- --<br>------- ------,123023.89999999106,123023.29999999702,122667.246,122672.39999999106,122683.91,123034.047,,45,French
screen,html.Screen,0_2_1_1_46,2021-11-05T10:59:31.730Z,,,,,,,,,,,,,,,,54,,,,,,,,,,,,,,317.25299999701383,,response,,,100,,,,,,Space,keypress(Space),,,,,-- --- ---- --- ------ ----- ------- ---- -- --- ------- --<br>------- ---------- ------ -- ----- -- ----- -- ---- ------<br>--- ----- --- --- ------ -------- ----- --- ------ ----- --<br>----- ----- ---------- --- --- ------ ------ ---- -- ------<br>------- --- ------ state --- ---- ------- -- ---- --- --<br>------- ------,123351.89999999106,123351.29999999702,123017.38,123024.09999999404,123034.047,123367.187,,46,state
screen,html.Screen,0_2_1_1_47,2021-11-05T10:59:32.057Z,,,,,,,,,,,,,,,,54,,,,,,,,,,,,,,312.0130000029749,,response,,,100,,,,,,Space,keypress(Space),,,,,-- --- ---- --- ------ ----- ------- ---- -- --- ------- --<br>------- ---------- ------ -- ----- -- ----- -- ---- ------<br>--- ----- --- --- ------ -------- ----- --- ------ ----- --<br>----- ----- ---------- --- --- ------ ------ ---- -- ------<br>------- --- ------ ----- was ---- ------- -- ---- --- --<br>------- ------,123679.79999999702,123679.20000000298,123350.524,123352.20000000298,123367.187,123683.901,,47,was
screen,html.Screen,0_2_1_1_48,2021-11-05T10:59:32.385Z,,,,,,,,,,,,,,,,54,,,,,,,,,,,,,,323.1989999940415,,response,,,100,,,,,,Space,keypress(Space),,,,,-- --- ---- --- ------ ----- ------- ---- -- --- ------- --<br>------- ---------- ------ -- ----- -- ----- -- ---- ------<br>--- ----- --- --- ------ -------- ----- --- ------ ----- --<br>----- ----- ---------- --- --- ------ ------ ---- -- ------<br>------- --- ------ ----- --- left ------- -- ---- --- --<br>------- ------,124007.70000000298,124007.09999999404,123667.236,123680,123683.901,124017.312,,48,left
screen,html.Screen,0_2_1_1_49,2021-11-05T10:59:32.761Z,,,,,,,,,,,,,,,,54,,,,,,,,,,,,,,365.8880000029749,,response,,,100,,,,,,Space,keypress(Space),,,,,-- --- ---- --- ------ ----- ------- ---- -- --- ------- --<br>------- ---------- ------ -- ----- -- ----- -- ---- ------<br>--- ----- --- --- ------ -------- ----- --- ------ ----- --<br>----- ----- ---------- --- --- ------ ------ ---- -- ------<br>------- --- ------ ----- --- ---- without -- ---- --- --<br>------- ------,124383.70000000298,124383.20000000298,124000.645,124007.89999999106,124017.312,124400.495,,49,without
screen,html.Screen,0_2_1_1_50,2021-11-05T10:59:33.113Z,,,,,,,,,,,,,,,,54,,,,,,,,,,,,,,334.7050000029849,,response,,,100,,,,,,Space,keypress(Space),,,,,-- --- ---- --- ------ ----- ------- ---- -- --- ------- --<br>------- ---------- ------ -- ----- -- ----- -- ---- ------<br>--- ----- --- --- ------ -------- ----- --- ------ ----- --<br>----- ----- ---------- --- --- ------ ------ ---- -- ------<br>------- --- ------ ----- --- ---- ------- an ---- --- --<br>------- ------,124735.70000000298,124735.20000000298,124383.831,124383.89999999106,124400.495,124750.573,,50,an
screen,html.Screen,0_2_1_1_51,2021-11-05T10:59:33.425Z,,,,,,,,,,,,,,,,54,,,,,,,,,,,,,,296.5269999940356,,response,,,100,,,,,,Space,keypress(Space),,,,,-- --- ---- --- ------ ----- ------- ---- -- --- ------- --<br>------- ---------- ------ -- ----- -- ----- -- ---- ------<br>--- ----- --- --- ------ -------- ----- --- ------ ----- --<br>----- ----- ---------- --- --- ------ ------ ---- -- ------<br>------- --- ------ ----- --- ---- ------- -- easy --- --<br>------- ------,125047.70000000298,125047.09999999404,124733.907,124735.89999999106,124750.573,125050.458,,51,easy
screen,html.Screen,0_2_1_1_52,2021-11-05T10:59:33.785Z,,,,,,,,,,,,,,,,54,,,,,,,,,,,,,,356.7420000029815,,response,,,100,,,,,,Space,keypress(Space),,,,,-- --- ---- --- ------ ----- ------- ---- -- --- ------- --<br>------- ---------- ------ -- ----- -- ----- -- ---- ------<br>--- ----- --- --- ------ -------- ----- --- ------ ----- --<br>----- ----- ---------- --- --- ------ ------ ---- -- ------<br>------- --- ------ ----- --- ---- ------- -- ---- way --<br>------- ------,125407.59999999404,125407.20000000298,125033.794,125047.79999999702,125050.458,125417.241,,52,way
screen,html.Screen,0_2_1_1_53,2021-11-05T10:59:34.697Z,,,,,,,,,,,,,,,,54,,,,,,,,,,,,,,901.858999994045,,response,,,100,,,,,,Space,keypress(Space),,,,,-- --- ---- --- ------ ----- ------- ---- -- --- ------- --<br>------- ---------- ------ -- ----- -- ----- -- ---- ------<br>--- ----- --- --- ------ -------- ----- --- ------ ----- --<br>----- ----- ---------- --- --- ------ ------ ---- -- ------<br>------- --- ------ ----- --- ---- ------- -- ---- --- of<br>------- ------,126319.59999999404,126319.09999999404,125400.574,125407.89999999106,125417.241,126333.594,,53,of
screen,html.Screen,0_2_1_1_54,2021-11-05T10:59:35.097Z,,,,,,,,,,,,,,,,54,,,,,,,,,,,,,,385.5059999940422,,response,,,100,,,,,,Space,keypress(Space),,,,,-- --- ---- --- ------ ----- ------- ---- -- --- ------- --<br>------- ---------- ------ -- ----- -- ----- -- ---- ------<br>--- ----- --- --- ------ -------- ----- --- ------ ----- --<br>----- ----- ---------- --- --- ------ ------ ---- -- ------<br>------- --- ------ ----- --- ---- ------- -- ---- --- --<br>raising ------,126719.70000000298,126719.09999999404,126316.931,126319.59999999404,126333.594,126733.826,,54,raising
screen,html.Screen,0_2_1_1_55,2021-11-05T10:59:35.585Z,,,,,,,,,,,,,,,,54,,,,,,,,,,,,,,473.2739999940386,,response,,,100,,,,,,Space,keypress(Space),,,,,-- --- ---- --- ------ ----- ------- ---- -- --- ------- --<br>------- ---------- ------ -- ----- -- ----- -- ---- ------<br>--- ----- --- --- ------ -------- ----- --- ------ ----- --<br>----- ----- ---------- --- --- ------ ------ ---- -- ------<br>------- --- ------ ----- --- ---- ------- -- ---- --- --<br>------- money.,127207.70000000298,127207.09999999404,126717.16,126719.89999999106,126733.826,127216.979,,55,money.
Item 100,flow.Loop,0_2_1_1,2021-11-05T10:59:35.586Z,,,,,,,,,,,,,,,,,,,,,,,,,,,,,,25672.017999994045,,completion,,,,E,,,,,,,,,,silence,,127208,127207.09999999404,101518.417,101519.59999999404,101535.082,127216.979,,,
Question 1,html.Screen,0_2_1_2,2021-11-05T10:59:38.813Z,,,,,,,,,,,,,,,,,,,,,,,,,,,true,TRUE,,3217.2210000029736,,response,,,100,E,,,,,TRUE,click #choice-1,,,,silence,,130434.89999999106,130434.20000000298,127200.315,127208.09999999404,127216.979,130450.164,,,
Question 2,html.Screen,0_2_1_3,2021-11-05T10:59:40.571Z,,,,,,,,,,,,,,,,,,,,,,,,,,,true,FALSE,,1742.735999991055,,response,,,100,E,,,,,FALSE,click #choice-2,,,,silence,,132193.79999999702,132192.89999999106,130433.5,130435,130450.164,132200.08,,,
Item 100,flow.Sequence,0_2_1,2021-11-05T10:59:40.572Z,,,,,,,,,,,,,,,,,,,,,,,,,,,,,,40657.22899999106,,completion,,,,,,,,,,,,,,,,132194,132192.89999999106,91519.006,91522.70000000298,91535.671,132200.08,,,
End of Practice,html.Page,0_2_2,2021-11-05T10:59:42.501Z,,,,,,,,,,,,,,,,,,,,,,,,,,,,,,1922.5199999940523,,form submission,,,,,,,,,,,,,,,,134123.09999999404,134122.59999999404,132183.415,132194.20000000298,132200.08,134133.432,,,
Practice,flow.Sequence,0_2,2021-11-05T10:59:42.501Z,,,,,,,,,,,,,,,,,,,,,,,,,,,,,,85484.64099999404,,completion,,,,,,,,,,,,,,,,134123.39999999106,134122.59999999404,48621.294,48631.5,48637.959,134133.432,,,
Trap_instruction,html.Page,0_3_0,2021-11-05T10:59:43.976Z,,,,,,,,,,,,,,,,,,,,,,,,,,,,,,1464.0679999999993,,form submission,,,,,,,,,,,,,,,,135597.89999999106,135597.5,134116.765,134123.59999999404,134133.432,135616.536,,,
trap_trial,html.Screen,0_3_1,2021-11-05T10:59:47.508Z,,,,,,,,,,,,,,,,,,,,,,,,,,,true,1,,3513.263999997027,,response,,,,,,,,,1,click #choice-1,,,,,,139130.79999999702,139129.79999999702,135583.206,135598.09999999404,135616.536,139143.179,,,
end of trap trial,html.Page,0_3_2,2021-11-05T10:59:49.042Z,,,,,,,,,,,,,,,,,,,,,,,,,,,,,,1521.2209999910556,,form submission,,,,,,,,,,,,,,,,140664.70000000298,140664.39999999106,139126.545,139131,139143.179,140666.296,,,
Trap 1,flow.Sequence,0_3,2021-11-05T10:59:49.043Z,,,,,,,,,,,,,,,,,,,,,,,,,,,,,,6530.967999991059,,completion,,,,,,,,,,,,,,,,140665,140664.39999999106,134116.765,134123.5,134133.432,140666.296,,,
Standby,html.Page,0_4_0,2021-11-05T10:59:57.028Z,,,,,,,,,,,,,,,,,,,,,,,,,,,,,,7999.195000000007,,timeout,,,,,,,,,,,,,,,,148650,148648.826,140649.631,140665.20000000298,140666.296,148665.491,,,
Holding screen,html.Screen,0_4_1_0_0,2021-11-05T11:00:04.028Z,,,,,,,,,,,,,,,,,,,,,,,,,,,,,,7000.068999999989,,timeout,,,,,,,,,,,,,,,,155649.89999999106,155648.894,148648.826,148650.29999999702,148665.491,155665.56,,,
screen,html.Screen,0_4_1_0_1_0,2021-11-05T11:00:05.064Z,,,,,,,,,,,,,,,,51,,,,,,,,,,,,,,1020.2399999970221,,response,,,13,E,,,,,Space,keypress(Space),,,,lyrical,American -------- --- --- ---- --- --- ------ -- --------<br>---- --------- --- ------- ------------ ---------- ---------<br>--- ---------- ------- ---------- ------- -- -------- ----<br>---- --- ------ ----- ------ -- ---- --- ----- -- - -------<br>-------- -- --- --- -- ----- ----------- ----- -----------<br>---- --- ---------- --- ---- --- -- ----------,156686.5,156685.79999999702,155648.894,155650.09999999404,155665.56,156698.737,,0,American
screen,html.Screen,0_4_1_0_1_1,2021-11-05T11:00:05.544Z,,,,,,,,,,,,,,,,51,,,,,,,,,,,,,,466.6629999910656,,response,,,13,E,,,,,Space,keypress(Space),,,,lyrical,-------- industry --- --- ---- --- --- ------ -- --------<br>---- --------- --- ------- ------------ ---------- ---------<br>--- ---------- ------- ---------- ------- -- -------- ----<br>---- --- ------ ----- ------ -- ---- --- ----- -- - -------<br>-------- -- --- --- -- ----- ----------- ----- -----------<br>---- --- ---------- --- ---- --- -- ----------,157166.09999999404,157165.39999999106,156682.072,156686.70000000298,156698.737,157182.031,,1,industry
screen,html.Screen,0_4_1_0_1_2,2021-11-05T11:00:05.960Z,,,,,,,,,,,,,,,,51,,,,,,,,,,,,,,399.26899999703164,,response,,,13,E,,,,,Space,keypress(Space),,,,lyrical,-------- -------- may --- ---- --- --- ------ -- --------<br>---- --------- --- ------- ------------ ---------- ---------<br>--- ---------- ------- ---------- ------- -- -------- ----<br>---- --- ------ ----- ------ -- ---- --- ----- -- - -------<br>-------- -- --- --- -- ----- ----------- ----- -----------<br>---- --- ---------- --- ---- --- -- ----------,157581.89999999106,157581.29999999702,157165.366,157166.20000000298,157182.031,157598.673,,2,may
screen,html.Screen,0_4_1_0_1_3,2021-11-05T11:00:06.352Z,,,,,,,,,,,,,,,,51,,,,,,,,,,,,,,374.62699999701,,response,,,13,E,,,,,Space,keypress(Space),,,,lyrical,-------- -------- --- not ---- --- --- ------ -- --------<br>---- --------- --- ------- ------------ ---------- ---------<br>--- ---------- ------- ---------- ------- -- -------- ----<br>---- --- ------ ----- ------ -- ---- --- ----- -- - -------<br>-------- -- --- --- -- ----- ----------- ----- -----------<br>---- --- ---------- --- ---- --- -- ----------,157973.89999999106,157973.29999999702,157582.008,157582.20000000298,157598.673,157981.99,,3,not
screen,html.Screen,0_4_1_0_1_4,2021-11-05T11:00:06.704Z,,,,,,,,,,,,,,,,51,,,,,,,,,,,,,,343.4099999910686,,response,,,13,E,,,,,Space,keypress(Space),,,,lyrical,-------- -------- --- --- know --- --- ------ -- --------<br>---- --------- --- ------- ------------ ---------- ---------<br>--- ---------- ------- ---------- ------- -- -------- ----<br>---- --- ------ ----- ------ -- ---- --- ----- -- - -------<br>-------- -- --- --- -- ----- ----------- ----- -----------<br>---- --- ---------- --- ---- --- -- ----------,158326,158325.39999999106,157965.325,157974.09999999404,157981.99,158332.048,,4,know
screen,html.Screen,0_4_1_0_1_5,2021-11-05T11:00:07.032Z,,,,,,,,,,,,,,,,51,,,,,,,,,,,,,,321.25199999701,,response,,,13,E,,,,,Space,keypress(Space),,,,lyrical,"-------- -------- --- --- ---- it, --- ------ -- --------<br>---- --------- --- ------- ------------ ---------- ---------<br>--- ---------- ------- ---------- ------- -- -------- ----<br>---- --- ------ ----- ------ -- ---- --- ----- -- - -------<br>-------- -- --- --- -- ----- ----------- ----- -----------<br>---- --- ---------- --- ---- --- -- ----------",158653.89999999106,158653.29999999702,158315.382,158326.20000000298,158332.048,158665.272,,5,"it,"
screen,html.Screen,0_4_1_0_1_6,2021-11-05T11:00:07.463Z,,,,,,,,,,,,,,,,51,,,,,,,,,,,,,,419.928000002983,,response,,,13,E,,,,,Space,keypress(Space),,,,lyrical,-------- -------- --- --- ---- --- but ------ -- --------<br>---- --------- --- ------- ------------ ---------- ---------<br>--- ---------- ------- ---------- ------- -- -------- ----<br>---- --- ------ ----- ------ -- ---- --- ----- -- - -------<br>-------- -- --- --- -- ----- ----------- ----- -----------<br>---- --- ---------- --- ---- --- -- ----------,159085.89999999106,159085.20000000298,158648.608,158654.09999999404,158665.272,159098.609,,6,but
screen,html.Screen,0_4_1_0_1_7,2021-11-05T11:00:07.871Z,,,,,,,,,,,,,,,,51,,,,,,,,,,,,,,394.690999997023,,response,,,13,E,,,,,Space,keypress(Space),,,,lyrical,-------- -------- --- --- ---- --- --- debate -- --------<br>---- --------- --- ------- ------------ ---------- ---------<br>--- ---------- ------- ---------- ------- -- -------- ----<br>---- --- ------ ----- ------ -- ---- --- ----- -- - -------<br>-------- -- --- --- -- ----- ----------- ----- -----------<br>---- --- ---------- --- ---- --- -- ----------,159493.79999999702,159493.29999999702,159081.944,159086.09999999404,159098.609,159498.678,,7,debate
screen,html.Screen,0_4_1_0_1_8,2021-11-05T11:00:08.287Z,,,,,,,,,,,,,,,,51,,,,,,,,,,,,,,410.62199999700533,,response,,,13,E,,,,,Space,keypress(Space),,,,lyrical,-------- -------- --- --- ---- --- --- ------ in --------<br>---- --------- --- ------- ------------ ---------- ---------<br>--- ---------- ------- ---------- ------- -- -------- ----<br>---- --- ------ ----- ------ -- ---- --- ----- -- - -------<br>-------- -- --- --- -- ----- ----------- ----- -----------<br>---- --- ---------- --- ---- --- -- ----------,159909.89999999106,159909.29999999702,159482.011,159494,159498.678,159915.17,,8,in
screen,html.Screen,0_4_1_0_1_9,2021-11-05T11:00:08.631Z,,,,,,,,,,,,,,,,51,,,,,,,,,,,,,,338.0300000029674,,response,,,13,E,,,,,Space,keypress(Space),,,,lyrical,-------- -------- --- --- ---- --- --- ------ -- Congress<br>---- --------- --- ------- ------------ ---------- ---------<br>--- ---------- ------- ---------- ------- -- -------- ----<br>---- --- ------ ----- ------ -- ---- --- ----- -- - -------<br>-------- -- --- --- -- ----- ----------- ----- -----------<br>---- --- ---------- --- ---- --- -- ----------,160253.79999999702,160253.20000000298,159898.506,159910,159915.17,160265.265,,9,Congress
screen,html.Screen,0_4_1_0_1_10,2021-11-05T11:00:09.191Z,,,,,,,,,,,,,,,,51,,,,,,,,,,,,,,547.9350000029663,,response,,,13,E,,,,,Space,keypress(Space),,,,lyrical,-------- -------- --- --- ---- --- --- ------ -- --------<br>over --------- --- ------- ------------ ---------- ---------<br>--- ---------- ------- ---------- ------- -- -------- ----<br>---- --- ------ ----- ------ -- ---- --- ----- -- - -------<br>-------- -- --- --- -- ----- ----------- ----- -----------<br>---- --- ---------- --- ---- --- -- ----------,160813.79999999702,160813.20000000298,160248.599,160253.89999999106,160265.265,160815.194,,10,over
screen,html.Screen,0_4_1_0_1_11,2021-11-05T11:00:09.647Z,,,,,,,,,,,,,,,,51,,,,,,,,,,,,,,454.00600000299164,,response,,,13,E,,,,,Space,keypress(Space),,,,lyrical,-------- -------- --- --- ---- --- --- ------ -- --------<br>---- reforming --- ------- ------------ ---------- ---------<br>--- ---------- ------- ---------- ------- -- -------- ----<br>---- --- ------ ----- ------ -- ---- --- ----- -- - -------<br>-------- -- --- --- -- ----- ----------- ----- -----------<br>---- --- ---------- --- ---- --- -- ----------,161269.79999999702,161269.20000000298,160798.529,160814,160815.194,161281.905,,11,reforming
screen,html.Screen,0_4_1_0_1_12,2021-11-05T11:00:10.047Z,,,,,,,,,,,,,,,,51,,,,,,,,,,,,,,387.2950000029814,,response,,,13,E,,,,,Space,keypress(Space),,,,lyrical,-------- -------- --- --- ---- --- --- ------ -- --------<br>---- --------- the ------- ------------ ---------- ---------<br>--- ---------- ------- ---------- ------- -- -------- ----<br>---- --- ------ ----- ------ -- ---- --- ----- -- - -------<br>-------- -- --- --- -- ----- ----------- ----- -----------<br>---- --- ---------- --- ---- --- -- ----------,161669.70000000298,161669.20000000298,161265.239,161270,161281.905,161681.753,,12,the
screen,html.Screen,0_4_1_0_1_13,2021-11-05T11:00:10.479Z,,,,,,,,,,,,,,,,51,,,,,,,,,,,,,,419.34699999404256,,response,,,13,E,,,,,Space,keypress(Space),,,,lyrical,-------- -------- --- --- ---- --- --- ------ -- --------<br>---- --------- --- federal ------------ ---------- ---------<br>--- ---------- ------- ---------- ------- -- -------- ----<br>---- --- ------ ----- ------ -- ---- --- ----- -- - -------<br>-------- -- --- --- -- ----- ----------- ----- -----------<br>---- --- ---------- --- ---- --- -- ----------,162101.70000000298,162101.09999999404,161665.089,161669.89999999106,161681.753,162115.107,,13,federal
screen,html.Screen,0_4_1_0_1_14,2021-11-05T11:00:10.895Z,,,,,,,,,,,,,,,,51,,,,,,,,,,,,,,401.89300000001094,,response,,,13,E,,,,,Space,keypress(Space),,,,lyrical,-------- -------- --- --- ---- --- --- ------ -- --------<br>---- --------- --- ------- government's ---------- ---------<br>--- ---------- ------- ---------- ------- -- -------- ----<br>---- --- ------ ----- ------ -- ---- --- ----- -- - -------<br>-------- -- --- --- -- ----- ----------- ----- -----------<br>---- --- ---------- --- ---- --- -- ----------,162517.59999999404,162517,162098.442,162101.79999999702,162115.107,162531.766,,14,government's
screen,html.Screen,0_4_1_0_1_15,2021-11-05T11:00:11.343Z,,,,,,,,,,,,,,,,51,,,,,,,,,,,,,,433.3339999940363,,response,,,13,E,,,,,Space,keypress(Space),,,,lyrical,-------- -------- --- --- ---- --- --- ------ -- --------<br>---- --------- --- ------- ------------ regulatory ---------<br>--- ---------- ------- ---------- ------- -- -------- ----<br>---- --- ------ ----- ------ -- ---- --- ----- -- - -------<br>-------- -- --- --- -- ----- ----------- ----- -----------<br>---- --- ---------- --- ---- --- -- ----------,162965.79999999702,162965.09999999404,162515.101,162517.89999999106,162531.766,162981.785,,15,regulatory
screen,html.Screen,0_4_1_0_1_16,2021-11-05T11:00:11.967Z,,,,,,,,,,,,,,,,51,,,,,,,,,,,,,,607.314999994036,,response,,,13,E,,,,,Space,keypress(Space),,,,lyrical,-------- -------- --- --- ---- --- --- ------ -- --------<br>---- --------- --- ------- ------------ ---------- apparatus<br>--- ---------- ------- ---------- ------- -- -------- ----<br>---- --- ------ ----- ------ -- ---- --- ----- -- - -------<br>-------- -- --- --- -- ----- ----------- ----- -----------<br>---- --- ---------- --- ---- --- -- ----------,163589.70000000298,163589.09999999404,162965.119,162965.89999999106,162981.785,163598.298,,16,apparatus
screen,html.Screen,0_4_1_0_1_17,2021-11-05T11:00:12.511Z,,,,,,,,,,,,,,,,51,,,,,,,,,,,,,,534.7019999999902,,response,,,13,E,,,,,Space,keypress(Space),,,,lyrical,-------- -------- --- --- ---- --- --- ------ -- --------<br>---- --------- --- ------- ------------ ---------- ---------<br>may ---------- ------- ---------- ------- -- -------- ----<br>---- --- ------ ----- ------ -- ---- --- ----- -- - -------<br>-------- -- --- --- -- ----- ----------- ----- -----------<br>---- --- ---------- --- ---- --- -- ----------,164133.59999999404,164133,163581.634,163589.89999999106,163598.298,164148.32,,17,may
screen,html.Screen,0_4_1_0_1_18,2021-11-05T11:00:13.159Z,,,,,,,,,,,,,,,,51,,,,,,,,,,,,,,632.679999999993,,response,,,13,E,,,,,Space,keypress(Space),,,,lyrical,-------- -------- --- --- ---- --- --- ------ -- --------<br>---- --------- --- ------- ------------ ---------- ---------<br>--- profoundly ------- ---------- ------- -- -------- ----<br>---- --- ------ ----- ------ -- ---- --- ----- -- - -------<br>-------- -- --- --- -- ----- ----------- ----- -----------<br>---- --- ---------- --- ---- --- -- ----------,164781.70000000298,164781,164131.655,164133.79999999702,164148.32,164798.303,,18,profoundly
screen,html.Screen,0_4_1_0_1_19,2021-11-05T11:00:13.687Z,,,,,,,,,,,,,,,,51,,,,,,,,,,,,,,510.59699999104487,,response,,,13,E,,,,,Space,keypress(Space),,,,lyrical,-------- -------- --- --- ---- --- --- ------ -- --------<br>---- --------- --- ------- ------------ ---------- ---------<br>--- ---------- improve ---------- ------- -- -------- ----<br>---- --- ------ ----- ------ -- ---- --- ----- -- - -------<br>-------- -- --- --- -- ----- ----------- ----- -----------<br>---- --- ---------- --- ---- --- -- ----------,165309.59999999404,165308.89999999106,164781.638,164781.79999999702,164798.303,165315.004,,19,improve
screen,html.Screen,0_4_1_0_1_20,2021-11-05T11:00:14.151Z,,,,,,,,,,,,,,,,51,,,,,,,,,,,,,,457.89599999107304,,response,,,13,E,,,,,Space,keypress(Space),,,,lyrical,-------- -------- --- --- ---- --- --- ------ -- --------<br>---- --------- --- ------- ------------ ---------- ---------<br>--- ---------- ------- companies' ------- -- -------- ----<br>---- --- ------ ----- ------ -- ---- --- ----- -- - -------<br>-------- -- --- --- -- ----- ----------- ----- -----------<br>---- --- ---------- --- ---- --- -- ----------,165773.39999999106,165772.89999999106,165298.338,165309.70000000298,165315.004,165781.523,,20,companies'
screen,html.Screen,0_4_1_0_1_21,2021-11-05T11:00:14.583Z,,,,,,,,,,,,,,,,51,,,,,,,,,,,,,,423.2769999970333,,response,,,13,E,,,,,Space,keypress(Space),,,,lyrical,-------- -------- --- --- ---- --- --- ------ -- --------<br>---- --------- --- ------- ------------ ---------- ---------<br>--- ---------- ------- ---------- ability -- -------- ----<br>---- --- ------ ----- ------ -- ---- --- ----- -- - -------<br>-------- -- --- --- -- ----- ----------- ----- -----------<br>---- --- ---------- --- ---- --- -- ----------,166205.5,166204.79999999702,165764.859,165773.59999999404,165781.523,166214.959,,21,ability
screen,html.Screen,0_4_1_0_1_22,2021-11-05T11:00:14.927Z,,,,,,,,,,,,,,,,51,,,,,,,,,,,,,,333.8409999970172,,response,,,13,E,,,,,Space,keypress(Space),,,,lyrical,-------- -------- --- --- ---- --- --- ------ -- --------<br>---- --------- --- ------- ------------ ---------- ---------<br>--- ---------- ------- ---------- ------- to -------- ----<br>---- --- ------ ----- ------ -- ---- --- ----- -- - -------<br>-------- -- --- --- -- ----- ----------- ----- -----------<br>---- --- ---------- --- ---- --- -- ----------,166549.39999999106,166548.79999999702,166198.293,166205.70000000298,166214.959,166564.823,,22,to
screen,html.Screen,0_4_1_0_1_23,2021-11-05T11:00:15.295Z,,,,,,,,,,,,,,,,51,,,,,,,,,,,,,,352.17699999999604,,response,,,13,E,,,,,Space,keypress(Space),,,,lyrical,-------- -------- --- --- ---- --- --- ------ -- --------<br>---- --------- --- ------- ------------ ---------- ---------<br>--- ---------- ------- ---------- ------- -- survive. ----<br>---- --- ------ ----- ------ -- ---- --- ----- -- - -------<br>-------- -- --- --- -- ----- ----------- ----- -----------<br>---- --- ---------- --- ---- --- -- ----------,166917.70000000298,166917,166548.159,166549.5,166564.823,166931.585,,23,survive.
screen,html.Screen,0_4_1_0_1_24,2021-11-05T11:00:15.719Z,,,,,,,,,,,,,,,,51,,,,,,,,,,,,,,409.2149999970279,,response,,,13,E,,,,,Space,keypress(Space),,,,lyrical,-------- -------- --- --- ---- --- --- ------ -- --------<br>---- --------- --- ------- ------------ ---------- ---------<br>--- ---------- ------- ---------- ------- -- -------- This<br>---- --- ------ ----- ------ -- ---- --- ----- -- - -------<br>-------- -- --- --- -- ----- ----------- ----- -----------<br>---- --- ---------- --- ---- --- -- ----------,167341.5,167340.79999999702,166914.919,166917.79999999702,166931.585,167348.19,,24,This
screen,html.Screen,0_4_1_0_1_25,2021-11-05T11:00:16.087Z,,,,,,,,,,,,,,,,51,,,,,,,,,,,,,,360.709999991057,,response,,,13,E,,,,,Space,keypress(Space),,,,lyrical,-------- -------- --- --- ---- --- --- ------ -- --------<br>---- --------- --- ------- ------------ ---------- ---------<br>--- ---------- ------- ---------- ------- -- -------- ----<br>week --- ------ ----- ------ -- ---- --- ----- -- - -------<br>-------- -- --- --- -- ----- ----------- ----- -----------<br>---- --- ---------- --- ---- --- -- ----------,167709.5,167708.89999999106,167331.525,167341.59999999404,167348.19,167714.751,,25,week
screen,html.Screen,0_4_1_0_1_26,2021-11-05T11:00:16.431Z,,,,,,,,,,,,,,,,51,,,,,,,,,,,,,,338.0489999970305,,response,,,13,E,,,,,Space,keypress(Space),,,,lyrical,-------- -------- --- --- ---- --- --- ------ -- --------<br>---- --------- --- ------- ------------ ---------- ---------<br>--- ---------- ------- ---------- ------- -- -------- ----<br>---- the ------ ----- ------ -- ---- --- ----- -- - -------<br>-------- -- --- --- -- ----- ----------- ----- -----------<br>---- --- ---------- --- ---- --- -- ----------,168053.39999999106,168052.79999999702,167698.087,167709.79999999702,167714.751,168064.862,,26,the
screen,html.Screen,0_4_1_0_1_27,2021-11-05T11:00:17.191Z,,,,,,,,,,,,,,,,51,,,,,,,,,,,,,,747.937999997026,,response,,,13,E,,,,,Space,keypress(Space),,,,lyrical,-------- -------- --- --- ---- --- --- ------ -- --------<br>---- --------- --- ------- ------------ ---------- ---------<br>--- ---------- ------- ---------- ------- -- -------- ----<br>---- --- Senate ----- ------ -- ---- --- ----- -- - -------<br>-------- -- --- --- -- ----- ----------- ----- -----------<br>---- --- ---------- --- ---- --- -- ----------,168813.39999999106,168812.79999999702,168048.196,168053.70000000298,168064.862,168814.753,,27,Senate
screen,html.Screen,0_4_1_0_1_28,2021-11-05T11:00:17.647Z,,,,,,,,,,,,,,,,51,,,,,,,,,,,,,,454.0469999970228,,response,,,13,E,,,,,Space,keypress(Space),,,,lyrical,-------- -------- --- --- ---- --- --- ------ -- --------<br>---- --------- --- ------- ------------ ---------- ---------<br>--- ---------- ------- ---------- ------- -- -------- ----<br>---- --- ------ seems ------ -- ---- --- ----- -- - -------<br>-------- -- --- --- -- ----- ----------- ----- -----------<br>---- --- ---------- --- ---- --- -- ----------,169269.39999999106,169268.79999999702,168798.088,168813.59999999404,168814.753,169281.418,,28,seems
screen,html.Screen,0_4_1_0_1_29,2021-11-05T11:00:18.503Z,,,,,,,,,,,,,,,,51,,,,,,,,,,,,,,843.3819999970146,,response,,,13,E,,,,,Space,keypress(Space),,,,lyrical,-------- -------- --- --- ---- --- --- ------ -- --------<br>---- --------- --- ------- ------------ ---------- ---------<br>--- ---------- ------- ---------- ------- -- -------- ----<br>---- --- ------ ----- poised -- ---- --- ----- -- - -------<br>-------- -- --- --- -- ----- ----------- ----- -----------<br>---- --- ---------- --- ---- --- -- ----------,170125.39999999106,170124.79999999702,169264.753,169269.5,169281.418,170131.317,,29,poised
screen,html.Screen,0_4_1_0_1_30,2021-11-05T11:00:18.887Z,,,,,,,,,,,,,,,,51,,,,,,,,,,,,,,377.2829999940295,,response,,,13,E,,,,,Space,keypress(Space),,,,lyrical,-------- -------- --- --- ---- --- --- ------ -- --------<br>---- --------- --- ------- ------------ ---------- ---------<br>--- ---------- ------- ---------- ------- -- -------- ----<br>---- --- ------ ----- ------ to ---- --- ----- -- - -------<br>-------- -- --- --- -- ----- ----------- ----- -----------<br>---- --- ---------- --- ---- --- -- ----------,170509.09999999404,170508.59999999404,170114.652,170125.5,170131.317,170514.623,,30,to
screen,html.Screen,0_4_1_0_1_31,2021-11-05T11:00:19.551Z,,,,,,,,,,,,,,,,51,,,,,,,,,,,,,,657.9769999940472,,response,,,13,E,,,,,Space,keypress(Space),,,,lyrical,-------- -------- --- --- ---- --- --- ------ -- --------<br>---- --------- --- ------- ------------ ---------- ---------<br>--- ---------- ------- ---------- ------- -- -------- ----<br>---- --- ------ ----- ------ -- join --- ----- -- - -------<br>-------- -- --- --- -- ----- ----------- ----- -----------<br>---- --- ---------- --- ---- --- -- ----------,171173.20000000298,171172.59999999404,170497.958,170509.39999999106,170514.623,171181.253,,31,join
screen,html.Screen,0_4_1_0_1_32,2021-11-05T11:00:19.984Z,,,,,,,,,,,,,,,,51,,,,,,,,,,,,,,423.34699999404256,,response,,,13,E,,,,,Space,keypress(Space),,,,lyrical,-------- -------- --- --- ---- --- --- ------ -- --------<br>---- --------- --- ------- ------------ ---------- ---------<br>--- ---------- ------- ---------- ------- -- -------- ----<br>---- --- ------ ----- ------ -- ---- the ----- -- - -------<br>-------- -- --- --- -- ----- ----------- ----- -----------<br>---- --- ---------- --- ---- --- -- ----------,171605.89999999106,171604.59999999404,171164.588,171173.39999999106,171181.253,171614.707,,32,the
screen,html.Screen,0_4_1_0_1_33,2021-11-05T11:00:20.671Z,,,,,,,,,,,,,,,,51,,,,,,,,,,,,,,677.8929999940447,,response,,,13,E,,,,,Space,keypress(Space),,,,lyrical,-------- -------- --- --- ---- --- --- ------ -- --------<br>---- --------- --- ------- ------------ ---------- ---------<br>--- ---------- ------- ---------- ------- -- -------- ----<br>---- --- ------ ----- ------ -- ---- --- House -- - -------<br>-------- -- --- --- -- ----- ----------- ----- -----------<br>---- --- ---------- --- ---- --- -- ----------,172293.29999999702,172292.59999999404,171598.04,171606.20000000298,171614.707,172297.799,,33,House
screen,html.Screen,0_4_1_0_1_34,2021-11-05T11:00:21.079Z,,,,,,,,,,,,,,,,51,,,,,,,,,,,,,,402.80099999404047,,response,,,13,E,,,,,Space,keypress(Space),,,,lyrical,-------- -------- --- --- ---- --- --- ------ -- --------<br>---- --------- --- ------- ------------ ---------- ---------<br>--- ---------- ------- ---------- ------- -- -------- ----<br>---- --- ------ ----- ------ -- ---- --- ----- in - -------<br>-------- -- --- --- -- ----- ----------- ----- -----------<br>---- --- ---------- --- ---- --- -- ----------,172701.20000000298,172700.59999999404,172281.135,172293.39999999106,172297.799,172714.632,,34,in
screen,html.Screen,0_4_1_0_1_35,2021-11-05T11:00:21.415Z,,,,,,,,,,,,,,,,51,,,,,,,,,,,,,,321.86799999998766,,response,,,13,E,,,,,Space,keypress(Space),,,,lyrical,-------- -------- --- --- ---- --- --- ------ -- --------<br>---- --------- --- ------- ------------ ---------- ---------<br>--- ---------- ------- ---------- ------- -- -------- ----<br>---- --- ------ ----- ------ -- ---- --- ----- -- a -------<br>-------- -- --- --- -- ----- ----------- ----- -----------<br>---- --- ---------- --- ---- --- -- ----------,173037,173036.5,172697.965,172701.5,172714.632,173047.801,,35,a
screen,html.Screen,0_4_1_0_1_36,2021-11-05T11:00:22.015Z,,,,,,,,,,,,,,,,51,,,,,,,,,,,,,,588.7989999940328,,response,,,13,E,,,,,Space,keypress(Space),,,,lyrical,-------- -------- --- --- ---- --- --- ------ -- --------<br>---- --------- --- ------- ------------ ---------- ---------<br>--- ---------- ------- ---------- ------- -- -------- ----<br>---- --- ------ ----- ------ -- ---- --- ----- -- - massive<br>-------- -- --- --- -- ----- ----------- ----- -----------<br>---- --- ---------- --- ---- --- -- ----------,173637.20000000298,173636.59999999404,173031.137,173037.20000000298,173047.801,173647.922,,36,massive
screen,html.Screen,0_4_1_0_1_37,2021-11-05T11:00:22.663Z,,,,,,,,,,,,,,,,51,,,,,,,,,,,,,,636.4779999910679,,response,,,13,E,,,,,Space,keypress(Space),,,,lyrical,-------- -------- --- --- ---- --- --- ------ -- --------<br>---- --------- --- ------- ------------ ---------- ---------<br>--- ---------- ------- ---------- ------- -- -------- ----<br>---- --- ------ ----- ------ -- ---- --- ----- -- - -------<br>overhaul -- --- --- -- ----- ----------- ----- -----------<br>---- --- ---------- --- ---- --- -- ----------,174285,174284.39999999106,173631.255,173637.39999999106,173647.922,174297.693,,37,overhaul
screen,html.Screen,0_4_1_0_1_38,2021-11-05T11:00:23.071Z,,,,,,,,,,,,,,,,51,,,,,,,,,,,,,,394.70699999106,,response,,,13,E,,,,,Space,keypress(Space),,,,lyrical,-------- -------- --- --- ---- --- --- ------ -- --------<br>---- --------- --- ------- ------------ ---------- ---------<br>--- ---------- ------- ---------- ------- -- -------- ----<br>---- --- ------ ----- ------ -- ---- --- ----- -- - -------<br>-------- of --- --- -- ----- ----------- ----- -----------<br>---- --- ---------- --- ---- --- -- ----------,174693,174692.39999999106,174281.029,174285.20000000298,174297.693,174697.726,,38,of
screen,html.Screen,0_4_1_0_1_39,2021-11-05T11:00:23.503Z,,,,,,,,,,,,,,,,51,,,,,,,,,,,,,,426.6739999910642,,response,,,13,E,,,,,Space,keypress(Space),,,,lyrical,-------- -------- --- --- ---- --- --- ------ -- --------<br>---- --------- --- ------- ------------ ---------- ---------<br>--- ---------- ------- ---------- ------- -- -------- ----<br>---- --- ------ ----- ------ -- ---- --- ----- -- - -------<br>-------- -- the --- -- ----- ----------- ----- -----------<br>---- --- ---------- --- ---- --- -- ----------,175125.09999999404,175124.39999999106,174681.061,174693.09999999404,174697.726,175131.105,,39,the
screen,html.Screen,0_4_1_0_1_40,2021-11-05T11:00:23.959Z,,,,,,,,,,,,,,,,51,,,,,,,,,,,,,,449.1949999970093,,response,,,13,E,,,,,Space,keypress(Space),,,,lyrical,-------- -------- --- --- ---- --- --- ------ -- --------<br>---- --------- --- ------- ------------ ---------- ---------<br>--- ---------- ------- ---------- ------- -- -------- ----<br>---- --- ------ ----- ------ -- ---- --- ----- -- - -------<br>-------- -- --- way -- ----- ----------- ----- -----------<br>---- --- ---------- --- ---- --- -- ----------,175580.89999999106,175580.29999999702,175114.439,175125.20000000298,175131.105,175597.646,,40,way
screen,html.Screen,0_4_1_0_1_41,2021-11-05T11:00:24.439Z,,,,,,,,,,,,,,,,51,,,,,,,,,,,,,,462.65399999701185,,response,,,13,E,,,,,Space,keypress(Space),,,,lyrical,-------- -------- --- --- ---- --- --- ------ -- --------<br>---- --------- --- ------- ------------ ---------- ---------<br>--- ---------- ------- ---------- ------- -- -------- ----<br>---- --- ------ ----- ------ -- ---- --- ----- -- - -------<br>-------- -- --- --- in ----- ----------- ----- -----------<br>---- --- ---------- --- ---- --- -- ----------,176060.89999999106,176060.29999999702,175580.982,175581.20000000298,175597.646,176064.312,,41,in
screen,html.Screen,0_4_1_0_1_42,2021-11-05T11:00:24.887Z,,,,,,,,,,,,,,,,51,,,,,,,,,,,,,,444.08799999105395,,response,,,13,E,,,,,Space,keypress(Space),,,,lyrical,-------- -------- --- --- ---- --- --- ------ -- --------<br>---- --------- --- ------- ------------ ---------- ---------<br>--- ---------- ------- ---------- ------- -- -------- ----<br>---- --- ------ ----- ------ -- ---- --- ----- -- - -------<br>-------- -- --- --- -- which ----------- ----- -----------<br>---- --- ---------- --- ---- --- -- ----------,176508.89999999106,176508.39999999106,176047.647,176061.09999999404,176064.312,176514.306,,42,which
screen,html.Screen,0_4_1_0_1_43,2021-11-05T11:00:26.391Z,,,,,,,,,,,,,,,,51,,,,,,,,,,,,,,1498.1939999999886,,response,,,13,E,,,,,Space,keypress(Space),,,,lyrical,-------- -------- --- --- ---- --- --- ------ -- --------<br>---- --------- --- ------- ------------ ---------- ---------<br>--- ---------- ------- ---------- ------- -- -------- ----<br>---- --- ------ ----- ------ -- ---- --- ----- -- - -------<br>-------- -- --- --- -- ----- bureaucrats ----- -----------<br>---- --- ---------- --- ---- --- -- ----------,178013.09999999404,178012.5,176497.641,176509.09999999404,176514.306,178014.306,,43,bureaucrats
screen,html.Screen,0_4_1_0_1_44,2021-11-05T11:00:26.918Z,,,,,,,,,,,,,,,,51,,,,,,,,,,,,,,525.8940000029688,,response,,,13,E,,,,,Space,keypress(Space),,,,lyrical,-------- -------- --- --- ---- --- --- ------ -- --------<br>---- --------- --- ------- ------------ ---------- ---------<br>--- ---------- ------- ---------- ------- -- -------- ----<br>---- --- ------ ----- ------ -- ---- --- ----- -- - -------<br>-------- -- --- --- -- ----- ----------- enact -----------<br>---- --- ---------- --- ---- --- -- ----------,178540.89999999106,178540.20000000298,177997.64,178013.29999999702,178014.306,178547.488,,44,enact
screen,html.Screen,0_4_1_0_1_45,2021-11-05T11:00:27.502Z,,,,,,,,,,,,,,,,51,,,,,,,,,,,,,,576.7120000029681,,response,,,13,E,,,,,Space,keypress(Space),,,,lyrical,-------- -------- --- --- ---- --- --- ------ -- --------<br>---- --------- --- ------- ------------ ---------- ---------<br>--- ---------- ------- ---------- ------- -- -------- ----<br>---- --- ------ ----- ------ -- ---- --- ----- -- - -------<br>-------- -- --- --- -- ----- ----------- ----- regulations<br>---- --- ---------- --- ---- --- -- ----------,179124.79999999702,179124.20000000298,178530.823,178541,178547.488,179130.828,,45,regulations
screen,html.Screen,0_4_1_0_1_46,2021-11-05T11:00:27.886Z,,,,,,,,,,,,,,,,51,,,,,,,,,,,,,,377.3720000029716,,response,,,13,E,,,,,Space,keypress(Space),,,,lyrical,-------- -------- --- --- ---- --- --- ------ -- --------<br>---- --------- --- ------- ------------ ---------- ---------<br>--- ---------- ------- ---------- ------- -- -------- ----<br>---- --- ------ ----- ------ -- ---- --- ----- -- - -------<br>-------- -- --- --- -- ----- ----------- ----- -----------<br>that --- ---------- --- ---- --- -- ----------,179508.70000000298,179508.20000000298,179114.163,179125,179130.828,179514.166,,46,that
screen,html.Screen,0_4_1_0_1_47,2021-11-05T11:00:28.334Z,,,,,,,,,,,,,,,,51,,,,,,,,,,,,,,441.9339999940421,,response,,,13,E,,,,,Space,keypress(Space),,,,lyrical,-------- -------- --- --- ---- --- --- ------ -- --------<br>---- --------- --- ------- ------------ ---------- ---------<br>--- ---------- ------- ---------- ------- -- -------- ----<br>---- --- ------ ----- ------ -- ---- --- ----- -- - -------<br>-------- -- --- --- -- ----- ----------- ----- -----------<br>---- are ---------- --- ---- --- -- ----------,179956.89999999106,179956.09999999404,179497.501,179508.89999999106,179514.166,179964.069,,47,are
screen,html.Screen,0_4_1_0_1_48,2021-11-05T11:00:28.798Z,,,,,,,,,,,,,,,,51,,,,,,,,,,,,,,456.03099999405094,,response,,,13,E,,,,,Space,keypress(Space),,,,lyrical,-------- -------- --- --- ---- --- --- ------ -- --------<br>---- --------- --- ------- ------------ ---------- ---------<br>--- ---------- ------- ---------- ------- -- -------- ----<br>---- --- ------ ----- ------ -- ---- --- ----- -- - -------<br>-------- -- --- --- -- ----- ----------- ----- -----------<br>---- --- strangling --- ---- --- -- ----------,180420.79999999702,180420.09999999404,179947.405,179957,179964.069,180430.835,,48,strangling
screen,html.Screen,0_4_1_0_1_49,2021-11-05T11:00:29.241Z,,,,,,,,,,,,,,,,51,,,,,,,,,,,,,,429.16500000000815,,response,,,13,E,,,,,Space,keypress(Space),,,,lyrical,-------- -------- --- --- ---- --- --- ------ -- --------<br>---- --------- --- ------- ------------ ---------- ---------<br>--- ---------- ------- ---------- ------- -- -------- ----<br>---- --- ------ ----- ------ -- ---- --- ----- -- - -------<br>-------- -- --- --- -- ----- ----------- ----- -----------<br>---- --- ---------- the ---- --- -- ----------,180860.59999999404,180860,180414.169,180421,180430.835,180864.085,,49,the
screen,html.Screen,0_4_1_0_1_50,2021-11-05T11:00:29.777Z,,,,,,,,,,,,,,,,51,,,,,,,,,,,,,,531.9150000000081,,response,,,13,E,,,,,Space,keypress(Space),,,,lyrical,-------- -------- --- --- ---- --- --- ------ -- --------<br>---- --------- --- ------- ------------ ---------- ---------<br>--- ---------- ------- ---------- ------- -- -------- ----<br>---- --- ------ ----- ------ -- ---- --- ----- -- - -------<br>-------- -- --- --- -- ----- ----------- ----- -----------<br>---- --- ---------- --- life --- -- ----------,181396.70000000298,181396,180847.42,180860.89999999106,180864.085,181397.365,,50,life
