sender,sender_type,sender_id,timestamp,meta,,Blues,Classical,Country,Dance,Electronic,Folk,Gospel,Hip-Hop,Jazz,Latin,Musical/Film,New-age,Pop,Provo_ID,R&B,Rap,Reggae,Religious,Rock,Soul,Swing,Traditional,age,artist_name,correct,correctResponse,distraction,duration,education,ended_on,familiarity,gender,item,list,music_frequency,offensiveness,pleasantness,preference,response,response_action,snippet_file,song_name,song_rating,sound,text,time_commit,time_end,time_render,time_run,time_show,time_switch,url,word,word_ID
Instructions,html.Page,0_0,2021-12-02T10:56:21.020Z,"{""labjs_version"":""20.2.3"",""labjs_build"":{""flavor"":""production"",""commit"":""7ea907d66ca8aeef8054924ca5d82ffbe11e34e5""},""location"":""https://run.pavlovia.org/mvasilev/lab_music_c/"",""userAgent"":""Mozilla/5.0 (Windows NT 6.1; Win64; x64) AppleWebKit/537.36 (KHTML, like Gecko) Chrome/96.0.4664.45 Safari/537.36"",""platform"":""Win32"",""language"":""en-US"",""locale"":""en-US"",""timeZone"":""Europe/London"",""timezoneOffset"":0,""screen_width"":1920,""screen_height"":1080,""scroll_width"":1920,""scroll_height"":921,""window_innerWidth"":1920,""window_innerHeight"":969,""devicePixelRatio"":1}",,,,,,,,,,,,,,,,,,,,,,,,,,,,,21255.629000000372,,form submission,,,,,,,,,,,,,,,,28719.700000001118,28718.400000000373,7429.431,7447.5999999996275,7462.771,28718.588,{},,
Headphones,html.Page,0_1,2021-12-02T10:56:23.510Z,,,,,,,,,,,,,,,,,,,,,,,,,,,,,,2489.9120000000003,,form submission,,,,,,,,,,,,,,,,31209,31208.5,28701.918,28720.5,28718.588,31219.056,,,
Holding screen,html.Screen,0_2_0_0,2021-12-02T10:56:33.512Z,,,,,,,,,,,,,,,,,,,,,,,,,,,,,,10002.823,,timeout,,,,,,,,,,,,,,,,41211.20000000112,41205.209,31202.389,31209.400000000373,31219.056,41221.879,,,
screen,html.Screen,0_2_0_1_0,2021-12-02T10:56:34.589Z,,,,,,,,,,,,,,,,53,,,,,,,,,,,,,,1065.3210000011168,,response,,,99,,,,,,Space,keypress(Space),,,,,When -- ----- -- ------ - ------- --- ----------<br>------------- ------ ------ ---- ---- ------- ----- -- ----<br>-------- ------- -- ---------- --- - --- ----- ----- ----<br>---- --- --- ----- --- ---- ---- ------- ----- ---- -------<br>--- --- -- ----- -- --- ---- -- --- ---- -- ------ ------<br>--- ----- -- ----,42288.70000000112,42287.20000000112,41205.209,41211.70000000112,41221.879,42305.684,,0,When
screen,html.Screen,0_2_0_1_1,2021-12-02T10:56:34.988Z,,,,,,,,,,,,,,,,53,,,,,,,,,,,,,,381.11600000074395,,response,,,99,,,,,,Space,keypress(Space),,,,,---- it ----- -- ------ - ------- --- ----------<br>------------- ------ ------ ---- ---- ------- ----- -- ----<br>-------- ------- -- ---------- --- - --- ----- ----- ----<br>---- --- --- ----- --- ---- ---- ------- ----- ---- -------<br>--- --- -- ----- -- --- ---- -- --- ---- -- ------ ------<br>--- ----- -- ----,42687.70000000112,42686.800000000745,42289.013,42289.20000000112,42305.684,42689.057,,1,it
screen,html.Screen,0_2_0_1_2,2021-12-02T10:56:35.380Z,,,,,,,,,,,,,,,,53,,,,,,,,,,,,,,389.74300000074436,,response,,,99,,,,,,Space,keypress(Space),,,,,---- -- comes -- ------ - ------- --- ----------<br>------------- ------ ------ ---- ---- ------- ----- -- ----<br>-------- ------- -- ---------- --- - --- ----- ----- ----<br>---- --- --- ----- --- ---- ---- ------- ----- ---- -------<br>--- --- -- ----- -- --- ---- -- --- ---- -- ------ ------<br>--- ----- -- ----,43079.59999999963,43078.800000000745,42672.387,42687.90000000037,42689.057,43089.168,,2,comes
screen,html.Screen,0_2_0_1_3,2021-12-02T10:56:35.780Z,,,,,,,,,,,,,,,,53,,,,,,,,,,,,,,389.53200000111974,,response,,,99,,,,,,Space,keypress(Space),,,,,---- -- ----- to ------ - ------- --- ----------<br>------------- ------ ------ ---- ---- ------- ----- -- ----<br>-------- ------- -- ---------- --- - --- ----- ----- ----<br>---- --- --- ----- --- ---- ---- ------- ----- ---- -------<br>--- --- -- ----- -- --- ---- -- --- ---- -- ------ ------<br>--- ----- -- ----,43479.59999999963,43478.70000000112,43072.498,43079.800000000745,43089.168,43489.272,,3,to
screen,html.Screen,0_2_0_1_4,2021-12-02T10:56:36.180Z,,,,,,,,,,,,,,,,53,,,,,,,,,,,,,,389.4280000011204,,response,,,99,,,,,,Space,keypress(Space),,,,,---- -- ----- -- having - ------- --- ----------<br>------------- ------ ------ ---- ---- ------- ----- -- ----<br>-------- ------- -- ---------- --- - --- ----- ----- ----<br>---- --- --- ----- --- ---- ---- ------- ----- ---- -------<br>--- --- -- ----- -- --- ---- -- --- ---- -- ------ ------<br>--- ----- -- ----,43879.800000000745,43878.70000000112,43472.602,43480.09999999963,43489.272,43889.378,,4,having
screen,html.Screen,0_2_0_1_5,2021-12-02T10:56:36.524Z,,,,,,,,,,,,,,,,53,,,,,,,,,,,,,,333.3220000011206,,response,,,99,,,,,,Space,keypress(Space),,,,,---- -- ----- -- ------ a ------- --- ----------<br>------------- ------ ------ ---- ---- ------- ----- -- ----<br>-------- ------- -- ---------- --- - --- ----- ----- ----<br>---- --- --- ----- --- ---- ---- ------- ----- ---- -------<br>--- --- -- ----- -- --- ---- -- --- ---- -- ------ ------<br>--- ----- -- ----,44223.59999999963,44222.70000000112,43872.708,43880.20000000112,43889.378,44239.512,,5,a
screen,html.Screen,0_2_0_1_6,2021-12-02T10:56:36.908Z,,,,,,,,,,,,,,,,53,,,,,,,,,,,,,,367.2880000007426,,response,,,99,,,,,,Space,keypress(Space),,,,,---- -- ----- -- ------ - lasting --- ----------<br>------------- ------ ------ ---- ---- ------- ----- -- ----<br>-------- ------- -- ---------- --- - --- ----- ----- ----<br>---- --- --- ----- --- ---- ---- ------- ----- ---- -------<br>--- --- -- ----- -- --- ---- -- --- ---- -- ------ ------<br>--- ----- -- ----,44607.59999999963,44606.800000000745,44222.841,44224.09999999963,44239.512,44622.907,,6,lasting
screen,html.Screen,0_2_0_1_7,2021-12-02T10:56:37.748Z,,,,,,,,,,,,,,,,53,,,,,,,,,,,,,,823.7930000011183,,response,,,99,,,,,,Space,keypress(Space),,,,,---- -- ----- -- ------ - ------- and ----------<br>------------- ------ ------ ---- ---- ------- ----- -- ----<br>-------- ------- -- ---------- --- - --- ----- ----- ----<br>---- --- --- ----- --- ---- ---- ------- ----- ---- -------<br>--- --- -- ----- -- --- ---- -- --- ---- -- ------ ------<br>--- ----- -- ----,45447.59999999963,45446.70000000112,44606.237,44607.90000000037,44622.907,45456.315,,7,and
screen,html.Screen,0_2_0_1_8,2021-12-02T10:56:39.924Z,,,,,,,,,,,,,,,,53,,,,,,,,,,,,,,2166.1849999999977,,response,,,99,,,,,,Space,keypress(Space),,,,,---- -- ----- -- ------ - ------- --- fulfilling<br>------------- ------ ------ ---- ---- ------- ----- -- ----<br>-------- ------- -- ---------- --- - --- ----- ----- ----<br>---- --- --- ----- --- ---- ---- ------- ----- ---- -------<br>--- --- -- ----- -- --- ---- -- --- ---- -- ------ ------<br>--- ----- -- ----,47623.70000000112,47622.5,45439.646,45447.90000000037,45456.315,47640.595,,8,fulfilling
screen,html.Screen,0_2_0_1_9,2021-12-02T10:56:40.580Z,,,,,,,,,,,,,,,,53,,,,,,,,,,,,,,638.0049999996263,,response,,,99,,,,,,Space,keypress(Space),,,,,"---- -- ----- -- ------ - ------- --- ----------<br>relationship, ------ ------ ---- ---- ------- ----- -- ----<br>-------- ------- -- ---------- --- - --- ----- ----- ----<br>---- --- --- ----- --- ---- ---- ------- ----- ---- -------<br>--- --- -- ----- -- --- ---- -- --- ---- -- ------ ------<br>--- ----- -- ----",48279.5,48278.59999999963,47623.923,47624.09999999963,47640.595,48290.365,,9,"relationship,"
screen,html.Screen,0_2_0_1_10,2021-12-02T10:56:41.124Z,,,,,,,,,,,,,,,,53,,,,,,,,,,,,,,532.135000000002,,response,,,99,,,,,,Space,keypress(Space),,,,,---- -- ----- -- ------ - ------- --- ----------<br>------------- common ------ ---- ---- ------- ----- -- ----<br>-------- ------- -- ---------- --- - --- ----- ----- ----<br>---- --- --- ----- --- ---- ---- ------- ----- ---- -------<br>--- --- -- ----- -- --- ---- -- --- ---- -- ------ ------<br>--- ----- -- ----,48823.40000000037,48822.5,48273.695,48279.800000000745,48290.365,48824.064,,10,common
screen,html.Screen,0_2_0_1_11,2021-12-02T10:56:41.612Z,,,,,,,,,,,,,,,,53,,,,,,,,,,,,,,486.4360000000015,,response,,,99,,,,,,Space,keypress(Space),,,,,---- -- ----- -- ------ - ------- --- ----------<br>------------- ------ wisdom ---- ---- ------- ----- -- ----<br>-------- ------- -- ---------- --- - --- ----- ----- ----<br>---- --- --- ----- --- ---- ---- ------- ----- ---- -------<br>--- --- -- ----- -- --- ---- -- --- ---- -- ------ ------<br>--- ----- -- ----,49311.5,49310.5,48807.393,48823.70000000112,48824.064,49324.049,,11,wisdom
screen,html.Screen,0_2_0_1_12,2021-12-02T10:56:42.116Z,,,,,,,,,,,,,,,,53,,,,,,,,,,,,,,490.45100000000093,,response,,,99,,,,,,Space,keypress(Space),,,,,---- -- ----- -- ------ - ------- --- ----------<br>------------- ------ ------ says ---- ------- ----- -- ----<br>-------- ------- -- ---------- --- - --- ----- ----- ----<br>---- --- --- ----- --- ---- ---- ------- ----- ---- -------<br>--- --- -- ----- -- --- ---- -- --- ---- -- ------ ------<br>--- ----- -- ----,49815.300000000745,49814.5,49307.38,49311.70000000112,49324.049,49824.335,,12,says
screen,html.Screen,0_2_0_1_13,2021-12-02T10:56:42.532Z,,,,,,,,,,,,,,,,53,,,,,,,,,,,,,,406.1650000000009,,response,,,99,,,,,,Space,keypress(Space),,,,,---- -- ----- -- ------ - ------- --- ----------<br>------------- ------ ------ ---- that ------- ----- -- ----<br>-------- ------- -- ---------- --- - --- ----- ----- ----<br>---- --- --- ----- --- ---- ---- ------- ----- ---- -------<br>--- --- -- ----- -- --- ---- -- --- ---- -- ------ ------<br>--- ----- -- ----,50231.300000000745,50230.5,49807.664,49815.5,49824.335,50257.735,,13,that
screen,html.Screen,0_2_0_1_14,2021-12-02T10:56:42.964Z,,,,,,,,,,,,,,,,53,,,,,,,,,,,,,,404.7649999999994,,response,,,99,,,,,,Space,keypress(Space),,,,,---- -- ----- -- ------ - ------- --- ----------<br>------------- ------ ------ ---- ---- feeling ----- -- ----<br>-------- ------- -- ---------- --- - --- ----- ----- ----<br>---- --- --- ----- --- ---- ---- ------- ----- ---- -------<br>--- --- -- ----- -- --- ---- -- --- ---- -- ------ ------<br>--- ----- -- ----,50663.20000000112,50662.5,50241.065,50231.59999999963,50257.735,50674.558,,14,feeling
screen,html.Screen,0_2_0_1_15,2021-12-02T10:56:43.396Z,,,,,,,,,,,,,,,,53,,,,,,,,,,,,,,419.84200000037526,,response,,,99,,,,,,Space,keypress(Space),,,,,---- -- ----- -- ------ - ------- --- ----------<br>------------- ------ ------ ---- ---- ------- close -- ----<br>-------- ------- -- ---------- --- - --- ----- ----- ----<br>---- --- --- ----- --- ---- ---- ------- ----- ---- -------<br>--- --- -- ----- -- --- ---- -- --- ---- -- ------ ------<br>--- ----- -- ----,51095.300000000745,51094.40000000037,50657.887,50663.59999999963,50674.558,51107.956,,15,close
screen,html.Screen,0_2_0_1_16,2021-12-02T10:56:43.764Z,,,,,,,,,,,,,,,,53,,,,,,,,,,,,,,354.4440000003742,,response,,,99,,,,,,Space,keypress(Space),,,,,---- -- ----- -- ------ - ------- --- ----------<br>------------- ------ ------ ---- ---- ------- ----- to ----<br>-------- ------- -- ---------- --- - --- ----- ----- ----<br>---- --- --- ----- --- ---- ---- ------- ----- ---- -------<br>--- --- -- ----- -- --- ---- -- --- ---- -- ------ ------<br>--- ----- -- ----,51463.300000000745,51462.40000000037,51091.286,51095.5,51107.956,51474.638,,16,to
screen,html.Screen,0_2_0_1_17,2021-12-02T10:56:44.164Z,,,,,,,,,,,,,,,,53,,,,,,,,,,,,,,387.7620000003735,,response,,,99,,,,,,Space,keypress(Space),,,,,---- -- ----- -- ------ - ------- --- ----------<br>------------- ------ ------ ---- ---- ------- ----- -- your<br>-------- ------- -- ---------- --- - --- ----- ----- ----<br>---- --- --- ----- --- ---- ---- ------- ----- ---- -------<br>--- --- -- ----- -- --- ---- -- --- ---- -- ------ ------<br>--- ----- -- ----,51863.09999999963,51862.40000000037,51457.969,51463.5,51474.638,51874.918,,17,your
screen,html.Screen,0_2_0_1_18,2021-12-02T10:56:44.532Z,,,,,,,,,,,,,,,,53,,,,,,,,,,,,,,355.3820000007472,,response,,,99,,,,,,Space,keypress(Space),,,,,---- -- ----- -- ------ - ------- --- ----------<br>------------- ------ ------ ---- ---- ------- ----- -- ----<br>romantic ------- -- ---------- --- - --- ----- ----- ----<br>---- --- --- ----- --- ---- ---- ------- ----- ---- -------<br>--- --- -- ----- -- --- ---- -- --- ---- -- ------ ------<br>--- ----- -- ----,52231.20000000112,52230.300000000745,51858.246,51863.40000000037,51874.918,52241.608,,18,romantic
screen,html.Screen,0_2_0_1_19,2021-12-02T10:56:44.892Z,,,,,,,,,,,,,,,,53,,,,,,,,,,,,,,349.1920000007449,,response,,,99,,,,,,Space,keypress(Space),,,,,---- -- ----- -- ------ - ------- --- ----------<br>------------- ------ ------ ---- ---- ------- ----- -- ----<br>-------- partner -- ---------- --- - --- ----- ----- ----<br>---- --- --- ----- --- ---- ---- ------- ----- ---- -------<br>--- --- -- ----- -- --- ---- -- --- ---- -- ------ ------<br>--- ----- -- ----,52591.5,52590.800000000745,52224.938,52231.40000000037,52241.608,52608.358,,19,partner
screen,html.Screen,0_2_0_1_20,2021-12-02T10:56:45.212Z,,,,,,,,,,,,,,,,53,,,,,,,,,,,,,,302.04200000037235,,response,,,99,,,,,,Space,keypress(Space),,,,,---- -- ----- -- ------ - ------- --- ----------<br>------------- ------ ------ ---- ---- ------- ----- -- ----<br>-------- ------- is ---------- --- - --- ----- ----- ----<br>---- --- --- ----- --- ---- ---- ------- ----- ---- -------<br>--- --- -- ----- -- --- ---- -- --- ---- -- ------ ------<br>--- ----- -- ----,52911.20000000112,52910.40000000037,52591.688,52591.90000000037,52608.358,52925.093,,20,is
screen,html.Screen,0_2_0_1_21,2021-12-02T10:56:45.628Z,,,,,,,,,,,,,,,,53,,,,,,,,,,,,,,401.2070000007443,,response,,,99,,,,,,Space,keypress(Space),,,,,---- -- ----- -- ------ - ------- --- ----------<br>------------- ------ ------ ---- ---- ------- ----- -- ----<br>-------- ------- -- paramount. --- - --- ----- ----- ----<br>---- --- --- ----- --- ---- ---- ------- ----- ---- -------<br>--- --- -- ----- -- --- ---- -- --- ---- -- ------ ------<br>--- ----- -- ----,53327.09999999963,53326.300000000745,52908.423,52911.5,52925.093,53341.929,,21,paramount.
screen,html.Screen,0_2_0_1_22,2021-12-02T10:56:48.068Z,,,,,,,,,,,,,,,,53,,,,,,,,,,,,,,2424.271000001121,,response,,,99,,,,,,Space,keypress(Space),,,,,---- -- ----- -- ------ - ------- --- ----------<br>------------- ------ ------ ---- ---- ------- ----- -- ----<br>-------- ------- -- ---------- But - --- ----- ----- ----<br>---- --- --- ----- --- ---- ---- ------- ----- ---- -------<br>--- --- -- ----- -- --- ---- -- --- ---- -- ------ ------<br>--- ----- -- ----,55767,55766.20000000112,53325.258,53327.59999999963,53341.929,55775.897,,22,But
screen,html.Screen,0_2_0_1_23,2021-12-02T10:56:48.476Z,,,,,,,,,,,,,,,,53,,,,,,,,,,,,,,398.20299999963026,,response,,,99,,,,,,Space,keypress(Space),,,,,---- -- ----- -- ------ - ------- --- ----------<br>------------- ------ ------ ---- ---- ------- ----- -- ----<br>-------- ------- -- ---------- --- a --- ----- ----- ----<br>---- --- --- ----- --- ---- ---- ------- ----- ---- -------<br>--- --- -- ----- -- --- ---- -- --- ---- -- ------ ------<br>--- ----- -- ----,56175,56174.09999999963,55759.226,55767.300000000745,55775.897,56175.873,,23,a
screen,html.Screen,0_2_0_1_24,2021-12-02T10:56:48.804Z,,,,,,,,,,,,,,,,53,,,,,,,,,,,,,,326.2269999996279,,response,,,99,,,,,,Space,keypress(Space),,,,,---- -- ----- -- ------ - ------- --- ----------<br>------------- ------ ------ ---- ---- ------- ----- -- ----<br>-------- ------- -- ---------- --- - new ----- ----- ----<br>---- --- --- ----- --- ---- ---- ------- ----- ---- -------<br>--- --- -- ----- -- --- ---- -- --- ---- -- ------ ------<br>--- ----- -- ----,56502.90000000037,56502.09999999963,56159.203,56175.20000000112,56175.873,56509.363,,24,new
screen,html.Screen,0_2_0_1_25,2021-12-02T10:56:49.084Z,,,,,,,,,,,,,,,,53,,,,,,,,,,,,,,272.83700000112003,,response,,,99,,,,,,Space,keypress(Space),,,,,---- -- ----- -- ------ - ------- --- ----------<br>------------- ------ ------ ---- ---- ------- ----- -- ----<br>-------- ------- -- ---------- --- - --- study ----- ----<br>---- --- --- ----- --- ---- ---- ------- ----- ---- -------<br>--- --- -- ----- -- --- ---- -- --- ---- -- ------ ------<br>--- ----- -- ----,56783,56782.20000000112,56492.693,56503.20000000112,56509.363,56792.784,,25,study
screen,html.Screen,0_2_0_1_26,2021-12-02T10:56:49.436Z,,,,,,,,,,,,,,,,53,,,,,,,,,,,,,,341.41600000111794,,response,,,99,,,,,,Space,keypress(Space),,,,,---- -- ----- -- ------ - ------- --- ----------<br>------------- ------ ------ ---- ---- ------- ----- -- ----<br>-------- ------- -- ---------- --- - --- ----- finds ----<br>---- --- --- ----- --- ---- ---- ------- ----- ---- -------<br>--- --- -- ----- -- --- ---- -- --- ---- -- ------ ------<br>--- ----- -- ----,57135.20000000112,57134.20000000112,56776.114,56783.20000000112,56792.784,57142.975,,26,finds
screen,html.Screen,0_2_0_1_27,2021-12-02T10:56:49.772Z,,,,,,,,,,,,,,,,53,,,,,,,,,,,,,,327.1249999996289,,response,,,99,,,,,,Space,keypress(Space),,,,,---- -- ----- -- ------ - ------- --- ----------<br>------------- ------ ------ ---- ---- ------- ----- -- ----<br>-------- ------- -- ---------- --- - --- ----- ----- that<br>---- --- --- ----- --- ---- ---- ------- ----- ---- -------<br>--- --- -- ----- -- --- ---- -- --- ---- -- ------ ------<br>--- ----- -- ----,57470.90000000037,57470.09999999963,57126.303,57135.40000000037,57142.975,57493,,27,that
screen,html.Screen,0_2_0_1_28,2021-12-02T10:56:50.068Z,,,,,,,,,,,,,,,,53,,,,,,,,,,,,,,273.2000000011176,,response,,,99,,,,,,Space,keypress(Space),,,,,---- -- ----- -- ------ - ------- --- ----------<br>------------- ------ ------ ---- ---- ------- ----- -- ----<br>-------- ------- -- ---------- --- - --- ----- ----- ----<br>it's --- --- ----- --- ---- ---- ------- ----- ---- -------<br>--- --- -- ----- -- --- ---- -- --- ---- -- ------ ------<br>--- ----- -- ----,57766.90000000037,57766.20000000112,57476.33,57471.20000000112,57493,57776.335,,28,it's
screen,html.Screen,0_2_0_1_29,2021-12-02T10:56:50.340Z,,,,,,,,,,,,,,,,53,,,,,,,,,,,,,,261.76499999962834,,response,,,99,,,,,,Space,keypress(Space),,,,,---- -- ----- -- ------ - ------- --- ----------<br>------------- ------ ------ ---- ---- ------- ----- -- ----<br>-------- ------- -- ---------- --- - --- ----- ----- ----<br>---- not --- ----- --- ---- ---- ------- ----- ---- -------<br>--- --- -- ----- -- --- ---- -- --- ---- -- ------ ------<br>--- ----- -- ----,58039,58038.09999999963,57759.666,57767.09999999963,57776.335,58043.214,,29,not
screen,html.Screen,0_2_0_1_30,2021-12-02T10:56:50.628Z,,,,,,,,,,,,,,,,53,,,,,,,,,,,,,,282.88599999962753,,response,,,99,,,,,,Space,keypress(Space),,,,,---- -- ----- -- ------ - ------- --- ----------<br>------------- ------ ------ ---- ---- ------- ----- -- ----<br>-------- ------- -- ---------- --- - --- ----- ----- ----<br>---- --- how ----- --- ---- ---- ------- ----- ---- -------<br>--- --- -- ----- -- --- ---- -- --- ---- -- ------ ------<br>--- ----- -- ----,58326.90000000037,58326.09999999963,58026.542,58039.20000000112,58043.214,58343.076,,30,how
screen,html.Screen,0_2_0_1_31,2021-12-02T10:56:50.883Z,,,,,,,,,,,,,,,,53,,,,,,,,,,,,,,238.92399999999907,,response,,,99,,,,,,Space,keypress(Space),,,,,---- -- ----- -- ------ - ------- --- ----------<br>------------- ------ ------ ---- ---- ------- ----- -- ----<br>-------- ------- -- ---------- --- - --- ----- ----- ----<br>---- --- --- close --- ---- ---- ------- ----- ---- -------<br>--- --- -- ----- -- --- ---- -- --- ---- -- ------ ------<br>--- ----- -- ----,58582.90000000037,58582,58326.409,58327.20000000112,58343.076,58593.382,,31,close
screen,html.Screen,0_2_0_1_32,2021-12-02T10:56:51.195Z,,,,,,,,,,,,,,,,53,,,,,,,,,,,,,,300.7179999996297,,response,,,99,,,,,,Space,keypress(Space),,,,,---- -- ----- -- ------ - ------- --- ----------<br>------------- ------ ------ ---- ---- ------- ----- -- ----<br>-------- ------- -- ---------- --- - --- ----- ----- ----<br>---- --- --- ----- you ---- ---- ------- ----- ---- -------<br>--- --- -- ----- -- --- ---- -- --- ---- -- ------ ------<br>--- ----- -- ----,58894.800000000745,58894.09999999963,58576.709,58583.09999999963,58593.382,58910.047,,32,you
screen,html.Screen,0_2_0_1_33,2021-12-02T10:56:51.499Z,,,,,,,,,,,,,,,,53,,,,,,,,,,,,,,287.95300000000134,,response,,,99,,,,,,Space,keypress(Space),,,,,---- -- ----- -- ------ - ------- --- ----------<br>------------- ------ ------ ---- ---- ------- ----- -- ----<br>-------- ------- -- ---------- --- - --- ----- ----- ----<br>---- --- --- ----- --- feel ---- ------- ----- ---- -------<br>--- --- -- ----- -- --- ---- -- --- ---- -- ------ ------<br>--- ----- -- ----,59198.70000000112,59198,58893.377,58895.09999999963,58910.047,59210.164,,33,feel
screen,html.Screen,0_2_0_1_34,2021-12-02T10:56:51.763Z,,,,,,,,,,,,,,,,53,,,,,,,,,,,,,,251.83600000000297,,response,,,99,,,,,,Space,keypress(Space),,,,,---- -- ----- -- ------ - ------- --- ----------<br>------------- ------ ------ ---- ---- ------- ----- -- ----<br>-------- ------- -- ---------- --- - --- ----- ----- ----<br>---- --- --- ----- --- ---- that ------- ----- ---- -------<br>--- --- -- ----- -- --- ---- -- --- ---- -- ------ ------<br>--- ----- -- ----,59462.800000000745,59462,59193.493,59198.90000000037,59210.164,59476.853,,34,that
screen,html.Screen,0_2_0_1_35,2021-12-02T10:56:52.027Z,,,,,,,,,,,,,,,,53,,,,,,,,,,,,,,249.24699999962468,,response,,,99,,,,,,Space,keypress(Space),,,,,---- -- ----- -- ------ - ------- --- ----------<br>------------- ------ ------ ---- ---- ------- ----- -- ----<br>-------- ------- -- ---------- --- - --- ----- ----- ----<br>---- --- --- ----- --- ---- ---- matters ----- ---- -------<br>--- --- -- ----- -- --- ---- -- --- ---- -- ------ ------<br>--- ----- -- ----,59726.90000000037,59726.09999999963,59460.183,59463,59476.853,59743.6,,35,matters
screen,html.Screen,0_2_0_1_36,2021-12-02T10:56:52.319Z,,,,,,,,,,,,,,,,53,,,,,,,,,,,,,,270.40000000000146,,response,,,99,,,,,,Space,keypress(Space),,,,,"---- -- ----- -- ------ - ------- --- ----------<br>------------- ------ ------ ---- ---- ------- ----- -- ----<br>-------- ------- -- ---------- --- - --- ----- ----- ----<br>---- --- --- ----- --- ---- ---- ------- most, ---- -------<br>--- --- -- ----- -- --- ---- -- --- ---- -- ------ ------<br>--- ----- -- ----",60015,60014,59726.93,59727.09999999963,59743.6,60027.035,,36,"most,"
screen,html.Screen,0_2_0_1_37,2021-12-02T10:56:52.726Z,,,,,,,,,,,,,,,,53,,,,,,,,,,,,,,394.9649999999965,,response,,,99,,,,,,Space,keypress(Space),,,,,---- -- ----- -- ------ - ------- --- ----------<br>------------- ------ ------ ---- ---- ------- ----- -- ----<br>-------- ------- -- ---------- --- - --- ----- ----- ----<br>---- --- --- ----- --- ---- ---- ------- ----- it's -------<br>--- --- -- ----- -- --- ---- -- --- ---- -- ------ ------<br>--- ----- -- ----,60422.800000000745,60422,60010.364,60015.20000000112,60027.035,60426.99,,37,it's
screen,html.Screen,0_2_0_1_38,2021-12-02T10:56:53.030Z,,,,,,,,,,,,,,,,53,,,,,,,,,,,,,,298.91000000037457,,response,,,99,,,,,,Space,keypress(Space),,,,,---- -- ----- -- ------ - ------- --- ----------<br>------------- ------ ------ ---- ---- ------- ----- -- ----<br>-------- ------- -- ---------- --- - --- ----- ----- ----<br>---- --- --- ----- --- ---- ---- ------- ----- ---- whether<br>--- --- -- ----- -- --- ---- -- --- ---- -- ------ ------<br>--- ----- -- ----,60726.70000000112,60725.90000000037,60410.322,60423,60426.99,60743.944,,38,whether
screen,html.Screen,0_2_0_1_39,2021-12-02T10:56:53.463Z,,,,,,,,,,,,,,,,53,,,,,,,,,,,,,,414.55599999999686,,response,,,99,,,,,,Space,keypress(Space),,,,,---- -- ----- -- ------ - ------- --- ----------<br>------------- ------ ------ ---- ---- ------- ----- -- ----<br>-------- ------- -- ---------- --- - --- ----- ----- ----<br>---- --- --- ----- --- ---- ---- ------- ----- ---- -------<br>you --- -- ----- -- --- ---- -- --- ---- -- ------ ------<br>--- ----- -- ----,61159.5,61158.5,60727.272,60726.90000000037,60743.944,61177.208,,39,you
screen,html.Screen,0_2_0_1_40,2021-12-02T10:56:53.926Z,,,,,,,,,,,,,,,,53,,,,,,,,,,,,,,444.6920000003738,,response,,,99,,,,,,Space,keypress(Space),,,,,---- -- ----- -- ------ - ------- --- ----------<br>------------- ------ ------ ---- ---- ------- ----- -- ----<br>-------- ------- -- ---------- --- - --- ----- ----- ----<br>---- --- --- ----- --- ---- ---- ------- ----- ---- -------<br>--- are -- ----- -- --- ---- -- --- ---- -- ------ ------<br>--- ----- -- ----,61622.70000000112,61621.90000000037,61160.539,61159.800000000745,61177.208,61627.546,,40,are
screen,html.Screen,0_2_0_1_41,2021-12-02T10:56:54.206Z,,,,,,,,,,,,,,,,53,,,,,,,,,,,,,,274.35400000037043,,response,,,99,,,,,,Space,keypress(Space),,,,,---- -- ----- -- ------ - ------- --- ----------<br>------------- ------ ------ ---- ---- ------- ----- -- ----<br>-------- ------- -- ---------- --- - --- ----- ----- ----<br>---- --- --- ----- --- ---- ---- ------- ----- ---- -------<br>--- --- as ----- -- --- ---- -- --- ---- -- ------ ------<br>--- ----- -- ----,61902.800000000745,61901.90000000037,61610.873,61622.90000000037,61627.546,61910.884,,41,as
screen,html.Screen,0_2_0_1_42,2021-12-02T10:56:54.446Z,,,,,,,,,,,,,,,,53,,,,,,,,,,,,,,230.91600000074686,,response,,,99,,,,,,Space,keypress(Space),,,,,---- -- ----- -- ------ - ------- --- ----------<br>------------- ------ ------ ---- ---- ------- ----- -- ----<br>-------- ------- -- ---------- --- - --- ----- ----- ----<br>---- --- --- ----- --- ---- ---- ------- ----- ---- -------<br>--- --- -- close -- --- ---- -- --- ---- -- ------ ------<br>--- ----- -- ----,62142.5,62141.800000000745,61894.213,61903.09999999963,61910.884,62144.253,,42,close
screen,html.Screen,0_2_0_1_43,2021-12-02T10:56:54.678Z,,,,,,,,,,,,,,,,53,,,,,,,,,,,,,,229.64700000037556,,response,,,99,,,,,,Space,keypress(Space),,,,,---- -- ----- -- ------ - ------- --- ----------<br>------------- ------ ------ ---- ---- ------- ----- -- ----<br>-------- ------- -- ---------- --- - --- ----- ----- ----<br>---- --- --- ----- --- ---- ---- ------- ----- ---- -------<br>--- --- -- ----- as --- ---- -- --- ---- -- ------ ------<br>--- ----- -- ----,62374.70000000112,62373.90000000037,62127.583,62142.70000000112,62144.253,62394.322,,43,as
screen,html.Screen,0_2_0_1_44,2021-12-02T10:56:54.919Z,,,,,,,,,,,,,,,,53,,,,,,,,,,,,,,220.0780000003724,,response,,,99,,,,,,Space,keypress(Space),,,,,---- -- ----- -- ------ - ------- --- ----------<br>------------- ------ ------ ---- ---- ------- ----- -- ----<br>-------- ------- -- ---------- --- - --- ----- ----- ----<br>---- --- --- ----- --- ---- ---- ------- ----- ---- -------<br>--- --- -- ----- -- you ---- -- --- ---- -- ------ ------<br>--- ----- -- ----,62615.09999999963,62614.40000000037,62377.652,62374.90000000037,62394.322,62644.366,,44,you
screen,html.Screen,0_2_0_1_45,2021-12-02T10:56:55.158Z,,,,,,,,,,,,,,,,53,,,,,,,,,,,,,,209.43400000074325,,response,,,99,,,,,,Space,keypress(Space),,,,,---- -- ----- -- ------ - ------- --- ----------<br>------------- ------ ------ ---- ---- ------- ----- -- ----<br>-------- ------- -- ---------- --- - --- ----- ----- ----<br>---- --- --- ----- --- ---- ---- ------- ----- ---- -------<br>--- --- -- ----- -- --- want -- --- ---- -- ------ ------<br>--- ----- -- ----,62854.59999999963,62853.800000000745,62627.696,62615.40000000037,62644.366,62877.774,,45,want
screen,html.Screen,0_2_0_1_46,2021-12-02T10:56:55.390Z,,,,,,,,,,,,,,,,53,,,,,,,,,,,,,,208.02600000074744,,response,,,99,,,,,,Space,keypress(Space),,,,,---- -- ----- -- ------ - ------- --- ----------<br>------------- ------ ------ ---- ---- ------- ----- -- ----<br>-------- ------- -- ---------- --- - --- ----- ----- ----<br>---- --- --- ----- --- ---- ---- ------- ----- ---- -------<br>--- --- -- ----- -- --- ---- to --- ---- -- ------ ------<br>--- ----- -- ----,63086.70000000112,63085.800000000745,62861.104,62854.800000000745,62877.774,63094.528,,46,to
screen,html.Screen,0_2_0_1_47,2021-12-02T10:56:55.630Z,,,,,,,,,,,,,,,,53,,,,,,,,,,,,,,231.27200000074663,,response,,,99,,,,,,Space,keypress(Space),,,,,"---- -- ----- -- ------ - ------- --- ----------<br>------------- ------ ------ ---- ---- ------- ----- -- ----<br>-------- ------- -- ---------- --- - --- ----- ----- ----<br>---- --- --- ----- --- ---- ---- ------- ----- ---- -------<br>--- --- -- ----- -- --- ---- -- be, ---- -- ------ ------<br>--- ----- -- ----",63326.70000000112,63325.800000000745,63077.857,63086.90000000037,63094.528,63327.878,,47,"be,"
screen,html.Screen,0_2_0_1_48,2021-12-02T10:56:55.862Z,,,,,,,,,,,,,,,,53,,,,,,,,,,,,,,229.92200000074808,,response,,,99,,,,,,Space,keypress(Space),,,,,---- -- ----- -- ------ - ------- --- ----------<br>------------- ------ ------ ---- ---- ------- ----- -- ----<br>-------- ------- -- ---------- --- - --- ----- ----- ----<br>---- --- --- ----- --- ---- ---- ------- ----- ---- -------<br>--- --- -- ----- -- --- ---- -- --- even -- ------ ------<br>--- ----- -- ----,63558.59999999963,63557.800000000745,63311.208,63326.90000000037,63327.878,63561.323,,48,even
screen,html.Screen,0_2_0_1_49,2021-12-02T10:56:56.158Z,,,,,,,,,,,,,,,,53,,,,,,,,,,,,,,292.57700000037585,,response,,,99,,,,,,Space,keypress(Space),,,,,---- -- ----- -- ------ - ------- --- ----------<br>------------- ------ ------ ---- ---- ------- ----- -- ----<br>-------- ------- -- ---------- --- - --- ----- ----- ----<br>---- --- --- ----- --- ---- ---- ------- ----- ---- -------<br>--- --- -- ----- -- --- ---- -- --- ---- if ------ ------<br>--- ----- -- ----,63854.59999999963,63853.90000000037,63544.652,63558.90000000037,63561.323,63861.401,,49,if
screen,html.Screen,0_2_0_1_50,2021-12-02T10:56:56.430Z,,,,,,,,,,,,,,,,53,,,,,,,,,,,,,,264.39900000074704,,response,,,99,,,,,,Space,keypress(Space),,,,,---- -- ----- -- ------ - ------- --- ----------<br>------------- ------ ------ ---- ---- ------- ----- -- ----<br>-------- ------- -- ---------- --- - --- ----- ----- ----<br>---- --- --- ----- --- ---- ---- ------- ----- ---- -------<br>--- --- -- ----- -- --- ---- -- --- ---- -- that's ------<br>--- ----- -- ----,64126.5,64125.800000000745,63844.73,63854.800000000745,63861.401,64128.06,,50,that's
screen,html.Screen,0_2_0_1_51,2021-12-02T10:56:56.894Z,,,,,,,,,,,,,,,,53,,,,,,,,,,,,,,461.7400000007474,,response,,,99,,,,,,Space,keypress(Space),,,,,---- -- ----- -- ------ - ------- --- ----------<br>------------- ------ ------ ---- ---- ------- ----- -- ----<br>-------- ------- -- ---------- --- - --- ----- ----- ----<br>---- --- --- ----- --- ---- ---- ------- ----- ---- -------<br>--- --- -- ----- -- --- ---- -- --- ---- -- ------ really<br>--- ----- -- ----,64590.5,64589.800000000745,64111.391,64126.800000000745,64128.06,64594.924,,51,really
screen,html.Screen,0_2_0_1_52,2021-12-02T10:56:57.246Z,,,,,,,,,,,,,,,,53,,,,,,,,,,,,,,346.876000000746,,response,,,99,,,,,,Space,keypress(Space),,,,,---- -- ----- -- ------ - ------- --- ----------<br>------------- ------ ------ ---- ---- ------- ----- -- ----<br>-------- ------- -- ---------- --- - --- ----- ----- ----<br>---- --- --- ----- --- ---- ---- ------- ----- ---- -------<br>--- --- -- ----- -- --- ---- -- --- ---- -- ------ ------<br>not ----- -- ----,64942.59999999963,64941.800000000745,64578.253,64590.800000000745,64594.924,64944.952,,52,not
screen,html.Screen,0_2_0_1_53,2021-12-02T10:56:57.638Z,,,,,,,,,,,,,,,,53,,,,,,,,,,,,,,388.84800000074756,,response,,,99,,,,,,Space,keypress(Space),,,,,---- -- ----- -- ------ - ------- --- ----------<br>------------- ------ ------ ---- ---- ------- ----- -- ----<br>-------- ------- -- ---------- --- - --- ----- ----- ----<br>---- --- --- ----- --- ---- ---- ------- ----- ---- -------<br>--- --- -- ----- -- --- ---- -- --- ---- -- ------ ------<br>--- close -- ----,65334.59999999963,65333.800000000745,64928.282,64942.800000000745,64944.952,65345.131,,53,close
screen,html.Screen,0_2_0_1_54,2021-12-02T10:56:57.926Z,,,,,,,,,,,,,,,,53,,,,,,,,,,,,,,276.7690000003713,,response,,,99,,,,,,Space,keypress(Space),,,,,---- -- ----- -- ------ - ------- --- ----------<br>------------- ------ ------ ---- ---- ------- ----- -- ----<br>-------- ------- -- ---------- --- - --- ----- ----- ----<br>---- --- --- ----- --- ---- ---- ------- ----- ---- -------<br>--- --- -- ----- -- --- ---- -- --- ---- -- ------ ------<br>--- ----- at ----,65622.70000000112,65621.90000000037,65328.46,65334.70000000112,65345.131,65628.432,,54,at
screen,html.Screen,0_2_0_1_55,2021-12-02T10:56:58.534Z,,,,,,,,,,,,,,,,53,,,,,,,,,,,,,,601.2680000011169,,response,,,99,,,,,,Space,keypress(Space),,,,,---- -- ----- -- ------ - ------- --- ----------<br>------------- ------ ------ ---- ---- ------- ----- -- ----<br>-------- ------- -- ---------- --- - --- ----- ----- ----<br>---- --- --- ----- --- ---- ---- ------- ----- ---- -------<br>--- --- -- ----- -- --- ---- -- --- ---- -- ------ ------<br>--- ----- -- all.,66230.5,66229.70000000112,65611.763,65622.90000000037,65628.432,66245.353,,55,all.
Item 99,flow.Loop,0_2_0_1,2021-12-02T10:56:58.539Z,,,,,,,,,,,,,,,,,,,,,,,,,,,,,,25007.821000001117,,completion,,,,C,,,,,,,,,,silence,,66235.30000000075,66229.70000000112,41205.209,41211.59999999963,41221.879,66245.353,,,
Question 1,html.Screen,0_2_0_2,2021-12-02T10:57:08.310Z,,,,,,,,,,,,,,,,,,,,,,,,,,,true,FALSE,,9759.746999999625,,response,,,99,C,,,,,FALSE,click #choice-2,,,,silence,,76006.5,76005.09999999963,66228.682,66235.5,66245.353,76014.574,,,
Question 2,html.Screen,0_2_0_3,2021-12-02T10:57:15.389Z,,,,,,,,,,,,,,,,,,,,,,,,,,,false,TRUE,,7070.126000001124,,response,,,99,C,,,,,FALSE,click #choice-2,,,,silence,,83085.90000000037,83084.70000000112,75997.904,76006.80000000075,76014.574,83099.688,,,
Item 99,flow.Sequence,0_2_0,2021-12-02T10:57:15.390Z,,,,,,,,,,,,,,,,,,,,,,,,,,,,,,51865.64400000112,,completion,,,,,,,,,,,,,,,,83086.30000000075,83084.70000000112,31202.389,31209.400000000373,31219.056,83099.688,,,
Holding screen,html.Screen,0_2_1_0,2021-12-02T10:57:25.391Z,,,,,,,,,,,,,,,,,,,,,,,,,,,,,,10002.671000000002,,timeout,,,,,,,,,,,,,,,,93087.5,93085.689,83083.022,83086.80000000075,83099.688,93102.359,,,
screen,html.Screen,0_2_1_1_0,2021-12-02T10:57:26.173Z,,,,,,,,,,,,,,,,54,,,,,,,,,,,,,,766.5410000003758,,response,,,100,,,,,,Space,keypress(Space),,,,,At --- ---- --- ------ ----- ------- ---- -- --- ------- --<br>------- ---------- ------ -- ----- -- ----- -- ---- ------<br>--- ----- --- --- ------ -------- ----- --- ------ ----- --<br>----- ----- ---------- --- --- ------ ------ ---- -- ------<br>------- --- ------ ----- --- ---- ------- -- ---- --- --<br>------- ------,93869.90000000037,93868.90000000037,93085.689,93087.90000000037,93102.359,93886.046,,0,At
screen,html.Screen,0_2_1_1_1,2021-12-02T10:57:26.485Z,,,,,,,,,,,,,,,,54,,,,,,,,,,,,,,294.35400000037043,,response,,,100,,,,,,Space,keypress(Space),,,,,-- the ---- --- ------ ----- ------- ---- -- --- ------- --<br>------- ---------- ------ -- ----- -- ----- -- ---- ------<br>--- ----- --- --- ------ -------- ----- --- ------ ----- --<br>----- ----- ---------- --- --- ------ ------ ---- -- ------<br>------- --- ------ ----- --- ---- ------- -- ---- --- --<br>------- ------,94181.30000000075,94180.40000000037,93869.375,93870.09999999963,93886.046,94186.08,,1,the
screen,html.Screen,0_2_1_1_2,2021-12-02T10:57:26.685Z,,,,,,,,,,,,,,,,54,,,,,,,,,,,,,,194.32000000037078,,response,,,100,,,,,,Space,keypress(Space),,,,,-- --- time --- ------ ----- ------- ---- -- --- ------- --<br>------- ---------- ------ -- ----- -- ----- -- ---- ------<br>--- ----- --- --- ------ -------- ----- --- ------ ----- --<br>----- ----- ---------- --- --- ------ ------ ---- -- ------<br>------- --- ------ ----- --- ---- ------- -- ---- --- --<br>------- ------,94381.20000000112,94380.40000000037,94169.41,94181.5,94186.08,94386.131,,2,time
screen,html.Screen,0_2_1_1_3,2021-12-02T10:57:26.861Z,,,,,,,,,,,,,,,,54,,,,,,,,,,,,,,170.26900000037858,,response,,,100,,,,,,Space,keypress(Space),,,,,-- --- ---- the ------ ----- ------- ---- -- --- ------- --<br>------- ---------- ------ -- ----- -- ----- -- ---- ------<br>--- ----- --- --- ------ -------- ----- --- ------ ----- --<br>----- ----- ---------- --- --- ------ ------ ---- -- ------<br>------- --- ------ ----- --- ---- ------- -- ---- --- --<br>------- ------,94557.20000000112,94556.40000000037,94369.461,94381.5,94386.131,94569.549,,3,the
screen,html.Screen,0_2_1_1_4,2021-12-02T10:57:27.061Z,,,,,,,,,,,,,,,,54,,,,,,,,,,,,,,186.85100000037346,,response,,,100,,,,,,Space,keypress(Space),,,,,-- --- ---- --- French ----- ------- ---- -- --- ------- --<br>------- ---------- ------ -- ----- -- ----- -- ---- ------<br>--- ----- --- --- ------ -------- ----- --- ------ ----- --<br>----- ----- ---------- --- --- ------ ------ ---- -- ------<br>------- --- ------ ----- --- ---- ------- -- ---- --- --<br>------- ------,94757.20000000112,94756.40000000037,94552.878,94557.40000000037,94569.549,94769.64,,4,French
screen,html.Screen,0_2_1_1_5,2021-12-02T10:57:27.301Z,,,,,,,,,,,,,,,,54,,,,,,,,,,,,,,226.66000000074564,,response,,,100,,,,,,Space,keypress(Space),,,,,-- --- ---- --- ------ crown ------- ---- -- --- ------- --<br>------- ---------- ------ -- ----- -- ----- -- ---- ------<br>--- ----- --- --- ------ -------- ----- --- ------ ----- --<br>----- ----- ---------- --- --- ------ ------ ---- -- ------<br>------- --- ------ ----- --- ---- ------- -- ---- --- --<br>------- ------,94997.30000000075,94996.30000000075,94752.968,94759.09999999963,94769.64,95002.925,,5,crown
screen,html.Screen,0_2_1_1_6,2021-12-02T10:57:27.541Z,,,,,,,,,,,,,,,,54,,,,,,,,,,,,,,233.47500000036962,,response,,,100,,,,,,Space,keypress(Space),,,,,-- --- ---- --- ------ ----- secured ---- -- --- ------- --<br>------- ---------- ------ -- ----- -- ----- -- ---- ------<br>--- ----- --- --- ------ -------- ----- --- ------ ----- --<br>----- ----- ---------- --- --- ------ ------ ---- -- ------<br>------- --- ------ ----- --- ---- ------- -- ---- --- --<br>------- ------,95237.20000000112,95236.40000000037,94986.257,94997.5,95002.925,95253.072,,6,secured
screen,html.Screen,0_2_1_1_7,2021-12-02T10:57:28.637Z,,,,,,,,,,,,,,,,54,,,,,,,,,,,,,,1079.1280000011175,,response,,,100,,,,,,Space,keypress(Space),,,,,-- --- ---- --- ------ ----- ------- much -- --- ------- --<br>------- ---------- ------ -- ----- -- ----- -- ---- ------<br>--- ----- --- --- ------ -------- ----- --- ------ ----- --<br>----- ----- ---------- --- --- ------ ------ ---- -- ------<br>------- --- ------ ----- --- ---- ------- -- ---- --- --<br>------- ------,96333,96332.20000000112,95236.401,95237.5,95253.072,96336.607,,7,much
screen,html.Screen,0_2_1_1_8,2021-12-02T10:57:28.885Z,,,,,,,,,,,,,,,,54,,,,,,,,,,,,,,243.59300000111398,,response,,,100,,,,,,Space,keypress(Space),,,,,-- --- ---- --- ------ ----- ------- ---- of --- ------- --<br>------- ---------- ------ -- ----- -- ----- -- ---- ------<br>--- ----- --- --- ------ -------- ----- --- ------ ----- --<br>----- ----- ---------- --- --- ------ ------ ---- -- ------<br>------- --- ------ ----- --- ---- ------- -- ---- --- --<br>------- ------,96581,96580.20000000112,96319.937,96333.30000000075,96336.607,96586.705,,8,of
screen,html.Screen,0_2_1_1_9,2021-12-02T10:57:29.165Z,,,,,,,,,,,,,,,,54,,,,,,,,,,,,,,273.5950000007433,,response,,,100,,,,,,Space,keypress(Space),,,,,-- --- ---- --- ------ ----- ------- ---- -- its ------- --<br>------- ---------- ------ -- ----- -- ----- -- ---- ------<br>--- ----- --- --- ------ -------- ----- --- ------ ----- --<br>----- ----- ---------- --- --- ------ ------ ---- -- ------<br>------- --- ------ ----- --- ---- ------- -- ---- --- --<br>------- ------,96861,96860.30000000075,96570.035,96581.30000000075,96586.705,96870.147,,9,its
screen,html.Screen,0_2_1_1_10,2021-12-02T10:57:29.437Z,,,,,,,,,,,,,,,,54,,,,,,,,,,,,,,262.15300000074785,,response,,,100,,,,,,Space,keypress(Space),,,,,-- --- ---- --- ------ ----- ------- ---- -- --- revenue --<br>------- ---------- ------ -- ----- -- ----- -- ---- ------<br>--- ----- --- --- ------ -------- ----- --- ------ ----- --<br>----- ----- ---------- --- --- ------ ------ ---- -- ------<br>------- --- ------ ----- --- ---- ------- -- ---- --- --<br>------- ------,97133,97132.30000000075,96853.477,96861.30000000075,96870.147,97136.732,,10,revenue
screen,html.Screen,0_2_1_1_11,2021-12-02T10:57:29.885Z,,,,,,,,,,,,,,,,54,,,,,,,,,,,,,,443.468000001114,,response,,,100,,,,,,Space,keypress(Space),,,,,-- --- ---- --- ------ ----- ------- ---- -- --- ------- by<br>------- ---------- ------ -- ----- -- ----- -- ---- ------<br>--- ----- --- --- ------ -------- ----- --- ------ ----- --<br>----- ----- ---------- --- --- ------ ------ ---- -- ------<br>------- --- ------ ----- --- ---- ------- -- ---- --- --<br>------- ------,97581,97580.20000000112,97120.065,97133.20000000112,97136.732,97587.107,,11,by
screen,html.Screen,0_2_1_1_12,2021-12-02T10:57:30.181Z,,,,,,,,,,,,,,,,54,,,,,,,,,,,,,,289.093000001114,,response,,,100,,,,,,Space,keypress(Space),,,,,-- --- ---- --- ------ ----- ------- ---- -- --- ------- --<br>issuing ---------- ------ -- ----- -- ----- -- ---- ------<br>--- ----- --- --- ------ -------- ----- --- ------ ----- --<br>----- ----- ---------- --- --- ------ ------ ---- -- ------<br>------- --- ------ ----- --- ---- ------- -- ---- --- --<br>------- ------,97877,97876.20000000112,97570.434,97581.20000000112,97587.107,97887.107,,12,issuing
screen,html.Screen,0_2_1_1_13,2021-12-02T10:57:30.445Z,,,,,,,,,,,,,,,,54,,,,,,,,,,,,,,253.09300000111398,,response,,,100,,,,,,Space,keypress(Space),,,,,-- --- ---- --- ------ ----- ------- ---- -- --- ------- --<br>------- government ------ -- ----- -- ----- -- ---- ------<br>--- ----- --- --- ------ -------- ----- --- ------ ----- --<br>----- ----- ---------- --- --- ------ ------ ---- -- ------<br>------- --- ------ ----- --- ---- ------- -- ---- --- --<br>------- ------,98141,98140.20000000112,97870.436,97877.20000000112,97887.107,98153.807,,13,government
screen,html.Screen,0_2_1_1_14,2021-12-02T10:57:30.709Z,,,,,,,,,,,,,,,,54,,,,,,,,,,,,,,250.49300000074436,,response,,,100,,,,,,Space,keypress(Space),,,,,-- --- ---- --- ------ ----- ------- ---- -- --- ------- --<br>------- ---------- bonds. -- ----- -- ----- -- ---- ------<br>--- ----- --- --- ------ -------- ----- --- ------ ----- --<br>----- ----- ---------- --- --- ------ ------ ---- -- ------<br>------- --- ------ ----- --- ---- ------- -- ---- --- --<br>------- ------,98405,98404.30000000075,98137.137,98141.30000000075,98153.807,98420.547,,14,bonds.
screen,html.Screen,0_2_1_1_15,2021-12-02T10:57:30.917Z,,,,,,,,,,,,,,,,54,,,,,,,,,,,,,,191.65300000111165,,response,,,100,,,,,,Space,keypress(Space),,,,,-- --- ---- --- ------ ----- ------- ---- -- --- ------- --<br>------- ---------- ------ In ----- -- ----- -- ---- ------<br>--- ----- --- --- ------ -------- ----- --- ------ ----- --<br>----- ----- ---------- --- --- ------ ------ ---- -- ------<br>------- --- ------ ----- --- ---- ------- -- ---- --- --<br>------- ------,98613,98612.20000000112,98403.877,98405.30000000075,98420.547,98620.644,,15,In
screen,html.Screen,0_2_1_1_16,2021-12-02T10:57:31.181Z,,,,,,,,,,,,,,,,54,,,,,,,,,,,,,,255.55600000111735,,response,,,100,,,,,,Space,keypress(Space),,,,,"-- --- ---- --- ------ ----- ------- ---- -- --- ------- --<br>------- ---------- ------ -- 1727, -- ----- -- ---- ------<br>--- ----- --- --- ------ -------- ----- --- ------ ----- --<br>----- ----- ---------- --- --- ------ ------ ---- -- ------<br>------- --- ------ ----- --- ---- ------- -- ---- --- --<br>------- ------",98877,98876.20000000112,98603.973,98613.20000000112,98620.644,98887.338,,16,"1727,"
screen,html.Screen,0_2_1_1_17,2021-12-02T10:57:31.453Z,,,,,,,,,,,,,,,,54,,,,,,,,,,,,,,260.8620000011142,,response,,,100,,,,,,Space,keypress(Space),,,,,-- --- ---- --- ------ ----- ------- ---- -- --- ------- --<br>------- ---------- ------ -- ----- in ----- -- ---- ------<br>--- ----- --- --- ------ -------- ----- --- ------ ----- --<br>----- ----- ---------- --- --- ------ ------ ---- -- ------<br>------- --- ------ ----- --- ---- ------- -- ---- --- --<br>------- ------,99149,99148.20000000112,98870.668,98877.20000000112,98887.338,99154.072,,17,in
screen,html.Screen,0_2_1_1_18,2021-12-02T10:57:31.685Z,,,,,,,,,,,,,,,,54,,,,,,,,,,,,,,226.22800000074494,,response,,,100,,,,,,Space,keypress(Space),,,,,-- --- ---- --- ------ ----- ------- ---- -- --- ------- --<br>------- ---------- ------ -- ----- -- order -- ---- ------<br>--- ----- --- --- ------ -------- ----- --- ------ ----- --<br>----- ----- ---------- --- --- ------ ------ ---- -- ------<br>------- --- ------ ----- --- ---- ------- -- ---- --- --<br>------- ------,99381.09999999963,99380.30000000075,99137.402,99149.20000000112,99154.072,99387.475,,18,order
screen,html.Screen,0_2_1_1_19,2021-12-02T10:57:31.925Z,,,,,,,,,,,,,,,,54,,,,,,,,,,,,,,232.72500000111177,,response,,,100,,,,,,Space,keypress(Space),,,,,-- --- ---- --- ------ ----- ------- ---- -- --- ------- --<br>------- ---------- ------ -- ----- -- ----- to ---- ------<br>--- ----- --- --- ------ -------- ----- --- ------ ----- --<br>----- ----- ---------- --- --- ------ ------ ---- -- ------<br>------- --- ------ ----- --- ---- ------- -- ---- --- --<br>------- ------,99621,99620.20000000112,99370.805,99381.30000000075,99387.475,99637.574,,19,to
screen,html.Screen,0_2_1_1_20,2021-12-02T10:57:32.165Z,,,,,,,,,,,,,,,,54,,,,,,,,,,,,,,222.62600000112434,,response,,,100,,,,,,Space,keypress(Space),,,,,-- --- ---- --- ------ ----- ------- ---- -- --- ------- --<br>------- ---------- ------ -- ----- -- ----- -- save ------<br>--- ----- --- --- ------ -------- ----- --- ------ ----- --<br>----- ----- ---------- --- --- ------ ------ ---- -- ------<br>------- --- ------ ----- --- ---- ------- -- ---- --- --<br>------- ------,99861,99860.20000000112,99620.903,99621.30000000075,99637.574,99870.805,,20,save
screen,html.Screen,0_2_1_1_21,2021-12-02T10:57:32.388Z,,,,,,,,,,,,,,,,54,,,,,,,,,,,,,,213.29499999963446,,response,,,100,,,,,,Space,keypress(Space),,,,,"-- --- ---- --- ------ ----- ------- ---- -- --- ------- --<br>------- ---------- ------ -- ----- -- ----- -- ---- money,<br>--- ----- --- --- ------ -------- ----- --- ------ ----- --<br>----- ----- ---------- --- --- ------ ------ ---- -- ------<br>------- --- ------ ----- --- ---- ------- -- ---- --- --<br>------- ------",100084.90000000037,100084.09999999963,99854.138,99861.20000000112,99870.805,100087.764,,21,"money,"
screen,html.Screen,0_2_1_1_22,2021-12-02T10:57:32.652Z,,,,,,,,,,,,,,,,54,,,,,,,,,,,,,,260.3359999996319,,response,,,100,,,,,,Space,keypress(Space),,,,,-- --- ---- --- ------ ----- ------- ---- -- --- ------- --<br>------- ---------- ------ -- ----- -- ----- -- ---- ------<br>the ----- --- --- ------ -------- ----- --- ------ ----- --<br>----- ----- ---------- --- --- ------ ------ ---- -- ------<br>------- --- ------ ----- --- ---- ------- -- ---- --- --<br>------- ------,100348.90000000037,100348.09999999963,100071.09,100085.09999999963,100087.764,100354.399,,22,the
screen,html.Screen,0_2_1_1_23,2021-12-02T10:57:32.909Z,,,,,,,,,,,,,,,,54,,,,,,,,,,,,,,249.70099999962258,,response,,,100,,,,,,Space,keypress(Space),,,,,-- --- ---- --- ------ ----- ------- ---- -- --- ------- --<br>------- ---------- ------ -- ----- -- ----- -- ---- ------<br>--- state --- --- ------ -------- ----- --- ------ ----- --<br>----- ----- ---------- --- --- ------ ------ ---- -- ------<br>------- --- ------ ----- --- ---- ------- -- ---- --- --<br>------- ------,100604.90000000037,100604.09999999963,100337.729,100349.09999999963,100354.399,100621.163,,23,state
screen,html.Screen,0_2_1_1_24,2021-12-02T10:57:33.140Z,,,,,,,,,,,,,,,,54,,,,,,,,,,,,,,214.936999999627,,response,,,100,,,,,,Space,keypress(Space),,,,,-- --- ---- --- ------ ----- ------- ---- -- --- ------- --<br>------- ---------- ------ -- ----- -- ----- -- ---- ------<br>--- ----- cut --- ------ -------- ----- --- ------ ----- --<br>----- ----- ---------- --- --- ------ ------ ---- -- ------<br>------- --- ------ ----- --- ---- ------- -- ---- --- --<br>------- ------,100836.90000000037,100836.09999999963,100604.492,100605.20000000112,100621.163,100837.822,,24,cut
screen,html.Screen,0_2_1_1_25,2021-12-02T10:57:33.372Z,,,,,,,,,,,,,,,,54,,,,,,,,,,,,,,230.27799999962735,,response,,,100,,,,,,Space,keypress(Space),,,,,-- --- ---- --- ------ ----- ------- ---- -- --- ------- --<br>------- ---------- ------ -- ----- -- ----- -- ---- ------<br>--- ----- --- the ------ -------- ----- --- ------ ----- --<br>----- ----- ---------- --- --- ------ ------ ---- -- ------<br>------- --- ------ ----- --- ---- ------- -- ---- --- --<br>------- ------,101068.80000000075,101068.09999999963,100821.153,100837.09999999963,100837.822,101071.276,,25,the
screen,html.Screen,0_2_1_1_26,2021-12-02T10:57:33.628Z,,,,,,,,,,,,,,,,54,,,,,,,,,,,,,,252.82399999962945,,response,,,100,,,,,,Space,keypress(Space),,,,,-- --- ---- --- ------ ----- ------- ---- -- --- ------- --<br>------- ---------- ------ -- ----- -- ----- -- ---- ------<br>--- ----- --- --- bonds' -------- ----- --- ------ ----- --<br>----- ----- ---------- --- --- ------ ------ ---- -- ------<br>------- --- ------ ----- --- ---- ------- -- ---- --- --<br>------- ------,101324.80000000075,101324.09999999963,101054.605,101069.09999999963,101071.276,101338.023,,26,bonds'
screen,html.Screen,0_2_1_1_27,2021-12-02T10:57:33.868Z,,,,,,,,,,,,,,,,54,,,,,,,,,,,,,,226.07699999962642,,response,,,100,,,,,,Space,keypress(Space),,,,,-- --- ---- --- ------ ----- ------- ---- -- --- ------- --<br>------- ---------- ------ -- ----- -- ----- -- ---- ------<br>--- ----- --- --- ------ interest ----- --- ------ ----- --<br>----- ----- ---------- --- --- ------ ------ ---- -- ------<br>------- --- ------ ----- --- ---- ------- -- ---- --- --<br>------- ------,101564.90000000037,101564.09999999963,101321.352,101325.09999999963,101338.023,101571.426,,27,interest
screen,html.Screen,0_2_1_1_28,2021-12-02T10:57:34.180Z,,,,,,,,,,,,,,,,54,,,,,,,,,,,,,,304.6739999996207,,response,,,100,,,,,,Space,keypress(Space),,,,,-- --- ---- --- ------ ----- ------- ---- -- --- ------- --<br>------- ---------- ------ -- ----- -- ----- -- ---- ------<br>--- ----- --- --- ------ -------- rate. --- ------ ----- --<br>----- ----- ---------- --- --- ------ ------ ---- -- ------<br>------- --- ------ ----- --- ---- ------- -- ---- --- --<br>------- ------,101876.80000000075,101876.09999999963,101554.755,101565.09999999963,101571.426,101888.039,,28,rate.
screen,html.Screen,0_2_1_1_29,2021-12-02T10:57:34.668Z,,,,,,,,,,,,,,,,54,,,,,,,,,,,,,,475.9609999999957,,response,,,100,,,,,,Space,keypress(Space),,,,,-- --- ---- --- ------ ----- ------- ---- -- --- ------- --<br>------- ---------- ------ -- ----- -- ----- -- ---- ------<br>--- ----- --- --- ------ -------- ----- The ------ ----- --<br>----- ----- ---------- --- --- ------ ------ ---- -- ------<br>------- --- ------ ----- --- ---- ------- -- ---- --- --<br>------- ------,102364.80000000075,102364,101871.371,101877.09999999963,101888.039,102371.542,,29,The
screen,html.Screen,0_2_1_1_30,2021-12-02T10:57:35.228Z,,,,,,,,,,,,,,,,54,,,,,,,,,,,,,,552.4579999999987,,response,,,100,,,,,,Space,keypress(Space),,,,,-- --- ---- --- ------ ----- ------- ---- -- --- ------- --<br>------- ---------- ------ -- ----- -- ----- -- ---- ------<br>--- ----- --- --- ------ -------- ----- --- market ----- --<br>----- ----- ---------- --- --- ------ ------ ---- -- ------<br>------- --- ------ ----- --- ---- ------- -- ---- --- --<br>------- ------,102924.80000000075,102924,102354.872,102365,102371.542,102938.501,,30,market
screen,html.Screen,0_2_1_1_31,2021-12-02T10:57:35.524Z,,,,,,,,,,,,,,,,54,,,,,,,,,,,,,,281.49899999999616,,response,,,100,,,,,,Space,keypress(Space),,,,,-- --- ---- --- ------ ----- ------- ---- -- --- ------- --<br>------- ---------- ------ -- ----- -- ----- -- ---- ------<br>--- ----- --- --- ------ -------- ----- --- ------ value --<br>----- ----- ---------- --- --- ------ ------ ---- -- ------<br>------- --- ------ ----- --- ---- ------- -- ---- --- --<br>------- ------,103220.70000000112,103220,102921.829,102925.09999999963,102938.501,103221.824,,31,value
screen,html.Screen,0_2_1_1_32,2021-12-02T10:57:35.924Z,,,,,,,,,,,,,,,,54,,,,,,,,,,,,,,398.17600000000675,,response,,,100,,,,,,Space,keypress(Space),,,,,-- --- ---- --- ------ ----- ------- ---- -- --- ------- --<br>------- ---------- ------ -- ----- -- ----- -- ---- ------<br>--- ----- --- --- ------ -------- ----- --- ------ ----- of<br>----- ----- ---------- --- --- ------ ------ ---- -- ------<br>------- --- ------ ----- --- ---- ------- -- ---- --- --<br>------- ------,103620.80000000075,103620,103205.154,103221,103221.824,103621.925,,32,of
screen,html.Screen,0_2_1_1_33,2021-12-02T10:57:36.253Z,,,,,,,,,,,,,,,,54,,,,,,,,,,,,,,326.4750000003696,,response,,,100,,,,,,Space,keypress(Space),,,,,-- --- ---- --- ------ ----- ------- ---- -- --- ------- --<br>------- ---------- ------ -- ----- -- ----- -- ---- ------<br>--- ----- --- --- ------ -------- ----- --- ------ ----- --<br>these ----- ---------- --- --- ------ ------ ---- -- ------<br>------- --- ------ ----- --- ---- ------- -- ---- --- --<br>------- ------,103949.09999999963,103948.40000000037,103605.255,103621,103621.925,103955.342,,33,these
screen,html.Screen,0_2_1_1_34,2021-12-02T10:57:36.556Z,,,,,,,,,,,,,,,,54,,,,,,,,,,,,,,296.6579999999958,,response,,,100,,,,,,Space,keypress(Space),,,,,-- --- ---- --- ------ ----- ------- ---- -- --- ------- --<br>------- ---------- ------ -- ----- -- ----- -- ---- ------<br>--- ----- --- --- ------ -------- ----- --- ------ ----- --<br>----- bonds ---------- --- --- ------ ------ ---- -- ------<br>------- --- ------ ----- --- ---- ------- -- ---- --- --<br>------- ------,104252.70000000112,104252,103938.672,103949.40000000037,103955.342,104255.465,,34,bonds
screen,html.Screen,0_2_1_1_35,2021-12-02T10:57:36.860Z,,,,,,,,,,,,,,,,54,,,,,,,,,,,,,,300.5350000000035,,response,,,100,,,,,,Space,keypress(Space),,,,,"-- --- ---- --- ------ ----- ------- ---- -- --- ------- --<br>------- ---------- ------ -- ----- -- ----- -- ---- ------<br>--- ----- --- --- ------ -------- ----- --- ------ ----- --<br>----- ----- plummeted, --- --- ------ ------ ---- -- ------<br>------- --- ------ ----- --- ---- ------- -- ---- --- --<br>------- ------",104556.70000000112,104556,104238.794,104253,104255.465,104572.08,,35,"plummeted,"
screen,html.Screen,0_2_1_1_36,2021-12-02T10:57:37.188Z,,,,,,,,,,,,,,,,54,,,,,,,,,,,,,,311.8200000003708,,response,,,100,,,,,,Space,keypress(Space),,,,,-- --- ---- --- ------ ----- ------- ---- -- --- ------- --<br>------- ---------- ------ -- ----- -- ----- -- ---- ------<br>--- ----- --- --- ------ -------- ----- --- ------ ----- --<br>----- ----- ---------- and --- ------ ------ ---- -- ------<br>------- --- ------ ----- --- ---- ------- -- ---- --- --<br>------- ------,104884.80000000075,104883.90000000037,104555.412,104557,104572.08,104888.952,,36,and
screen,html.Screen,0_2_1_1_37,2021-12-02T10:57:37.500Z,,,,,,,,,,,,,,,,54,,,,,,,,,,,,,,306.94800000036776,,response,,,100,,,,,,Space,keypress(Space),,,,,-- --- ---- --- ------ ----- ------- ---- -- --- ------- --<br>------- ---------- ------ -- ----- -- ----- -- ---- ------<br>--- ----- --- --- ------ -------- ----- --- ------ ----- --<br>----- ----- ---------- --- the ------ ------ ---- -- ------<br>------- --- ------ ----- --- ---- ------- -- ---- --- --<br>------- ------,105196.59999999963,105195.90000000037,104872.281,104884.90000000037,104888.952,105205.709,,37,the
screen,html.Screen,0_2_1_1_38,2021-12-02T10:57:37.996Z,,,,,,,,,,,,,,,,54,,,,,,,,,,,,,,486.19100000036997,,response,,,100,,,,,,Space,keypress(Space),,,,,-- --- ---- --- ------ ----- ------- ---- -- --- ------- --<br>------- ---------- ------ -- ----- -- ----- -- ---- ------<br>--- ----- --- --- ------ -------- ----- --- ------ ----- --<br>----- ----- ---------- --- --- market ------ ---- -- ------<br>------- --- ------ ----- --- ---- ------- -- ---- --- --<br>------- ------,105692.59999999963,105691.90000000037,105189.038,105196.90000000037,105205.709,105705.802,,38,market
screen,html.Screen,0_2_1_1_39,2021-12-02T10:57:38.316Z,,,,,,,,,,,,,,,,54,,,,,,,,,,,,,,305.998000000749,,response,,,100,,,,,,Space,keypress(Space),,,,,-- --- ---- --- ------ ----- ------- ---- -- --- ------- --<br>------- ---------- ------ -- ----- -- ----- -- ---- ------<br>--- ----- --- --- ------ -------- ----- --- ------ ----- --<br>----- ----- ---------- --- --- ------ became ---- -- ------<br>------- --- ------ ----- --- ---- ------- -- ---- --- --<br>------- ------,106012.59999999963,106011.80000000075,105689.132,105692.90000000037,105705.802,106022.623,,39,became
screen,html.Screen,0_2_1_1_40,2021-12-02T10:57:38.612Z,,,,,,,,,,,,,,,,54,,,,,,,,,,,,,,285.1770000007382,,response,,,100,,,,,,Space,keypress(Space),,,,,-- --- ---- --- ------ ----- ------- ---- -- --- ------- --<br>------- ---------- ------ -- ----- -- ----- -- ---- ------<br>--- ----- --- --- ------ -------- ----- --- ------ ----- --<br>----- ----- ---------- --- --- ------ ------ wary -- ------<br>------- --- ------ ----- --- ---- ------- -- ---- --- --<br>------- ------,106308.59999999963,106307.80000000075,106005.952,106012.80000000075,106022.623,106322.649,,40,wary
screen,html.Screen,0_2_1_1_41,2021-12-02T10:57:38.900Z,,,,,,,,,,,,,,,,54,,,,,,,,,,,,,,273.25100000036764,,response,,,100,,,,,,Space,keypress(Space),,,,,-- --- ---- --- ------ ----- ------- ---- -- --- ------- --<br>------- ---------- ------ -- ----- -- ----- -- ---- ------<br>--- ----- --- --- ------ -------- ----- --- ------ ----- --<br>----- ----- ---------- --- --- ------ ------ ---- of ------<br>------- --- ------ ----- --- ---- ------- -- ---- --- --<br>------- ------,106596.59999999963,106595.90000000037,106305.979,106308.80000000075,106322.649,106606.047,,41,of
screen,html.Screen,0_2_1_1_42,2021-12-02T10:57:40.092Z,,,,,,,,,,,,,,,,54,,,,,,,,,,,,,,1181.6530000011116,,response,,,100,,,,,,Space,keypress(Space),,,,,-- --- ---- --- ------ ----- ------- ---- -- --- ------- --<br>------- ---------- ------ -- ----- -- ----- -- ---- ------<br>--- ----- --- --- ------ -------- ----- --- ------ ----- --<br>----- ----- ---------- --- --- ------ ------ ---- -- French<br>------- --- ------ ----- --- ---- ------- -- ---- --- --<br>------- ------,107788.70000000112,107787.70000000112,106589.377,106596.80000000075,106606.047,107789.645,,42,French
screen,html.Screen,0_2_1_1_43,2021-12-02T10:57:40.356Z,,,,,,,,,,,,,,,,54,,,,,,,,,,,,,,262.0550000011135,,response,,,100,,,,,,Space,keypress(Space),,,,,-- --- ---- --- ------ ----- ------- ---- -- --- ------- --<br>------- ---------- ------ -- ----- -- ----- -- ---- ------<br>--- ----- --- --- ------ -------- ----- --- ------ ----- --<br>----- ----- ---------- --- --- ------ ------ ---- -- ------<br>credit. --- ------ ----- --- ---- ------- -- ---- --- --<br>------- ------,108052.59999999963,108051.70000000112,107772.975,107788.80000000075,107789.645,108056.179,,43,credit.
screen,html.Screen,0_2_1_1_44,2021-12-02T10:57:40.660Z,,,,,,,,,,,,,,,,54,,,,,,,,,,,,,,299.52100000111386,,response,,,100,,,,,,Space,keypress(Space),,,,,-- --- ---- --- ------ ----- ------- ---- -- --- ------- --<br>------- ---------- ------ -- ----- -- ----- -- ---- ------<br>--- ----- --- --- ------ -------- ----- --- ------ ----- --<br>----- ----- ---------- --- --- ------ ------ ---- -- ------<br>------- The ------ ----- --- ---- ------- -- ---- --- --<br>------- ------,108356.59999999963,108355.70000000112,108039.511,108052.70000000112,108056.179,108373.219,,44,The
screen,html.Screen,0_2_1_1_45,2021-12-02T10:57:40.956Z,,,,,,,,,,,,,,,,54,,,,,,,,,,,,,,278.48100000112026,,response,,,100,,,,,,Space,keypress(Space),,,,,-- --- ---- --- ------ ----- ------- ---- -- --- ------- --<br>------- ---------- ------ -- ----- -- ----- -- ---- ------<br>--- ----- --- --- ------ -------- ----- --- ------ ----- --<br>----- ----- ---------- --- --- ------ ------ ---- -- ------<br>------- --- French ----- --- ---- ------- -- ---- --- --<br>------- ------,108652.5,108651.70000000112,108356.548,108356.90000000037,108373.219,108656.482,,45,French
screen,html.Screen,0_2_1_1_46,2021-12-02T10:57:41.196Z,,,,,,,,,,,,,,,,54,,,,,,,,,,,,,,235.11799999962386,,response,,,100,,,,,,Space,keypress(Space),,,,,-- --- ---- --- ------ ----- ------- ---- -- --- ------- --<br>------- ---------- ------ -- ----- -- ----- -- ---- ------<br>--- ----- --- --- ------ -------- ----- --- ------ ----- --<br>----- ----- ---------- --- --- ------ ------ ---- -- ------<br>------- --- ------ state --- ---- ------- -- ---- --- --<br>------- ------,108892.40000000037,108891.59999999963,108639.814,108652.70000000112,108656.482,108906.723,,46,state
screen,html.Screen,0_2_1_1_47,2021-12-02T10:57:41.428Z,,,,,,,,,,,,,,,,54,,,,,,,,,,,,,,217.07700000074692,,response,,,100,,,,,,Space,keypress(Space),,,,,-- --- ---- --- ------ ----- ------- ---- -- --- ------- --<br>------- ---------- ------ -- ----- -- ----- -- ---- ------<br>--- ----- --- --- ------ -------- ----- --- ------ ----- --<br>----- ----- ---------- --- --- ------ ------ ---- -- ------<br>------- --- ------ ----- was ---- ------- -- ---- --- --<br>------- ------,109124.5,109123.80000000075,108890.051,108892.70000000112,108906.723,109140.087,,47,was
screen,html.Screen,0_2_1_1_48,2021-12-02T10:57:41.684Z,,,,,,,,,,,,,,,,54,,,,,,,,,,,,,,239.71300000074552,,response,,,100,,,,,,Space,keypress(Space),,,,,-- --- ---- --- ------ ----- ------- ---- -- --- ------- --<br>------- ---------- ------ -- ----- -- ----- -- ---- ------<br>--- ----- --- --- ------ -------- ----- --- ------ ----- --<br>----- ----- ---------- --- --- ------ ------ ---- -- ------<br>------- --- ------ ----- --- left ------- -- ---- --- --<br>------- ------,109380.5,109379.80000000075,109123.416,109124.70000000112,109140.087,109390.158,,48,left
screen,html.Screen,0_2_1_1_49,2021-12-02T10:57:41.908Z,,,,,,,,,,,,,,,,54,,,,,,,,,,,,,,213.54200000112178,,response,,,100,,,,,,Space,keypress(Space),,,,,-- --- ---- --- ------ ----- ------- ---- -- --- ------- --<br>------- ---------- ------ -- ----- -- ----- -- ---- ------<br>--- ----- --- --- ------ -------- ----- --- ------ ----- --<br>----- ----- ---------- --- --- ------ ------ ---- -- ------<br>------- --- ------ ----- --- ---- without -- ---- --- --<br>------- ------,109604.5,109603.70000000112,109373.487,109380.70000000112,109390.158,109606.782,,49,without
screen,html.Screen,0_2_1_1_50,2021-12-02T10:57:42.132Z,,,,,,,,,,,,,,,,54,,,,,,,,,,,,,,220.91800000111107,,response,,,100,,,,,,Space,keypress(Space),,,,,-- --- ---- --- ------ ----- ------- ---- -- --- ------- --<br>------- ---------- ------ -- ----- -- ----- -- ---- ------<br>--- ----- --- --- ------ -------- ----- --- ------ ----- --<br>----- ----- ---------- --- --- ------ ------ ---- -- ------<br>------- --- ------ ----- --- ---- ------- an ---- --- --<br>------- ------,109828.5,109827.70000000112,109590.114,109604.70000000112,109606.782,109840.217,,50,an
screen,html.Screen,0_2_1_1_51,2021-12-02T10:57:42.364Z,,,,,,,,,,,,,,,,54,,,,,,,,,,,,,,219.38299999962328,,response,,,100,,,,,,Space,keypress(Space),,,,,-- --- ---- --- ------ ----- ------- ---- -- --- ------- --<br>------- ---------- ------ -- ----- -- ----- -- ---- ------<br>--- ----- --- --- ------ -------- ----- --- ------ ----- --<br>----- ----- ---------- --- --- ------ ------ ---- -- ------<br>------- --- ------ ----- --- ---- ------- -- easy --- --<br>------- ------,110060.40000000037,110059.59999999963,109823.547,109828.70000000112,109840.217,110073.715,,51,easy
screen,html.Screen,0_2_1_1_52,2021-12-02T10:57:42.572Z,,,,,,,,,,,,,,,,54,,,,,,,,,,,,,,193.98500000112108,,response,,,100,,,,,,Space,keypress(Space),,,,,-- --- ---- --- ------ ----- ------- ---- -- --- ------- --<br>------- ---------- ------ -- ----- -- ----- -- ---- ------<br>--- ----- --- --- ------ -------- ----- --- ------ ----- --<br>----- ----- ---------- --- --- ------ ------ ---- -- ------<br>------- --- ------ ----- --- ---- ------- -- ---- way --<br>------- ------,110268.5,110267.70000000112,110057.042,110060.70000000112,110073.715,110273.723,,52,way
screen,html.Screen,0_2_1_1_53,2021-12-02T10:57:42.796Z,,,,,,,,,,,,,,,,54,,,,,,,,,,,,,,217.77700000000186,,response,,,100,,,,,,Space,keypress(Space),,,,,-- --- ---- --- ------ ----- ------- ---- -- --- ------- --<br>------- ---------- ------ -- ----- -- ----- -- ---- ------<br>--- ----- --- --- ------ -------- ----- --- ------ ----- --<br>----- ----- ---------- --- --- ------ ------ ---- -- ------<br>------- --- ------ ----- --- ---- ------- -- ---- --- of<br>------- ------,110492.40000000037,110491.5,110257.052,110268.59999999963,110273.723,110507.121,,53,of
screen,html.Screen,0_2_1_1_54,2021-12-02T10:57:43.164Z,,,,,,,,,,,,,,,,54,,,,,,,,,,,,,,352.4789999996283,,response,,,100,,,,,,Space,keypress(Space),,,,,-- --- ---- --- ------ ----- ------- ---- -- --- ------- --<br>------- ---------- ------ -- ----- -- ----- -- ---- ------<br>--- ----- --- --- ------ -------- ----- --- ------ ----- --<br>----- ----- ---------- --- --- ------ ------ ---- -- ------<br>------- --- ------ ----- --- ---- ------- -- ---- --- --<br>raising ------,110860.40000000037,110859.59999999963,110490.45,110492.59999999963,110507.121,110873.86,,54,raising
screen,html.Screen,0_2_1_1_55,2021-12-02T10:57:43.476Z,,,,,,,,,,,,,,,,54,,,,,,,,,,,,,,297.6399999999994,,response,,,100,,,,,,Space,keypress(Space),,,,,-- --- ---- --- ------ ----- ------- ---- -- --- ------- --<br>------- ---------- ------ -- ----- -- ----- -- ---- ------<br>--- ----- --- --- ------ -------- ----- --- ------ ----- --<br>----- ----- ---------- --- --- ------ ------ ---- -- ------<br>------- --- ------ ----- --- ---- ------- -- ---- --- --<br>------- money.,111172.30000000075,111171.5,110857.19,110860.59999999963,110873.86,111190.474,,55,money.
Item 100,flow.Loop,0_2_1_1,2021-12-02T10:57:43.476Z,,,,,,,,,,,,,,,,,,,,,,,,,,,,,,18069.141000000003,,completion,,,,C,,,,,,,,,,silence,,111172.70000000112,111171.5,93085.689,93087.80000000075,93102.359,111190.474,,,
Question 1,html.Screen,0_2_1_2,2021-12-02T10:57:48.708Z,,,,,,,,,,,,,,,,,,,,,,,,,,,true,TRUE,,5212.726000001116,,response,,,100,C,,,,,TRUE,click #choice-1,,,,silence,,116404.40000000037,116403.20000000112,111173.806,111172.90000000037,111190.474,116408.777,,,
Question 2,html.Screen,0_2_1_3,2021-12-02T10:57:50.628Z,,,,,,,,,,,,,,,,,,,,,,,,,,,true,FALSE,,1914.3229999996256,,response,,,100,C,,,,,FALSE,click #choice-2,,,,silence,,118324.30000000075,118323.09999999963,116392.102,116404.59999999963,116408.777,118325.826,,,
Item 100,flow.Sequence,0_2_1,2021-12-02T10:57:50.628Z,,,,,,,,,,,,,,,,,,,,,,,,,,,,,,35223.41199999963,,completion,,,,,,,,,,,,,,,,118324.70000000112,118323.09999999963,83083.022,83086.70000000112,83099.688,118325.826,,,
End of Practice,html.Page,0_2_2,2021-12-02T10:57:56.496Z,,,,,,,,,,,,,,,,,,,,,,,,,,,,,,5862.574000000372,,form submission,,,,,,,,,,,,,,,,124189,124188.40000000037,118309.156,118324.90000000037,118325.826,124193.94,,,
Practice,flow.Sequence,0_2,2021-12-02T10:57:56.497Z,,,,,,,,,,,,,,,,,,,,,,,,,,,,,,92969.34400000038,,completion,,,,,,,,,,,,,,,,124189.5,124188.40000000037,31202.389,31209.300000000745,31219.056,124193.94,,,
Trap_instruction,html.Page,0_3_0,2021-12-02T10:58:02.312Z,,,,,,,,,,,,,,,,,,,,,,,,,,,,,,5810.059999999998,,form submission,,,,,,,,,,,,,,,,130004.5,130004,124177.27,124189.80000000075,124193.94,130028.846,,,
trap_trial,html.Screen,0_3_1,2021-12-02T10:58:05.671Z,,,,,,,,,,,,,,,,,,,,,,,,,,,true,1,,3333.5540000003675,,response,,,,,,,,,1,click #choice-1,,,,,,133363.80000000075,133362.40000000037,129995.506,130004.70000000112,130028.846,133379.386,,,
end of trap trial,html.Page,0_3_2,2021-12-02T10:58:08.239Z,,,,,,,,,,,,,,,,,,,,,,,,,,,,,,2552.4140000007465,,form submission,,,,,,,,,,,,,,,,135932.30000000075,135931.80000000075,133362.717,133364,133379.386,135947.103,,,
Trap 1,flow.Sequence,0_3,2021-12-02T10:58:08.240Z,,,,,,,,,,,,,,,,,,,,,,,,,,,,,,11737.860000000743,,completion,,,,,,,,,,,,,,,,135932.80000000075,135931.80000000075,124177.27,124189.70000000112,124193.94,135947.103,,,
Standby,html.Page,0_4_0,2021-12-02T10:58:16.241Z,,,,,,,,,,,,,,,,,,,,,,,,,,,,,,8001.641000000003,,timeout,,,,,,,,,,,,,,,,143933.70000000112,143932.074,135930.433,135933.30000000075,135947.103,143948.744,,,
Holding screen,html.Screen,0_4_1_0_0,2021-12-02T10:58:23.243Z,,,,,,,,,,,,,,,,,,,,,,,,,,,,,,7002.5,,timeout,,,,,,,,,,,,,,,,150936.30000000075,150934.573,143932.074,143934.09999999963,143948.744,150951.244,,,
screen,html.Screen,0_4_1_0_1_0,2021-12-02T10:58:24.638Z,,,,,,,,,,,,,,,,2,,,,,,,,,,,,,,1378.8559999996214,,response,,,1,C,,,,,Space,keypress(Space),,,,instrumental,Two ---- ------ --- ------- ---------- ------- ----------<br>--- --------- --- ----------- ------- ----- ------- ---<br>--------- ---- -- --- ---- -- --------- -- ---- -------<br>-- --------- ------ --- ----- ------ ---- --- --------- --<br>------ - ---- -- --- ----------- ------- ---- ----- -----<br>--- -------- - ------ ---- -- ----- ---- --- --- -----------<br>-- -------,152331.20000000112,152330.09999999963,150934.573,150936.80000000075,150951.244,152334.596,,0,Two
screen,html.Screen,0_4_1_0_1_1,2021-12-02T10:58:25.038Z,,,,,,,,,,,,,,,,2,,,,,,,,,,,,,,395.10400000112713,,response,,,1,C,,,,,Space,keypress(Space),,,,instrumental,--- days ------ --- ------- ---------- ------- ----------<br>--- --------- --- ----------- ------- ----- ------- ---<br>--------- ---- -- --- ---- -- --------- -- ---- -------<br>-- --------- ------ --- ----- ------ ---- --- --------- --<br>------ - ---- -- --- ----------- ------- ---- ----- -----<br>--- -------- - ------ ---- -- ----- ---- --- --- -----------<br>-- -------,152730.5,152729.70000000112,152317.927,152331.5,152334.596,152735.046,,1,days
screen,html.Screen,0_4_1_0_1_2,2021-12-02T10:58:25.422Z,,,,,,,,,,,,,,,,2,,,,,,,,,,,,,,378.6540000011155,,response,,,1,C,,,,,Space,keypress(Space),,,,instrumental,"--- ---- later, --- ------- ---------- ------- ----------<br>--- --------- --- ----------- ------- ----- ------- ---<br>--------- ---- -- --- ---- -- --------- -- ---- -------<br>-- --------- ------ --- ----- ------ ---- --- --------- --<br>------ - ---- -- --- ----------- ------- ---- ----- -----<br>--- -------- - ------ ---- -- ----- ---- --- --- -----------<br>-- -------",153114.5,153113.70000000112,152718.375,152730.70000000112,152735.046,153118.417,,2,"later,"
screen,html.Screen,0_4_1_0_1_3,2021-12-02T10:58:25.797Z,,,,,,,,,,,,,,,,2,,,,,,,,,,,,,,371.18299999964074,,response,,,1,C,,,,,Space,keypress(Space),,,,instrumental,--- ---- ------ the ------- ---------- ------- ----------<br>--- --------- --- ----------- ------- ----- ------- ---<br>--------- ---- -- --- ---- -- --------- -- ---- -------<br>-- --------- ------ --- ----- ------ ---- --- --------- --<br>------ - ---- -- --- ----------- ------- ---- ----- -----<br>--- -------- - ------ ---- -- ----- ---- --- --- -----------<br>-- -------,153490.40000000037,153489.59999999963,153101.747,153114.59999999963,153118.417,153501.899,,3,the
screen,html.Screen,0_4_1_0_1_4,2021-12-02T10:58:26.205Z,,,,,,,,,,,,,,,,2,,,,,,,,,,,,,,395.7009999996226,,response,,,1,C,,,,,Space,keypress(Space),,,,instrumental,--- ---- ------ --- British ---------- ------- ----------<br>--- --------- --- ----------- ------- ----- ------- ---<br>--------- ---- -- --- ---- -- --------- -- ---- -------<br>-- --------- ------ --- ----- ------ ---- --- --------- --<br>------ - ---- -- --- ----------- ------- ---- ----- -----<br>--- -------- - ------ ---- -- ----- ---- --- --- -----------<br>-- -------,153898.20000000112,153897.59999999963,153485.228,153490.70000000112,153501.899,153901.934,,4,British
screen,html.Screen,0_4_1_0_1_5,2021-12-02T10:58:26.870Z,,,,,,,,,,,,,,,,2,,,,,,,,,,,,,,659.6659999996191,,response,,,1,C,,,,,Space,keypress(Space),,,,instrumental,--- ---- ------ --- ------- astronomer ------- ----------<br>--- --------- --- ----------- ------- ----- ------- ---<br>--------- ---- -- --- ---- -- --------- -- ---- -------<br>-- --------- ------ --- ----- ------ ---- --- --------- --<br>------ - ---- -- --- ----------- ------- ---- ----- -----<br>--- -------- - ------ ---- -- ----- ---- --- --- -----------<br>-- -------,154562.40000000037,154561.59999999963,153885.264,153898.5,153901.934,154568.779,,5,astronomer
screen,html.Screen,0_4_1_0_1_6,2021-12-02T10:58:27.469Z,,,,,,,,,,,,,,,,2,,,,,,,,,,,,,,592.8209999996179,,response,,,1,C,,,,,Space,keypress(Space),,,,instrumental,--- ---- ------ --- ------- ---------- Richard ----------<br>--- --------- --- ----------- ------- ----- ------- ---<br>--------- ---- -- --- ---- -- --------- -- ---- -------<br>-- --------- ------ --- ----- ------ ---- --- --------- --<br>------ - ---- -- --- ----------- ------- ---- ----- -----<br>--- -------- - ------ ---- -- ----- ---- --- --- -----------<br>-- -------,155162.30000000075,155161.59999999963,154552.109,154562.70000000112,154568.779,155168.811,,6,Richard
screen,html.Screen,0_4_1_0_1_7,2021-12-02T10:58:28.157Z,,,,,,,,,,,,,,,,2,,,,,,,,,,,,,,680.7889999996405,,response,,,1,C,,,,,Space,keypress(Space),,,,instrumental,--- ---- ------ --- ------- ---------- ------- Carrington<br>--- --------- --- ----------- ------- ----- ------- ---<br>--------- ---- -- --- ---- -- --------- -- ---- -------<br>-- --------- ------ --- ----- ------ ---- --- --------- --<br>------ - ---- -- --- ----------- ------- ---- ----- -----<br>--- -------- - ------ ---- -- ----- ---- --- --- -----------<br>-- -------,155850.30000000075,155849.59999999963,155152.142,155162.59999999963,155168.811,155852.568,,7,Carrington
screen,html.Screen,0_4_1_0_1_8,2021-12-02T10:58:28.725Z,,,,,,,,,,,,,,,,2,,,,,,,,,,,,,,564.8320000003732,,response,,,1,C,,,,,Space,keypress(Space),,,,instrumental,--- ---- ------ --- ------- ---------- ------- ----------<br>was --------- --- ----------- ------- ----- ------- ---<br>--------- ---- -- --- ---- -- --------- -- ---- -------<br>-- --------- ------ --- ----- ------ ---- --- --------- --<br>------ - ---- -- --- ----------- ------- ---- ----- -----<br>--- -------- - ------ ---- -- ----- ---- --- --- -----------<br>-- -------,156418.09999999963,156417.40000000037,155835.896,155850.5,155852.568,156419.241,,8,was
screen,html.Screen,0_4_1_0_1_9,2021-12-02T10:58:29.557Z,,,,,,,,,,,,,,,,2,,,,,,,,,,,,,,830.2589999999909,,response,,,1,C,,,,,Space,keypress(Space),,,,instrumental,--- ---- ------ --- ------- ---------- ------- ----------<br>--- observing --- ----------- ------- ----- ------- ---<br>--------- ---- -- --- ---- -- --------- -- ---- -------<br>-- --------- ------ --- ----- ------ ---- --- --------- --<br>------ - ---- -- --- ----------- ------- ---- ----- -----<br>--- -------- - ------ ---- -- ----- ---- --- --- -----------<br>-- -------,157250.30000000075,157249.5,156402.571,156418.30000000075,156419.241,157252.745,,9,observing
screen,html.Screen,0_4_1_0_1_10,2021-12-02T10:58:30.237Z,,,,,,,,,,,,,,,,2,,,,,,,,,,,,,,676.7550000000047,,response,,,1,C,,,,,Space,keypress(Space),,,,instrumental,--- ---- ------ --- ------- ---------- ------- ----------<br>--- --------- the ----------- ------- ----- ------- ---<br>--------- ---- -- --- ---- -- --------- -- ---- -------<br>-- --------- ------ --- ----- ------ ---- --- --------- --<br>------ - ---- -- --- ----------- ------- ---- ----- -----<br>--- -------- - ------ ---- -- ----- ---- --- --- -----------<br>-- -------,157930.20000000112,157929.5,157236.075,157250.5,157252.745,157936.478,,10,the
screen,html.Screen,0_4_1_0_1_11,2021-12-02T10:58:31.101Z,,,,,,,,,,,,,,,,2,,,,,,,,,,,,,,856.9220000003697,,response,,,1,C,,,,,Space,keypress(Space),,,,instrumental,--- ---- ------ --- ------- ---------- ------- ----------<br>--- --------- --- interesting ------- ----- ------- ---<br>--------- ---- -- --- ---- -- --------- -- ---- -------<br>-- --------- ------ --- ----- ------ ---- --- --------- --<br>------ - ---- -- --- ----------- ------- ---- ----- -----<br>--- -------- - ------ ---- -- ----- ---- --- --- -----------<br>-- -------,158794.30000000075,158793.40000000037,157919.806,157930.5,157936.478,158803.199,,11,interesting
screen,html.Screen,0_4_1_0_1_12,2021-12-02T10:58:33.365Z,,,,,,,,,,,,,,,,2,,,,,,,,,,,,,,2254.101000000752,,response,,,1,C,,,,,Space,keypress(Space),,,,instrumental,--- ---- ------ --- ------- ---------- ------- ----------<br>--- --------- --- ----------- sunspot ----- ------- ---<br>--------- ---- -- --- ---- -- --------- -- ---- -------<br>-- --------- ------ --- ----- ------ ---- --- --------- --<br>------ - ---- -- --- ----------- ------- ---- ----- -----<br>--- -------- - ------ ---- -- ----- ---- --- --- -----------<br>-- -------,161058,161057.30000000075,158786.529,158794.59999999963,158803.199,161070.574,,12,sunspot
screen,html.Screen,0_4_1_0_1_13,2021-12-02T10:58:35.765Z,,,,,,,,,,,,,,,,2,,,,,,,,,,,,,,2386.9260000000068,,response,,,1,C,,,,,Space,keypress(Space),,,,instrumental,--- ---- ------ --- ------- ---------- ------- ----------<br>--- --------- --- ----------- ------- group ------- ---<br>--------- ---- -- --- ---- -- --------- -- ---- -------<br>-- --------- ------ --- ----- ------ ---- --- --------- --<br>------ - ---- -- --- ----------- ------- ---- ----- -----<br>--- -------- - ------ ---- -- ----- ---- --- --- -----------<br>-- -------,163458.30000000075,163457.5,161053.903,161058.30000000075,161070.574,163470.862,,13,group
screen,html.Screen,0_4_1_0_1_14,2021-12-02T10:58:36.541Z,,,,,,,,,,,,,,,,2,,,,,,,,,,,,,,762.2379999996338,,response,,,1,C,,,,,Space,keypress(Space),,,,instrumental,--- ---- ------ --- ------- ---------- ------- ----------<br>--- --------- --- ----------- ------- ----- through ---<br>--------- ---- -- --- ---- -- --------- -- ---- -------<br>-- --------- ------ --- ----- ------ ---- --- --------- --<br>------ - ---- -- --- ----------- ------- ---- ----- -----<br>--- -------- - ------ ---- -- ----- ---- --- --- -----------<br>-- -------,164234,164233.09999999963,163454.192,163458.59999999963,163470.862,164237.951,,14,through
screen,html.Screen,0_4_1_0_1_15,2021-12-02T10:58:37.037Z,,,,,,,,,,,,,,,,2,,,,,,,,,,,,,,491.24900000111666,,response,,,1,C,,,,,Space,keypress(Space),,,,instrumental,--- ---- ------ --- ------- ---------- ------- ----------<br>--- --------- --- ----------- ------- ----- ------- his<br>--------- ---- -- --- ---- -- --------- -- ---- -------<br>-- --------- ------ --- ----- ------ ---- --- --------- --<br>------ - ---- -- --- ----------- ------- ---- ----- -----<br>--- -------- - ------ ---- -- ----- ---- --- --- -----------<br>-- -------,164730,164729.20000000112,164221.281,164234.40000000037,164237.951,164754.778,,15,his
screen,html.Screen,0_4_1_0_1_16,2021-12-02T10:58:37.429Z,,,,,,,,,,,,,,,,2,,,,,,,,,,,,,,366.3219999996363,,response,,,1,C,,,,,Space,keypress(Space),,,,instrumental,--- ---- ------ --- ------- ---------- ------- ----------<br>--- --------- --- ----------- ------- ----- ------- ---<br>telescope ---- -- --- ---- -- --------- -- ---- -------<br>-- --------- ------ --- ----- ------ ---- --- --------- --<br>------ - ---- -- --- ----------- ------- ---- ----- -----<br>--- -------- - ------ ---- -- ----- ---- --- --- -----------<br>-- -------,165121.90000000037,165121.09999999963,164738.108,164730.09999999963,164754.778,165138.354,,16,telescope
screen,html.Screen,0_4_1_0_1_17,2021-12-02T10:58:37.797Z,,,,,,,,,,,,,,,,2,,,,,,,,,,,,,,350.7459999996354,,response,,,1,C,,,,,Space,keypress(Space),,,,instrumental,--- ---- ------ --- ------- ---------- ------- ----------<br>--- --------- --- ----------- ------- ----- ------- ---<br>--------- when -- --- ---- -- --------- -- ---- -------<br>-- --------- ------ --- ----- ------ ---- --- --------- --<br>------ - ---- -- --- ----------- ------- ---- ----- -----<br>--- -------- - ------ ---- -- ----- ---- --- --- -----------<br>-- -------,165489.80000000075,165489.09999999963,165121.682,165122.20000000112,165138.354,165505.036,,17,when
screen,html.Screen,0_4_1_0_1_18,2021-12-02T10:58:38.445Z,,,,,,,,,,,,,,,,2,,,,,,,,,,,,,,631.9640000000072,,response,,,1,C,,,,,Space,keypress(Space),,,,instrumental,--- ---- ------ --- ------- ---------- ------- ----------<br>--- --------- --- ----------- ------- ----- ------- ---<br>--------- ---- he --- ---- -- --------- -- ---- -------<br>-- --------- ------ --- ----- ------ ---- --- --------- --<br>------ - ---- -- --- ----------- ------- ---- ----- -----<br>--- -------- - ------ ---- -- ----- ---- --- --- -----------<br>-- -------,166137.90000000037,166137,165488.366,165490.20000000112,165505.036,166155.078,,18,he
screen,html.Screen,0_4_1_0_1_19,2021-12-02T10:58:39.205Z,,,,,,,,,,,,,,,,2,,,,,,,,,,,,,,741.8220000003639,,response,,,1,C,,,,,Space,keypress(Space),,,,instrumental,--- ---- ------ --- ------- ---------- ------- ----------<br>--- --------- --- ----------- ------- ----- ------- ---<br>--------- ---- -- saw ---- -- --------- -- ---- -------<br>-- --------- ------ --- ----- ------ ---- --- --------- --<br>------ - ---- -- --- ----------- ------- ---- ----- -----<br>--- -------- - ------ ---- -- ----- ---- --- --- -----------<br>-- -------,166897.70000000112,166896.90000000037,166138.409,166138.09999999963,166155.078,166905.567,,19,saw
screen,html.Screen,0_4_1_0_1_20,2021-12-02T10:58:39.637Z,,,,,,,,,,,,,,,,2,,,,,,,,,,,,,,423.43299999999,,response,,,1,C,,,,,Space,keypress(Space),,,,instrumental,--- ---- ------ --- ------- ---------- ------- ----------<br>--- --------- --- ----------- ------- ----- ------- ---<br>--------- ---- -- --- what -- --------- -- ---- -------<br>-- --------- ------ --- ----- ------ ---- --- --------- --<br>------ - ---- -- --- ----------- ------- ---- ----- -----<br>--- -------- - ------ ---- -- ----- ---- --- --- -----------<br>-- -------,167329.70000000112,167329,166888.894,166898.09999999963,166905.567,167338.745,,20,what
screen,html.Screen,0_4_1_0_1_21,2021-12-02T10:58:40.021Z,,,,,,,,,,,,,,,,2,,,,,,,,,,,,,,374.1550000003772,,response,,,1,C,,,,,Space,keypress(Space),,,,instrumental,--- ---- ------ --- ------- ---------- ------- ----------<br>--- --------- --- ----------- ------- ----- ------- ---<br>--------- ---- -- --- ---- he --------- -- ---- -------<br>-- --------- ------ --- ----- ------ ---- --- --------- --<br>------ - ---- -- --- ----------- ------- ---- ----- -----<br>--- -------- - ------ ---- -- ----- ---- --- --- -----------<br>-- -------,167713.70000000112,167712.90000000037,167322.076,167330,167338.745,167722.35,,21,he
screen,html.Screen,0_4_1_0_1_22,2021-12-02T10:58:40.453Z,,,,,,,,,,,,,,,,2,,,,,,,,,,,,,,422.6499999999942,,response,,,1,C,,,,,Space,keypress(Space),,,,instrumental,--- ---- ------ --- ------- ---------- ------- ----------<br>--- --------- --- ----------- ------- ----- ------- ---<br>--------- ---- -- --- ---- -- described -- ---- -------<br>-- --------- ------ --- ----- ------ ---- --- --------- --<br>------ - ---- -- --- ----------- ------- ---- ----- -----<br>--- -------- - ------ ---- -- ----- ---- --- --- -----------<br>-- -------,168145.70000000112,168145,167705.679,167713.90000000037,167722.35,168155.601,,22,described
screen,html.Screen,0_4_1_0_1_23,2021-12-02T10:58:40.917Z,,,,,,,,,,,,,,,,2,,,,,,,,,,,,,,453.2990000003774,,response,,,1,C,,,,,Space,keypress(Space),,,,instrumental,--- ---- ------ --- ------- ---------- ------- ----------<br>--- --------- --- ----------- ------- ----- ------- ---<br>--------- ---- -- --- ---- -- --------- as ---- -------<br>-- --------- ------ --- ----- ------ ---- --- --------- --<br>------ - ---- -- --- ----------- ------- ---- ----- -----<br>--- -------- - ------ ---- -- ----- ---- --- --- -----------<br>-- -------,168609.70000000112,168608.90000000037,168138.933,168146,168155.601,168622.461,,23,as
screen,html.Screen,0_4_1_0_1_24,2021-12-02T10:58:41.901Z,,,,,,,,,,,,,,,,2,,,,,,,,,,,,,,970.4390000003623,,response,,,1,C,,,,,Space,keypress(Space),,,,instrumental,"--- ---- ------ --- ------- ---------- ------- ----------<br>--- --------- --- ----------- ------- ----- ------- ---<br>--------- ---- -- --- ---- -- --------- -- ""two -------<br>-- --------- ------ --- ----- ------ ---- --- --------- --<br>------ - ---- -- --- ----------- ------- ---- ----- -----<br>--- -------- - ------ ---- -- ----- ---- --- --- -----------<br>-- -------",169593.59999999963,169592.90000000037,168605.791,168609.90000000037,168622.461,169606.334,,24,"""two"
screen,html.Screen,0_4_1_0_1_25,2021-12-02T10:58:44.317Z,,,,,,,,,,,,,,,,2,,,,,,,,,,,,,,2402.4660000007425,,response,,,1,C,,,,,Space,keypress(Space),,,,instrumental,--- ---- ------ --- ------- ---------- ------- ----------<br>--- --------- --- ----------- ------- ----- ------- ---<br>--------- ---- -- --- ---- -- --------- -- ---- patches<br>-- --------- ------ --- ----- ------ ---- --- --------- --<br>------ - ---- -- --- ----------- ------- ---- ----- -----<br>--- -------- - ------ ---- -- ----- ---- --- --- -----------<br>-- -------,172009.70000000112,172008.80000000075,169589.661,169593.90000000037,169606.334,172023.283,,25,patches
screen,html.Screen,0_4_1_0_1_26,2021-12-02T10:58:44.797Z,,,,,,,,,,,,,,,,2,,,,,,,,,,,,,,465.4170000011218,,response,,,1,C,,,,,Space,keypress(Space),,,,instrumental,--- ---- ------ --- ------- ---------- ------- ----------<br>--- --------- --- ----------- ------- ----- ------- ---<br>--------- ---- -- --- ---- -- --------- -- ---- -------<br>of --------- ------ --- ----- ------ ---- --- --------- --<br>------ - ---- -- --- ----------- ------- ---- ----- -----<br>--- -------- - ------ ---- -- ----- ---- --- --- -----------<br>-- -------,172489.59999999963,172488.70000000112,172006.613,172009.90000000037,172023.283,172506.828,,26,of
screen,html.Screen,0_4_1_0_1_27,2021-12-02T10:58:45.165Z,,,,,,,,,,,,,,,,2,,,,,,,,,,,,,,349.872000001109,,response,,,1,C,,,,,Space,keypress(Space),,,,instrumental,--- ---- ------ --- ------- ---------- ------- ----------<br>--- --------- --- ----------- ------- ----- ------- ---<br>--------- ---- -- --- ---- -- --------- -- ---- -------<br>-- intensely ------ --- ----- ------ ---- --- --------- --<br>------ - ---- -- --- ----------- ------- ---- ----- -----<br>--- -------- - ------ ---- -- ----- ---- --- --- -----------<br>-- -------,172857.5,172856.70000000112,172490.158,172489.90000000037,172506.828,172873.592,,27,intensely
screen,html.Screen,0_4_1_0_1_28,2021-12-02T10:58:45.565Z,,,,,,,,,,,,,,,,2,,,,,,,,,,,,,,383.0079999996233,,response,,,1,C,,,,,Space,keypress(Space),,,,instrumental,--- ---- ------ --- ------- ---------- ------- ----------<br>--- --------- --- ----------- ------- ----- ------- ---<br>--------- ---- -- --- ---- -- --------- -- ---- -------<br>-- --------- bright --- ----- ------ ---- --- --------- --<br>------ - ---- -- --- ----------- ------- ---- ----- -----<br>--- -------- - ------ ---- -- ----- ---- --- --- -----------<br>-- -------,173257.59999999963,173256.59999999963,172856.922,172857.90000000037,172873.592,173273.904,,28,bright
screen,html.Screen,0_4_1_0_1_29,2021-12-02T10:58:46.021Z,,,,,,,,,,,,,,,,2,,,,,,,,,,,,,,439.29600000110804,,response,,,1,C,,,,,Space,keypress(Space),,,,instrumental,--- ---- ------ --- ------- ---------- ------- ----------<br>--- --------- --- ----------- ------- ----- ------- ---<br>--------- ---- -- --- ---- -- --------- -- ---- -------<br>-- --------- ------ and ----- ------ ---- --- --------- --<br>------ - ---- -- --- ----------- ------- ---- ----- -----<br>--- -------- - ------ ---- -- ----- ---- --- --- -----------<br>-- -------,173713.90000000037,173713.20000000112,173257.231,173257.90000000037,173273.904,173723.883,,29,and
screen,html.Screen,0_4_1_0_1_30,2021-12-02T10:58:46.397Z,,,,,,,,,,,,,,,,2,,,,,,,,,,,,,,364.81700000111596,,response,,,1,C,,,,,Space,keypress(Space),,,,instrumental,--- ---- ------ --- ------- ---------- ------- ----------<br>--- --------- --- ----------- ------- ----- ------- ---<br>--------- ---- -- --- ---- -- --------- -- ---- -------<br>-- --------- ------ --- white ------ ---- --- --------- --<br>------ - ---- -- --- ----------- ------- ---- ----- -----<br>--- -------- - ------ ---- -- ----- ---- --- --- -----------<br>-- -------,174089.59999999963,174088.70000000112,173707.213,173714.20000000112,173723.883,174090.695,,30,white
screen,html.Screen,0_4_1_0_1_31,2021-12-02T10:58:46.837Z,,,,,,,,,,,,,,,,2,,,,,,,,,,,,,,438.0050000011106,,response,,,1,C,,,,,Space,keypress(Space),,,,instrumental,"--- ---- ------ --- ------- ---------- ------- ----------<br>--- --------- --- ----------- ------- ----- ------- ---<br>--------- ---- -- --- ---- -- --------- -- ---- -------<br>-- --------- ------ --- ----- light"" ---- --- --------- --<br>------ - ---- -- --- ----------- ------- ---- ----- -----<br>--- -------- - ------ ---- -- ----- ---- --- --- -----------<br>-- -------",174529.5,174528.70000000112,174074.024,174089.90000000037,174090.695,174540.75,,31,"light"""
screen,html.Screen,0_4_1_0_1_32,2021-12-02T10:58:47.325Z,,,,,,,,,,,,,,,,2,,,,,,,,,,,,,,475.9500000011176,,response,,,1,C,,,,,Space,keypress(Space),,,,instrumental,--- ---- ------ --- ------- ---------- ------- ----------<br>--- --------- --- ----------- ------- ----- ------- ---<br>--------- ---- -- --- ---- -- --------- -- ---- -------<br>-- --------- ------ --- ----- ------ over --- --------- --<br>------ - ---- -- --- ----------- ------- ---- ----- -----<br>--- -------- - ------ ---- -- ----- ---- --- --- -----------<br>-- -------,175017.40000000037,175016.70000000112,174524.08,174529.80000000075,174540.75,175024.123,,32,over
screen,html.Screen,0_4_1_0_1_33,2021-12-02T10:58:47.790Z,,,,,,,,,,,,,,,,2,,,,,,,,,,,,,,456.8770000000077,,response,,,1,C,,,,,Space,keypress(Space),,,,instrumental,--- ---- ------ --- ------- ---------- ------- ----------<br>--- --------- --- ----------- ------- ----- ------- ---<br>--------- ---- -- --- ---- -- --------- -- ---- -------<br>-- --------- ------ --- ----- ------ ---- the --------- --<br>------ - ---- -- --- ----------- ------- ---- ----- -----<br>--- -------- - ------ ---- -- ----- ---- --- --- -----------<br>-- -------,175483.09999999963,175481,175007.454,175017.80000000075,175024.123,175491.154,,33,the
screen,html.Screen,0_4_1_0_1_34,2021-12-02T10:58:48.116Z,,,,,,,,,,,,,,,,2,,,,,,,,,,,,,,317.04600000110804,,response,,,1,C,,,,,Space,keypress(Space),,,,instrumental,--- ---- ------ --- ------- ---------- ------- ----------<br>--- --------- --- ----------- ------- ----- ------- ---<br>--------- ---- -- --- ---- -- --------- -- ---- -------<br>-- --------- ------ --- ----- ------ ---- --- sunspots. --<br>------ - ---- -- --- ----------- ------- ---- ----- -----<br>--- -------- - ------ ---- -- ----- ---- --- --- -----------<br>-- -------,175808.59999999963,175808.20000000112,175474.481,175483.40000000037,175491.154,175824.367,,34,sunspots.
screen,html.Screen,0_4_1_0_1_35,2021-12-02T10:58:48.932Z,,,,,,,,,,,,,,,,2,,,,,,,,,,,,,,800.1330000000016,,response,,,1,C,,,,,Space,keypress(Space),,,,instrumental,--- ---- ------ --- ------- ---------- ------- ----------<br>--- --------- --- ----------- ------- ----- ------- ---<br>--------- ---- -- --- ---- -- --------- -- ---- -------<br>-- --------- ------ --- ----- ------ ---- --- --------- He<br>------ - ---- -- --- ----------- ------- ---- ----- -----<br>--- -------- - ------ ---- -- ----- ---- --- --- -----------<br>-- -------,176625.30000000075,176624.5,175807.698,175808.70000000112,175824.367,176641.251,,35,He
screen,html.Screen,0_4_1_0_1_36,2021-12-02T10:58:49.700Z,,,,,,,,,,,,,,,,2,,,,,,,,,,,,,,751.2490000000107,,response,,,1,C,,,,,Space,keypress(Space),,,,instrumental,--- ---- ------ --- ------- ---------- ------- ----------<br>--- --------- --- ----------- ------- ----- ------- ---<br>--------- ---- -- --- ---- -- --------- -- ---- -------<br>-- --------- ------ --- ----- ------ ---- --- --------- --<br>jotted - ---- -- --- ----------- ------- ---- ----- -----<br>--- -------- - ------ ---- -- ----- ---- --- --- -----------<br>-- -------,177393.30000000075,177392.5,176624.581,176625.70000000112,176641.251,177408.384,,36,jotted
screen,html.Screen,0_4_1_0_1_37,2021-12-02T10:58:50.164Z,,,,,,,,,,,,,,,,2,,,,,,,,,,,,,,448.0160000003816,,response,,,1,C,,,,,Space,keypress(Space),,,,instrumental,--- ---- ------ --- ------- ---------- ------- ----------<br>--- --------- --- ----------- ------- ----- ------- ---<br>--------- ---- -- --- ---- -- --------- -- ---- -------<br>-- --------- ------ --- ----- ------ ---- --- --------- --<br>------ a ---- -- --- ----------- ------- ---- ----- -----<br>--- -------- - ------ ---- -- ----- ---- --- --- -----------<br>-- -------,177857.09999999963,177856.40000000037,177391.711,177393.5,177408.384,177858.369,,37,a
screen,html.Screen,0_4_1_0_1_38,2021-12-02T10:58:50.668Z,,,,,,,,,,,,,,,,2,,,,,,,,,,,,,,502.13099999999395,,response,,,1,C,,,,,Space,keypress(Space),,,,instrumental,--- ---- ------ --- ------- ---------- ------- ----------<br>--- --------- --- ----------- ------- ----- ------- ---<br>--------- ---- -- --- ---- -- --------- -- ---- -------<br>-- --------- ------ --- ----- ------ ---- --- --------- --<br>------ - note -- --- ----------- ------- ---- ----- -----<br>--- -------- - ------ ---- -- ----- ---- --- --- -----------<br>-- -------,178361.30000000075,178360.5,177841.698,177857.40000000037,177858.369,178375.016,,38,note
screen,html.Screen,0_4_1_0_1_39,2021-12-02T10:58:51.252Z,,,,,,,,,,,,,,,,2,,,,,,,,,,,,,,569.4839999999967,,response,,,1,C,,,,,Space,keypress(Space),,,,instrumental,--- ---- ------ --- ------- ---------- ------- ----------<br>--- --------- --- ----------- ------- ----- ------- ---<br>--------- ---- -- --- ---- -- --------- -- ---- -------<br>-- --------- ------ --- ----- ------ ---- --- --------- --<br>------ - ---- in --- ----------- ------- ---- ----- -----<br>--- -------- - ------ ---- -- ----- ---- --- --- -----------<br>-- -------,178945.30000000075,178944.5,178358.347,178361.5,178375.016,178958.714,,39,in
screen,html.Screen,0_4_1_0_1_40,2021-12-02T10:58:52.940Z,,,,,,,,,,,,,,,,2,,,,,,,,,,,,,,1673.6860000003653,,response,,,1,C,,,,,Space,keypress(Space),,,,instrumental,--- ---- ------ --- ------- ---------- ------- ----------<br>--- --------- --- ----------- ------- ----- ------- ---<br>--------- ---- -- --- ---- -- --------- -- ---- -------<br>-- --------- ------ --- ----- ------ ---- --- --------- --<br>------ - ---- -- his ----------- ------- ---- ----- -----<br>--- -------- - ------ ---- -- ----- ---- --- --- -----------<br>-- -------,180633.20000000112,180632.40000000037,178942.042,178945.5,178958.714,180642.298,,40,his
screen,html.Screen,0_4_1_0_1_41,2021-12-02T10:58:53.828Z,,,,,,,,,,,,,,,,2,,,,,,,,,,,,,,878.1020000003628,,response,,,1,C,,,,,Space,keypress(Space),,,,instrumental,--- ---- ------ --- ------- ---------- ------- ----------<br>--- --------- --- ----------- ------- ----- ------- ---<br>--------- ---- -- --- ---- -- --------- -- ---- -------<br>-- --------- ------ --- ----- ------ ---- --- --------- --<br>------ - ---- -- --- painstaking ------- ---- ----- -----<br>--- -------- - ------ ---- -- ----- ---- --- --- -----------<br>-- -------,181521.09999999963,181520.40000000037,180625.628,180633.5,180642.298,181525.711,,41,painstaking
screen,html.Screen,0_4_1_0_1_42,2021-12-02T10:58:55.194Z,,,,,,,,,,,,,,,,2,,,,,,,,,,,,,,1362.5890000007348,,response,,,1,C,,,,,Space,keypress(Space),,,,instrumental,--- ---- ------ --- ------- ---------- ------- ----------<br>--- --------- --- ----------- ------- ----- ------- ---<br>--------- ---- -- --- ---- -- --------- -- ---- -------<br>-- --------- ------ --- ----- ------ ---- --- --------- --<br>------ - ---- -- --- ----------- record. ---- ----- -----<br>--- -------- - ------ ---- -- ----- ---- --- --- -----------<br>-- -------,182889,182888.30000000075,181509.042,181521.40000000037,181525.711,182893.026,,42,record.
screen,html.Screen,0_4_1_0_1_43,2021-12-02T10:58:55.874Z,,,,,,,,,,,,,,,,2,,,,,,,,,,,,,,675.2740000007325,,response,,,1,C,,,,,Space,keypress(Space),,,,instrumental,--- ---- ------ --- ------- ---------- ------- ----------<br>--- --------- --- ----------- ------- ----- ------- ---<br>--------- ---- -- --- ---- -- --------- -- ---- -------<br>-- --------- ------ --- ----- ------ ---- --- --------- --<br>------ - ---- -- --- ----------- ------- That ----- -----<br>--- -------- - ------ ---- -- ----- ---- --- --- -----------<br>-- -------,183569.09999999963,183568.30000000075,182876.355,182889.30000000075,182893.026,183576.406,,43,That
screen,html.Screen,0_4_1_0_1_44,2021-12-02T10:58:56.515Z,,,,,,,,,,,,,,,,2,,,,,,,,,,,,,,632.1939999996393,,response,,,1,C,,,,,Space,keypress(Space),,,,instrumental,--- ---- ------ --- ------- ---------- ------- ----------<br>--- --------- --- ----------- ------- ----- ------- ---<br>--------- ---- -- --- ---- -- --------- -- ---- -------<br>-- --------- ------ --- ----- ------ ---- --- --------- --<br>------ - ---- -- --- ----------- ------- ---- night -----<br>--- -------- - ------ ---- -- ----- ---- --- --- -----------<br>-- -------,184209.5,184208.59999999963,183559.736,183569.5,183576.406,184226.601,,44,night
screen,html.Screen,0_4_1_0_1_45,2021-12-02T10:58:57.210Z,,,,,,,,,,,,,,,,2,,,,,,,,,,,,,,677.4989999996324,,response,,,1,C,,,,,Space,keypress(Space),,,,instrumental,--- ---- ------ --- ------- ---------- ------- ----------<br>--- --------- --- ----------- ------- ----- ------- ---<br>--------- ---- -- --- ---- -- --------- -- ---- -------<br>-- --------- ------ --- ----- ------ ---- --- --------- --<br>------ - ---- -- --- ----------- ------- ---- ----- there<br>--- -------- - ------ ---- -- ----- ---- --- --- -----------<br>-- -------,184904.90000000037,184904.09999999963,184209.931,184209.70000000112,184226.601,184910.324,,45,there
screen,html.Screen,0_4_1_0_1_46,2021-12-02T10:58:57.802Z,,,,,,,,,,,,,,,,2,,,,,,,,,,,,,,585.7759999996342,,response,,,1,C,,,,,Space,keypress(Space),,,,instrumental,--- ---- ------ --- ------- ---------- ------- ----------<br>--- --------- --- ----------- ------- ----- ------- ---<br>--------- ---- -- --- ---- -- --------- -- ---- -------<br>-- --------- ------ --- ----- ------ ---- --- --------- --<br>------ - ---- -- --- ----------- ------- ---- ----- -----<br>was -------- - ------ ---- -- ----- ---- --- --- -----------<br>-- -------,185496.80000000075,185496.09999999963,184893.652,184905.20000000112,184910.324,185510.205,,46,was
screen,html.Screen,0_4_1_0_1_47,2021-12-02T10:58:58.466Z,,,,,,,,,,,,,,,,2,,,,,,,,,,,,,,649.8949999996403,,response,,,1,C,,,,,Space,keypress(Space),,,,instrumental,--- ---- ------ --- ------- ---------- ------- ----------<br>--- --------- --- ----------- ------- ----- ------- ---<br>--------- ---- -- --- ---- -- --------- -- ---- -------<br>-- --------- ------ --- ----- ------ ---- --- --------- --<br>------ - ---- -- --- ----------- ------- ---- ----- -----<br>--- scarcely - ------ ---- -- ----- ---- --- --- -----------<br>-- -------,186160.90000000037,186160.09999999963,185493.536,185497,185510.205,186177.25,,47,scarcely
screen,html.Screen,0_4_1_0_1_48,2021-12-02T10:58:59.098Z,,,,,,,,,,,,,,,,2,,,,,,,,,,,,,,614.8499999996275,,response,,,1,C,,,,,Space,keypress(Space),,,,instrumental,--- ---- ------ --- ------- ---------- ------- ----------<br>--- --------- --- ----------- ------- ----- ------- ---<br>--------- ---- -- --- ---- -- --------- -- ---- -------<br>-- --------- ------ --- ----- ------ ---- --- --------- --<br>------ - ---- -- --- ----------- ------- ---- ----- -----<br>--- -------- a ------ ---- -- ----- ---- --- --- -----------<br>-- -------,186792.80000000075,186792.09999999963,186160.579,186161.20000000112,186177.25,186794.069,,48,a
