sender,sender_type,sender_id,timestamp,meta,,Blues,Classical,Country,Dance,Electronic,Folk,Gospel,Hip-Hop,Jazz,Latin,Musical/Film,New-age,Pop,Provo_ID,R&B,Rap,Reggae,Religious,Rock,Soul,Swing,Traditional,age,artist_name,correct,correctResponse,distraction,duration,education,ended_on,familiarity,gender,item,list,music_frequency,offensiveness,pleasantness,preference,response,response_action,snippet_file,song_name,song_rating,sound,text,time_commit,time_end,time_render,time_run,time_show,time_switch,url,word,word_ID
Instructions,html.Page,0_0,2021-10-22T11:45:09.929Z,"{""labjs_version"":""20.2.3"",""labjs_build"":{""flavor"":""production"",""commit"":""7ea907d66ca8aeef8054924ca5d82ffbe11e34e5""},""location"":""https://run.pavlovia.org/mvasilev/lab_music_b/"",""userAgent"":""Mozilla/5.0 (Windows NT 6.1; Win64; x64) AppleWebKit/537.36 (KHTML, like Gecko) Chrome/94.0.4606.81 Safari/537.36"",""platform"":""Win32"",""language"":""en-US"",""locale"":""en-US"",""timeZone"":""Europe/London"",""timezoneOffset"":-60,""screen_width"":1920,""screen_height"":1080,""scroll_width"":1920,""scroll_height"":959,""window_innerWidth"":1920,""window_innerHeight"":1007,""devicePixelRatio"":1}",,,,,,,,,,,,,,,,,,,,,,,,,,,,,18664.21200001192,,form submission,,,,,,,,,,,,,,,,30870.59999999404,30869.30000001192,12171.746,12183.300000011921,12205.088,30877.482,{},,
Headphones,html.Page,0_1,2021-10-22T11:45:12.026Z,,,,,,,,,,,,,,,,,,,,,,,,,,,,,,2090.018,,form submission,,,,,,,,,,,,,,,,32968,32967.5,30860.826,30871.30000001192,30877.482,32978.251,,,
Holding screen,html.Screen,0_2_0_0,2021-10-22T11:45:22.028Z,,,,,,,,,,,,,,,,,,,,,,,,,,,,,,10019.851000000002,,timeout,,,,,,,,,,,,,,,,42969.80000001192,42964.758,32961.581,32968.5,32978.251,42998.102,,,
screen,html.Screen,0_2_0_1_0,2021-10-22T11:45:23.858Z,,,,,,,,,,,,,,,,53,,,,,,,,,,,,,,1800.4979999940406,,response,,,99,,,,,,Space,keypress(Space),,,,,When -- ----- -- ------ - ------- --- ----------<br>------------- ------ ------ ---- ---- ------- ----- -- ----<br>-------- ------- -- ---------- --- - --- ----- ----- ----<br>---- --- --- ----- --- ---- ---- ------- ----- ---- -------<br>--- --- -- ----- -- --- ---- -- --- ---- -- ------ ------<br>--- ----- -- ----,44800.20000001788,44798.59999999404,42964.758,42970.09999999404,42998.102,44815.17,,0,When
screen,html.Screen,0_2_0_1_1,2021-10-22T11:45:24.809Z,,,,,,,,,,,,,,,,53,,,,,,,,,,,,,,935.0300000178831,,response,,,99,,,,,,Space,keypress(Space),,,,,---- it ----- -- ------ - ------- --- ----------<br>------------- ------ ------ ---- ---- ------- ----- -- ----<br>-------- ------- -- ---------- --- - --- ----- ----- ----<br>---- --- --- ----- --- ---- ---- ------- ----- ---- -------<br>--- --- -- ----- -- --- ---- -- --- ---- -- ------ ------<br>--- ----- -- ----,45751.20000001788,45750.20000001788,44798.499,44800.40000000596,44815.17,45765.466,,1,it
screen,html.Screen,0_2_0_1_2,2021-10-22T11:45:25.513Z,,,,,,,,,,,,,,,,53,,,,,,,,,,,,,,688.734000017881,,response,,,99,,,,,,Space,keypress(Space),,,,,---- -- comes -- ------ - ------- --- ----------<br>------------- ------ ------ ---- ---- ------- ----- -- ----<br>-------- ------- -- ---------- --- - --- ----- ----- ----<br>---- --- --- ----- --- ---- ---- ------- ----- ---- -------<br>--- --- -- ----- -- --- ---- -- --- ---- -- ------ ------<br>--- ----- -- ----,46455.09999999404,46454.20000001788,45748.795,45751.5,45765.466,46465.574,,2,comes
screen,html.Screen,0_2_0_1_3,2021-10-22T11:45:26.081Z,,,,,,,,,,,,,,,,53,,,,,,,,,,,,,,556.6260000178809,,response,,,99,,,,,,Space,keypress(Space),,,,,---- -- ----- to ------ - ------- --- ----------<br>------------- ------ ------ ---- ---- ------- ----- -- ----<br>-------- ------- -- ---------- --- - --- ----- ----- ----<br>---- --- --- ----- --- ---- ---- ------- ----- ---- -------<br>--- --- -- ----- -- --- ---- -- --- ---- -- ------ ------<br>--- ----- -- ----,47023.30000001192,47022.20000001788,46448.904,46455.40000000596,46465.574,47032.632,,3,to
screen,html.Screen,0_2_0_1_4,2021-10-22T11:45:27.137Z,,,,,,,,,,,,,,,,53,,,,,,,,,,,,,,1045.5680000178836,,response,,,99,,,,,,Space,keypress(Space),,,,,---- -- ----- -- having - ------- --- ----------<br>------------- ------ ------ ---- ---- ------- ----- -- ----<br>-------- ------- -- ---------- --- - --- ----- ----- ----<br>---- --- --- ----- --- ---- ---- ------- ----- ---- -------<br>--- --- -- ----- -- --- ---- -- --- ---- -- ------ ------<br>--- ----- -- ----,48079.40000000596,48078.20000001788,47015.96,47023.70000001788,47032.632,48082.828,,4,having
screen,html.Screen,0_2_0_1_5,2021-10-22T11:45:27.673Z,,,,,,,,,,,,,,,,53,,,,,,,,,,,,,,531.37200001788,,response,,,99,,,,,,Space,keypress(Space),,,,,---- -- ----- -- ------ a ------- --- ----------<br>------------- ------ ------ ---- ---- ------- ----- -- ----<br>-------- ------- -- ---------- --- - --- ----- ----- ----<br>---- --- --- ----- --- ---- ---- ------- ----- ---- -------<br>--- --- -- ----- -- --- ---- -- --- ---- -- ------ ------<br>--- ----- -- ----,48615.20000001788,48614.20000001788,48066.157,48079.80000001192,48082.828,48616.434,,5,a
screen,html.Screen,0_2_0_1_6,2021-10-22T11:45:28.121Z,,,,,,,,,,,,,,,,53,,,,,,,,,,,,,,445.96600000595936,,response,,,99,,,,,,Space,keypress(Space),,,,,---- -- ----- -- ------ - lasting --- ----------<br>------------- ------ ------ ---- ---- ------- ----- -- ----<br>-------- ------- -- ---------- --- - --- ----- ----- ----<br>---- --- --- ----- --- ---- ---- ------- ----- ---- -------<br>--- --- -- ----- -- --- ---- -- --- ---- -- ------ ------<br>--- ----- -- ----,49063.30000001192,49062.40000000596,48599.762,48615.59999999404,48616.434,49066.482,,6,lasting
screen,html.Screen,0_2_0_1_7,2021-10-22T11:45:28.633Z,,,,,,,,,,,,,,,,53,,,,,,,,,,,,,,507.6179999940359,,response,,,99,,,,,,Space,keypress(Space),,,,,---- -- ----- -- ------ - ------- and ----------<br>------------- ------ ------ ---- ---- ------- ----- -- ----<br>-------- ------- -- ---------- --- - --- ----- ----- ----<br>---- --- --- ----- --- ---- ---- ------- ----- ---- -------<br>--- --- -- ----- -- --- ---- -- --- ---- -- ------ ------<br>--- ----- -- ----,49575.20000001788,49574.09999999404,49049.811,49063.70000001788,49066.482,49583.325,,7,and
screen,html.Screen,0_2_0_1_8,2021-10-22T11:45:29.097Z,,,,,,,,,,,,,,,,53,,,,,,,,,,,,,,454.8750000178843,,response,,,99,,,,,,Space,keypress(Space),,,,,---- -- ----- -- ------ - ------- --- fulfilling<br>------------- ------ ------ ---- ---- ------- ----- -- ----<br>-------- ------- -- ---------- --- - --- ----- ----- ----<br>---- --- --- ----- --- ---- ---- ------- ----- ---- -------<br>--- --- -- ----- -- --- ---- -- --- ---- -- ------ ------<br>--- ----- -- ----,50039.30000001192,50038.20000001788,49566.654,49575.5,49583.325,50050.125,,8,fulfilling
screen,html.Screen,0_2_0_1_9,2021-10-22T11:45:29.601Z,,,,,,,,,,,,,,,,53,,,,,,,,,,,,,,492.0750000178814,,response,,,99,,,,,,Space,keypress(Space),,,,,"---- -- ----- -- ------ - ------- --- ----------<br>relationship, ------ ------ ---- ---- ------- ----- -- ----<br>-------- ------- -- ---------- --- - --- ----- ----- ----<br>---- --- --- ----- --- ---- ---- ------- ----- ---- -------<br>--- --- -- ----- -- --- ---- -- --- ---- -- ------ ------<br>--- ----- -- ----",50543.09999999404,50542.20000001788,50033.454,50039.70000001788,50050.125,50550.278,,9,"relationship,"
screen,html.Screen,0_2_0_1_10,2021-10-22T11:45:30.065Z,,,,,,,,,,,,,,,,53,,,,,,,,,,,,,,455.92200001788297,,response,,,99,,,,,,Space,keypress(Space),,,,,---- -- ----- -- ------ - ------- --- ----------<br>------------- common ------ ---- ---- ------- ----- -- ----<br>-------- ------- -- ---------- --- - --- ----- ----- ----<br>---- --- --- ----- --- ---- ---- ------- ----- ---- -------<br>--- --- -- ----- -- --- ---- -- --- ---- -- ------ ------<br>--- ----- -- ----,51007.20000001788,51006.20000001788,50533.607,50543.40000000596,50550.278,51017.088,,10,common
screen,html.Screen,0_2_0_1_11,2021-10-22T11:45:30.529Z,,,,,,,,,,,,,,,,53,,,,,,,,,,,,,,453.01199999403616,,response,,,99,,,,,,Space,keypress(Space),,,,,---- -- ----- -- ------ - ------- --- ----------<br>------------- ------ wisdom ---- ---- ------- ----- -- ----<br>-------- ------- -- ---------- --- - --- ----- ----- ----<br>---- --- --- ----- --- ---- ---- ------- ----- ---- -------<br>--- --- -- ----- -- --- ---- -- --- ---- -- ------ ------<br>--- ----- -- ----,51471.09999999404,51470.09999999404,51000.417,51007.5,51017.088,51483.892,,11,wisdom
screen,html.Screen,0_2_0_1_12,2021-10-22T11:45:30.969Z,,,,,,,,,,,,,,,,53,,,,,,,,,,,,,,426.2079999940397,,response,,,99,,,,,,Space,keypress(Space),,,,,---- -- ----- -- ------ - ------- --- ----------<br>------------- ------ ------ says ---- ------- ----- -- ----<br>-------- ------- -- ---------- --- - --- ----- ----- ----<br>---- --- --- ----- --- ---- ---- ------- ----- ---- -------<br>--- --- -- ----- -- --- ---- -- --- ---- -- ------ ------<br>--- ----- -- ----,51910.90000000596,51910.09999999404,51467.221,51471.30000001192,51483.892,51917.343,,12,says
screen,html.Screen,0_2_0_1_13,2021-10-22T11:45:31.425Z,,,,,,,,,,,,,,,,53,,,,,,,,,,,,,,448.7569999940388,,response,,,99,,,,,,Space,keypress(Space),,,,,---- -- ----- -- ------ - ------- --- ----------<br>------------- ------ ------ ---- that ------- ----- -- ----<br>-------- ------- -- ---------- --- - --- ----- ----- ----<br>---- --- --- ----- --- ---- ---- ------- ----- ---- -------<br>--- --- -- ----- -- --- ---- -- --- ---- -- ------ ------<br>--- ----- -- ----,52366.90000000596,52366.09999999404,51900.672,51911.09999999404,51917.343,52384.16,,13,that
screen,html.Screen,0_2_0_1_14,2021-10-22T11:45:31.865Z,,,,,,,,,,,,,,,,53,,,,,,,,,,,,,,421.93999999403604,,response,,,99,,,,,,Space,keypress(Space),,,,,---- -- ----- -- ------ - ------- --- ----------<br>------------- ------ ------ ---- ---- feeling ----- -- ----<br>-------- ------- -- ---------- --- - --- ----- ----- ----<br>---- --- --- ----- --- ---- ---- ------- ----- ---- -------<br>--- --- -- ----- -- --- ---- -- --- ---- -- ------ ------<br>--- ----- -- ----,52806.90000000596,52806.09999999404,52367.489,52367.20000001788,52384.16,52817.609,,14,feeling
screen,html.Screen,0_2_0_1_15,2021-10-22T11:45:32.257Z,,,,,,,,,,,,,,,,53,,,,,,,,,,,,,,380.4909999940428,,response,,,99,,,,,,Space,keypress(Space),,,,,---- -- ----- -- ------ - ------- --- ----------<br>------------- ------ ------ ---- ---- ------- close -- ----<br>-------- ------- -- ---------- --- - --- ----- ----- ----<br>---- --- --- ----- --- ---- ---- ------- ----- ---- -------<br>--- --- -- ----- -- --- ---- -- --- ---- -- ------ ------<br>--- ----- -- ----,53198.90000000596,53198.09999999404,52800.938,52807.09999999404,52817.609,53200.986,,15,close
screen,html.Screen,0_2_0_1_16,2021-10-22T11:45:32.649Z,,,,,,,,,,,,,,,,53,,,,,,,,,,,,,,389.1139999940424,,response,,,99,,,,,,Space,keypress(Space),,,,,---- -- ----- -- ------ - ------- --- ----------<br>------------- ------ ------ ---- ---- ------- ----- to ----<br>-------- ------- -- ---------- --- - --- ----- ----- ----<br>---- --- --- ----- --- ---- ---- ------- ----- ---- -------<br>--- --- -- ----- -- --- ---- -- --- ---- -- ------ ------<br>--- ----- -- ----,53590.90000000596,53590.09999999404,53184.316,53199.20000001788,53200.986,53601.275,,16,to
screen,html.Screen,0_2_0_1_17,2021-10-22T11:45:33.129Z,,,,,,,,,,,,,,,,53,,,,,,,,,,,,,,468.8249999940381,,response,,,99,,,,,,Space,keypress(Space),,,,,---- -- ----- -- ------ - ------- --- ----------<br>------------- ------ ------ ---- ---- ------- ----- -- your<br>-------- ------- -- ---------- --- - --- ----- ----- ----<br>---- --- --- ----- --- ---- ---- ------- ----- ---- -------<br>--- --- -- ----- -- --- ---- -- --- ---- -- ------ ------<br>--- ----- -- ----,54070.90000000596,54070.09999999404,53584.602,53591.09999999404,53601.275,54084.671,,17,your
screen,html.Screen,0_2_0_1_18,2021-10-22T11:45:33.561Z,,,,,,,,,,,,,,,,53,,,,,,,,,,,,,,417.42899999403744,,response,,,99,,,,,,Space,keypress(Space),,,,,---- -- ----- -- ------ - ------- --- ----------<br>------------- ------ ------ ---- ---- ------- ----- -- ----<br>romantic ------- -- ---------- --- - --- ----- ----- ----<br>---- --- --- ----- --- ---- ---- ------- ----- ---- -------<br>--- --- -- ----- -- --- ---- -- --- ---- -- ------ ------<br>--- ----- -- ----,54502.90000000596,54502.09999999404,54068,54071.20000001788,54084.671,54518.121,,18,romantic
screen,html.Screen,0_2_0_1_19,2021-10-22T11:45:33.985Z,,,,,,,,,,,,,,,,53,,,,,,,,,,,,,,408.2790000059613,,response,,,99,,,,,,Space,keypress(Space),,,,,---- -- ----- -- ------ - ------- --- ----------<br>------------- ------ ------ ---- ---- ------- ----- -- ----<br>-------- partner -- ---------- --- - --- ----- ----- ----<br>---- --- --- ----- --- ---- ---- ------- ----- ---- -------<br>--- --- -- ----- -- --- ---- -- --- ---- -- ------ ------<br>--- ----- -- ----,54927.20000001788,54926.40000000596,54501.45,54503.09999999404,54518.121,54934.927,,19,partner
screen,html.Screen,0_2_0_1_20,2021-10-22T11:45:34.345Z,,,,,,,,,,,,,,,,53,,,,,,,,,,,,,,351.1729999940362,,response,,,99,,,,,,Space,keypress(Space),,,,,---- -- ----- -- ------ - ------- --- ----------<br>------------- ------ ------ ---- ---- ------- ----- -- ----<br>-------- ------- is ---------- --- - --- ----- ----- ----<br>---- --- --- ----- --- ---- ---- ------- ----- ---- -------<br>--- --- -- ----- -- --- ---- -- --- ---- -- ------ ------<br>--- ----- -- ----,55286.90000000596,55286.09999999404,54918.256,54927.5,54934.927,55301.693,,20,is
screen,html.Screen,0_2_0_1_21,2021-10-22T11:45:34.729Z,,,,,,,,,,,,,,,,53,,,,,,,,,,,,,,368.40699999404023,,response,,,99,,,,,,Space,keypress(Space),,,,,---- -- ----- -- ------ - ------- --- ----------<br>------------- ------ ------ ---- ---- ------- ----- -- ----<br>-------- ------- -- paramount. --- - --- ----- ----- ----<br>---- --- --- ----- --- ---- ---- ------- ----- ---- -------<br>--- --- -- ----- -- --- ---- -- --- ---- -- ------ ------<br>--- ----- -- ----,55670.90000000596,55670.09999999404,55285.022,55287.30000001192,55301.693,55685.026,,21,paramount.
screen,html.Screen,0_2_0_1_22,2021-10-22T11:45:35.193Z,,,,,,,,,,,,,,,,53,,,,,,,,,,,,,,449.0739999940415,,response,,,99,,,,,,Space,keypress(Space),,,,,---- -- ----- -- ------ - ------- --- ----------<br>------------- ------ ------ ---- ---- ------- ----- -- ----<br>-------- ------- -- ---------- But - --- ----- ----- ----<br>---- --- --- ----- --- ---- ---- ------- ----- ---- -------<br>--- --- -- ----- -- --- ---- -- --- ---- -- ------ ------<br>--- ----- -- ----,56134.90000000596,56134.09999999404,55668.357,55671.40000000596,55685.026,56152.044,,22,But
screen,html.Screen,0_2_0_1_23,2021-10-22T11:45:35.569Z,,,,,,,,,,,,,,,,53,,,,,,,,,,,,,,358.05599999403785,,response,,,99,,,,,,Space,keypress(Space),,,,,---- -- ----- -- ------ - ------- --- ----------<br>------------- ------ ------ ---- ---- ------- ----- -- ----<br>-------- ------- -- ---------- --- a --- ----- ----- ----<br>---- --- --- ----- --- ---- ---- ------- ----- ---- -------<br>--- --- -- ----- -- --- ---- -- --- ---- -- ------ ------<br>--- ----- -- ----,56510.80000001192,56510.09999999404,56135.371,56135.09999999404,56152.044,56518.731,,23,a
screen,html.Screen,0_2_0_1_24,2021-10-22T11:45:35.953Z,,,,,,,,,,,,,,,,53,,,,,,,,,,,,,,375.36899999403977,,response,,,99,,,,,,Space,keypress(Space),,,,,---- -- ----- -- ------ - ------- --- ----------<br>------------- ------ ------ ---- ---- ------- ----- -- ----<br>-------- ------- -- ---------- --- - new ----- ----- ----<br>---- --- --- ----- --- ---- ---- ------- ----- ---- -------<br>--- --- -- ----- -- --- ---- -- --- ---- -- ------ ------<br>--- ----- -- ----,56894.90000000596,56894.09999999404,56502.06,56511.09999999404,56518.731,56902.177,,24,new
screen,html.Screen,0_2_0_1_25,2021-10-22T11:45:36.361Z,,,,,,,,,,,,,,,,53,,,,,,,,,,,,,,399.9229999940362,,response,,,99,,,,,,Space,keypress(Space),,,,,---- -- ----- -- ------ - ------- --- ----------<br>------------- ------ ------ ---- ---- ------- ----- -- ----<br>-------- ------- -- ---------- --- - --- study ----- ----<br>---- --- --- ----- --- ---- ---- ------- ----- ---- -------<br>--- --- -- ----- -- --- ---- -- --- ---- -- ------ ------<br>--- ----- -- ----,57302.90000000596,57302.09999999404,56885.506,56895.20000001788,56902.177,57318.954,,25,study
screen,html.Screen,0_2_0_1_26,2021-10-22T11:45:36.729Z,,,,,,,,,,,,,,,,53,,,,,,,,,,,,,,351.0460000000021,,response,,,99,,,,,,Space,keypress(Space),,,,,---- -- ----- -- ------ - ------- --- ----------<br>------------- ------ ------ ---- ---- ------- ----- -- ----<br>-------- ------- -- ---------- --- - --- ----- finds ----<br>---- --- --- ----- --- ---- ---- ------- ----- ---- -------<br>--- --- -- ----- -- --- ---- -- --- ---- -- ------ ------<br>--- ----- -- ----,57670.80000001192,57670,57302.283,57303.30000001192,57318.954,57685.786,,26,finds
screen,html.Screen,0_2_0_1_27,2021-10-22T11:45:37.089Z,,,,,,,,,,,,,,,,53,,,,,,,,,,,,,,344.3139999940395,,response,,,99,,,,,,Space,keypress(Space),,,,,---- -- ----- -- ------ - ------- --- ----------<br>------------- ------ ------ ---- ---- ------- ----- -- ----<br>-------- ------- -- ---------- --- - --- ----- ----- that<br>---- --- --- ----- --- ---- ---- ------- ----- ---- -------<br>--- --- -- ----- -- --- ---- -- --- ---- -- ------ ------<br>--- ----- -- ----,58030.90000000596,58030.09999999404,57669.114,57671.09999999404,57685.786,58035.854,,27,that
screen,html.Screen,0_2_0_1_28,2021-10-22T11:45:37.449Z,,,,,,,,,,,,,,,,53,,,,,,,,,,,,,,354.14600000000064,,response,,,99,,,,,,Space,keypress(Space),,,,,---- -- ----- -- ------ - ------- --- ----------<br>------------- ------ ------ ---- ---- ------- ----- -- ----<br>-------- ------- -- ---------- --- - --- ----- ----- ----<br>it's --- --- ----- --- ---- ---- ------- ----- ---- -------<br>--- --- -- ----- -- --- ---- -- --- ---- -- ------ ------<br>--- ----- -- ----,58390.80000001192,58390,58019.183,58031.20000001788,58035.854,58402.645,,28,it's
screen,html.Screen,0_2_0_1_29,2021-10-22T11:45:37.825Z,,,,,,,,,,,,,,,,53,,,,,,,,,,,,,,363.3550000000032,,response,,,99,,,,,,Space,keypress(Space),,,,,---- -- ----- -- ------ - ------- --- ----------<br>------------- ------ ------ ---- ---- ------- ----- -- ----<br>-------- ------- -- ---------- --- - --- ----- ----- ----<br>---- not --- ----- --- ---- ---- ------- ----- ---- -------<br>--- --- -- ----- -- --- ---- -- --- ---- -- ------ ------<br>--- ----- -- ----,58766.90000000596,58766,58385.974,58391.20000001788,58402.645,58769.371,,29,not
screen,html.Screen,0_2_0_1_30,2021-10-22T11:45:38.209Z,,,,,,,,,,,,,,,,53,,,,,,,,,,,,,,380.6290000000008,,response,,,99,,,,,,Space,keypress(Space),,,,,---- -- ----- -- ------ - ------- --- ----------<br>------------- ------ ------ ---- ---- ------- ----- -- ----<br>-------- ------- -- ---------- --- - --- ----- ----- ----<br>---- --- how ----- --- ---- ---- ------- ----- ---- -------<br>--- --- -- ----- -- --- ---- -- --- ---- -- ------ ------<br>--- ----- -- ----,59150.80000001192,59150,58752.701,58767.09999999404,58769.371,59152.964,,30,how
screen,html.Screen,0_2_0_1_31,2021-10-22T11:45:38.593Z,,,,,,,,,,,,,,,,53,,,,,,,,,,,,,,381.03600000000006,,response,,,99,,,,,,Space,keypress(Space),,,,,---- -- ----- -- ------ - ------- --- ----------<br>------------- ------ ------ ---- ---- ------- ----- -- ----<br>-------- ------- -- ---------- --- - --- ----- ----- ----<br>---- --- --- close --- ---- ---- ------- ----- ---- -------<br>--- --- -- ----- -- --- ---- -- --- ---- -- ------ ------<br>--- ----- -- ----,59534.80000001192,59534,59136.291,59151.09999999404,59152.964,59536.248,,31,close
screen,html.Screen,0_2_0_1_32,2021-10-22T11:45:38.985Z,,,,,,,,,,,,,,,,53,,,,,,,,,,,,,,389.7520000000004,,response,,,99,,,,,,Space,keypress(Space),,,,,---- -- ----- -- ------ - ------- --- ----------<br>------------- ------ ------ ---- ---- ------- ----- -- ----<br>-------- ------- -- ---------- --- - --- ----- ----- ----<br>---- --- --- ----- you ---- ---- ------- ----- ---- -------<br>--- --- -- ----- -- --- ---- -- --- ---- -- ------ ------<br>--- ----- -- ----,59926.80000001192,59926,59519.578,59535,59536.248,59936.47,,32,you
screen,html.Screen,0_2_0_1_33,2021-10-22T11:45:39.329Z,,,,,,,,,,,,,,,,53,,,,,,,,,,,,,,333.52999999999884,,response,,,99,,,,,,Space,keypress(Space),,,,,---- -- ----- -- ------ - ------- --- ----------<br>------------- ------ ------ ---- ---- ------- ----- -- ----<br>-------- ------- -- ---------- --- - --- ----- ----- ----<br>---- --- --- ----- --- feel ---- ------- ----- ---- -------<br>--- --- -- ----- -- --- ---- -- --- ---- -- ------ ------<br>--- ----- -- ----,60271,60270,59919.798,59929.80000001192,59936.47,60286.539,,33,feel
screen,html.Screen,0_2_0_1_34,2021-10-22T11:45:39.705Z,,,,,,,,,,,,,,,,53,,,,,,,,,,,,,,359.36100000596343,,response,,,99,,,,,,Space,keypress(Space),,,,,---- -- ----- -- ------ - ------- --- ----------<br>------------- ------ ------ ---- ---- ------- ----- -- ----<br>-------- ------- -- ---------- --- - --- ----- ----- ----<br>---- --- --- ----- --- ---- that ------- ----- ---- -------<br>--- --- -- ----- -- --- ---- -- --- ---- -- ------ ------<br>--- ----- -- ----,60646.70000001788,60645.90000000596,60269.868,60271.30000001192,60286.539,60653.127,,34,that
screen,html.Screen,0_2_0_1_35,2021-10-22T11:45:40.329Z,,,,,,,,,,,,,,,,53,,,,,,,,,,,,,,616.8729999999996,,response,,,99,,,,,,Space,keypress(Space),,,,,---- -- ----- -- ------ - ------- --- ----------<br>------------- ------ ------ ---- ---- ------- ----- -- ----<br>-------- ------- -- ---------- --- - --- ----- ----- ----<br>---- --- --- ----- --- ---- ---- matters ----- ---- -------<br>--- --- -- ----- -- --- ---- -- --- ---- -- ------ ------<br>--- ----- -- ----,61270.80000001192,61270,60636.459,60646.90000000596,60653.127,61286.986,,35,matters
screen,html.Screen,0_2_0_1_36,2021-10-22T11:45:40.713Z,,,,,,,,,,,,,,,,53,,,,,,,,,,,,,,367.1139999940424,,response,,,99,,,,,,Space,keypress(Space),,,,,"---- -- ----- -- ------ - ------- --- ----------<br>------------- ------ ------ ---- ---- ------- ----- -- ----<br>-------- ------- -- ---------- --- - --- ----- ----- ----<br>---- --- --- ----- --- ---- ---- ------- most, ---- -------<br>--- --- -- ----- -- --- ---- -- --- ---- -- ------ ------<br>--- ----- -- ----",61655.09999999404,61654.09999999404,61270.312,61271.09999999404,61286.986,61670.289,,36,"most,"
screen,html.Screen,0_2_0_1_37,2021-10-22T11:45:41.497Z,,,,,,,,,,,,,,,,53,,,,,,,,,,,,,,767.711000000003,,response,,,99,,,,,,Space,keypress(Space),,,,,---- -- ----- -- ------ - ------- --- ----------<br>------------- ------ ------ ---- ---- ------- ----- -- ----<br>-------- ------- -- ---------- --- - --- ----- ----- ----<br>---- --- --- ----- --- ---- ---- ------- ----- it's -------<br>--- --- -- ----- -- --- ---- -- --- ---- -- ------ ------<br>--- ----- -- ----,62438.59999999404,62438,61653.618,61655.40000000596,61670.289,62453.752,,37,it's
screen,html.Screen,0_2_0_1_38,2021-10-22T11:45:41.897Z,,,,,,,,,,,,,,,,53,,,,,,,,,,,,,,384.2479999999996,,response,,,99,,,,,,Space,keypress(Space),,,,,---- -- ----- -- ------ - ------- --- ----------<br>------------- ------ ------ ---- ---- ------- ----- -- ----<br>-------- ------- -- ---------- --- - --- ----- ----- ----<br>---- --- --- ----- --- ---- ---- ------- ----- ---- whether<br>--- --- -- ----- -- --- ---- -- --- ---- -- ------ ------<br>--- ----- -- ----,62838.70000001788,62838,62437.082,62438.90000000596,62453.752,62854.049,,38,whether
screen,html.Screen,0_2_0_1_39,2021-10-22T11:45:42.241Z,,,,,,,,,,,,,,,,53,,,,,,,,,,,,,,327.95100000000093,,response,,,99,,,,,,Space,keypress(Space),,,,,---- -- ----- -- ------ - ------- --- ----------<br>------------- ------ ------ ---- ---- ------- ----- -- ----<br>-------- ------- -- ---------- --- - --- ----- ----- ----<br>---- --- --- ----- --- ---- ---- ------- ----- ---- -------<br>you --- -- ----- -- --- ---- -- --- ---- -- ------ ------<br>--- ----- -- ----,63182.70000001788,63182,62837.377,62839,62854.049,63187.313,,39,you
screen,html.Screen,0_2_0_1_40,2021-10-22T11:45:42.561Z,,,,,,,,,,,,,,,,53,,,,,,,,,,,,,,314.6869999999981,,response,,,99,,,,,,Space,keypress(Space),,,,,---- -- ----- -- ------ - ------- --- ----------<br>------------- ------ ------ ---- ---- ------- ----- -- ----<br>-------- ------- -- ---------- --- - --- ----- ----- ----<br>---- --- --- ----- --- ---- ---- ------- ----- ---- -------<br>--- are -- ----- -- --- ---- -- --- ---- -- ------ ------<br>--- ----- -- ----,63502.70000001788,63502,63170.643,63183,63187.313,63504.124,,40,are
screen,html.Screen,0_2_0_1_41,2021-10-22T11:45:42.881Z,,,,,,,,,,,,,,,,53,,,,,,,,,,,,,,317.87599999999657,,response,,,99,,,,,,Space,keypress(Space),,,,,---- -- ----- -- ------ - ------- --- ----------<br>------------- ------ ------ ---- ---- ------- ----- -- ----<br>-------- ------- -- ---------- --- - --- ----- ----- ----<br>---- --- --- ----- --- ---- ---- ------- ----- ---- -------<br>--- --- as ----- -- --- ---- -- --- ---- -- ------ ------<br>--- ----- -- ----,63822.70000001788,63822,63487.453,63503,63504.124,63837.599,,41,as
screen,html.Screen,0_2_0_1_42,2021-10-22T11:45:43.225Z,,,,,,,,,,,,,,,,53,,,,,,,,,,,,,,328.3010000059585,,response,,,99,,,,,,Space,keypress(Space),,,,,---- -- ----- -- ------ - ------- --- ----------<br>------------- ------ ------ ---- ---- ------- ----- -- ----<br>-------- ------- -- ---------- --- - --- ----- ----- ----<br>---- --- --- ----- --- ---- ---- ------- ----- ---- -------<br>--- --- -- close -- --- ---- -- --- ---- -- ------ ------<br>--- ----- -- ----,64166.70000001788,64165.90000000596,63820.927,63823,63837.599,64171.055,,42,close
screen,html.Screen,0_2_0_1_43,2021-10-22T11:45:43.529Z,,,,,,,,,,,,,,,,53,,,,,,,,,,,,,,298.9449999999997,,response,,,99,,,,,,Space,keypress(Space),,,,,---- -- ----- -- ------ - ------- --- ----------<br>------------- ------ ------ ---- ---- ------- ----- -- ----<br>-------- ------- -- ---------- --- - --- ----- ----- ----<br>---- --- --- ----- --- ---- ---- ------- ----- ---- -------<br>--- --- -- ----- as --- ---- -- --- ---- -- ------ ------<br>--- ----- -- ----,64470.70000001788,64470,64154.383,64167,64171.055,64487.821,,43,as
screen,html.Screen,0_2_0_1_44,2021-10-22T11:45:43.857Z,,,,,,,,,,,,,,,,53,,,,,,,,,,,,,,310.17899999999645,,response,,,99,,,,,,Space,keypress(Space),,,,,---- -- ----- -- ------ - ------- --- ----------<br>------------- ------ ------ ---- ---- ------- ----- -- ----<br>-------- ------- -- ---------- --- - --- ----- ----- ----<br>---- --- --- ----- --- ---- ---- ------- ----- ---- -------<br>--- --- -- ----- -- you ---- -- --- ---- -- ------ ------<br>--- ----- -- ----,64798.80000001192,64798,64471.149,64471,64487.821,64804.565,,44,you
screen,html.Screen,0_2_0_1_45,2021-10-22T11:45:44.233Z,,,,,,,,,,,,,,,,53,,,,,,,,,,,,,,369.7350000119186,,response,,,99,,,,,,Space,keypress(Space),,,,,---- -- ----- -- ------ - ------- --- ----------<br>------------- ------ ------ ---- ---- ------- ----- -- ----<br>-------- ------- -- ---------- --- - --- ----- ----- ----<br>---- --- --- ----- --- ---- ---- ------- ----- ---- -------<br>--- --- -- ----- -- --- want -- --- ---- -- ------ ------<br>--- ----- -- ----,65175.09999999404,65174.30000001192,64787.894,64798.90000000596,64804.565,65188.009,,45,want
screen,html.Screen,0_2_0_1_46,2021-10-22T11:45:44.537Z,,,,,,,,,,,,,,,,53,,,,,,,,,,,,,,289.89100000596227,,response,,,99,,,,,,Space,keypress(Space),,,,,---- -- ----- -- ------ - ------- --- ----------<br>------------- ------ ------ ---- ---- ------- ----- -- ----<br>-------- ------- -- ---------- --- - --- ----- ----- ----<br>---- --- --- ----- --- ---- ---- ------- ----- ---- -------<br>--- --- -- ----- -- --- ---- to --- ---- -- ------ ------<br>--- ----- -- ----,65478.70000001788,65477.90000000596,65171.338,65175.30000001192,65188.009,65488.113,,46,to
screen,html.Screen,0_2_0_1_47,2021-10-22T11:45:44.857Z,,,,,,,,,,,,,,,,53,,,,,,,,,,,,,,309.88700000000244,,response,,,99,,,,,,Space,keypress(Space),,,,,"---- -- ----- -- ------ - ------- --- ----------<br>------------- ------ ------ ---- ---- ------- ----- -- ----<br>-------- ------- -- ---------- --- - --- ----- ----- ----<br>---- --- --- ----- --- ---- ---- ------- ----- ---- -------<br>--- --- -- ----- -- --- ---- -- be, ---- -- ------ ------<br>--- ----- -- ----",65798.70000001788,65798,65471.442,65479,65488.113,65804.803,,47,"be,"
screen,html.Screen,0_2_0_1_48,2021-10-22T11:45:45.193Z,,,,,,,,,,,,,,,,53,,,,,,,,,,,,,,329.1970000000001,,response,,,99,,,,,,Space,keypress(Space),,,,,---- -- ----- -- ------ - ------- --- ----------<br>------------- ------ ------ ---- ---- ------- ----- -- ----<br>-------- ------- -- ---------- --- - --- ----- ----- ----<br>---- --- --- ----- --- ---- ---- ------- ----- ---- -------<br>--- --- -- ----- -- --- ---- -- --- even -- ------ ------<br>--- ----- -- ----,66134.70000001788,66134,65788.133,65798.90000000596,65804.803,66138.316,,48,even
screen,html.Screen,0_2_0_1_49,2021-10-22T11:45:45.489Z,,,,,,,,,,,,,,,,53,,,,,,,,,,,,,,291.68399999999383,,response,,,99,,,,,,Space,keypress(Space),,,,,---- -- ----- -- ------ - ------- --- ----------<br>------------- ------ ------ ---- ---- ------- ----- -- ----<br>-------- ------- -- ---------- --- - --- ----- ----- ----<br>---- --- --- ----- --- ---- ---- ------- ----- ---- -------<br>--- --- -- ----- -- --- ---- -- --- ---- if ------ ------<br>--- ----- -- ----,66430.70000001788,66430,66121.644,66135,66138.316,66438.388,,49,if
screen,html.Screen,0_2_0_1_50,2021-10-22T11:45:45.793Z,,,,,,,,,,,,,,,,53,,,,,,,,,,,,,,295.5120000059542,,response,,,99,,,,,,Space,keypress(Space),,,,,---- -- ----- -- ------ - ------- --- ----------<br>------------- ------ ------ ---- ---- ------- ----- -- ----<br>-------- ------- -- ---------- --- - --- ----- ----- ----<br>---- --- --- ----- --- ---- ---- ------- ----- ---- -------<br>--- --- -- ----- -- --- ---- -- --- ---- -- that's ------<br>--- ----- -- ----,66734.70000001788,66733.90000000596,66421.717,66431,66438.388,66738.405,,50,that's
screen,html.Screen,0_2_0_1_51,2021-10-22T11:45:46.073Z,,,,,,,,,,,,,,,,53,,,,,,,,,,,,,,275.49500000596163,,response,,,99,,,,,,Space,keypress(Space),,,,,---- -- ----- -- ------ - ------- --- ----------<br>------------- ------ ------ ---- ---- ------- ----- -- ----<br>-------- ------- -- ---------- --- - --- ----- ----- ----<br>---- --- --- ----- --- ---- ---- ------- ----- ---- -------<br>--- --- -- ----- -- --- ---- -- --- ---- -- ------ really<br>--- ----- -- ----,67014.70000001788,67013.90000000596,66721.735,66734.90000000596,66738.405,67021.901,,51,really
screen,html.Screen,0_2_0_1_52,2021-10-22T11:45:46.369Z,,,,,,,,,,,,,,,,53,,,,,,,,,,,,,,288.099000000002,,response,,,99,,,,,,Space,keypress(Space),,,,,---- -- ----- -- ------ - ------- --- ----------<br>------------- ------ ------ ---- ---- ------- ----- -- ----<br>-------- ------- -- ---------- --- - --- ----- ----- ----<br>---- --- --- ----- --- ---- ---- ------- ----- ---- -------<br>--- --- -- ----- -- --- ---- -- --- ---- -- ------ ------<br>not ----- -- ----,67310.70000001788,67310,67005.229,67015,67021.901,67322.001,,52,not
screen,html.Screen,0_2_0_1_53,2021-10-22T11:45:46.617Z,,,,,,,,,,,,,,,,53,,,,,,,,,,,,,,235.89900000595662,,response,,,99,,,,,,Space,keypress(Space),,,,,---- -- ----- -- ------ - ------- --- ----------<br>------------- ------ ------ ---- ---- ------- ----- -- ----<br>-------- ------- -- ---------- --- - --- ----- ----- ----<br>---- --- --- ----- --- ---- ---- ------- ----- ---- -------<br>--- --- -- ----- -- --- ---- -- --- ---- -- ------ ------<br>--- close -- ----,67558.70000001788,67557.90000000596,67305.329,67311,67322.001,67572.059,,53,close
screen,html.Screen,0_2_0_1_54,2021-10-22T11:45:47.025Z,,,,,,,,,,,,,,,,53,,,,,,,,,,,,,,393.94100000000617,,response,,,99,,,,,,Space,keypress(Space),,,,,---- -- ----- -- ------ - ------- --- ----------<br>------------- ------ ------ ---- ---- ------- ----- -- ----<br>-------- ------- -- ---------- --- - --- ----- ----- ----<br>---- --- --- ----- --- ---- ---- ------- ----- ---- -------<br>--- --- -- ----- -- --- ---- -- --- ---- -- ------ ------<br>--- ----- at ----,67966.70000001788,67966,67555.388,67558.90000000596,67572.059,67972.179,,54,at
screen,html.Screen,0_2_0_1_55,2021-10-22T11:45:47.353Z,,,,,,,,,,,,,,,,53,,,,,,,,,,,,,,321.72100000595674,,response,,,99,,,,,,Space,keypress(Space),,,,,---- -- ----- -- ------ - ------- --- ----------<br>------------- ------ ------ ---- ---- ------- ----- -- ----<br>-------- ------- -- ---------- --- - --- ----- ----- ----<br>---- --- --- ----- --- ---- ---- ------- ----- ---- -------<br>--- --- -- ----- -- --- ---- -- --- ---- -- ------ ------<br>--- ----- -- all.,68294.70000001788,68293.90000000596,67955.508,67966.90000000596,67972.179,68305.45,,55,all.
Item 99,flow.Loop,0_2_0_1,2021-10-22T11:45:47.357Z,,,,,,,,,,,,,,,,,,,,,,,,,,,,,,25295.79800000596,,completion,,,,B,,,,,,,,,,silence,,68299.09999999404,68293.90000000596,42964.758,42970,42998.102,68305.45,,,
Question 1,html.Screen,0_2_0_2,2021-10-22T11:45:54.313Z,,,,,,,,,,,,,,,,,,,,,,,,,,,true,FALSE,,6948.149999994042,,response,,,99,B,,,,,FALSE,click #choice-2,,,,silence,,75255.20000001788,75253.59999999404,68288.782,68299.30000001192,68305.45,75257.673,,,
Question 2,html.Screen,0_2_0_3,2021-10-22T11:45:55.993Z,,,,,,,,,,,,,,,,,,,,,,,,,,,false,TRUE,,1675.8270000000048,,response,,,99,B,,,,,FALSE,click #choice-2,,,,silence,,76934.70000001788,76933.5,75241.002,75255.40000000596,75257.673,76941.583,,,
Item 99,flow.Sequence,0_2_0,2021-10-22T11:45:55.993Z,,,,,,,,,,,,,,,,,,,,,,,,,,,,,,43955.249,,completion,,,,,,,,,,,,,,,,76935.20000001788,76933.5,32961.581,32968.40000000596,32978.251,76941.583,,,
Holding screen,html.Screen,0_2_1_0,2021-10-22T11:46:05.988Z,,,,,,,,,,,,,,,,,,,,,,,,,,,,,,10002.857000000004,,timeout,,,,,,,,,,,,,,,,86929.40000000596,86927.769,76924.911,76935.59999999404,76941.583,86944.44,,,
screen,html.Screen,0_2_1_1_0,2021-10-22T11:46:09.017Z,,,,,,,,,,,,,,,,54,,,,,,,,,,,,,,3013.760000017879,,response,,,100,,,,,,Space,keypress(Space),,,,,At --- ---- --- ------ ----- ------- ---- -- --- ------- --<br>------- ---------- ------ -- ----- -- ----- -- ---- ------<br>--- ----- --- --- ------ -------- ----- --- ------ ----- --<br>----- ----- ---------- --- --- ------ ------ ---- -- ------<br>------- --- ------ ----- --- ---- ------- -- ---- --- --<br>------- ------,89958.90000000596,89958.20000001788,86927.769,86929.80000001192,86944.44,89962.23,,0,At
screen,html.Screen,0_2_1_1_1,2021-10-22T11:46:09.377Z,,,,,,,,,,,,,,,,54,,,,,,,,,,,,,,355.3699999940436,,response,,,100,,,,,,Space,keypress(Space),,,,,-- the ---- --- ------ ----- ------- ---- -- --- ------- --<br>------- ---------- ------ -- ----- -- ----- -- ---- ------<br>--- ----- --- --- ------ -------- ----- --- ------ ----- --<br>----- ----- ---------- --- --- ------ ------ ---- -- ------<br>------- --- ------ ----- --- ---- ------- -- ---- --- --<br>------- ------,90318.5,90317.59999999404,89945.558,89959.30000001192,89962.23,90328.708,,1,the
screen,html.Screen,0_2_1_1_2,2021-10-22T11:46:09.681Z,,,,,,,,,,,,,,,,54,,,,,,,,,,,,,,292.8919999940408,,response,,,100,,,,,,Space,keypress(Space),,,,,-- --- time --- ------ ----- ------- ---- -- --- ------- --<br>------- ---------- ------ -- ----- -- ----- -- ---- ------<br>--- ----- --- --- ------ -------- ----- --- ------ ----- --<br>----- ----- ---------- --- --- ------ ------ ---- -- ------<br>------- --- ------ ----- --- ---- ------- -- ---- --- --<br>------- ------,90622.5,90621.59999999404,90312.038,90318.80000001192,90328.708,90628.921,,2,time
screen,html.Screen,0_2_1_1_3,2021-10-22T11:46:09.993Z,,,,,,,,,,,,,,,,54,,,,,,,,,,,,,,304.67899999403744,,response,,,100,,,,,,Space,keypress(Space),,,,,-- --- ---- the ------ ----- ------- ---- -- --- ------- --<br>------- ---------- ------ -- ----- -- ----- -- ---- ------<br>--- ----- --- --- ------ -------- ----- --- ------ ----- --<br>----- ----- ---------- --- --- ------ ------ ---- -- ------<br>------- --- ------ ----- --- ---- ------- -- ---- --- --<br>------- ------,90934.59999999404,90933.59999999404,90612.25,90622.80000001192,90628.921,90945.873,,3,the
screen,html.Screen,0_2_1_1_4,2021-10-22T11:46:10.339Z,,,,,,,,,,,,,,,,54,,,,,,,,,,,,,,331.8270000178745,,response,,,100,,,,,,Space,keypress(Space),,,,,-- --- ---- --- French ----- ------- ---- -- --- ------- --<br>------- ---------- ------ -- ----- -- ----- -- ---- ------<br>--- ----- --- --- ------ -------- ----- --- ------ ----- --<br>----- ----- ---------- --- --- ------ ------ ---- -- ------<br>------- --- ------ ----- --- ---- ------- -- ---- --- --<br>------- ------,91280.30000001192,91277.70000001788,90929.198,90934.90000000596,90945.873,91295.835,,4,French
screen,html.Screen,0_2_1_1_5,2021-10-22T11:46:10.681Z,,,,,,,,,,,,,,,,54,,,,,,,,,,,,,,325.76499999403313,,response,,,100,,,,,,Space,keypress(Space),,,,,-- --- ---- --- ------ crown ------- ---- -- --- ------- --<br>------- ---------- ------ -- ----- -- ----- -- ---- ------<br>--- ----- --- --- ------ -------- ----- --- ------ ----- --<br>----- ----- ---------- --- --- ------ ------ ---- -- ------<br>------- --- ------ ----- --- ---- ------- -- ---- --- --<br>------- ------,91622.59999999404,91621.59999999404,91279.164,91280.59999999404,91295.835,91629.241,,5,crown
screen,html.Screen,0_2_1_1_6,2021-10-22T11:46:10.977Z,,,,,,,,,,,,,,,,54,,,,,,,,,,,,,,288.45900001788686,,response,,,100,,,,,,Space,keypress(Space),,,,,-- --- ---- --- ------ ----- secured ---- -- --- ------- --<br>------- ---------- ------ -- ----- -- ----- -- ---- ------<br>--- ----- --- --- ------ -------- ----- --- ------ ----- --<br>----- ----- ---------- --- --- ------ ------ ---- -- ------<br>------- --- ------ ----- --- ---- ------- -- ---- --- --<br>------- ------,91918.5,91917.70000001788,91612.571,91622.90000000596,91629.241,91929.234,,6,secured
screen,html.Screen,0_2_1_1_7,2021-10-22T11:46:11.273Z,,,,,,,,,,,,,,,,54,,,,,,,,,,,,,,284.3659999940428,,response,,,100,,,,,,Space,keypress(Space),,,,,-- --- ---- --- ------ ----- ------- much -- --- ------- --<br>------- ---------- ------ -- ----- -- ----- -- ---- ------<br>--- ----- --- --- ------ -------- ----- --- ------ ----- --<br>----- ----- ---------- --- --- ------ ------ ---- -- ------<br>------- --- ------ ----- --- ---- ------- -- ---- --- --<br>------- ------,92214.40000000596,92213.59999999404,91912.565,91918.70000001788,91929.234,92229.565,,7,much
screen,html.Screen,0_2_1_1_8,2021-10-22T11:46:11.601Z,,,,,,,,,,,,,,,,54,,,,,,,,,,,,,,312.0349999940372,,response,,,100,,,,,,Space,keypress(Space),,,,,-- --- ---- --- ------ ----- ------- ---- of --- ------- --<br>------- ---------- ------ -- ----- -- ----- -- ---- ------<br>--- ----- --- --- ------ -------- ----- --- ------ ----- --<br>----- ----- ---------- --- --- ------ ------ ---- -- ------<br>------- --- ------ ----- --- ---- ------- -- ---- --- --<br>------- ------,92542.30000001192,92541.59999999404,92212.891,92214.70000001788,92229.565,92546.08,,8,of
screen,html.Screen,0_2_1_1_9,2021-10-22T11:46:11.857Z,,,,,,,,,,,,,,,,54,,,,,,,,,,,,,,251.5199999940378,,response,,,100,,,,,,Space,keypress(Space),,,,,-- --- ---- --- ------ ----- ------- ---- -- its ------- --<br>------- ---------- ------ -- ----- -- ----- -- ---- ------<br>--- ----- --- --- ------ -------- ----- --- ------ ----- --<br>----- ----- ---------- --- --- ------ ------ ---- -- ------<br>------- --- ------ ----- --- ---- ------- -- ---- --- --<br>------- ------,92798.40000000596,92797.59999999404,92529.412,92542.59999999404,92546.08,92813.037,,9,its
screen,html.Screen,0_2_1_1_10,2021-10-22T11:46:12.097Z,,,,,,,,,,,,,,,,54,,,,,,,,,,,,,,224.5629999940429,,response,,,100,,,,,,Space,keypress(Space),,,,,-- --- ---- --- ------ ----- ------- ---- -- --- revenue --<br>------- ---------- ------ -- ----- -- ----- -- ---- ------<br>--- ----- --- --- ------ -------- ----- --- ------ ----- --<br>----- ----- ---------- --- --- ------ ------ ---- -- ------<br>------- --- ------ ----- --- ---- ------- -- ---- --- --<br>------- ------,93038.40000000596,93037.59999999404,92796.364,92798.59999999404,92813.037,93046.363,,10,revenue
screen,html.Screen,0_2_1_1_11,2021-10-22T11:46:12.353Z,,,,,,,,,,,,,,,,54,,,,,,,,,,,,,,247.33700001788384,,response,,,100,,,,,,Space,keypress(Space),,,,,-- --- ---- --- ------ ----- ------- ---- -- --- ------- by<br>------- ---------- ------ -- ----- -- ----- -- ---- ------<br>--- ----- --- --- ------ -------- ----- --- ------ ----- --<br>----- ----- ---------- --- --- ------ ------ ---- -- ------<br>------- --- ------ ----- --- ---- ------- -- ---- --- --<br>------- ------,93294.30000001192,93293.70000001788,93029.692,93038.59999999404,93046.363,93296.444,,11,by
screen,html.Screen,0_2_1_1_12,2021-10-22T11:46:12.600Z,,,,,,,,,,,,,,,,54,,,,,,,,,,,,,,245.1559999940364,,response,,,100,,,,,,Space,keypress(Space),,,,,-- --- ---- --- ------ ----- ------- ---- -- --- ------- --<br>issuing ---------- ------ -- ----- -- ----- -- ---- ------<br>--- ----- --- --- ------ -------- ----- --- ------ ----- --<br>----- ----- ---------- --- --- ------ ------ ---- -- ------<br>------- --- ------ ----- --- ---- ------- -- ---- --- --<br>------- ------,93542.30000001192,93541.59999999404,93279.773,93294.59999999404,93296.444,93546.558,,12,issuing
screen,html.Screen,0_2_1_1_13,2021-10-22T11:46:12.873Z,,,,,,,,,,,,,,,,54,,,,,,,,,,,,,,267.14200001787685,,response,,,100,,,,,,Space,keypress(Space),,,,,-- --- ---- --- ------ ----- ------- ---- -- --- ------- --<br>------- government ------ -- ----- -- ----- -- ---- ------<br>--- ----- --- --- ------ -------- ----- --- ------ ----- --<br>----- ----- ---------- --- --- ------ ------ ---- -- ------<br>------- --- ------ ----- --- ---- ------- -- ---- --- --<br>------- ------,93814.5,93813.70000001788,93529.886,93542.5,93546.558,93829.943,,13,government
screen,html.Screen,0_2_1_1_14,2021-10-22T11:46:13.129Z,,,,,,,,,,,,,,,,54,,,,,,,,,,,,,,239.7570000178821,,response,,,100,,,,,,Space,keypress(Space),,,,,-- --- ---- --- ------ ----- ------- ---- -- --- ------- --<br>------- ---------- bonds. -- ----- -- ----- -- ---- ------<br>--- ----- --- --- ------ -------- ----- --- ------ ----- --<br>----- ----- ---------- --- --- ------ ------ ---- -- ------<br>------- --- ------ ----- --- ---- ------- -- ---- --- --<br>------- ------,94070.40000000596,94069.70000001788,93813.272,93814.70000001788,93829.943,94079.888,,14,bonds.
screen,html.Screen,0_2_1_1_15,2021-10-22T11:46:13.617Z,,,,,,,,,,,,,,,,54,,,,,,,,,,,,,,477.71199999403325,,response,,,100,,,,,,Space,keypress(Space),,,,,-- --- ---- --- ------ ----- ------- ---- -- --- ------- --<br>------- ---------- ------ In ----- -- ----- -- ---- ------<br>--- ----- --- --- ------ -------- ----- --- ------ ----- --<br>----- ----- ---------- --- --- ------ ------ ---- -- ------<br>------- --- ------ ----- --- ---- ------- -- ---- --- --<br>------- ------,94558.30000001192,94557.59999999404,94063.22,94070.59999999404,94079.888,94563.614,,15,In
screen,html.Screen,0_2_1_1_16,2021-10-22T11:46:13.857Z,,,,,,,,,,,,,,,,54,,,,,,,,,,,,,,233.98599999403814,,response,,,100,,,,,,Space,keypress(Space),,,,,"-- --- ---- --- ------ ----- ------- ---- -- --- ------- --<br>------- ---------- ------ -- 1727, -- ----- -- ---- ------<br>--- ----- --- --- ------ -------- ----- --- ------ ----- --<br>----- ----- ---------- --- --- ------ ------ ---- -- ------<br>------- --- ------ ----- --- ---- ------- -- ---- --- --<br>------- ------",94798.30000001192,94797.59999999404,94546.94,94558.59999999404,94563.614,94813.574,,16,"1727,"
screen,html.Screen,0_2_1_1_17,2021-10-22T11:46:14.753Z,,,,,,,,,,,,,,,,54,,,,,,,,,,,,,,880.5259999940463,,response,,,100,,,,,,Space,keypress(Space),,,,,-- --- ---- --- ------ ----- ------- ---- -- --- ------- --<br>------- ---------- ------ -- ----- in ----- -- ---- ------<br>--- ----- --- --- ------ -------- ----- --- ------ ----- --<br>----- ----- ---------- --- --- ------ ------ ---- -- ------<br>------- --- ------ ----- --- ---- ------- -- ---- --- --<br>------- ------,95694.90000000596,95694.09999999404,94796.903,94798.59999999404,94813.574,95697.153,,17,in
screen,html.Screen,0_2_1_1_18,2021-10-22T11:46:15.297Z,,,,,,,,,,,,,,,,54,,,,,,,,,,,,,,540.3469999999943,,response,,,100,,,,,,Space,keypress(Space),,,,,-- --- ---- --- ------ ----- ------- ---- -- --- ------- --<br>------- ---------- ------ -- ----- -- order -- ---- ------<br>--- ----- --- --- ------ -------- ----- --- ------ ----- --<br>----- ----- ---------- --- --- ------ ------ ---- -- ------<br>------- --- ------ ----- --- ---- ------- -- ---- --- --<br>------- ------,96238.30000001192,96237.5,95680.482,95695.09999999404,95697.153,96247.256,,18,order
screen,html.Screen,0_2_1_1_19,2021-10-22T11:46:15.689Z,,,,,,,,,,,,,,,,54,,,,,,,,,,,,,,382.3439999940456,,response,,,100,,,,,,Space,keypress(Space),,,,,-- --- ---- --- ------ ----- ------- ---- -- --- ------- --<br>------- ---------- ------ -- ----- -- ----- to ---- ------<br>--- ----- --- --- ------ -------- ----- --- ------ ----- --<br>----- ----- ---------- --- --- ------ ------ ---- -- ------<br>------- --- ------ ----- --- ---- ------- -- ---- --- --<br>------- ------,96630.30000001192,96629.59999999404,96230.586,96238.59999999404,96247.256,96647.43,,19,to
screen,html.Screen,0_2_1_1_20,2021-10-22T11:46:15.969Z,,,,,,,,,,,,,,,,54,,,,,,,,,,,,,,262.070000000007,,response,,,100,,,,,,Space,keypress(Space),,,,,-- --- ---- --- ------ ----- ------- ---- -- --- ------- --<br>------- ---------- ------ -- ----- -- ----- -- save ------<br>--- ----- --- --- ------ -------- ----- --- ------ ----- --<br>----- ----- ---------- --- --- ------ ------ ---- -- ------<br>------- --- ------ ----- --- ---- ------- -- ---- --- --<br>------- ------,96910.30000001192,96909.5,96630.759,96630.59999999404,96647.43,96914.125,,20,save
screen,html.Screen,0_2_1_1_21,2021-10-22T11:46:16.273Z,,,,,,,,,,,,,,,,54,,,,,,,,,,,,,,299.47499999403954,,response,,,100,,,,,,Space,keypress(Space),,,,,"-- --- ---- --- ------ ----- ------- ---- -- --- ------- --<br>------- ---------- ------ -- ----- -- ----- -- ---- money,<br>--- ----- --- --- ------ -------- ----- --- ------ ----- --<br>----- ----- ---------- --- --- ------ ------ ---- -- ------<br>------- --- ------ ----- --- ---- ------- -- ---- --- --<br>------- ------",97214.40000000596,97213.59999999404,96897.455,96910.5,96914.125,97230.98,,21,"money,"
screen,html.Screen,0_2_1_1_22,2021-10-22T11:46:16.553Z,,,,,,,,,,,,,,,,54,,,,,,,,,,,,,,262.6199999940436,,response,,,100,,,,,,Space,keypress(Space),,,,,-- --- ---- --- ------ ----- ------- ---- -- --- ------- --<br>------- ---------- ------ -- ----- -- ----- -- ---- ------<br>the ----- --- --- ------ -------- ----- --- ------ ----- --<br>----- ----- ---------- --- --- ------ ------ ---- -- ------<br>------- --- ------ ----- --- ---- ------- -- ---- --- --<br>------- ------,97494.30000001192,97493.59999999404,97214.308,97214.59999999404,97230.98,97497.706,,22,the
screen,html.Screen,0_2_1_1_23,2021-10-22T11:46:16.833Z,,,,,,,,,,,,,,,,54,,,,,,,,,,,,,,275.89399999403395,,response,,,100,,,,,,Space,keypress(Space),,,,,-- --- ---- --- ------ ----- ------- ---- -- --- ------- --<br>------- ---------- ------ -- ----- -- ----- -- ---- ------<br>--- state --- --- ------ -------- ----- --- ------ ----- --<br>----- ----- ---------- --- --- ------ ------ ---- -- ------<br>------- --- ------ ----- --- ---- ------- -- ---- --- --<br>------- ------,97774.40000000596,97773.59999999404,97481.035,97494.5,97497.706,97781.156,,23,state
screen,html.Screen,0_2_1_1_24,2021-10-22T11:46:17.161Z,,,,,,,,,,,,,,,,54,,,,,,,,,,,,,,320.3439999999973,,response,,,100,,,,,,Space,keypress(Space),,,,,-- --- ---- --- ------ ----- ------- ---- -- --- ------- --<br>------- ---------- ------ -- ----- -- ----- -- ---- ------<br>--- ----- cut --- ------ -------- ----- --- ------ ----- --<br>----- ----- ---------- --- --- ------ ------ ---- -- ------<br>------- --- ------ ----- --- ---- ------- -- ---- --- --<br>------- ------,98102.30000001192,98101.5,97764.484,97774.59999999404,97781.156,98114.457,,24,cut
screen,html.Screen,0_2_1_1_25,2021-10-22T11:46:17.489Z,,,,,,,,,,,,,,,,54,,,,,,,,,,,,,,315.0430000000051,,response,,,100,,,,,,Space,keypress(Space),,,,,-- --- ---- --- ------ ----- ------- ---- -- --- ------- --<br>------- ---------- ------ -- ----- -- ----- -- ---- ------<br>--- ----- --- the ------ -------- ----- --- ------ ----- --<br>----- ----- ---------- --- --- ------ ------ ---- -- ------<br>------- --- ------ ----- --- ---- ------- -- ---- --- --<br>------- ------,98430.30000001192,98429.5,98097.788,98102.5,98114.457,98431.391,,25,the
screen,html.Screen,0_2_1_1_26,2021-10-22T11:46:17.816Z,,,,,,,,,,,,,,,,54,,,,,,,,,,,,,,326.10899999999674,,response,,,100,,,,,,Space,keypress(Space),,,,,-- --- ---- --- ------ ----- ------- ---- -- --- ------- --<br>------- ---------- ------ -- ----- -- ----- -- ---- ------<br>--- ----- --- --- bonds' -------- ----- --- ------ ----- --<br>----- ----- ---------- --- --- ------ ------ ---- -- ------<br>------- --- ------ ----- --- ---- ------- -- ---- --- --<br>------- ------,98758.30000001192,98757.5,98414.718,98430.70000001788,98431.391,98764.715,,26,bonds'
screen,html.Screen,0_2_1_1_27,2021-10-22T11:46:18.169Z,,,,,,,,,,,,,,,,54,,,,,,,,,,,,,,344.7850000000035,,response,,,100,,,,,,Space,keypress(Space),,,,,-- --- ---- --- ------ ----- ------- ---- -- --- ------- --<br>------- ---------- ------ -- ----- -- ----- -- ---- ------<br>--- ----- --- --- ------ interest ----- --- ------ ----- --<br>----- ----- ---------- --- --- ------ ------ ---- -- ------<br>------- --- ------ ----- --- ---- ------- -- ---- --- --<br>------- ------,99110.40000000596,99109.5,98748.045,98758.5,98764.715,99114.851,,27,interest
screen,html.Screen,0_2_1_1_28,2021-10-22T11:46:18.857Z,,,,,,,,,,,,,,,,54,,,,,,,,,,,,,,682.6490000000049,,response,,,100,,,,,,Space,keypress(Space),,,,,-- --- ---- --- ------ ----- ------- ---- -- --- ------- --<br>------- ---------- ------ -- ----- -- ----- -- ---- ------<br>--- ----- --- --- ------ -------- rate. --- ------ ----- --<br>----- ----- ---------- --- --- ------ ------ ---- -- ------<br>------- --- ------ ----- --- ---- ------- -- ---- --- --<br>------- ------,99798.40000000596,99797.5,99098.18,99110.59999999404,99114.851,99815.046,,28,rate.
screen,html.Screen,0_2_1_1_29,2021-10-22T11:46:19.281Z,,,,,,,,,,,,,,,,54,,,,,,,,,,,,,,406.85400000595837,,response,,,100,,,,,,Space,keypress(Space),,,,,-- --- ---- --- ------ ----- ------- ---- -- --- ------- --<br>------- ---------- ------ -- ----- -- ----- -- ---- ------<br>--- ----- --- --- ------ -------- ----- The ------ ----- --<br>----- ----- ---------- --- --- ------ ------ ---- -- ------<br>------- --- ------ ----- --- ---- ------- -- ---- --- --<br>------- ------,100222.70000001788,100221.90000000596,99798.375,99798.59999999404,99815.046,100231.73,,29,The
screen,html.Screen,0_2_1_1_30,2021-10-22T11:46:19.641Z,,,,,,,,,,,,,,,,54,,,,,,,,,,,,,,349.7700000000041,,response,,,100,,,,,,Space,keypress(Space),,,,,-- --- ---- --- ------ ----- ------- ---- -- --- ------- --<br>------- ---------- ------ -- ----- -- ----- -- ---- ------<br>--- ----- --- --- ------ -------- ----- --- market ----- --<br>----- ----- ---------- --- --- ------ ------ ---- -- ------<br>------- --- ------ ----- --- ---- ------- -- ---- --- --<br>------- ------,100582.30000001192,100581.5,100215.06,100223,100231.73,100598.679,,30,market
screen,html.Screen,0_2_1_1_31,2021-10-22T11:46:19.929Z,,,,,,,,,,,,,,,,54,,,,,,,,,,,,,,270.8209999999963,,response,,,100,,,,,,Space,keypress(Space),,,,,-- --- ---- --- ------ ----- ------- ---- -- --- ------- --<br>------- ---------- ------ -- ----- -- ----- -- ---- ------<br>--- ----- --- --- ------ -------- ----- --- ------ value --<br>----- ----- ---------- --- --- ------ ------ ---- -- ------<br>------- --- ------ ----- --- ---- ------- -- ---- --- --<br>------- ------,100870.40000000596,100869.5,100582.007,100582.70000001788,100598.679,100882.069,,31,value
screen,html.Screen,0_2_1_1_32,2021-10-22T11:46:20.281Z,,,,,,,,,,,,,,,,54,,,,,,,,,,,,,,339.43099999999686,,response,,,100,,,,,,Space,keypress(Space),,,,,-- --- ---- --- ------ ----- ------- ---- -- --- ------- --<br>------- ---------- ------ -- ----- -- ----- -- ---- ------<br>--- ----- --- --- ------ -------- ----- --- ------ ----- of<br>----- ----- ---------- --- --- ------ ------ ---- -- ------<br>------- --- ------ ----- --- ---- ------- -- ---- --- --<br>------- ------,101222.30000001192,101221.5,100865.398,100870.70000001788,100882.069,101232.177,,32,of
screen,html.Screen,0_2_1_1_33,2021-10-22T11:46:20.544Z,,,,,,,,,,,,,,,,54,,,,,,,,,,,,,,253.4229999940435,,response,,,100,,,,,,Space,keypress(Space),,,,,-- --- ---- --- ------ ----- ------- ---- -- --- ------- --<br>------- ---------- ------ -- ----- -- ----- -- ---- ------<br>--- ----- --- --- ------ -------- ----- --- ------ ----- --<br>these ----- ---------- --- --- ------ ------ ---- -- ------<br>------- --- ------ ----- --- ---- ------- -- ---- --- --<br>------- ------,101486.30000001192,101485.59999999404,101215.506,101222.59999999404,101232.177,101498.865,,33,these
screen,html.Screen,0_2_1_1_34,2021-10-22T11:46:20.833Z,,,,,,,,,,,,,,,,54,,,,,,,,,,,,,,274.63499999999476,,response,,,100,,,,,,Space,keypress(Space),,,,,-- --- ---- --- ------ ----- ------- ---- -- --- ------- --<br>------- ---------- ------ -- ----- -- ----- -- ---- ------<br>--- ----- --- --- ------ -------- ----- --- ------ ----- --<br>----- bonds ---------- --- --- ------ ------ ---- -- ------<br>------- --- ------ ----- --- ---- ------- -- ---- --- --<br>------- ------,101774.5,101773.5,101482.195,101486.5,101498.865,101782.333,,34,bonds
screen,html.Screen,0_2_1_1_35,2021-10-22T11:46:21.129Z,,,,,,,,,,,,,,,,54,,,,,,,,,,,,,,287.2669999940408,,response,,,100,,,,,,Space,keypress(Space),,,,,"-- --- ---- --- ------ ----- ------- ---- -- --- ------- --<br>------- ---------- ------ -- ----- -- ----- -- ---- ------<br>--- ----- --- --- ------ -------- ----- --- ------ ----- --<br>----- ----- plummeted, --- --- ------ ------ ---- -- ------<br>------- --- ------ ----- --- ---- ------- -- ---- --- --<br>------- ------",102070.40000000596,102069.59999999404,101765.662,101774.80000001192,101782.333,102082.417,,35,"plummeted,"
screen,html.Screen,0_2_1_1_36,2021-10-22T11:46:21.433Z,,,,,,,,,,,,,,,,54,,,,,,,,,,,,,,291.0829999999987,,response,,,100,,,,,,Space,keypress(Space),,,,,-- --- ---- --- ------ ----- ------- ---- -- --- ------- --<br>------- ---------- ------ -- ----- -- ----- -- ---- ------<br>--- ----- --- --- ------ -------- ----- --- ------ ----- --<br>----- ----- ---------- and --- ------ ------ ---- -- ------<br>------- --- ------ ----- --- ---- ------- -- ---- --- --<br>------- ------,102374.30000001192,102373.5,102065.746,102070.59999999404,102082.417,102382.471,,36,and
screen,html.Screen,0_2_1_1_37,2021-10-22T11:46:21.729Z,,,,,,,,,,,,,,,,54,,,,,,,,,,,,,,287.028999999995,,response,,,100,,,,,,Space,keypress(Space),,,,,-- --- ---- --- ------ ----- ------- ---- -- --- ------- --<br>------- ---------- ------ -- ----- -- ----- -- ---- ------<br>--- ----- --- --- ------ -------- ----- --- ------ ----- --<br>----- ----- ---------- --- the ------ ------ ---- -- ------<br>------- --- ------ ----- --- ---- ------- -- ---- --- --<br>------- ------,102670.30000001192,102669.5,102365.801,102374.5,102382.471,102682.6,,37,the
screen,html.Screen,0_2_1_1_38,2021-10-22T11:46:21.960Z,,,,,,,,,,,,,,,,54,,,,,,,,,,,,,,218.89999999999418,,response,,,100,,,,,,Space,keypress(Space),,,,,-- --- ---- --- ------ ----- ------- ---- -- --- ------- --<br>------- ---------- ------ -- ----- -- ----- -- ---- ------<br>--- ----- --- --- ------ -------- ----- --- ------ ----- --<br>----- ----- ---------- --- --- market ------ ---- -- ------<br>------- --- ------ ----- --- ---- ------- -- ---- --- --<br>------- ------,102902.30000001192,102901.5,102665.929,102670.59999999404,102682.6,102915.991,,38,market
screen,html.Screen,0_2_1_1_39,2021-10-22T11:46:22.240Z,,,,,,,,,,,,,,,,54,,,,,,,,,,,,,,265.50900000000547,,response,,,100,,,,,,Space,keypress(Space),,,,,-- --- ---- --- ------ ----- ------- ---- -- --- ------- --<br>------- ---------- ------ -- ----- -- ----- -- ---- ------<br>--- ----- --- --- ------ -------- ----- --- ------ ----- --<br>----- ----- ---------- --- --- ------ became ---- -- ------<br>------- --- ------ ----- --- ---- ------- -- ---- --- --<br>------- ------,103182.30000001192,103181.5,102899.32,102902.5,102915.991,103199.424,,39,became
screen,html.Screen,0_2_1_1_40,2021-10-22T11:46:22.536Z,,,,,,,,,,,,,,,,54,,,,,,,,,,,,,,278.07600000000093,,response,,,100,,,,,,Space,keypress(Space),,,,,-- --- ---- --- ------ ----- ------- ---- -- --- ------- --<br>------- ---------- ------ -- ----- -- ----- -- ---- ------<br>--- ----- --- --- ------ -------- ----- --- ------ ----- --<br>----- ----- ---------- --- --- ------ ------ wary -- ------<br>------- --- ------ ----- --- ---- ------- -- ---- --- --<br>------- ------,103478.20000001788,103477.5,103182.753,103182.59999999404,103199.424,103482.803,,40,wary
screen,html.Screen,0_2_1_1_41,2021-10-22T11:46:22.848Z,,,,,,,,,,,,,,,,54,,,,,,,,,,,,,,306.5970000059606,,response,,,100,,,,,,Space,keypress(Space),,,,,-- --- ---- --- ------ ----- ------- ---- -- --- ------- --<br>------- ---------- ------ -- ----- -- ----- -- ---- ------<br>--- ----- --- --- ------ -------- ----- --- ------ ----- --<br>----- ----- ---------- --- --- ------ ------ ---- of ------<br>------- --- ------ ----- --- ---- ------- -- ---- --- --<br>------- ------,103790.30000001192,103789.40000000596,103466.133,103478.5,103482.803,103799.63,,41,of
screen,html.Screen,0_2_1_1_42,2021-10-22T11:46:23.256Z,,,,,,,,,,,,,,,,54,,,,,,,,,,,,,,397.86999999999534,,response,,,100,,,,,,Space,keypress(Space),,,,,-- --- ---- --- ------ ----- ------- ---- -- --- ------- --<br>------- ---------- ------ -- ----- -- ----- -- ---- ------<br>--- ----- --- --- ------ -------- ----- --- ------ ----- --<br>----- ----- ---------- --- --- ------ ------ ---- -- French<br>------- --- ------ ----- --- ---- ------- -- ---- --- --<br>------- ------,104198.20000001788,104197.5,103782.958,103790.59999999404,103799.63,104199.719,,42,French
screen,html.Screen,0_2_1_1_43,2021-10-22T11:46:23.616Z,,,,,,,,,,,,,,,,54,,,,,,,,,,,,,,357.7810000000027,,response,,,100,,,,,,Space,keypress(Space),,,,,-- --- ---- --- ------ ----- ------- ---- -- --- ------- --<br>------- ---------- ------ -- ----- -- ----- -- ---- ------<br>--- ----- --- --- ------ -------- ----- --- ------ ----- --<br>----- ----- ---------- --- --- ------ ------ ---- -- ------<br>credit. --- ------ ----- --- ---- ------- -- ---- --- --<br>------- ------,104558.20000001788,104557.5,104183.048,104198.5,104199.719,104566.45,,43,credit.
screen,html.Screen,0_2_1_1_44,2021-10-22T11:46:23.952Z,,,,,,,,,,,,,,,,54,,,,,,,,,,,,,,327.0500000000029,,response,,,100,,,,,,Space,keypress(Space),,,,,-- --- ---- --- ------ ----- ------- ---- -- --- ------- --<br>------- ---------- ------ -- ----- -- ----- -- ---- ------<br>--- ----- --- --- ------ -------- ----- --- ------ ----- --<br>----- ----- ---------- --- --- ------ ------ ---- -- ------<br>------- The ------ ----- --- ---- ------- -- ---- --- --<br>------- ------,104894.20000001788,104893.5,104549.78,104558.5,104566.45,104899.932,,44,The
screen,html.Screen,0_2_1_1_45,2021-10-22T11:46:24.240Z,,,,,,,,,,,,,,,,54,,,,,,,,,,,,,,281.46800000595977,,response,,,100,,,,,,Space,keypress(Space),,,,,-- --- ---- --- ------ ----- ------- ---- -- --- ------- --<br>------- ---------- ------ -- ----- -- ----- -- ---- ------<br>--- ----- --- --- ------ -------- ----- --- ------ ----- --<br>----- ----- ---------- --- --- ------ ------ ---- -- ------<br>------- --- French ----- --- ---- ------- -- ---- --- --<br>------- ------,105182.20000001788,105181.40000000596,104883.261,104894.5,104899.932,105183.339,,45,French
screen,html.Screen,0_2_1_1_46,2021-10-22T11:46:24.528Z,,,,,,,,,,,,,,,,54,,,,,,,,,,,,,,286.1609999999928,,response,,,100,,,,,,Space,keypress(Space),,,,,-- --- ---- --- ------ ----- ------- ---- -- --- ------- --<br>------- ---------- ------ -- ----- -- ----- -- ---- ------<br>--- ----- --- --- ------ -------- ----- --- ------ ----- --<br>----- ----- ---------- --- --- ------ ------ ---- -- ------<br>------- --- ------ state --- ---- ------- -- ---- --- --<br>------- ------,105470.20000001788,105469.5,105166.668,105182.40000000596,105183.339,105483.444,,46,state
screen,html.Screen,0_2_1_1_47,2021-10-22T11:46:24.832Z,,,,,,,,,,,,,,,,54,,,,,,,,,,,,,,290.05599999999686,,response,,,100,,,,,,Space,keypress(Space),,,,,-- --- ---- --- ------ ----- ------- ---- -- --- ------- --<br>------- ---------- ------ -- ----- -- ----- -- ---- ------<br>--- ----- --- --- ------ -------- ----- --- ------ ----- --<br>----- ----- ---------- --- --- ------ ------ ---- -- ------<br>------- --- ------ ----- was ---- ------- -- ---- --- --<br>------- ------,105774.20000001788,105773.5,105466.773,105470.5,105483.444,105783.471,,47,was
screen,html.Screen,0_2_1_1_48,2021-10-22T11:46:25.072Z,,,,,,,,,,,,,,,,54,,,,,,,,,,,,,,230.028999999995,,response,,,100,,,,,,Space,keypress(Space),,,,,-- --- ---- --- ------ ----- ------- ---- -- --- ------- --<br>------- ---------- ------ -- ----- -- ----- -- ---- ------<br>--- ----- --- --- ------ -------- ----- --- ------ ----- --<br>----- ----- ---------- --- --- ------ ------ ---- -- ------<br>------- --- ------ ----- --- left ------- -- ---- --- --<br>------- ------,106014.30000001192,106013.5,105766.801,105774.5,105783.471,106016.966,,48,left
screen,html.Screen,0_2_1_1_49,2021-10-22T11:46:25.352Z,,,,,,,,,,,,,,,,54,,,,,,,,,,,,,,276.53399999999965,,response,,,100,,,,,,Space,keypress(Space),,,,,-- --- ---- --- ------ ----- ------- ---- -- --- ------- --<br>------- ---------- ------ -- ----- -- ----- -- ---- ------<br>--- ----- --- --- ------ -------- ----- --- ------ ----- --<br>----- ----- ---------- --- --- ------ ------ ---- -- ------<br>------- --- ------ ----- --- ---- without -- ---- --- --<br>------- ------,106294.20000001788,106293.5,106000.294,106014.40000000596,106016.966,106300.349,,49,without
screen,html.Screen,0_2_1_1_50,2021-10-22T11:46:25.640Z,,,,,,,,,,,,,,,,54,,,,,,,,,,,,,,281.0510000059585,,response,,,100,,,,,,Space,keypress(Space),,,,,-- --- ---- --- ------ ----- ------- ---- -- --- ------- --<br>------- ---------- ------ -- ----- -- ----- -- ---- ------<br>--- ----- --- --- ------ -------- ----- --- ------ ----- --<br>----- ----- ---------- --- --- ------ ------ ---- -- ------<br>------- --- ------ ----- --- ---- ------- an ---- --- --<br>------- ------,106582.09999999404,106581.40000000596,106283.678,106294.40000000596,106300.349,106583.8,,50,an
screen,html.Screen,0_2_1_1_51,2021-10-22T11:46:25.896Z,,,,,,,,,,,,,,,,54,,,,,,,,,,,,,,253.6999999999971,,response,,,100,,,,,,Space,keypress(Space),,,,,-- --- ---- --- ------ ----- ------- ---- -- --- ------- --<br>------- ---------- ------ -- ----- -- ----- -- ---- ------<br>--- ----- --- --- ------ -------- ----- --- ------ ----- --<br>----- ----- ---------- --- --- ------ ------ ---- -- ------<br>------- --- ------ ----- --- ---- ------- -- easy --- --<br>------- ------,106838.30000001192,106837.5,106567.128,106582.40000000596,106583.8,106850.458,,51,easy
screen,html.Screen,0_2_1_1_52,2021-10-22T11:46:26.144Z,,,,,,,,,,,,,,,,54,,,,,,,,,,,,,,234.94200000596175,,response,,,100,,,,,,Space,keypress(Space),,,,,-- --- ---- --- ------ ----- ------- ---- -- --- ------- --<br>------- ---------- ------ -- ----- -- ----- -- ---- ------<br>--- ----- --- --- ------ -------- ----- --- ------ ----- --<br>----- ----- ---------- --- --- ------ ------ ---- -- ------<br>------- --- ------ ----- --- ---- ------- -- ---- way --<br>------- ------,107086.20000001788,107085.40000000596,106833.788,106838.59999999404,106850.458,107100.617,,52,way
screen,html.Screen,0_2_1_1_53,2021-10-22T11:46:26.512Z,,,,,,,,,,,,,,,,54,,,,,,,,,,,,,,352.88300000000163,,response,,,100,,,,,,Space,keypress(Space),,,,,-- --- ---- --- ------ ----- ------- ---- -- --- ------- --<br>------- ---------- ------ -- ----- -- ----- -- ---- ------<br>--- ----- --- --- ------ -------- ----- --- ------ ----- --<br>----- ----- ---------- --- --- ------ ------ ---- -- ------<br>------- --- ------ ----- --- ---- ------- -- ---- --- of<br>------- ------,107454.30000001192,107453.5,107083.945,107086.5,107100.617,107467.36,,53,of
screen,html.Screen,0_2_1_1_54,2021-10-22T11:46:26.792Z,,,,,,,,,,,,,,,,54,,,,,,,,,,,,,,266.0400000059599,,response,,,100,,,,,,Space,keypress(Space),,,,,-- --- ---- --- ------ ----- ------- ---- -- --- ------- --<br>------- ---------- ------ -- ----- -- ----- -- ---- ------<br>--- ----- --- --- ------ -------- ----- --- ------ ----- --<br>----- ----- ---------- --- --- ------ ------ ---- -- ------<br>------- --- ------ ----- --- ---- ------- -- ---- --- --<br>raising ------,107734.20000001788,107733.40000000596,107450.689,107454.5,107467.36,107750.771,,54,raising
screen,html.Screen,0_2_1_1_55,2021-10-22T11:46:27.056Z,,,,,,,,,,,,,,,,54,,,,,,,,,,,,,,246.6290000059671,,response,,,100,,,,,,Space,keypress(Space),,,,,-- --- ---- --- ------ ----- ------- ---- -- --- ------- --<br>------- ---------- ------ -- ----- -- ----- -- ---- ------<br>--- ----- --- --- ------ -------- ----- --- ------ ----- --<br>----- ----- ---------- --- --- ------ ------ ---- -- ------<br>------- --- ------ ----- --- ---- ------- -- ---- --- --<br>------- money.,107998.20000001788,107997.40000000596,107734.1,107734.5,107750.771,108000.868,,55,money.
Item 100,flow.Loop,0_2_1_1,2021-10-22T11:46:27.057Z,,,,,,,,,,,,,,,,,,,,,,,,,,,,,,21052.960000005958,,completion,,,,B,,,,,,,,,,silence,,107998.70000001788,107997.40000000596,86927.769,86929.59999999404,86944.44,108000.868,,,
Question 1,html.Screen,0_2_1_2,2021-10-22T11:46:31.609Z,,,,,,,,,,,,,,,,,,,,,,,,,,,true,TRUE,,4548.332000017879,,response,,,100,B,,,,,TRUE,click #choice-1,,,,silence,,112550.40000000596,112549.20000001788,107984.197,107998.90000000596,108000.868,112552.213,,,
Question 2,html.Screen,0_2_1_3,2021-10-22T11:46:34.337Z,,,,,,,,,,,,,,,,,,,,,,,,,,,true,FALSE,,2724.987000017878,,response,,,100,B,,,,,FALSE,click #choice-2,,,,silence,,115278.40000000596,115277.20000001788,112535.542,112550.59999999404,112552.213,115286.283,,,
Item 100,flow.Sequence,0_2_1,2021-10-22T11:46:34.337Z,,,,,,,,,,,,,,,,,,,,,,,,,,,,,,38335.61700001788,,completion,,,,,,,,,,,,,,,,115278.70000001788,115277.20000001788,76924.911,76935.5,76941.583,115286.283,,,
End of Practice,html.Page,0_2_2,2021-10-22T11:46:37.985Z,,,,,,,,,,,,,,,,,,,,,,,,,,,,,,3640.4170000178856,,form submission,,,,,,,,,,,,,,,,118927.20000001788,118926.70000001788,115269.613,115278.90000000596,115286.283,118937.457,,,
Practice,flow.Sequence,0_2,2021-10-22T11:46:37.986Z,,,,,,,,,,,,,,,,,,,,,,,,,,,,,,85948.44900001789,,completion,,,,,,,,,,,,,,,,118927.70000001788,118926.70000001788,32961.581,32968.30000001192,32978.251,118937.457,,,
Trap_instruction,html.Page,0_3_0,2021-10-22T11:46:41.090Z,,,,,,,,,,,,,,,,,,,,,,,,,,,,,,3093.1429999940447,,form submission,,,,,,,,,,,,,,,,122031,122030.59999999404,118920.786,118928,118937.457,122054.892,,,
trap_trial,html.Screen,0_3_1,2021-10-22T11:46:45.521Z,,,,,,,,,,,,,,,,,,,,,,,,,,,true,1,,4406.008000005953,,response,,,,,,,,,1,click #choice-1,,,,,,126462.09999999404,126460.90000000596,122021.55,122031.30000001192,122054.892,126475.703,,,
end of trap trial,html.Page,0_3_2,2021-10-22T11:46:47.546Z,,,,,,,,,,,,,,,,,,,,,,,,,,,,,,2010.8969999940455,,form submission,,,,,,,,,,,,,,,,128487.09999999404,128486.59999999404,126459.086,126462.30000001192,126475.703,128490.275,,,
Trap 1,flow.Sequence,0_3,2021-10-22T11:46:47.546Z,,,,,,,,,,,,,,,,,,,,,,,,,,,,,,9549.142999994045,,completion,,,,,,,,,,,,,,,,128487.59999999404,128486.59999999404,118920.786,118927.90000000596,118937.457,128490.275,,,
Standby,html.Page,0_4_0,2021-10-22T11:46:55.536Z,,,,,,,,,,,,,,,,,,,,,,,,,,,,,,8002.127999999997,,timeout,,,,,,,,,,,,,,,,136477.5,136475.732,128473.604,128487.90000000596,128490.275,136492.403,,,
Holding screen,html.Screen,0_4_1_0_0,2021-10-22T11:47:02.538Z,,,,,,,,,,,,,,,,,,,,,,,,,,,,,,7002.402000000002,,timeout,,,,,,,,,,,,,,,,143479.40000000596,143478.134,136475.732,136477.80000001192,136492.403,143494.805,,,
screen,html.Screen,0_4_1_0_1_0,2021-10-22T11:47:03.865Z,,,,,,,,,,,,,,,,48,,,,,,,,,,,,,,1310.695000000007,,response,,,10,B,,,,,Space,keypress(Space),,,,lyrical,As -- --- ------ ------- --------- ----------- --------<br>--------- -------- --- ------- -- ------- ---- -- ------<br>-- --- -------- -------- ---------- ---- ---- ---- ------<br>-- --------- -- ---- -- --- -- --- ------- -- - -----<br>---------- -- -- -- ---- ----- -- ------ -- --- ------<br>-------,144806.5,144805.5,143478.134,143479.90000000596,143494.805,144811.67,,0,As
screen,html.Screen,0_4_1_0_1_1,2021-10-22T11:47:04.225Z,,,,,,,,,,,,,,,,48,,,,,,,,,,,,,,353.73000000594766,,response,,,10,B,,,,,Space,keypress(Space),,,,lyrical,-- in --- ------ ------- --------- ----------- --------<br>--------- -------- --- ------- -- ------- ---- -- ------<br>-- --- -------- -------- ---------- ---- ---- ---- ------<br>-- --------- -- ---- -- --- -- --- ------- -- - -----<br>---------- -- -- -- ---- ----- -- ------ -- --- ------<br>-------,145166.20000001788,145165.40000000596,144795,144806.80000001192,144811.67,145178.741,,1,in
screen,html.Screen,0_4_1_0_1_2,2021-10-22T11:47:04.633Z,,,,,,,,,,,,,,,,48,,,,,,,,,,,,,,394.2589999999909,,response,,,10,B,,,,,Space,keypress(Space),,,,lyrical,-- -- the ------ ------- --------- ----------- --------<br>--------- -------- --- ------- -- ------- ---- -- ------<br>-- --- -------- -------- ---------- ---- ---- ---- ------<br>-- --------- -- ---- -- --- -- --- ------- -- - -----<br>---------- -- -- -- ---- ----- -- ------ -- --- ------<br>-------,145573.70000001788,145573,145162.069,145166.5,145178.741,145578.796,,2,the
screen,html.Screen,0_4_1_0_1_3,2021-10-22T11:47:05.033Z,,,,,,,,,,,,,,,,48,,,,,,,,,,,,,,394.2039999999979,,response,,,10,B,,,,,Space,keypress(Space),,,,lyrical,-- -- --- United ------- --------- ----------- --------<br>--------- -------- --- ------- -- ------- ---- -- ------<br>-- --- -------- -------- ---------- ---- ---- ---- ------<br>-- --------- -- ---- -- --- -- --- ------- -- - -----<br>---------- -- -- -- ---- ----- -- ------ -- --- ------<br>-------,145973.80000001192,145973,145562.125,145574,145578.796,145978.905,,3,United
screen,html.Screen,0_4_1_0_1_4,2021-10-22T11:47:05.417Z,,,,,,,,,,,,,,,,48,,,,,,,,,,,,,,378.09500000000116,,response,,,10,B,,,,,Space,keypress(Space),,,,lyrical,"-- -- --- ------ States, --------- ----------- --------<br>--------- -------- --- ------- -- ------- ---- -- ------<br>-- --- -------- -------- ---------- ---- ---- ---- ------<br>-- --------- -- ---- -- --- -- --- ------- -- - -----<br>---------- -- -- -- ---- ----- -- ------ -- --- ------<br>-------",146357.80000001192,146357,145962.234,145974,145978.905,146362.363,,4,"States,"
screen,html.Screen,0_4_1_0_1_5,2021-10-22T11:47:05.953Z,,,,,,,,,,,,,,,,48,,,,,,,,,,,,,,530.5370000059484,,response,,,10,B,,,,,Space,keypress(Space),,,,lyrical,-- -- --- ------ ------- Colombian ----------- --------<br>--------- -------- --- ------- -- ------- ---- -- ------<br>-- --- -------- -------- ---------- ---- ---- ---- ------<br>-- --------- -- ---- -- --- -- --- ------- -- - -----<br>---------- -- -- -- ---- ----- -- ------ -- --- ------<br>-------,146893.80000001192,146892.90000000596,146345.692,146358,146362.363,146895.853,,5,Colombian
screen,html.Screen,0_4_1_0_1_6,2021-10-22T11:47:06.329Z,,,,,,,,,,,,,,,,48,,,,,,,,,,,,,,373.04700000595767,,response,,,10,B,,,,,Space,keypress(Space),,,,lyrical,-- -- --- ------ ------- --------- legislation --------<br>--------- -------- --- ------- -- ------- ---- -- ------<br>-- --- -------- -------- ---------- ---- ---- ---- ------<br>-- --------- -- ---- -- --- -- --- ------- -- - -----<br>---------- -- -- -- ---- ----- -- ------ -- --- ------<br>-------,147269.70000001788,147268.90000000596,146879.182,146894.09999999404,146895.853,147279.292,,6,legislation
screen,html.Screen,0_4_1_0_1_7,2021-10-22T11:47:06.713Z,,,,,,,,,,,,,,,,48,,,,,,,,,,,,,,373.70800000001327,,response,,,10,B,,,,,Space,keypress(Space),,,,lyrical,-- -- --- ------ ------- --------- ----------- requires<br>--------- -------- --- ------- -- ------- ---- -- ------<br>-- --- -------- -------- ---------- ---- ---- ---- ------<br>-- --------- -- ---- -- --- -- --- ------- -- - -----<br>---------- -- -- -- ---- ----- -- ------ -- --- ------<br>-------,147653.80000001192,147653,147262.621,147270,147279.292,147662.754,,7,requires
screen,html.Screen,0_4_1_0_1_8,2021-10-22T11:47:07.153Z,,,,,,,,,,,,,,,,48,,,,,,,,,,,,,,430.1460000059742,,response,,,10,B,,,,,Space,keypress(Space),,,,lyrical,-- -- --- ------ ------- --------- ----------- --------<br>travelers -------- --- ------- -- ------- ---- -- ------<br>-- --- -------- -------- ---------- ---- ---- ---- ------<br>-- --------- -- ---- -- --- -- --- ------- -- - -----<br>---------- -- -- -- ---- ----- -- ------ -- --- ------<br>-------,148093.70000001788,148092.90000000596,147646.083,147654.09999999404,147662.754,148096.215,,8,travelers
screen,html.Screen,0_4_1_0_1_9,2021-10-22T11:47:07.641Z,,,,,,,,,,,,,,,,48,,,,,,,,,,,,,,484.68500000596396,,response,,,10,B,,,,,Space,keypress(Space),,,,lyrical,-- -- --- ------ ------- --------- ----------- --------<br>--------- entering --- ------- -- ------- ---- -- ------<br>-- --- -------- -------- ---------- ---- ---- ---- ------<br>-- --------- -- ---- -- --- -- --- ------- -- - -----<br>---------- -- -- -- ---- ----- -- ------ -- --- ------<br>-------,148581.70000001788,148580.90000000596,148079.544,148094,148096.215,148596.363,,9,entering
screen,html.Screen,0_4_1_0_1_10,2021-10-22T11:47:08.081Z,,,,,,,,,,,,,,,,48,,,,,,,,,,,,,,424.6369999999879,,response,,,10,B,,,,,Space,keypress(Space),,,,lyrical,-- -- --- ------ ------- --------- ----------- --------<br>--------- -------- the ------- -- ------- ---- -- ------<br>-- --- -------- -------- ---------- ---- ---- ---- ------<br>-- --------- -- ---- -- --- -- --- ------- -- - -----<br>---------- -- -- -- ---- ----- -- ------ -- --- ------<br>-------,149021.70000001788,149021,148579.692,148582,148596.363,149029.815,,10,the
screen,html.Screen,0_4_1_0_1_11,2021-10-22T11:47:08.513Z,,,,,,,,,,,,,,,,48,,,,,,,,,,,,,,423.08500000595814,,response,,,10,B,,,,,Space,keypress(Space),,,,lyrical,-- -- --- ------ ------- --------- ----------- --------<br>--------- -------- --- country -- ------- ---- -- ------<br>-- --- -------- -------- ---------- ---- ---- ---- ------<br>-- --------- -- ---- -- --- -- --- ------- -- - -----<br>---------- -- -- -- ---- ----- -- ------ -- --- ------<br>-------,149453.80000001192,149452.90000000596,149013.144,149021.90000000596,149029.815,149463.289,,11,country
screen,html.Screen,0_4_1_0_1_12,2021-10-22T11:47:09.000Z,,,,,,,,,,,,,,,,48,,,,,,,,,,,,,,477.6110000059707,,response,,,10,B,,,,,Space,keypress(Space),,,,lyrical,-- -- --- ------ ------- --------- ----------- --------<br>--------- -------- --- ------- to ------- ---- -- ------<br>-- --- -------- -------- ---------- ---- ---- ---- ------<br>-- --------- -- ---- -- --- -- --- ------- -- - -----<br>---------- -- -- -- ---- ----- -- ------ -- --- ------<br>-------,149941.70000001788,149940.90000000596,149446.618,149454,149463.289,149946.765,,12,to
screen,html.Screen,0_4_1_0_1_13,2021-10-22T11:47:09.320Z,,,,,,,,,,,,,,,,48,,,,,,,,,,,,,,314.23499999998603,,response,,,10,B,,,,,Space,keypress(Space),,,,lyrical,-- -- --- ------ ------- --------- ----------- --------<br>--------- -------- --- ------- -- declare ---- -- ------<br>-- --- -------- -------- ---------- ---- ---- ---- ------<br>-- --------- -- ---- -- --- -- --- ------- -- - -----<br>---------- -- -- -- ---- ----- -- ------ -- --- ------<br>-------,150261.70000001788,150261,149930.094,149942,149946.765,150263.537,,13,declare
screen,html.Screen,0_4_1_0_1_14,2021-10-22T11:47:09.673Z,,,,,,,,,,,,,,,,48,,,,,,,,,,,,,,349.3630000059493,,response,,,10,B,,,,,Space,keypress(Space),,,,lyrical,-- -- --- ------ ------- --------- ----------- --------<br>--------- -------- --- ------- -- ------- cash -- ------<br>-- --- -------- -------- ---------- ---- ---- ---- ------<br>-- --------- -- ---- -- --- -- --- ------- -- - -----<br>---------- -- -- -- ---- ----- -- ------ -- --- ------<br>-------,150613.80000001192,150612.90000000596,150246.866,150261.90000000596,150263.537,150630.316,,14,cash
screen,html.Screen,0_4_1_0_1_15,2021-10-22T11:47:10.024Z,,,,,,,,,,,,,,,,48,,,,,,,,,,,,,,334.58400000596885,,response,,,10,B,,,,,Space,keypress(Space),,,,lyrical,-- -- --- ------ ------- --------- ----------- --------<br>--------- -------- --- ------- -- ------- ---- in ------<br>-- --- -------- -------- ---------- ---- ---- ---- ------<br>-- --------- -- ---- -- --- -- --- ------- -- - -----<br>---------- -- -- -- ---- ----- -- ------ -- --- ------<br>-------,150965.59999999404,150964.90000000596,150613.645,150614,150630.316,150980.258,,15,in
screen,html.Screen,0_4_1_0_1_16,2021-10-22T11:47:10.345Z,,,,,,,,,,,,,,,,48,,,,,,,,,,,,,,304.64200000595883,,response,,,10,B,,,,,Space,keypress(Space),,,,lyrical,-- -- --- ------ ------- --------- ----------- --------<br>--------- -------- --- ------- -- ------- ---- -- excess<br>-- --- -------- -------- ---------- ---- ---- ---- ------<br>-- --------- -- ---- -- --- -- --- ------- -- - -----<br>---------- -- -- -- ---- ----- -- ------ -- --- ------<br>-------,151285.70000001788,151284.90000000596,150963.59,150965.90000000596,150980.258,151297.137,,16,excess
screen,html.Screen,0_4_1_0_1_17,2021-10-22T11:47:10.648Z,,,,,,,,,,,,,,,,48,,,,,,,,,,,,,,291.7630000059726,,response,,,10,B,,,,,Space,keypress(Space),,,,lyrical,-- -- --- ------ ------- --------- ----------- --------<br>--------- -------- --- ------- -- ------- ---- -- ------<br>of --- -------- -------- ---------- ---- ---- ---- ------<br>-- --------- -- ---- -- --- -- --- ------- -- - -----<br>---------- -- -- -- ---- ----- -- ------ -- --- ------<br>-------,151589.59999999404,151588.90000000596,151280.466,151285.90000000596,151297.137,151597.227,,17,of
screen,html.Screen,0_4_1_0_1_18,2021-10-22T11:47:10.945Z,,,,,,,,,,,,,,,,48,,,,,,,,,,,,,,287.67300000594696,,response,,,10,B,,,,,Space,keypress(Space),,,,lyrical,-- -- --- ------ ------- --------- ----------- --------<br>--------- -------- --- ------- -- ------- ---- -- ------<br>-- ten -------- -------- ---------- ---- ---- ---- ------<br>-- --------- -- ---- -- --- -- --- ------- -- - -----<br>---------- -- -- -- ---- ----- -- ------ -- --- ------<br>-------,151885.70000001788,151884.90000000596,151580.556,151589.90000000596,151597.227,151897.431,,18,ten
screen,html.Screen,0_4_1_0_1_19,2021-10-22T11:47:11.200Z,,,,,,,,,,,,,,,,48,,,,,,,,,,,,,,243.46900000594906,,response,,,10,B,,,,,Space,keypress(Space),,,,lyrical,-- -- --- ------ ------- --------- ----------- --------<br>--------- -------- --- ------- -- ------- ---- -- ------<br>-- --- thousand -------- ---------- ---- ---- ---- ------<br>-- --------- -- ---- -- --- -- --- ------- -- - -----<br>---------- -- -- -- ---- ----- -- ------ -- --- ------<br>-------,152141.70000001788,152140.90000000596,151880.758,151885.90000000596,151897.431,152147.425,,19,thousand
screen,html.Screen,0_4_1_0_1_20,2021-10-22T11:47:11.441Z,,,,,,,,,,,,,,,,48,,,,,,,,,,,,,,233.57500000001164,,response,,,10,B,,,,,Space,keypress(Space),,,,lyrical,-- -- --- ------ ------- --------- ----------- --------<br>--------- -------- --- ------- -- ------- ---- -- ------<br>-- --- -------- dollars. ---------- ---- ---- ---- ------<br>-- --------- -- ---- -- --- -- --- ------- -- - -----<br>---------- -- -- -- ---- ----- -- ------ -- --- ------<br>-------,152381.70000001788,152381,152130.754,152141.90000000596,152147.425,152397.547,,20,dollars.
screen,html.Screen,0_4_1_0_1_21,2021-10-22T11:47:11.728Z,,,,,,,,,,,,,,,,48,,,,,,,,,,,,,,271.25300001192954,,response,,,10,B,,,,,Space,keypress(Space),,,,lyrical,-- -- --- ------ ------- --------- ----------- --------<br>--------- -------- --- ------- -- ------- ---- -- ------<br>-- --- -------- -------- Concealing ---- ---- ---- ------<br>-- --------- -- ---- -- --- -- --- ------- -- - -----<br>---------- -- -- -- ---- ----- -- ------ -- --- ------<br>-------,152669.59999999404,152668.80000001192,152380.875,152381.90000000596,152397.547,152680.903,,21,Concealing
screen,html.Screen,0_4_1_0_1_22,2021-10-22T11:47:12.056Z,,,,,,,,,,,,,,,,48,,,,,,,,,,,,,,315.8970000119298,,response,,,10,B,,,,,Space,keypress(Space),,,,lyrical,-- -- --- ------ ------- --------- ----------- --------<br>--------- -------- --- ------- -- ------- ---- -- ------<br>-- --- -------- -------- ---------- more ---- ---- ------<br>-- --------- -- ---- -- --- -- --- ------- -- - -----<br>---------- -- -- -- ---- ----- -- ------ -- --- ------<br>-------,152997.59999999404,152996.80000001192,152664.233,152669.90000000596,152680.903,153014.413,,22,more
screen,html.Screen,0_4_1_0_1_23,2021-10-22T11:47:12.608Z,,,,,,,,,,,,,,,,48,,,,,,,,,,,,,,534.0869999999995,,response,,,10,B,,,,,Space,keypress(Space),,,,lyrical,-- -- --- ------ ------- --------- ----------- --------<br>--------- -------- --- ------- -- ------- ---- -- ------<br>-- --- -------- -------- ---------- ---- than ---- ------<br>-- --------- -- ---- -- --- -- --- ------- -- - -----<br>---------- -- -- -- ---- ----- -- ------ -- --- ------<br>-------,153548.80000001192,153548.5,152997.741,152997.80000001192,153014.413,153564.315,,23,than
screen,html.Screen,0_4_1_0_1_24,2021-10-22T11:47:12.880Z,,,,,,,,,,,,,,,,48,,,,,,,,,,,,,,256.08500000595814,,response,,,10,B,,,,,Space,keypress(Space),,,,lyrical,-- -- --- ------ ------- --------- ----------- --------<br>--------- -------- --- ------- -- ------- ---- -- ------<br>-- --- -------- -------- ---------- ---- ---- that ------<br>-- --------- -- ---- -- --- -- --- ------- -- - -----<br>---------- -- -- -- ---- ----- -- ------ -- --- ------<br>-------,153820.80000001192,153820.40000000596,153547.647,153548.80000001192,153564.315,153831.263,,24,that
screen,html.Screen,0_4_1_0_1_25,2021-10-22T11:47:13.104Z,,,,,,,,,,,,,,,,48,,,,,,,,,,,,,,213.4370000178751,,response,,,10,B,,,,,Space,keypress(Space),,,,lyrical,-- -- --- ------ ------- --------- ----------- --------<br>--------- -------- --- ------- -- ------- ---- -- ------<br>-- --- -------- -------- ---------- ---- ---- ---- amount<br>-- --------- -- ---- -- --- -- --- ------- -- - -----<br>---------- -- -- -- ---- ----- -- ------ -- --- ------<br>-------,154045.5,154044.70000001788,153814.59,153820.80000001192,153831.263,154047.89,,25,amount
screen,html.Screen,0_4_1_0_1_26,2021-10-22T11:47:13.528Z,,,,,,,,,,,,,,,,48,,,,,,,,,,,,,,420.91000001190696,,response,,,10,B,,,,,Space,keypress(Space),,,,lyrical,-- -- --- ------ ------- --------- ----------- --------<br>--------- -------- --- ------- -- ------- ---- -- ------<br>-- --- -------- -------- ---------- ---- ---- ---- ------<br>to --------- -- ---- -- --- -- --- ------- -- - -----<br>---------- -- -- -- ---- ----- -- ------ -- --- ------<br>-------,154469.59999999404,154468.80000001192,154031.221,154045.70000001788,154047.89,154481.395,,26,to
screen,html.Screen,0_4_1_0_1_27,2021-10-22T11:47:13.792Z,,,,,,,,,,,,,,,,48,,,,,,,,,,,,,,251.50500000597094,,response,,,10,B,,,,,Space,keypress(Space),,,,lyrical,-- -- --- ------ ------- --------- ----------- --------<br>--------- -------- --- ------- -- ------- ---- -- ------<br>-- --- -------- -------- ---------- ---- ---- ---- ------<br>-- transport -- ---- -- --- -- --- ------- -- - -----<br>---------- -- -- -- ---- ----- -- ------ -- --- ------<br>-------,154733.59999999404,154732.90000000596,154464.724,154469.80000001192,154481.395,154748.188,,27,transport
screen,html.Screen,0_4_1_0_1_28,2021-10-22T11:47:14.097Z,,,,,,,,,,,,,,,,48,,,,,,,,,,,,,,289.01200001788675,,response,,,10,B,,,,,Space,keypress(Space),,,,lyrical,-- -- --- ------ ------- --------- ----------- --------<br>--------- -------- --- ------- -- ------- ---- -- ------<br>-- --- -------- -------- ---------- ---- ---- ---- ------<br>-- --------- it ---- -- --- -- --- ------- -- - -----<br>---------- -- -- -- ---- ----- -- ------ -- --- ------<br>-------,155038,155037.20000001788,154731.516,154733.80000001192,154748.188,155048.354,,28,it
screen,html.Screen,0_4_1_0_1_29,2021-10-22T11:47:14.464Z,,,,,,,,,,,,,,,,48,,,,,,,,,,,,,,356.5460000059684,,response,,,10,B,,,,,Space,keypress(Space),,,,lyrical,-- -- --- ------ ------- --------- ----------- --------<br>--------- -------- --- ------- -- ------- ---- -- ------<br>-- --- -------- -------- ---------- ---- ---- ---- ------<br>-- --------- -- into -- --- -- --- ------- -- - -----<br>---------- -- -- -- ---- ----- -- ------ -- --- ------<br>-------,155405.70000001788,155404.90000000596,155031.681,155038.20000001788,155048.354,155415.128,,29,into
screen,html.Screen,0_4_1_0_1_30,2021-10-22T11:47:14.928Z,,,,,,,,,,,,,,,,48,,,,,,,,,,,,,,453.5720000178844,,response,,,10,B,,,,,Space,keypress(Space),,,,lyrical,-- -- --- ------ ------- --------- ----------- --------<br>--------- -------- --- ------- -- ------- ---- -- ------<br>-- --- -------- -------- ---------- ---- ---- ---- ------<br>-- --------- -- ---- or --- -- --- ------- -- - -----<br>---------- -- -- -- ---- ----- -- ------ -- --- ------<br>-------,155869.5,155868.70000001788,155398.456,155405.80000001192,155415.128,155881.889,,30,or
screen,html.Screen,0_4_1_0_1_31,2021-10-22T11:47:15.376Z,,,,,,,,,,,,,,,,48,,,,,,,,,,,,,,434.91100001192535,,response,,,10,B,,,,,Space,keypress(Space),,,,lyrical,-- -- --- ------ ------- --------- ----------- --------<br>--------- -------- --- ------- -- ------- ---- -- ------<br>-- --- -------- -------- ---------- ---- ---- ---- ------<br>-- --------- -- ---- -- out -- --- ------- -- - -----<br>---------- -- -- -- ---- ----- -- ------ -- --- ------<br>-------,156317.59999999404,156316.80000001192,155865.218,155869.70000001788,155881.889,156332.026,,31,out
screen,html.Screen,0_4_1_0_1_32,2021-10-22T11:47:16.040Z,,,,,,,,,,,,,,,,48,,,,,,,,,,,,,,648.7740000119084,,response,,,10,B,,,,,Space,keypress(Space),,,,lyrical,-- -- --- ------ ------- --------- ----------- --------<br>--------- -------- --- ------- -- ------- ---- -- ------<br>-- --- -------- -------- ---------- ---- ---- ---- ------<br>-- --------- -- ---- -- --- of --- ------- -- - -----<br>---------- -- -- -- ---- ----- -- ------ -- --- ------<br>-------,156981.59999999404,156980.80000001192,156315.355,156317.80000001192,156332.026,156998.707,,32,of
screen,html.Screen,0_4_1_0_1_33,2021-10-22T11:47:16.512Z,,,,,,,,,,,,,,,,48,,,,,,,,,,,,,,454.1930000059656,,response,,,10,B,,,,,Space,keypress(Space),,,,lyrical,-- -- --- ------ ------- --------- ----------- --------<br>--------- -------- --- ------- -- ------- ---- -- ------<br>-- --- -------- -------- ---------- ---- ---- ---- ------<br>-- --------- -- ---- -- --- -- the ------- -- - -----<br>---------- -- -- -- ---- ----- -- ------ -- --- ------<br>-------,157453.59999999404,157452.90000000596,156982.038,156981.80000001192,156998.707,157465.755,,33,the
screen,html.Screen,0_4_1_0_1_34,2021-10-22T11:47:17.264Z,,,,,,,,,,,,,,,,48,,,,,,,,,,,,,,739.0450000119163,,response,,,10,B,,,,,Space,keypress(Space),,,,lyrical,-- -- --- ------ ------- --------- ----------- --------<br>--------- -------- --- ------- -- ------- ---- -- ------<br>-- --- -------- -------- ---------- ---- ---- ---- ------<br>-- --------- -- ---- -- --- -- --- country -- - -----<br>---------- -- -- -- ---- ----- -- ------ -- --- ------<br>-------,158205.59999999404,158204.80000001192,157449.083,157453.80000001192,157465.755,158215.873,,34,country
screen,html.Screen,0_4_1_0_1_35,2021-10-22T11:47:17.768Z,,,,,,,,,,,,,,,,48,,,,,,,,,,,,,,492.8270000178891,,response,,,10,B,,,,,Space,keypress(Space),,,,lyrical,-- -- --- ------ ------- --------- ----------- --------<br>--------- -------- --- ------- -- ------- ---- -- ------<br>-- --- -------- -------- ---------- ---- ---- ---- ------<br>-- --------- -- ---- -- --- -- --- ------- is - -----<br>---------- -- -- -- ---- ----- -- ------ -- --- ------<br>-------,158709.5,158708.70000001788,158199.202,158205.90000000596,158215.873,158716.152,,35,is
screen,html.Screen,0_4_1_0_1_36,2021-10-22T11:47:18.072Z,,,,,,,,,,,,,,,,48,,,,,,,,,,,,,,296.64800001191907,,response,,,10,B,,,,,Space,keypress(Space),,,,lyrical,-- -- --- ------ ------- --------- ----------- --------<br>--------- -------- --- ------- -- ------- ---- -- ------<br>-- --- -------- -------- ---------- ---- ---- ---- ------<br>-- --------- -- ---- -- --- -- --- ------- -- a -----<br>---------- -- -- -- ---- ----- -- ------ -- --- ------<br>-------,159013.5,159012.80000001192,158699.48,158709.80000001192,158716.152,159016.154,,36,a
screen,html.Screen,0_4_1_0_1_37,2021-10-22T11:47:18.424Z,,,,,,,,,,,,,,,,48,,,,,,,,,,,,,,348.7460000059509,,response,,,10,B,,,,,Space,keypress(Space),,,,lyrical,-- -- --- ------ ------- --------- ----------- --------<br>--------- -------- --- ------- -- ------- ---- -- ------<br>-- --- -------- -------- ---------- ---- ---- ---- ------<br>-- --------- -- ---- -- --- -- --- ------- -- - crime<br>---------- -- -- -- ---- ----- -- ------ -- --- ------<br>-------,159365.59999999404,159364.90000000596,158999.483,159013.80000001192,159016.154,159382.85,,37,crime
screen,html.Screen,0_4_1_0_1_38,2021-10-22T11:47:18.776Z,,,,,,,,,,,,,,,,48,,,,,,,,,,,,,,333.9500000119151,,response,,,10,B,,,,,Space,keypress(Space),,,,lyrical,-- -- --- ------ ------- --------- ----------- --------<br>--------- -------- --- ------- -- ------- ---- -- ------<br>-- --- -------- -------- ---------- ---- ---- ---- ------<br>-- --------- -- ---- -- --- -- --- ------- -- - -----<br>punishable -- -- -- ---- ----- -- ------ -- --- ------<br>-------,159717.59999999404,159716.80000001192,159366.18,159365.80000001192,159382.85,159733.119,,38,punishable
screen,html.Screen,0_4_1_0_1_39,2021-10-22T11:47:19.256Z,,,,,,,,,,,,,,,,48,,,,,,,,,,,,,,463.6810000119149,,response,,,10,B,,,,,Space,keypress(Space),,,,lyrical,-- -- --- ------ ------- --------- ----------- --------<br>--------- -------- --- ------- -- ------- ---- -- ------<br>-- --- -------- -------- ---------- ---- ---- ---- ------<br>-- --------- -- ---- -- --- -- --- ------- -- - -----<br>---------- by -- -- ---- ----- -- ------ -- --- ------<br>-------,160197.59999999404,160196.80000001192,159716.446,159717.80000001192,159733.119,160199.849,,39,by
screen,html.Screen,0_4_1_0_1_40,2021-10-22T11:47:19.576Z,,,,,,,,,,,,,,,,48,,,,,,,,,,,,,,316.9510000119335,,response,,,10,B,,,,,Space,keypress(Space),,,,lyrical,-- -- --- ------ ------- --------- ----------- --------<br>--------- -------- --- ------- -- ------- ---- -- ------<br>-- --- -------- -------- ---------- ---- ---- ---- ------<br>-- --------- -- ---- -- --- -- --- ------- -- - -----<br>---------- -- up -- ---- ----- -- ------ -- --- ------<br>-------,160517.59999999404,160516.80000001192,160183.178,160197.80000001192,160199.849,160533.283,,40,up
screen,html.Screen,0_4_1_0_1_41,2021-10-22T11:47:20.080Z,,,,,,,,,,,,,,,,48,,,,,,,,,,,,,,487.4170000178856,,response,,,10,B,,,,,Space,keypress(Space),,,,lyrical,-- -- --- ------ ------- --------- ----------- --------<br>--------- -------- --- ------- -- ------- ---- -- ------<br>-- --- -------- -------- ---------- ---- ---- ---- ------<br>-- --------- -- ---- -- --- -- --- ------- -- - -----<br>---------- -- -- to ---- ----- -- ------ -- --- ------<br>-------,161021.59999999404,161020.70000001788,160516.612,160517.80000001192,160533.283,161033.428,,41,to
screen,html.Screen,0_4_1_0_1_42,2021-10-22T11:47:20.328Z,,,,,,,,,,,,,,,,48,,,,,,,,,,,,,,235.27200001786696,,response,,,10,B,,,,,Space,keypress(Space),,,,lyrical,-- -- --- ------ ------- --------- ----------- --------<br>--------- -------- --- ------- -- ------- ---- -- ------<br>-- --- -------- -------- ---------- ---- ---- ---- ------<br>-- --------- -- ---- -- --- -- --- ------- -- - -----<br>---------- -- -- -- five ----- -- ------ -- --- ------<br>-------,161269.40000000596,161268.70000001788,161016.757,161021.80000001192,161033.428,161283.525,,42,five
screen,html.Screen,0_4_1_0_1_43,2021-10-22T11:47:20.624Z,,,,,,,,,,,,,,,,48,,,,,,,,,,,,,,281.27500001192675,,response,,,10,B,,,,,Space,keypress(Space),,,,lyrical,-- -- --- ------ ------- --------- ----------- --------<br>--------- -------- --- ------- -- ------- ---- -- ------<br>-- --- -------- -------- ---------- ---- ---- ---- ------<br>-- --------- -- ---- -- --- -- --- ------- -- - -----<br>---------- -- -- -- ---- years -- ------ -- --- ------<br>-------,161565.59999999404,161564.80000001192,161266.854,161269.59999999404,161283.525,161566.934,,43,years
screen,html.Screen,0_4_1_0_1_44,2021-10-22T11:47:20.856Z,,,,,,,,,,,,,,,,48,,,,,,,,,,,,,,229.766000017873,,response,,,10,B,,,,,Space,keypress(Space),,,,lyrical,-- -- --- ------ ------- --------- ----------- --------<br>--------- -------- --- ------- -- ------- ---- -- ------<br>-- --- -------- -------- ---------- ---- ---- ---- ------<br>-- --------- -- ---- -- --- -- --- ------- -- - -----<br>---------- -- -- -- ---- ----- in ------ -- --- ------<br>-------,161797.59999999404,161796.70000001788,161550.263,161565.80000001192,161566.934,161800.351,,44,in
screen,html.Screen,0_4_1_0_1_45,2021-10-22T11:47:21.112Z,,,,,,,,,,,,,,,,48,,,,,,,,,,,,,,252.34900001788628,,response,,,10,B,,,,,Space,keypress(Space),,,,lyrical,-- -- --- ------ ------- --------- ----------- --------<br>--------- -------- --- ------- -- ------- ---- -- ------<br>-- --- -------- -------- ---------- ---- ---- ---- ------<br>-- --------- -- ---- -- --- -- --- ------- -- - -----<br>---------- -- -- -- ---- ----- -- prison -- --- ------<br>-------,162053.59999999404,162052.70000001788,161783.68,161797.80000001192,161800.351,162067.099,,45,prison
screen,html.Screen,0_4_1_0_1_46,2021-10-22T11:47:21.312Z,,,,,,,,,,,,,,,,48,,,,,,,,,,,,,,185.7010000119335,,response,,,10,B,,,,,Space,keypress(Space),,,,lyrical,-- -- --- ------ ------- --------- ----------- --------<br>--------- -------- --- ------- -- ------- ---- -- ------<br>-- --- -------- -------- ---------- ---- ---- ---- ------<br>-- --------- -- ---- -- --- -- --- ------- -- - -----<br>---------- -- -- -- ---- ----- -- ------ in --- ------<br>-------,162253.5,162252.80000001192,162050.428,162053.80000001192,162067.099,162267.122,,46,in
screen,html.Screen,0_4_1_0_1_47,2021-10-22T11:47:21.608Z,,,,,,,,,,,,,,,,48,,,,,,,,,,,,,,281.4779999940365,,response,,,10,B,,,,,Space,keypress(Space),,,,lyrical,-- -- --- ------ ------- --------- ----------- --------<br>--------- -------- --- ------- -- ------- ---- -- ------<br>-- --- -------- -------- ---------- ---- ---- ---- ------<br>-- --------- -- ---- -- --- -- --- ------- -- - -----<br>---------- -- -- -- ---- ----- -- ------ -- the ------<br>-------,162549.40000000596,162548.59999999404,162250.452,162255.20000001788,162267.122,162567.24,,47,the
screen,html.Screen,0_4_1_0_1_48,2021-10-22T11:47:21.856Z,,,,,,,,,,,,,,,,48,,,,,,,,,,,,,,229.56000001193024,,response,,,10,B,,,,,Space,keypress(Space),,,,lyrical,-- -- --- ------ ------- --------- ----------- --------<br>--------- -------- --- ------- -- ------- ---- -- ------<br>-- --- -------- -------- ---------- ---- ---- ---- ------<br>-- --------- -- ---- -- --- -- --- ------- -- - -----<br>---------- -- -- -- ---- ----- -- ------ -- --- United<br>-------,162797.59999999404,162796.80000001192,162550.569,162549.70000001788,162567.24,162800.644,,48,United
screen,html.Screen,0_4_1_0_1_49,2021-10-22T11:47:22.136Z,,,,,,,,,,,,,,,,48,,,,,,,,,,,,,,276.1560000119207,,response,,,10,B,,,,,Space,keypress(Space),,,,lyrical,-- -- --- ------ ------- --------- ----------- --------<br>--------- -------- --- ------- -- ------- ---- -- ------<br>-- --- -------- -------- ---------- ---- ---- ---- ------<br>-- --------- -- ---- -- --- -- --- ------- -- - -----<br>---------- -- -- -- ---- ----- -- ------ -- --- ------<br>States.,163077.5,163076.80000001192,162783.973,162797.80000001192,162800.644,163084.051,,49,States.
Item 10,flow.Loop,0_4_1_0_1,2021-10-22T11:47:22.137Z,,,,,,,,,,,,,,,,,,,,,,,,,,,,,,19581.995000011928,,completion,,,,,,,,,,,,,,,,163077.90000000596,163076.80000001192,143478.134,143479.70000001788,143494.805,163084.051,,,
Question 1,html.Screen,0_4_1_0_2,2021-10-22T11:47:24.553Z,,,,,,,,,,,,,,,,,,,,,,,,,,,true,TRUE,,2408.548999994033,,response,,,10,B,,,,,TRUE,click #choice-1,,,,lyrical,,165493.80000001192,165492.59999999404,163067.38,163078.09999999404,163084.051,165501.392,,,
Question 2,html.Screen,0_4_1_0_3,2021-10-22T11:47:28.832Z,,,,,,,,,,,,,,,,,,,,,,,,,,,true,TRUE,,4271.108000000007,,response,,,10,B,,,,,TRUE,click #choice-1,,,,lyrical,,169773.59999999404,169772.5,165484.721,165494,165501.392,169786.065,,,
Item 10,flow.Sequence,0_4_1_0,2021-10-22T11:47:28.833Z,,,,,,,,,,,,,,,,,,,,,,,,,,,,,,33280.09700000001,,completion,,,,,,,,,,,,,,,,169774,169772.5,136475.732,136477.80000001192,136492.403,169786.065,,,
Holding screen,html.Screen,0_4_1_1_0,2021-10-22T11:47:35.832Z,,,,,,,,,,,,,,,,,,,,,,,,,,,,,,7002.046999999991,,timeout,,,,,,,,,,,,,,,,176773.20000001788,176771.441,169769.394,169774.20000001788,169786.065,176788.112,,,
screen,html.Screen,0_4_1_1_1_0,2021-10-22T11:47:37.065Z,,,,,,,,,,,,,,,,11,,,,,,,,,,,,,,1216.7880000059668,,response,,,4,B,,,,,Space,keypress(Space),,,,lyrical,Known -- ---- --- -- --- -------- ------------ ---------- --<br>- ------- ------ --------- -- ------------ -- --- ---- -----<br>------ ---- ---- ------ ------ ------- --- ----- ---------<br>---- --- -------- -------- --- --- -- ------- --- --- -----<br>-- --- ------ ------- --- --- -------- ---- --------- --<br>---------- -- -------- ----------------,178005.90000000596,178004.90000000596,176771.441,176773.70000001788,176788.112,178021.646,,0,Known
screen,html.Screen,0_4_1_1_1_1,2021-10-22T11:47:37.368Z,,,,,,,,,,,,,,,,11,,,,,,,,,,,,,,286.8539999999921,,response,,,4,B,,,,,Space,keypress(Space),,,,lyrical,----- as ---- --- -- --- -------- ------------ ---------- --<br>- ------- ------ --------- -- ------------ -- --- ---- -----<br>------ ---- ---- ------ ------ ------- --- ----- ---------<br>---- --- -------- -------- --- --- -- ------- --- --- -----<br>-- --- ------ ------- --- --- -------- ---- --------- --<br>---------- -- -------- ----------------,178309.40000000596,178308.5,178004.976,178006.30000001192,178021.646,178321.9,,1,as
screen,html.Screen,0_4_1_1_1_2,2021-10-22T11:47:37.616Z,,,,,,,,,,,,,,,,11,,,,,,,,,,,,,,234.69999999404536,,response,,,4,B,,,,,Space,keypress(Space),,,,lyrical,----- -- Rapa --- -- --- -------- ------------ ---------- --<br>- ------- ------ --------- -- ------------ -- --- ---- -----<br>------ ---- ---- ------ ------ ------- --- ----- ---------<br>---- --- -------- -------- --- --- -- ------- --- --- -----<br>-- --- ------ ------- --- --- -------- ---- --------- --<br>---------- -- -------- ----------------,178557.40000000596,178556.59999999404,178305.229,178309.70000001788,178321.9,178571.992,,2,Rapa
screen,html.Screen,0_4_1_1_1_3,2021-10-22T11:47:38.376Z,,,,,,,,,,,,,,,,11,,,,,,,,,,,,,,744.5080000000016,,response,,,4,B,,,,,Space,keypress(Space),,,,lyrical,----- -- ---- Nui -- --- -------- ------------ ---------- --<br>- ------- ------ --------- -- ------------ -- --- ---- -----<br>------ ---- ---- ------ ------ ------- --- ----- ---------<br>---- --- -------- -------- --- --- -- ------- --- --- -----<br>-- --- ------ ------- --- --- -------- ---- --------- --<br>---------- -- -------- ----------------,179317.30000001192,179316.5,178555.321,178557.80000001192,178571.992,179322.364,,3,Nui
