sender,sender_type,sender_id,timestamp,meta,,Blues,Classical,Country,Dance,Electronic,Folk,Gospel,Hip-Hop,Jazz,Latin,Musical/Film,New-age,Pop,Provo_ID,R&B,Rap,Reggae,Religious,Rock,Soul,Swing,Traditional,age,artist_name,correct,correctResponse,distraction,duration,education,ended_on,familiarity,gender,item,list,music_frequency,offensiveness,pleasantness,preference,response,response_action,snippet_file,song_name,song_rating,sound,text,time_commit,time_end,time_render,time_run,time_show,time_switch,url,word,word_ID
Instructions,html.Page,0_0,2021-11-19T09:53:35.919Z,"{""labjs_version"":""20.2.3"",""labjs_build"":{""flavor"":""production"",""commit"":""7ea907d66ca8aeef8054924ca5d82ffbe11e34e5""},""location"":""https://run.pavlovia.org/mvasilev/lab_music_d/"",""userAgent"":""Mozilla/5.0 (Windows NT 6.1; Win64; x64) AppleWebKit/537.36 (KHTML, like Gecko) Chrome/96.0.4664.45 Safari/537.36"",""platform"":""Win32"",""language"":""en-US"",""locale"":""en-US"",""timeZone"":""Europe/London"",""timezoneOffset"":0,""screen_width"":1920,""screen_height"":1080,""scroll_width"":1920,""scroll_height"":959,""window_innerWidth"":1920,""window_innerHeight"":1007,""devicePixelRatio"":1}",,,,,,,,,,,,,,,,,,,,,,,,,,,,,17085.777999952315,,form submission,,,,,,,,,,,,,,,,30851,30849.799999952316,13747.359,13750.900000095367,13764.022,30850.503,{},,
Headphones,html.Page,0_1,2021-11-19T09:53:38.681Z,,,,,,,,,,,,,,,,,,,,,,,,,,,,,,2761.897000095367,,form submission,,,,,,,,,,,,,,,,33612.90000009537,33612.40000009537,30833.77,30851.700000047684,30850.503,33620.671,,,
Holding screen,html.Screen,0_2_0_0,2021-11-19T09:53:48.682Z,,,,,,,,,,,,,,,,,,,,,,,,,,,,,,10019.962,,timeout,,,,,,,,,,,,,,,,43613.700000047684,43607.291,33604.001,33613.40000009537,33620.671,43640.633,,,
screen,html.Screen,0_2_0_1_0,2021-11-19T09:53:49.665Z,,,,,,,,,,,,,,,,53,,,,,,,,,,,,,,954.6669999523147,,response,,,99,,,,,,Space,keypress(Space),,,,,When -- ----- -- ------ - ------- --- ----------<br>------------- ------ ------ ---- ---- ------- ----- -- ----<br>-------- ------- -- ---------- --- - --- ----- ----- ----<br>---- --- --- ----- --- ---- ---- ------- ----- ---- -------<br>--- --- -- ----- -- --- ---- -- --- ---- -- ------ ------<br>--- ----- -- ----,44596.799999952316,44595.299999952316,43607.291,43614.200000047684,43640.633,44607.43,,0,When
screen,html.Screen,0_2_0_1_1,2021-11-19T09:53:50.184Z,,,,,,,,,,,,,,,,53,,,,,,,,,,,,,,507.2700000476834,,response,,,99,,,,,,Space,keypress(Space),,,,,---- it ----- -- ------ - ------- --- ----------<br>------------- ------ ------ ---- ---- ------- ----- -- ----<br>-------- ------- -- ---------- --- - --- ----- ----- ----<br>---- --- --- ----- --- ---- ---- ------- ----- ---- -------<br>--- --- -- ----- -- --- ---- -- --- ---- -- ------ ------<br>--- ----- -- ----,45115.60000014305,45114.700000047684,44590.76,44597.10000014305,44607.43,45124.424,,1,it
screen,html.Screen,0_2_0_1_2,2021-11-19T09:53:50.648Z,,,,,,,,,,,,,,,,53,,,,,,,,,,,,,,454.3759999523172,,response,,,99,,,,,,Space,keypress(Space),,,,,---- -- comes -- ------ - ------- --- ----------<br>------------- ------ ------ ---- ---- ------- ----- -- ----<br>-------- ------- -- ---------- --- - --- ----- ----- ----<br>---- --- --- ----- --- ---- ---- ------- ----- ---- -------<br>--- --- -- ----- -- --- ---- -- --- ---- -- ------ ------<br>--- ----- -- ----,45579.700000047684,45578.799999952316,45107.753,45115.799999952316,45124.424,45591.178,,2,comes
screen,html.Screen,0_2_0_1_3,2021-11-19T09:53:51.080Z,,,,,,,,,,,,,,,,53,,,,,,,,,,,,,,419.52200004768383,,response,,,99,,,,,,Space,keypress(Space),,,,,---- -- ----- to ------ - ------- --- ----------<br>------------- ------ ------ ---- ---- ------- ----- -- ----<br>-------- ------- -- ---------- --- - --- ----- ----- ----<br>---- --- --- ----- --- ---- ---- ------- ----- ---- -------<br>--- --- -- ----- -- --- ---- -- --- ---- -- ------ ------<br>--- ----- -- ----,46011.700000047684,46010.700000047684,45574.507,45579.90000009537,45591.178,46024.44,,3,to
screen,html.Screen,0_2_0_1_4,2021-11-19T09:53:51.568Z,,,,,,,,,,,,,,,,53,,,,,,,,,,,,,,474.2600000476814,,response,,,99,,,,,,Space,keypress(Space),,,,,---- -- ----- -- having - ------- --- ----------<br>------------- ------ ------ ---- ---- ------- ----- -- ----<br>-------- ------- -- ---------- --- - --- ----- ----- ----<br>---- --- --- ----- --- ---- ---- ------- ----- ---- -------<br>--- --- -- ----- -- --- ---- -- --- ---- -- ------ ------<br>--- ----- -- ----,46499.90000009537,46498.700000047684,46007.772,46012.200000047684,46024.44,46508.207,,4,having
screen,html.Screen,0_2_0_1_5,2021-11-19T09:53:51.968Z,,,,,,,,,,,,,,,,53,,,,,,,,,,,,,,390.49300004768156,,response,,,99,,,,,,Space,keypress(Space),,,,,---- -- ----- -- ------ a ------- --- ----------<br>------------- ------ ------ ---- ---- ------- ----- -- ----<br>-------- ------- -- ---------- --- - --- ----- ----- ----<br>---- --- --- ----- --- ---- ---- ------- ----- ---- -------<br>--- --- -- ----- -- --- ---- -- --- ---- -- ------ ------<br>--- ----- -- ----,46899.700000047684,46898.700000047684,46491.534,46500.299999952316,46508.207,46908.206,,5,a
screen,html.Screen,0_2_0_1_6,2021-11-19T09:53:52.496Z,,,,,,,,,,,,,,,,53,,,,,,,,,,,,,,518.593999952318,,response,,,99,,,,,,Space,keypress(Space),,,,,---- -- ----- -- ------ - lasting --- ----------<br>------------- ------ ------ ---- ---- ------- ----- -- ----<br>-------- ------- -- ---------- --- - --- ----- ----- ----<br>---- --- --- ----- --- ---- ---- ------- ----- ---- -------<br>--- --- -- ----- -- --- ---- -- --- ---- -- ------ ------<br>--- ----- -- ----,47427.700000047684,47426.799999952316,46891.535,46900.10000014305,46908.206,47441.681,,6,lasting
screen,html.Screen,0_2_0_1_7,2021-11-19T09:53:52.856Z,,,,,,,,,,,,,,,,53,,,,,,,,,,,,,,345.01900004768686,,response,,,99,,,,,,Space,keypress(Space),,,,,---- -- ----- -- ------ - ------- and ----------<br>------------- ------ ------ ---- ---- ------- ----- -- ----<br>-------- ------- -- ---------- --- - --- ----- ----- ----<br>---- --- --- ----- --- ---- ---- ------- ----- ---- -------<br>--- --- -- ----- -- --- ---- -- --- ---- -- ------ ------<br>--- ----- -- ----,47787.700000047684,47786.700000047684,47425.01,47428,47441.681,47791.776,,7,and
screen,html.Screen,0_2_0_1_8,2021-11-19T09:53:53.304Z,,,,,,,,,,,,,,,,53,,,,,,,,,,,,,,442.9240000476857,,response,,,99,,,,,,Space,keypress(Space),,,,,---- -- ----- -- ------ - ------- --- fulfilling<br>------------- ------ ------ ---- ---- ------- ----- -- ----<br>-------- ------- -- ---------- --- - --- ----- ----- ----<br>---- --- --- ----- --- ---- ---- ------- ----- ---- -------<br>--- --- -- ----- -- --- ---- -- --- ---- -- ------ ------<br>--- ----- -- ----,48235.700000047684,48234.700000047684,47775.105,47788,47791.776,48241.772,,8,fulfilling
screen,html.Screen,0_2_0_1_9,2021-11-19T09:53:54.096Z,,,,,,,,,,,,,,,,53,,,,,,,,,,,,,,784.8280001430539,,response,,,99,,,,,,Space,keypress(Space),,,,,"---- -- ----- -- ------ - ------- --- ----------<br>relationship, ------ ------ ---- ---- ------- ----- -- ----<br>-------- ------- -- ---------- --- - --- ----- ----- ----<br>---- --- --- ----- --- ---- ---- ------- ----- ---- -------<br>--- --- -- ----- -- --- ---- -- --- ---- -- ------ ------<br>--- ----- -- ----",49027.799999952316,49026.60000014305,48225.103,48236,48241.772,49042.273,,9,"relationship,"
screen,html.Screen,0_2_0_1_10,2021-11-19T09:53:54.864Z,,,,,,,,,,,,,,,,53,,,,,,,,,,,,,,752.4270000476827,,response,,,99,,,,,,Space,keypress(Space),,,,,---- -- ----- -- ------ - ------- --- ----------<br>------------- common ------ ---- ---- ------- ----- -- ----<br>-------- ------- -- ---------- --- - --- ----- ----- ----<br>---- --- --- ----- --- ---- ---- ------- ----- ---- -------<br>--- --- -- ----- -- --- ---- -- --- ---- -- ------ ------<br>--- ----- -- ----,49795.5,49794.700000047684,49025.6,49027.90000009537,49042.273,49808.904,,10,common
screen,html.Screen,0_2_0_1_11,2021-11-19T09:53:55.240Z,,,,,,,,,,,,,,,,53,,,,,,,,,,,,,,361.6960001430489,,response,,,99,,,,,,Space,keypress(Space),,,,,---- -- ----- -- ------ - ------- --- ----------<br>------------- ------ wisdom ---- ---- ------- ----- -- ----<br>-------- ------- -- ---------- --- - --- ----- ----- ----<br>---- --- --- ----- --- ---- ---- ------- ----- ---- -------<br>--- --- -- ----- -- --- ---- -- --- ---- -- ------ ------<br>--- ----- -- ----,50171.5,50170.60000014305,49792.234,49795.799999952316,49808.904,50175.749,,11,wisdom
screen,html.Screen,0_2_0_1_12,2021-11-19T09:53:55.648Z,,,,,,,,,,,,,,,,53,,,,,,,,,,,,,,402.8510001430477,,response,,,99,,,,,,Space,keypress(Space),,,,,---- -- ----- -- ------ - ------- --- ----------<br>------------- ------ ------ says ---- ------- ----- -- ----<br>-------- ------- -- ---------- --- - --- ----- ----- ----<br>---- --- --- ----- --- ---- ---- ------- ----- ---- -------<br>--- --- -- ----- -- --- ---- -- --- ---- -- ------ ------<br>--- ----- -- ----,50579.40000009537,50578.60000014305,50159.078,50171.700000047684,50175.749,50592.464,,12,says
screen,html.Screen,0_2_0_1_13,2021-11-19T09:53:56.536Z,,,,,,,,,,,,,,,,53,,,,,,,,,,,,,,873.9360000953675,,response,,,99,,,,,,Space,keypress(Space),,,,,---- -- ----- -- ------ - ------- --- ----------<br>------------- ------ ------ ---- that ------- ----- -- ----<br>-------- ------- -- ---------- --- - --- ----- ----- ----<br>---- --- --- ----- --- ---- ---- ------- ----- ---- -------<br>--- --- -- ----- -- --- ---- -- --- ---- -- ------ ------<br>--- ----- -- ----,51467.299999952316,51466.40000009537,50575.794,50579.700000047684,50592.464,51476.176,,13,that
screen,html.Screen,0_2_0_1_14,2021-11-19T09:53:57.048Z,,,,,,,,,,,,,,,,53,,,,,,,,,,,,,,502.3240000000005,,response,,,99,,,,,,Space,keypress(Space),,,,,---- -- ----- -- ------ - ------- --- ----------<br>------------- ------ ------ ---- ---- feeling ----- -- ----<br>-------- ------- -- ---------- --- - --- ----- ----- ----<br>---- --- --- ----- --- ---- ---- ------- ----- ---- -------<br>--- --- -- ----- -- --- ---- -- --- ---- -- ------ ------<br>--- ----- -- ----,51979.299999952316,51978.5,51459.504,51467.60000014305,51476.176,51992.904,,14,feeling
screen,html.Screen,0_2_0_1_15,2021-11-19T09:53:57.696Z,,,,,,,,,,,,,,,,53,,,,,,,,,,,,,,633.5959999999977,,response,,,99,,,,,,Space,keypress(Space),,,,,---- -- ----- -- ------ - ------- --- ----------<br>------------- ------ ------ ---- ---- ------- close -- ----<br>-------- ------- -- ---------- --- - --- ----- ----- ----<br>---- --- --- ----- --- ---- ---- ------- ----- ---- -------<br>--- --- -- ----- -- --- ---- -- --- ---- -- ------ ------<br>--- ----- -- ----,52627.299999952316,52626.5,51976.233,51979.60000014305,51992.904,52643.087,,15,close
screen,html.Screen,0_2_0_1_16,2021-11-19T09:53:58.096Z,,,,,,,,,,,,,,,,53,,,,,,,,,,,,,,383.41300000000047,,response,,,99,,,,,,Space,keypress(Space),,,,,---- -- ----- -- ------ - ------- --- ----------<br>------------- ------ ------ ---- ---- ------- ----- to ----<br>-------- ------- -- ---------- --- - --- ----- ----- ----<br>---- --- --- ----- --- ---- ---- ------- ----- ---- -------<br>--- --- -- ----- -- --- ---- -- --- ---- -- ------ ------<br>--- ----- -- ----,53027.299999952316,53026.5,52626.416,52627.60000014305,52643.087,53043.199,,16,to
screen,html.Screen,0_2_0_1_17,2021-11-19T09:53:58.528Z,,,,,,,,,,,,,,,,53,,,,,,,,,,,,,,415.3009999999995,,response,,,99,,,,,,Space,keypress(Space),,,,,---- -- ----- -- ------ - ------- --- ----------<br>------------- ------ ------ ---- ---- ------- ----- -- your<br>-------- ------- -- ---------- --- - --- ----- ----- ----<br>---- --- --- ----- --- ---- ---- ------- ----- ---- -------<br>--- --- -- ----- -- --- ---- -- --- ---- -- ------ ------<br>--- ----- -- ----,53459.299999952316,53458.5,53026.528,53027.5,53043.199,53476.507,,17,your
screen,html.Screen,0_2_0_1_18,2021-11-19T09:53:59.255Z,,,,,,,,,,,,,,,,53,,,,,,,,,,,,,,709.7929999523185,,response,,,99,,,,,,Space,keypress(Space),,,,,---- -- ----- -- ------ - ------- --- ----------<br>------------- ------ ------ ---- ---- ------- ----- -- ----<br>romantic ------- -- ---------- --- - --- ----- ----- ----<br>---- --- --- ----- --- ---- ---- ------- ----- ---- -------<br>--- --- -- ----- -- --- ---- -- --- ---- -- ------ ------<br>--- ----- -- ----,54187.10000014305,54186.299999952316,53459.838,53459.5,53476.507,54193.582,,18,romantic
screen,html.Screen,0_2_0_1_19,2021-11-19T09:53:59.768Z,,,,,,,,,,,,,,,,53,,,,,,,,,,,,,,505.21799995231413,,response,,,99,,,,,,Space,keypress(Space),,,,,---- -- ----- -- ------ - ------- --- ----------<br>------------- ------ ------ ---- ---- ------- ----- -- ----<br>-------- partner -- ---------- --- - --- ----- ----- ----<br>---- --- --- ----- --- ---- ---- ------- ----- ---- -------<br>--- --- -- ----- -- --- ---- -- --- ---- -- ------ ------<br>--- ----- -- ----,54699.60000014305,54698.799999952316,54176.91,54187.299999952316,54193.582,54710.325,,19,partner
screen,html.Screen,0_2_0_1_20,2021-11-19T09:54:00.175Z,,,,,,,,,,,,,,,,53,,,,,,,,,,,,,,395.8750000476866,,response,,,99,,,,,,Space,keypress(Space),,,,,---- -- ----- -- ------ - ------- --- ----------<br>------------- ------ ------ ---- ---- ------- ----- -- ----<br>-------- ------- is ---------- --- - --- ----- ----- ----<br>---- --- --- ----- --- ---- ---- ------- ----- ---- -------<br>--- --- -- ----- -- --- ---- -- --- ---- -- ------ ------<br>--- ----- -- ----,55107,55106.200000047684,54693.654,54699.90000009537,54710.325,55110.383,,20,is
screen,html.Screen,0_2_0_1_21,2021-11-19T09:54:01.687Z,,,,,,,,,,,,,,,,53,,,,,,,,,,,,,,1507.9169999523147,,response,,,99,,,,,,Space,keypress(Space),,,,,---- -- ----- -- ------ - ------- --- ----------<br>------------- ------ ------ ---- ---- ------- ----- -- ----<br>-------- ------- -- paramount. --- - --- ----- ----- ----<br>---- --- --- ----- --- ---- ---- ------- ----- ---- -------<br>--- --- -- ----- -- --- ---- -- --- ---- -- ------ ------<br>--- ----- -- ----,56619.200000047684,56618.299999952316,55093.713,55107.299999952316,55110.383,56627.225,,21,paramount.
screen,html.Screen,0_2_0_1_22,2021-11-19T09:54:02.607Z,,,,,,,,,,,,,,,,53,,,,,,,,,,,,,,911.0749999523177,,response,,,99,,,,,,Space,keypress(Space),,,,,---- -- ----- -- ------ - ------- --- ----------<br>------------- ------ ------ ---- ---- ------- ----- -- ----<br>-------- ------- -- ---------- But - --- ----- ----- ----<br>---- --- --- ----- --- ---- ---- ------- ----- ---- -------<br>--- --- -- ----- -- --- ---- -- --- ---- -- ------ ------<br>--- ----- -- ----,57539.10000014305,57538.299999952316,56610.556,56619.60000014305,56627.225,57544.356,,22,But
screen,html.Screen,0_2_0_1_23,2021-11-19T09:54:03.031Z,,,,,,,,,,,,,,,,53,,,,,,,,,,,,,,417.9439999523165,,response,,,99,,,,,,Space,keypress(Space),,,,,---- -- ----- -- ------ - ------- --- ----------<br>------------- ------ ------ ---- ---- ------- ----- -- ----<br>-------- ------- -- ---------- --- a --- ----- ----- ----<br>---- --- --- ----- --- ---- ---- ------- ----- ---- -------<br>--- --- -- ----- -- --- ---- -- --- ---- -- ------ ------<br>--- ----- -- ----,57963.10000014305,57962.299999952316,57527.685,57539.40000009537,57544.356,57977.809,,23,a
screen,html.Screen,0_2_0_1_24,2021-11-19T09:54:03.495Z,,,,,,,,,,,,,,,,53,,,,,,,,,,,,,,448.4909999523152,,response,,,99,,,,,,Space,keypress(Space),,,,,---- -- ----- -- ------ - ------- --- ----------<br>------------- ------ ------ ---- ---- ------- ----- -- ----<br>-------- ------- -- ---------- --- - new ----- ----- ----<br>---- --- --- ----- --- ---- ---- ------- ----- ---- -------<br>--- --- -- ----- -- --- ---- -- --- ---- -- ------ ------<br>--- ----- -- ----,58427,58426.299999952316,57961.138,57963.5,57977.809,58427.89,,24,new
screen,html.Screen,0_2_0_1_25,2021-11-19T09:54:03.903Z,,,,,,,,,,,,,,,,53,,,,,,,,,,,,,,406.40999995231687,,response,,,99,,,,,,Space,keypress(Space),,,,,---- -- ----- -- ------ - ------- --- ----------<br>------------- ------ ------ ---- ---- ------- ----- -- ----<br>-------- ------- -- ---------- --- - --- study ----- ----<br>---- --- --- ----- --- ---- ---- ------- ----- ---- -------<br>--- --- -- ----- -- --- ---- -- --- ---- -- ------ ------<br>--- ----- -- ----,58835.10000014305,58834.299999952316,58411.22,58427.299999952316,58427.89,58844.819,,25,study
screen,html.Screen,0_2_0_1_26,2021-11-19T09:54:04.343Z,,,,,,,,,,,,,,,,53,,,,,,,,,,,,,,429.3810000476806,,response,,,99,,,,,,Space,keypress(Space),,,,,---- -- ----- -- ------ - ------- --- ----------<br>------------- ------ ------ ---- ---- ------- ----- -- ----<br>-------- ------- -- ---------- --- - --- ----- finds ----<br>---- --- --- ----- --- ---- ---- ------- ----- ---- -------<br>--- --- -- ----- -- --- ---- -- --- ---- -- ------ ------<br>--- ----- -- ----,59275,59274.200000047684,58828.147,58835.5,58844.819,59278.161,,26,finds
screen,html.Screen,0_2_0_1_27,2021-11-19T09:54:04.839Z,,,,,,,,,,,,,,,,53,,,,,,,,,,,,,,492.03900004768366,,response,,,99,,,,,,Space,keypress(Space),,,,,---- -- ----- -- ------ - ------- --- ----------<br>------------- ------ ------ ---- ---- ------- ----- -- ----<br>-------- ------- -- ---------- --- - --- ----- ----- that<br>---- --- --- ----- --- ---- ---- ------- ----- ---- -------<br>--- --- -- ----- -- --- ---- -- --- ---- -- ------ ------<br>--- ----- -- ----,59771,59770.200000047684,59261.491,59275.299999952316,59278.161,59778.356,,27,that
screen,html.Screen,0_2_0_1_28,2021-11-19T09:54:05.298Z,,,,,,,,,,,,,,,,53,,,,,,,,,,,,,,447.7440001430514,,response,,,99,,,,,,Space,keypress(Space),,,,,---- -- ----- -- ------ - ------- --- ----------<br>------------- ------ ------ ---- ---- ------- ----- -- ----<br>-------- ------- -- ---------- --- - --- ----- ----- ----<br>it's --- --- ----- --- ---- ---- ------- ----- ---- -------<br>--- --- -- ----- -- --- ---- -- --- ---- -- ------ ------<br>--- ----- -- ----,60227.10000014305,60226.10000014305,59761.685,59771.299999952316,59778.356,60228.422,,28,it's
screen,html.Screen,0_2_0_1_29,2021-11-19T09:54:05.698Z,,,,,,,,,,,,,,,,53,,,,,,,,,,,,,,397.77800004768505,,response,,,99,,,,,,Space,keypress(Space),,,,,---- -- ----- -- ------ - ------- --- ----------<br>------------- ------ ------ ---- ---- ------- ----- -- ----<br>-------- ------- -- ---------- --- - --- ----- ----- ----<br>---- not --- ----- --- ---- ---- ------- ----- ---- -------<br>--- --- -- ----- -- --- ---- -- --- ---- -- ------ ------<br>--- ----- -- ----,60627,60626.200000047684,60211.752,60227.5,60228.422,60628.584,,29,not
screen,html.Screen,0_2_0_1_30,2021-11-19T09:54:06.098Z,,,,,,,,,,,,,,,,53,,,,,,,,,,,,,,397.61600004768115,,response,,,99,,,,,,Space,keypress(Space),,,,,---- -- ----- -- ------ - ------- --- ----------<br>------------- ------ ------ ---- ---- ------- ----- -- ----<br>-------- ------- -- ---------- --- - --- ----- ----- ----<br>---- --- how ----- --- ---- ---- ------- ----- ---- -------<br>--- --- -- ----- -- --- ---- -- --- ---- -- ------ ------<br>--- ----- -- ----,61027,61026.200000047684,60611.913,60627.40000009537,60628.584,61028.549,,30,how
screen,html.Screen,0_2_0_1_31,2021-11-19T09:54:06.490Z,,,,,,,,,,,,,,,,53,,,,,,,,,,,,,,389.5510001430521,,response,,,99,,,,,,Space,keypress(Space),,,,,---- -- ----- -- ------ - ------- --- ----------<br>------------- ------ ------ ---- ---- ------- ----- -- ----<br>-------- ------- -- ---------- --- - --- ----- ----- ----<br>---- --- --- close --- ---- ---- ------- ----- ---- -------<br>--- --- -- ----- -- --- ---- -- --- ---- -- ------ ------<br>--- ----- -- ----,61419.10000014305,61418.10000014305,61011.88,61027.200000047684,61028.549,61428.773,,31,close
screen,html.Screen,0_2_0_1_32,2021-11-19T09:54:06.922Z,,,,,,,,,,,,,,,,53,,,,,,,,,,,,,,421.22699999999895,,response,,,99,,,,,,Space,keypress(Space),,,,,---- -- ----- -- ------ - ------- --- ----------<br>------------- ------ ------ ---- ---- ------- ----- -- ----<br>-------- ------- -- ---------- --- - --- ----- ----- ----<br>---- --- --- ----- you ---- ---- ------- ----- ---- -------<br>--- --- -- ----- -- --- ---- -- --- ---- -- ------ ------<br>--- ----- -- ----,61851.10000014305,61850,61412.102,61419.40000009537,61428.773,61862.24,,32,you
screen,html.Screen,0_2_0_1_33,2021-11-19T09:54:07.386Z,,,,,,,,,,,,,,,,53,,,,,,,,,,,,,,451.76000000000204,,response,,,99,,,,,,Space,keypress(Space),,,,,---- -- ----- -- ------ - ------- --- ----------<br>------------- ------ ------ ---- ---- ------- ----- -- ----<br>-------- ------- -- ---------- --- - --- ----- ----- ----<br>---- --- --- ----- --- feel ---- ------- ----- ---- -------<br>--- --- -- ----- -- --- ---- -- --- ---- -- ------ ------<br>--- ----- -- ----,62314.90000009537,62314,61845.569,61851.299999952316,61862.24,62329.017,,33,feel
screen,html.Screen,0_2_0_1_34,2021-11-19T09:54:07.770Z,,,,,,,,,,,,,,,,53,,,,,,,,,,,,,,369.0830001430513,,response,,,99,,,,,,Space,keypress(Space),,,,,---- -- ----- -- ------ - ------- --- ----------<br>------------- ------ ------ ---- ---- ------- ----- -- ----<br>-------- ------- -- ---------- --- - --- ----- ----- ----<br>---- --- --- ----- --- ---- that ------- ----- ---- -------<br>--- --- -- ----- -- --- ---- -- --- ---- -- ------ ------<br>--- ----- -- ----,62698.799999952316,62698.10000014305,62312.346,62315.200000047684,62329.017,62712.418,,34,that
screen,html.Screen,0_2_0_1_35,2021-11-19T09:54:08.210Z,,,,,,,,,,,,,,,,53,,,,,,,,,,,,,,425.6820001430533,,response,,,99,,,,,,Space,keypress(Space),,,,,---- -- ----- -- ------ - ------- --- ----------<br>------------- ------ ------ ---- ---- ------- ----- -- ----<br>-------- ------- -- ---------- --- - --- ----- ----- ----<br>---- --- --- ----- --- ---- ---- matters ----- ---- -------<br>--- --- -- ----- -- --- ---- -- --- ---- -- ------ ------<br>--- ----- -- ----,63138.90000009537,63138.10000014305,62695.748,62699.10000014305,62712.418,63145.927,,35,matters
screen,html.Screen,0_2_0_1_36,2021-11-19T09:54:08.930Z,,,,,,,,,,,,,,,,53,,,,,,,,,,,,,,712.0729999999967,,response,,,99,,,,,,Space,keypress(Space),,,,,"---- -- ----- -- ------ - ------- --- ----------<br>------------- ------ ------ ---- ---- ------- ----- -- ----<br>-------- ------- -- ---------- --- - --- ----- ----- ----<br>---- --- --- ----- --- ---- ---- ------- most, ---- -------<br>--- --- -- ----- -- --- ---- -- --- ---- -- ------ ------<br>--- ----- -- ----",63859,63858,63129.256,63139,63145.927,63862.694,,36,"most,"
screen,html.Screen,0_2_0_1_37,2021-11-19T09:54:09.425Z,,,,,,,,,,,,,,,,53,,,,,,,,,,,,,,491.30599999999686,,response,,,99,,,,,,Space,keypress(Space),,,,,---- -- ----- -- ------ - ------- --- ----------<br>------------- ------ ------ ---- ---- ------- ----- -- ----<br>-------- ------- -- ---------- --- - --- ----- ----- ----<br>---- --- --- ----- --- ---- ---- ------- ----- it's -------<br>--- --- -- ----- -- --- ---- -- --- ---- -- ------ ------<br>--- ----- -- ----,64354.799999952316,64354,63846.024,63859.200000047684,63862.694,64362.903,,37,it's
screen,html.Screen,0_2_0_1_38,2021-11-19T09:54:09.890Z,,,,,,,,,,,,,,,,53,,,,,,,,,,,,,,455.497000095369,,response,,,99,,,,,,Space,keypress(Space),,,,,---- -- ----- -- ------ - ------- --- ----------<br>------------- ------ ------ ---- ---- ------- ----- -- ----<br>-------- ------- -- ---------- --- - --- ----- ----- ----<br>---- --- --- ----- --- ---- ---- ------- ----- ---- whether<br>--- --- -- ----- -- --- ---- -- --- ---- -- ------ ------<br>--- ----- -- ----,64819.200000047684,64818.40000009537,64346.232,64355,64362.903,64829.692,,38,whether
screen,html.Screen,0_2_0_1_39,2021-11-19T09:54:10.345Z,,,,,,,,,,,,,,,,53,,,,,,,,,,,,,,444.30799999999726,,response,,,99,,,,,,Space,keypress(Space),,,,,---- -- ----- -- ------ - ------- --- ----------<br>------------- ------ ------ ---- ---- ------- ----- -- ----<br>-------- ------- -- ---------- --- - --- ----- ----- ----<br>---- --- --- ----- --- ---- ---- ------- ----- ---- -------<br>you --- -- ----- -- --- ---- -- --- ---- -- ------ ------<br>--- ----- -- ----,65274.799999952316,65274,64813.021,64819.5,64829.692,65279.818,,39,you
screen,html.Screen,0_2_0_1_40,2021-11-19T09:54:10.769Z,,,,,,,,,,,,,,,,53,,,,,,,,,,,,,,418.08200009536813,,response,,,99,,,,,,Space,keypress(Space),,,,,---- -- ----- -- ------ - ------- --- ----------<br>------------- ------ ------ ---- ---- ------- ----- -- ----<br>-------- ------- -- ---------- --- - --- ----- ----- ----<br>---- --- --- ----- --- ---- ---- ------- ----- ---- -------<br>--- are -- ----- -- --- ---- -- --- ---- -- ------ ------<br>--- ----- -- ----,65698.70000004768,65697.90000009537,65263.147,65275,65279.818,65713.266,,40,are
screen,html.Screen,0_2_0_1_41,2021-11-19T09:54:11.193Z,,,,,,,,,,,,,,,,53,,,,,,,,,,,,,,408.6340000953642,,response,,,99,,,,,,Space,keypress(Space),,,,,---- -- ----- -- ------ - ------- --- ----------<br>------------- ------ ------ ---- ---- ------- ----- -- ----<br>-------- ------- -- ---------- --- - --- ----- ----- ----<br>---- --- --- ----- --- ---- ---- ------- ----- ---- -------<br>--- --- as ----- -- --- ---- -- --- ---- -- ------ ------<br>--- ----- -- ----,66122.70000004768,66121.90000009537,65696.595,65698.90000009537,65713.266,66130.005,,41,as
screen,html.Screen,0_2_0_1_42,2021-11-19T09:54:11.633Z,,,,,,,,,,,,,,,,53,,,,,,,,,,,,,,431.7949999523116,,response,,,99,,,,,,Space,keypress(Space),,,,,---- -- ----- -- ------ - ------- --- ----------<br>------------- ------ ------ ---- ---- ------- ----- -- ----<br>-------- ------- -- ---------- --- - --- ----- ----- ----<br>---- --- --- ----- --- ---- ---- ------- ----- ---- -------<br>--- --- -- close -- --- ---- -- --- ---- -- ------ ------<br>--- ----- -- ----,66562.60000014305,66561.79999995232,66113.335,66123,66130.005,66563.431,,42,close
screen,html.Screen,0_2_0_1_43,2021-11-19T09:54:11.961Z,,,,,,,,,,,,,,,,53,,,,,,,,,,,,,,326.3689999523194,,response,,,99,,,,,,Space,keypress(Space),,,,,---- -- ----- -- ------ - ------- --- ----------<br>------------- ------ ------ ---- ---- ------- ----- -- ----<br>-------- ------- -- ---------- --- - --- ----- ----- ----<br>---- --- --- ----- --- ---- ---- ------- ----- ---- -------<br>--- --- -- ----- as --- ---- -- --- ---- -- ------ ------<br>--- ----- -- ----,66890.70000004768,66889.79999995232,66546.761,66562.79999995232,66563.431,66896.922,,43,as
screen,html.Screen,0_2_0_1_44,2021-11-19T09:54:12.457Z,,,,,,,,,,,,,,,,53,,,,,,,,,,,,,,488.87799995231035,,response,,,99,,,,,,Space,keypress(Space),,,,,---- -- ----- -- ------ - ------- --- ----------<br>------------- ------ ------ ---- ---- ------- ----- -- ----<br>-------- ------- -- ---------- --- - --- ----- ----- ----<br>---- --- --- ----- --- ---- ---- ------- ----- ---- -------<br>--- --- -- ----- -- you ---- -- --- ---- -- ------ ------<br>--- ----- -- ----,67386.60000014305,67385.79999995232,66880.251,66890.79999995232,66896.922,67396.939,,44,you
screen,html.Screen,0_2_0_1_45,2021-11-19T09:54:13.081Z,,,,,,,,,,,,,,,,53,,,,,,,,,,,,,,612.961000095369,,response,,,99,,,,,,Space,keypress(Space),,,,,---- -- ----- -- ------ - ------- --- ----------<br>------------- ------ ------ ---- ---- ------- ----- -- ----<br>-------- ------- -- ---------- --- - --- ----- ----- ----<br>---- --- --- ----- --- ---- ---- ------- ----- ---- -------<br>--- --- -- ----- -- --- want -- --- ---- -- ------ ------<br>--- ----- -- ----,68010.60000014305,68009.90000009537,67380.27,67386.79999995232,67396.939,68013.77,,45,want
screen,html.Screen,0_2_0_1_46,2021-11-19T09:54:15.097Z,,,,,,,,,,,,,,,,53,,,,,,,,,,,,,,2011.9300000476796,,response,,,99,,,,,,Space,keypress(Space),,,,,---- -- ----- -- ------ - ------- --- ----------<br>------------- ------ ------ ---- ---- ------- ----- -- ----<br>-------- ------- -- ---------- --- - --- ----- ----- ----<br>---- --- --- ----- --- ---- ---- ------- ----- ---- -------<br>--- --- -- ----- -- --- ---- to --- ---- -- ------ ------<br>--- ----- -- ----,70026.5,70025.70000004768,67997.1,68010.79999995232,68013.77,70031.264,,46,to
screen,html.Screen,0_2_0_1_47,2021-11-19T09:54:16.193Z,,,,,,,,,,,,,,,,53,,,,,,,,,,,,,,1090.4360000476881,,response,,,99,,,,,,Space,keypress(Space),,,,,"---- -- ----- -- ------ - ------- --- ----------<br>------------- ------ ------ ---- ---- ------- ----- -- ----<br>-------- ------- -- ---------- --- - --- ----- ----- ----<br>---- --- --- ----- --- ---- ---- ------- ----- ---- -------<br>--- --- -- ----- -- --- ---- -- be, ---- -- ------ ------<br>--- ----- -- ----",71122.5,71121.70000004768,70014.592,70026.70000004768,70031.264,71131.372,,47,"be,"
screen,html.Screen,0_2_0_1_48,2021-11-19T09:54:16.953Z,,,,,,,,,,,,,,,,53,,,,,,,,,,,,,,750.2280001430481,,response,,,99,,,,,,Space,keypress(Space),,,,,---- -- ----- -- ------ - ------- --- ----------<br>------------- ------ ------ ---- ---- ------- ----- -- ----<br>-------- ------- -- ---------- --- - --- ----- ----- ----<br>---- --- --- ----- --- ---- ---- ------- ----- ---- -------<br>--- --- -- ----- -- --- ---- -- --- even -- ------ ------<br>--- ----- -- ----,71882.5,71881.60000014305,71114.701,71122.79999995232,71131.372,71898.249,,48,even
screen,html.Screen,0_2_0_1_49,2021-11-19T09:54:17.473Z,,,,,,,,,,,,,,,,53,,,,,,,,,,,,,,503.25100000000384,,response,,,99,,,,,,Space,keypress(Space),,,,,---- -- ----- -- ------ - ------- --- ----------<br>------------- ------ ------ ---- ---- ------- ----- -- ----<br>-------- ------- -- ---------- --- - --- ----- ----- ----<br>---- --- --- ----- --- ---- ---- ------- ----- ---- -------<br>--- --- -- ----- -- --- ---- -- --- ---- if ------ ------<br>--- ----- -- ----,72402.29999995232,72401.5,71881.578,71882.70000004768,71898.249,72415.052,,49,if
screen,html.Screen,0_2_0_1_50,2021-11-19T09:54:17.929Z,,,,,,,,,,,,,,,,53,,,,,,,,,,,,,,442.5480001430551,,response,,,99,,,,,,Space,keypress(Space),,,,,---- -- ----- -- ------ - ------- --- ----------<br>------------- ------ ------ ---- ---- ------- ----- -- ----<br>-------- ------- -- ---------- --- - --- ----- ----- ----<br>---- --- --- ----- --- ---- ---- ------- ----- ---- -------<br>--- --- -- ----- -- --- ---- -- --- ---- -- that's ------<br>--- ----- -- ----,72858.29999995232,72857.60000014305,72398.381,72402.5,72415.052,72865.106,,50,that's
screen,html.Screen,0_2_0_1_51,2021-11-19T09:54:18.417Z,,,,,,,,,,,,,,,,53,,,,,,,,,,,,,,480.39400000000023,,response,,,99,,,,,,Space,keypress(Space),,,,,---- -- ----- -- ------ - ------- --- ----------<br>------------- ------ ------ ---- ---- ------- ----- -- ----<br>-------- ------- -- ---------- --- - --- ----- ----- ----<br>---- --- --- ----- --- ---- ---- ------- ----- ---- -------<br>--- --- -- ----- -- --- ---- -- --- ---- -- ------ really<br>--- ----- -- ----,73346.29999995232,73345.5,72848.436,72858.5,72865.106,73348.644,,51,really
screen,html.Screen,0_2_0_1_52,2021-11-19T09:54:19.033Z,,,,,,,,,,,,,,,,53,,,,,,,,,,,,,,612.8559999999998,,response,,,99,,,,,,Space,keypress(Space),,,,,---- -- ----- -- ------ - ------- --- ----------<br>------------- ------ ------ ---- ---- ------- ----- -- ----<br>-------- ------- -- ---------- --- - --- ----- ----- ----<br>---- --- --- ----- --- ---- ---- ------- ----- ---- -------<br>--- --- -- ----- -- --- ---- -- --- ---- -- ------ ------<br>not ----- -- ----,73962.29999995232,73961.5,73331.973,73346.60000014305,73348.644,73965.476,,52,not
screen,html.Screen,0_2_0_1_53,2021-11-19T09:54:19.553Z,,,,,,,,,,,,,,,,53,,,,,,,,,,,,,,516.0240000000049,,response,,,99,,,,,,Space,keypress(Space),,,,,---- -- ----- -- ------ - ------- --- ----------<br>------------- ------ ------ ---- ---- ------- ----- -- ----<br>-------- ------- -- ---------- --- - --- ----- ----- ----<br>---- --- --- ----- --- ---- ---- ------- ----- ---- -------<br>--- --- -- ----- -- --- ---- -- --- ---- -- ------ ------<br>--- close -- ----,74482.29999995232,74481.5,73948.805,73962.5,73965.476,74498.885,,53,close
screen,html.Screen,0_2_0_1_54,2021-11-19T09:54:20.073Z,,,,,,,,,,,,,,,,53,,,,,,,,,,,,,,503.11500000000524,,response,,,99,,,,,,Space,keypress(Space),,,,,---- -- ----- -- ------ - ------- --- ----------<br>------------- ------ ------ ---- ---- ------- ----- -- ----<br>-------- ------- -- ---------- --- - --- ----- ----- ----<br>---- --- --- ----- --- ---- ---- ------- ----- ---- -------<br>--- --- -- ----- -- --- ---- -- --- ---- -- ------ ------<br>--- ----- at ----,75002.70000004768,75002,74482.215,74482.5,74498.885,75015.786,,54,at
screen,html.Screen,0_2_0_1_55,2021-11-19T09:54:21.625Z,,,,,,,,,,,,,,,,53,,,,,,,,,,,,,,1537.7140000000072,,response,,,99,,,,,,Space,keypress(Space),,,,,---- -- ----- -- ------ - ------- --- ----------<br>------------- ------ ------ ---- ---- ------- ----- -- ----<br>-------- ------- -- ---------- --- - --- ----- ----- ----<br>---- --- --- ----- --- ---- ---- ------- ----- ---- -------<br>--- --- -- ----- -- --- ---- -- --- ---- -- ------ ------<br>--- ----- -- all.,76554.29999995232,76553.5,74999.115,75003,75015.786,76566.071,,55,all.
Item 99,flow.Loop,0_2_0_1,2021-11-19T09:54:21.629Z,,,,,,,,,,,,,,,,,,,,,,,,,,,,,,32912.867,,completion,,,,D,,,,,,,,,,silence,,76558.79999995232,76553.5,43607.291,43614.10000014305,43640.633,76566.071,,,
Question 1,html.Screen,0_2_0_2,2021-11-19T09:54:34.161Z,,,,,,,,,,,,,,,,,,,,,,,,,,,true,FALSE,,12522.629000047687,,response,,,99,D,,,,,FALSE,click #choice-2,,,,silence,,89090.20000004768,89088.70000004768,76549.401,76559.10000014305,76566.071,89102.872,,,
Question 2,html.Screen,0_2_0_3,2021-11-19T09:54:40.728Z,,,,,,,,,,,,,,,,,,,,,,,,,,,true,TRUE,,6553.528000095364,,response,,,99,D,,,,,TRUE,click #choice-1,,,,silence,,95657.70000004768,95656.40000009537,89086.201,89090.60000014305,89102.872,95671.724,,,
Item 99,flow.Sequence,0_2_0,2021-11-19T09:54:40.729Z,,,,,,,,,,,,,,,,,,,,,,,,,,,,,,62035.729000095365,,completion,,,,,,,,,,,,,,,,95658.29999995232,95656.40000009537,33604.001,33613.299999952316,33620.671,95671.724,,,
Holding screen,html.Screen,0_2_1_0,2021-11-19T09:54:50.729Z,,,,,,,,,,,,,,,,,,,,,,,,,,,,,,10002.088999999993,,timeout,,,,,,,,,,,,,,,,105658.70000004768,105657.143,95655.038,95658.60000014305,95671.724,105673.813,,,
screen,html.Screen,0_2_1_1_0,2021-11-19T09:54:51.320Z,,,,,,,,,,,,,,,,54,,,,,,,,,,,,,,574.8870000476891,,response,,,100,,,,,,Space,keypress(Space),,,,,At --- ---- --- ------ ----- ------- ---- -- --- ------- --<br>------- ---------- ------ -- ----- -- ----- -- ---- ------<br>--- ----- --- --- ------ -------- ----- --- ------ ----- --<br>----- ----- ---------- --- --- ------ ------ ---- -- ------<br>------- --- ------ ----- --- ---- ------- -- ---- --- --<br>------- ------,106249.60000014305,106248.70000004768,105657.143,105659.20000004768,105673.813,106257.539,,0,At
screen,html.Screen,0_2_1_1_1,2021-11-19T09:54:51.888Z,,,,,,,,,,,,,,,,54,,,,,,,,,,,,,,558.5610001430468,,response,,,100,,,,,,Space,keypress(Space),,,,,-- the ---- --- ------ ----- ------- ---- -- --- ------- --<br>------- ---------- ------ -- ----- -- ----- -- ---- ------<br>--- ----- --- --- ------ -------- ----- --- ------ ----- --<br>----- ----- ---------- --- --- ------ ------ ---- -- ------<br>------- --- ------ ----- --- ---- ------- -- ---- --- --<br>------- ------,106816.90000009537,106816.10000014305,106240.868,106249.79999995232,106257.539,106824.312,,1,the
screen,html.Screen,0_2_1_1_2,2021-11-19T09:54:52.216Z,,,,,,,,,,,,,,,,54,,,,,,,,,,,,,,319.7880001430458,,response,,,100,,,,,,Space,keypress(Space),,,,,-- --- time --- ------ ----- ------- ---- -- --- ------- --<br>------- ---------- ------ -- ----- -- ----- -- ---- ------<br>--- ----- --- --- ------ -------- ----- --- ------ ----- --<br>----- ----- ---------- --- --- ------ ------ ---- -- ------<br>------- --- ------ ----- --- ---- ------- -- ---- --- --<br>------- ------,107144.90000009537,107144.10000014305,106807.641,106817.10000014305,106824.312,107157.741,,2,time
screen,html.Screen,0_2_1_1_3,2021-11-19T09:54:52.576Z,,,,,,,,,,,,,,,,54,,,,,,,,,,,,,,346.3590001430566,,response,,,100,,,,,,Space,keypress(Space),,,,,-- --- ---- the ------ ----- ------- ---- -- --- ------- --<br>------- ---------- ------ -- ----- -- ----- -- ---- ------<br>--- ----- --- --- ------ -------- ----- --- ------ ----- --<br>----- ----- ---------- --- --- ------ ------ ---- -- ------<br>------- --- ------ ----- --- ---- ------- -- ---- --- --<br>------- ------,107504.90000009537,107504.10000014305,107141.07,107145.10000014305,107157.741,107507.803,,3,the
screen,html.Screen,0_2_1_1_4,2021-11-19T09:54:52.889Z,,,,,,,,,,,,,,,,54,,,,,,,,,,,,,,308.29700014305126,,response,,,100,,,,,,Space,keypress(Space),,,,,-- --- ---- --- French ----- ------- ---- -- --- ------- --<br>------- ---------- ------ -- ----- -- ----- -- ---- ------<br>--- ----- --- --- ------ -------- ----- --- ------ ----- --<br>----- ----- ---------- --- --- ------ ------ ---- -- ------<br>------- --- ------ ----- --- ---- ------- -- ---- --- --<br>------- ------,107818.5,107816.10000014305,107491.133,107505.20000004768,107507.803,107824.58,,4,French
screen,html.Screen,0_2_1_1_5,2021-11-19T09:54:53.200Z,,,,,,,,,,,,,,,,54,,,,,,,,,,,,,,303.5200001430494,,response,,,100,,,,,,Space,keypress(Space),,,,,-- --- ---- --- ------ crown ------- ---- -- --- ------- --<br>------- ---------- ------ -- ----- -- ----- -- ---- ------<br>--- ----- --- --- ------ -------- ----- --- ------ ----- --<br>----- ----- ---------- --- --- ------ ------ ---- -- ------<br>------- --- ------ ----- --- ---- ------- -- ---- --- --<br>------- ------,108128.90000009537,108128.10000014305,107807.909,107818.79999995232,107824.58,108141.303,,5,crown
screen,html.Screen,0_2_1_1_6,2021-11-19T09:54:53.559Z,,,,,,,,,,,,,,,,54,,,,,,,,,,,,,,346.6970000000001,,response,,,100,,,,,,Space,keypress(Space),,,,,-- --- ---- --- ------ ----- secured ---- -- --- ------- --<br>------- ---------- ------ -- ----- -- ----- -- ---- ------<br>--- ----- --- --- ------ -------- ----- --- ------ ----- --<br>----- ----- ---------- --- --- ------ ------ ---- -- ------<br>------- --- ------ ----- --- ---- ------- -- ---- --- --<br>------- ------,108488.90000009537,108488,108124.633,108129.10000014305,108141.303,108491.442,,6,secured
screen,html.Screen,0_2_1_1_7,2021-11-19T09:54:53.911Z,,,,,,,,,,,,,,,,54,,,,,,,,,,,,,,348.55800000000454,,response,,,100,,,,,,Space,keypress(Space),,,,,-- --- ---- --- ------ ----- ------- much -- --- ------- --<br>------- ---------- ------ -- ----- -- ----- -- ---- ------<br>--- ----- --- --- ------ -------- ----- --- ------ ----- --<br>----- ----- ---------- --- --- ------ ------ ---- -- ------<br>------- --- ------ ----- --- ---- ------- -- ---- --- --<br>------- ------,108840.90000009537,108840,108474.771,108489.10000014305,108491.442,108858.021,,7,much
screen,html.Screen,0_2_1_1_8,2021-11-19T09:54:54.263Z,,,,,,,,,,,,,,,,54,,,,,,,,,,,,,,334.0790001430578,,response,,,100,,,,,,Space,keypress(Space),,,,,-- --- ---- --- ------ ----- ------- ---- of --- ------- --<br>------- ---------- ------ -- ----- -- ----- -- ---- ------<br>--- ----- --- --- ------ -------- ----- --- ------ ----- --<br>----- ----- ---------- --- --- ------ ------ ---- -- ------<br>------- --- ------ ----- --- ---- ------- -- ---- --- --<br>------- ------,109192.79999995232,109192.10000014305,108841.353,108841.10000014305,108858.021,109208.371,,8,of
screen,html.Screen,0_2_1_1_9,2021-11-19T09:54:54.583Z,,,,,,,,,,,,,,,,54,,,,,,,,,,,,,,303.6290000000008,,response,,,100,,,,,,Space,keypress(Space),,,,,-- --- ---- --- ------ ----- ------- ---- -- its ------- --<br>------- ---------- ------ -- ----- -- ----- -- ---- ------<br>--- ----- --- --- ------ -------- ----- --- ------ ----- --<br>----- ----- ---------- --- --- ------ ------ ---- -- ------<br>------- --- ------ ----- --- ---- ------- -- ---- --- --<br>------- ------,109512.70000004768,109512,109191.698,109193,109208.371,109525.062,,9,its
screen,html.Screen,0_2_1_1_10,2021-11-19T09:54:54.855Z,,,,,,,,,,,,,,,,54,,,,,,,,,,,,,,258.93799999999464,,response,,,100,,,,,,Space,keypress(Space),,,,,-- --- ---- --- ------ ----- ------- ---- -- --- revenue --<br>------- ---------- ------ -- ----- -- ----- -- ---- ------<br>--- ----- --- --- ------ -------- ----- --- ------ ----- --<br>----- ----- ---------- --- --- ------ ------ ---- -- ------<br>------- --- ------ ----- --- ---- ------- -- ---- --- --<br>------- ------,109784.70000004768,109784,109508.391,109512.90000009537,109525.062,109791.703,,10,revenue
screen,html.Screen,0_2_1_1_11,2021-11-19T09:54:55.223Z,,,,,,,,,,,,,,,,54,,,,,,,,,,,,,,360.19700009537337,,response,,,100,,,,,,Space,keypress(Space),,,,,-- --- ---- --- ------ ----- ------- ---- -- --- ------- by<br>------- ---------- ------ -- ----- -- ----- -- ---- ------<br>--- ----- --- --- ------ -------- ----- --- ------ ----- --<br>----- ----- ---------- --- --- ------ ------ ---- -- ------<br>------- --- ------ ----- --- ---- ------- -- ---- --- --<br>------- ------,110152.70000004768,110151.90000009537,109775.034,109785,109791.703,110158.545,,11,by
screen,html.Screen,0_2_1_1_12,2021-11-19T09:54:55.615Z,,,,,,,,,,,,,,,,54,,,,,,,,,,,,,,385.45500000000175,,response,,,100,,,,,,Space,keypress(Space),,,,,-- --- ---- --- ------ ----- ------- ---- -- --- ------- --<br>issuing ---------- ------ -- ----- -- ----- -- ---- ------<br>--- ----- --- --- ------ -------- ----- --- ------ ----- --<br>----- ----- ---------- --- --- ------ ------ ---- -- ------<br>------- --- ------ ----- --- ---- ------- -- ---- --- --<br>------- ------,110544.70000004768,110544,110141.874,110152.90000009537,110158.545,110558.611,,12,issuing
screen,html.Screen,0_2_1_1_13,2021-11-19T09:54:55.927Z,,,,,,,,,,,,,,,,54,,,,,,,,,,,,,,297.3889999999956,,response,,,100,,,,,,Space,keypress(Space),,,,,-- --- ---- --- ------ ----- ------- ---- -- --- ------- --<br>------- government ------ -- ----- -- ----- -- ---- ------<br>--- ----- --- --- ------ -------- ----- --- ------ ----- --<br>----- ----- ---------- --- --- ------ ------ ---- -- ------<br>------- --- ------ ----- --- ---- ------- -- ---- --- --<br>------- ------,110856.70000004768,110856,110541.941,110544.90000009537,110558.611,110858.759,,13,government
screen,html.Screen,0_2_1_1_14,2021-11-19T09:54:56.271Z,,,,,,,,,,,,,,,,54,,,,,,,,,,,,,,341.14100009536196,,response,,,100,,,,,,Space,keypress(Space),,,,,-- --- ---- --- ------ ----- ------- ---- -- --- ------- --<br>------- ---------- bonds. -- ----- -- ----- -- ---- ------<br>--- ----- --- --- ------ -------- ----- --- ------ ----- --<br>----- ----- ---------- --- --- ------ ------ ---- -- ------<br>------- --- ------ ----- --- ---- ------- -- ---- --- --<br>------- ------,111200.70000004768,111199.90000009537,110842.088,110857,110858.759,111208.801,,14,bonds.
screen,html.Screen,0_2_1_1_15,2021-11-19T09:54:58.159Z,,,,,,,,,,,,,,,,54,,,,,,,,,,,,,,1879.0990000953607,,response,,,100,,,,,,Space,keypress(Space),,,,,-- --- ---- --- ------ ----- ------- ---- -- --- ------- --<br>------- ---------- ------ In ----- -- ----- -- ---- ------<br>--- ----- --- --- ------ -------- ----- --- ------ ----- --<br>----- ----- ---------- --- --- ------ ------ ---- -- ------<br>------- --- ------ ----- --- ---- ------- -- ---- --- --<br>------- ------,113088.70000004768,113087.90000009537,111192.131,111200.90000009537,111208.801,113092.206,,15,In
screen,html.Screen,0_2_1_1_16,2021-11-19T09:54:58.599Z,,,,,,,,,,,,,,,,54,,,,,,,,,,,,,,435.5939999523107,,response,,,100,,,,,,Space,keypress(Space),,,,,"-- --- ---- --- ------ ----- ------- ---- -- --- ------- --<br>------- ---------- ------ -- 1727, -- ----- -- ---- ------<br>--- ----- --- --- ------ -------- ----- --- ------ ----- --<br>----- ----- ---------- --- --- ------ ------ ---- -- ------<br>------- --- ------ ----- --- ---- ------- -- ---- --- --<br>------- ------",113528.60000014305,113527.79999995232,113075.538,113088.90000009537,113092.206,113542.854,,16,"1727,"
screen,html.Screen,0_2_1_1_17,2021-11-19T09:55:00.295Z,,,,,,,,,,,,,,,,54,,,,,,,,,,,,,,1680.846000047677,,response,,,100,,,,,,Space,keypress(Space),,,,,-- --- ---- --- ------ ----- ------- ---- -- --- ------- --<br>------- ---------- ------ -- ----- in ----- -- ---- ------<br>--- ----- --- --- ------ -------- ----- --- ------ ----- --<br>----- ----- ---------- --- --- ------ ------ ---- -- ------<br>------- --- ------ ----- --- ---- ------- -- ---- --- --<br>------- ------,115224.5,115223.70000004768,113526.182,113528.79999995232,113542.854,115226.548,,17,in
screen,html.Screen,0_2_1_1_18,2021-11-19T09:55:00.975Z,,,,,,,,,,,,,,,,54,,,,,,,,,,,,,,677.0520001430559,,response,,,100,,,,,,Space,keypress(Space),,,,,-- --- ---- --- ------ ----- ------- ---- -- --- ------- --<br>------- ---------- ------ -- ----- -- order -- ---- ------<br>--- ----- --- --- ------ -------- ----- --- ------ ----- --<br>----- ----- ---------- --- --- ------ ------ ---- -- ------<br>------- --- ------ ----- --- ---- ------- -- ---- --- --<br>------- ------,115904.40000009537,115903.60000014305,115209.877,115224.70000004768,115226.548,115910.043,,18,order
screen,html.Screen,0_2_1_1_19,2021-11-19T09:55:01.311Z,,,,,,,,,,,,,,,,54,,,,,,,,,,,,,,329.6570000476786,,response,,,100,,,,,,Space,keypress(Space),,,,,-- --- ---- --- ------ ----- ------- ---- -- --- ------- --<br>------- ---------- ------ -- ----- -- ----- to ---- ------<br>--- ----- --- --- ------ -------- ----- --- ------ ----- --<br>----- ----- ---------- --- --- ------ ------ ---- -- ------<br>------- --- ------ ----- --- ---- ------- -- ---- --- --<br>------- ------,116240.5,116239.70000004768,115893.372,115904.79999995232,115910.043,116243.412,,19,to
screen,html.Screen,0_2_1_1_20,2021-11-19T09:55:01.656Z,,,,,,,,,,,,,,,,54,,,,,,,,,,,,,,340.6880001430545,,response,,,100,,,,,,Space,keypress(Space),,,,,-- --- ---- --- ------ ----- ------- ---- -- --- ------- --<br>------- ---------- ------ -- ----- -- ----- -- save ------<br>--- ----- --- --- ------ -------- ----- --- ------ ----- --<br>----- ----- ---------- --- --- ------ ------ ---- -- ------<br>------- --- ------ ----- --- ---- ------- -- ---- --- --<br>------- ------,116584.90000009537,116584.10000014305,116226.742,116240.79999995232,116243.412,116593.656,,20,save
screen,html.Screen,0_2_1_1_21,2021-11-19T09:55:02.047Z,,,,,,,,,,,,,,,,54,,,,,,,,,,,,,,382.04400004768104,,response,,,100,,,,,,Space,keypress(Space),,,,,"-- --- ---- --- ------ ----- ------- ---- -- --- ------- --<br>------- ---------- ------ -- ----- -- ----- -- ---- money,<br>--- ----- --- --- ------ -------- ----- --- ------ ----- --<br>----- ----- ---------- --- --- ------ ------ ---- -- ------<br>------- --- ------ ----- --- ---- ------- -- ---- --- --<br>------- ------",116976.5,116975.70000004768,116576.984,116585.20000004768,116593.656,116993.665,,21,"money,"
screen,html.Screen,0_2_1_1_22,2021-11-19T09:55:02.527Z,,,,,,,,,,,,,,,,54,,,,,,,,,,,,,,461.93500014305755,,response,,,100,,,,,,Space,keypress(Space),,,,,-- --- ---- --- ------ ----- ------- ---- -- --- ------- --<br>------- ---------- ------ -- ----- -- ----- -- ---- ------<br>the ----- --- --- ------ -------- ----- --- ------ ----- --<br>----- ----- ---------- --- --- ------ ------ ---- -- ------<br>------- --- ------ ----- --- ---- ------- -- ---- --- --<br>------- ------,117456.40000009537,117455.60000014305,116976.995,116976.90000009537,116993.665,117460.501,,22,the
screen,html.Screen,0_2_1_1_23,2021-11-19T09:55:02.863Z,,,,,,,,,,,,,,,,54,,,,,,,,,,,,,,331.1990000476799,,response,,,100,,,,,,Space,keypress(Space),,,,,-- --- ---- --- ------ ----- ------- ---- -- --- ------- --<br>------- ---------- ------ -- ----- -- ----- -- ---- ------<br>--- state --- --- ------ -------- ----- --- ------ ----- --<br>----- ----- ---------- --- --- ------ ------ ---- -- ------<br>------- --- ------ ----- --- ---- ------- -- ---- --- --<br>------- ------,117792.40000009537,117791.70000004768,117443.83,117456.70000004768,117460.501,117793.925,,23,state
screen,html.Screen,0_2_1_1_24,2021-11-19T09:55:03.239Z,,,,,,,,,,,,,,,,54,,,,,,,,,,,,,,373.67500014304824,,response,,,100,,,,,,Space,keypress(Space),,,,,-- --- ---- --- ------ ----- ------- ---- -- --- ------- --<br>------- ---------- ------ -- ----- -- ----- -- ---- ------<br>--- ----- cut --- ------ -------- ----- --- ------ ----- --<br>----- ----- ---------- --- --- ------ ------ ---- -- ------<br>------- --- ------ ----- --- ---- ------- -- ---- --- --<br>------- ------,118168.40000009537,118167.60000014305,117777.254,117792.70000004768,117793.925,118177.365,,24,cut
screen,html.Screen,0_2_1_1_25,2021-11-19T09:55:03.663Z,,,,,,,,,,,,,,,,54,,,,,,,,,,,,,,414.2350001430459,,response,,,100,,,,,,Space,keypress(Space),,,,,-- --- ---- --- ------ ----- ------- ---- -- --- ------- --<br>------- ---------- ------ -- ----- -- ----- -- ---- ------<br>--- ----- --- the ------ -------- ----- --- ------ ----- --<br>----- ----- ---------- --- --- ------ ------ ---- -- ------<br>------- --- ------ ----- --- ---- ------- -- ---- --- --<br>------- ------,118592.40000009537,118591.60000014305,118160.694,118168.70000004768,118177.365,118594.143,,25,the
screen,html.Screen,0_2_1_1_26,2021-11-19T09:55:04.159Z,,,,,,,,,,,,,,,,54,,,,,,,,,,,,,,493.45700014305476,,response,,,100,,,,,,Space,keypress(Space),,,,,-- --- ---- --- ------ ----- ------- ---- -- --- ------- --<br>------- ---------- ------ -- ----- -- ----- -- ---- ------<br>--- ----- --- --- bonds' -------- ----- --- ------ ----- --<br>----- ----- ---------- --- --- ------ ------ ---- -- ------<br>------- --- ------ ----- --- ---- ------- -- ---- --- --<br>------- ------,119088.5,119087.60000014305,118577.472,118592.70000004768,118594.143,119094.277,,26,bonds'
screen,html.Screen,0_2_1_1_27,2021-11-19T09:55:04.647Z,,,,,,,,,,,,,,,,54,,,,,,,,,,,,,,481.3230001430493,,response,,,100,,,,,,Space,keypress(Space),,,,,-- --- ---- --- ------ ----- ------- ---- -- --- ------- --<br>------- ---------- ------ -- ----- -- ----- -- ---- ------<br>--- ----- --- --- ------ interest ----- --- ------ ----- --<br>----- ----- ---------- --- --- ------ ------ ---- -- ------<br>------- --- ------ ----- --- ---- ------- -- ---- --- --<br>------- ------,119576.40000009537,119575.60000014305,119077.606,119088.90000009537,119094.277,119577.693,,27,interest
screen,html.Screen,0_2_1_1_28,2021-11-19T09:55:05.322Z,,,,,,,,,,,,,,,,54,,,,,,,,,,,,,,669.9070001430518,,response,,,100,,,,,,Space,keypress(Space),,,,,-- --- ---- --- ------ ----- ------- ---- -- --- ------- --<br>------- ---------- ------ -- ----- -- ----- -- ---- ------<br>--- ----- --- --- ------ -------- rate. --- ------ ----- --<br>----- ----- ---------- --- --- ------ ------ ---- -- ------<br>------- --- ------ ----- --- ---- ------- -- ---- --- --<br>------- ------,120248.40000009537,120247.60000014305,119561.023,119576.60000014305,119577.693,120261.267,,28,rate.
screen,html.Screen,0_2_1_1_29,2021-11-19T09:55:05.922Z,,,,,,,,,,,,,,,,54,,,,,,,,,,,,,,586.2329999999929,,response,,,100,,,,,,Space,keypress(Space),,,,,-- --- ---- --- ------ ----- ------- ---- -- --- ------- --<br>------- ---------- ------ -- ----- -- ----- -- ---- ------<br>--- ----- --- --- ------ -------- ----- The ------ ----- --<br>----- ----- ---------- --- --- ------ ------ ---- -- ------<br>------- --- ------ ----- --- ---- ------- -- ---- --- --<br>------- ------,120848.29999995232,120847.5,120244.596,120248.60000014305,120261.267,120861.347,,29,The
screen,html.Screen,0_2_1_1_30,2021-11-19T09:55:06.354Z,,,,,,,,,,,,,,,,54,,,,,,,,,,,,,,418.1530000000057,,response,,,100,,,,,,Space,keypress(Space),,,,,-- --- ---- --- ------ ----- ------- ---- -- --- ------- --<br>------- ---------- ------ -- ----- -- ----- -- ---- ------<br>--- ----- --- --- ------ -------- ----- --- market ----- --<br>----- ----- ---------- --- --- ------ ------ ---- -- ------<br>------- --- ------ ----- --- ---- ------- -- ---- --- --<br>------- ------,121280.29999995232,121279.5,120844.677,120848.60000014305,120861.347,121294.881,,30,market
screen,html.Screen,0_2_1_1_31,2021-11-19T09:55:06.802Z,,,,,,,,,,,,,,,,54,,,,,,,,,,,,,,432.61900000000605,,response,,,100,,,,,,Space,keypress(Space),,,,,-- --- ---- --- ------ ----- ------- ---- -- --- ------- --<br>------- ---------- ------ -- ----- -- ----- -- ---- ------<br>--- ----- --- --- ------ -------- ----- --- ------ value --<br>----- ----- ---------- --- --- ------ ------ ---- -- ------<br>------- --- ------ ----- --- ---- ------- -- ---- --- --<br>------- ------,121728.29999995232,121727.5,121278.21,121280.5,121294.881,121744.991,,31,value
screen,html.Screen,0_2_1_1_32,2021-11-19T09:55:07.538Z,,,,,,,,,,,,,,,,54,,,,,,,,,,,,,,718.4090000953729,,response,,,100,,,,,,Space,keypress(Space),,,,,-- --- ---- --- ------ ----- ------- ---- -- --- ------- --<br>------- ---------- ------ -- ----- -- ----- -- ---- ------<br>--- ----- --- --- ------ -------- ----- --- ------ ----- of<br>----- ----- ---------- --- --- ------ ------ ---- -- ------<br>------- --- ------ ----- --- ---- ------- -- ---- --- --<br>------- ------,122464.20000004768,122463.40000009537,121728.32,121728.60000014305,121744.991,122478.457,,32,of
screen,html.Screen,0_2_1_1_33,2021-11-19T09:55:07.946Z,,,,,,,,,,,,,,,,54,,,,,,,,,,,,,,392.94300009537255,,response,,,100,,,,,,Space,keypress(Space),,,,,-- --- ---- --- ------ ----- ------- ---- -- --- ------- --<br>------- ---------- ------ -- ----- -- ----- -- ---- ------<br>--- ----- --- --- ------ -------- ----- --- ------ ----- --<br>these ----- ---------- --- --- ------ ------ ---- -- ------<br>------- --- ------ ----- --- ---- ------- -- ---- --- --<br>------- ------,122872.20000004768,122871.40000009537,122461.787,122464.40000009537,122478.457,122878.642,,33,these
screen,html.Screen,0_2_1_1_34,2021-11-19T09:55:08.442Z,,,,,,,,,,,,,,,,54,,,,,,,,,,,,,,488.75800009536033,,response,,,100,,,,,,Space,keypress(Space),,,,,-- --- ---- --- ------ ----- ------- ---- -- --- ------- --<br>------- ---------- ------ -- ----- -- ----- -- ---- ------<br>--- ----- --- --- ------ -------- ----- --- ------ ----- --<br>----- bonds ---------- --- --- ------ ------ ---- -- ------<br>------- --- ------ ----- --- ---- ------- -- ---- --- --<br>------- ------,123368.20000004768,123367.40000009537,122861.971,122872.40000009537,122878.642,123378.626,,34,bonds
screen,html.Screen,0_2_1_1_35,2021-11-19T09:55:08.882Z,,,,,,,,,,,,,,,,54,,,,,,,,,,,,,,428.7740000953636,,response,,,100,,,,,,Space,keypress(Space),,,,,"-- --- ---- --- ------ ----- ------- ---- -- --- ------- --<br>------- ---------- ------ -- ----- -- ----- -- ---- ------<br>--- ----- --- --- ------ -------- ----- --- ------ ----- --<br>----- ----- plummeted, --- --- ------ ------ ---- -- ------<br>------- --- ------ ----- --- ---- ------- -- ---- --- --<br>------- ------",123808.10000014305,123807.40000009537,123361.957,123368.40000009537,123378.626,123812.284,,35,"plummeted,"
screen,html.Screen,0_2_1_1_36,2021-11-19T09:55:10.057Z,,,,,,,,,,,,,,,,54,,,,,,,,,,,,,,1171.0159999523166,,response,,,100,,,,,,Space,keypress(Space),,,,,-- --- ---- --- ------ ----- ------- ---- -- --- ------- --<br>------- ---------- ------ -- ----- -- ----- -- ---- ------<br>--- ----- --- --- ------ -------- ----- --- ------ ----- --<br>----- ----- ---------- and --- ------ ------ ---- -- ------<br>------- --- ------ ----- --- ---- ------- -- ---- --- --<br>------- ------,124984,124983.29999995232,123795.612,123808.40000009537,123812.284,124995.771,,36,and
screen,html.Screen,0_2_1_1_37,2021-11-19T09:55:10.402Z,,,,,,,,,,,,,,,,54,,,,,,,,,,,,,,331.62900009537407,,response,,,100,,,,,,Space,keypress(Space),,,,,-- --- ---- --- ------ ----- ------- ---- -- --- ------- --<br>------- ---------- ------ -- ----- -- ----- -- ---- ------<br>--- ----- --- --- ------ -------- ----- --- ------ ----- --<br>----- ----- ---------- --- the ------ ------ ---- -- ------<br>------- --- ------ ----- --- ---- ------- -- ---- --- --<br>------- ------,125328.10000014305,125327.40000009537,124979.101,124984.29999995232,124995.771,125329.307,,37,the
screen,html.Screen,0_2_1_1_38,2021-11-19T09:55:10.857Z,,,,,,,,,,,,,,,,54,,,,,,,,,,,,,,453.79300014305045,,response,,,100,,,,,,Space,keypress(Space),,,,,-- --- ---- --- ------ ----- ------- ---- -- --- ------- --<br>------- ---------- ------ -- ----- -- ----- -- ---- ------<br>--- ----- --- --- ------ -------- ----- --- ------ ----- --<br>----- ----- ---------- --- --- market ------ ---- -- ------<br>------- --- ------ ----- --- ---- ------- -- ---- --- --<br>------- ------,125783.5,125783.10000014305,125312.636,125328.40000009537,125329.307,125796.037,,38,market
screen,html.Screen,0_2_1_1_39,2021-11-19T09:55:11.345Z,,,,,,,,,,,,,,,,54,,,,,,,,,,,,,,475.26299995231966,,response,,,100,,,,,,Space,keypress(Space),,,,,-- --- ---- --- ------ ----- ------- ---- -- --- ------- --<br>------- ---------- ------ -- ----- -- ----- -- ---- ------<br>--- ----- --- --- ------ -------- ----- --- ------ ----- --<br>----- ----- ---------- --- --- ------ became ---- -- ------<br>------- --- ------ ----- --- ---- ------- -- ---- --- --<br>------- ------,126272,126271.29999995232,125779.367,125783.60000014305,125796.037,126279.534,,39,became
screen,html.Screen,0_2_1_1_40,2021-11-19T09:55:11.762Z,,,,,,,,,,,,,,,,54,,,,,,,,,,,,,,408.16600004768407,,response,,,100,,,,,,Space,keypress(Space),,,,,-- --- ---- --- ------ ----- ------- ---- -- --- ------- --<br>------- ---------- ------ -- ----- -- ----- -- ---- ------<br>--- ----- --- --- ------ -------- ----- --- ------ ----- --<br>----- ----- ---------- --- --- ------ ------ wary -- ------<br>------- --- ------ ----- --- ---- ------- -- ---- --- --<br>------- ------,126688.40000009537,126687.70000004768,126262.863,126272.29999995232,126279.534,126696.315,,40,wary
screen,html.Screen,0_2_1_1_41,2021-11-19T09:55:12.217Z,,,,,,,,,,,,,,,,54,,,,,,,,,,,,,,446.98499995231396,,response,,,100,,,,,,Space,keypress(Space),,,,,-- --- ---- --- ------ ----- ------- ---- -- --- ------- --<br>------- ---------- ------ -- ----- -- ----- -- ---- ------<br>--- ----- --- --- ------ -------- ----- --- ------ ----- --<br>----- ----- ---------- --- --- ------ ------ ---- of ------<br>------- --- ------ ----- --- ---- ------- -- ---- --- --<br>------- ------,127144,127143.29999995232,126679.644,126688.70000004768,126696.315,127146.438,,41,of
screen,html.Screen,0_2_1_1_42,2021-11-19T09:55:12.737Z,,,,,,,,,,,,,,,,54,,,,,,,,,,,,,,516.6620001430565,,response,,,100,,,,,,Space,keypress(Space),,,,,-- --- ---- --- ------ ----- ------- ---- -- --- ------- --<br>------- ---------- ------ -- ----- -- ----- -- ---- ------<br>--- ----- --- --- ------ -------- ----- --- ------ ----- --<br>----- ----- ---------- --- --- ------ ------ ---- -- French<br>------- --- ------ ----- --- ---- ------- -- ---- --- --<br>------- ------,127663.90000009537,127663.10000014305,127129.767,127144.20000004768,127146.438,127679.872,,42,French
screen,html.Screen,0_2_1_1_43,2021-11-19T09:55:13.297Z,,,,,,,,,,,,,,,,54,,,,,,,,,,,,,,543.3280000476807,,response,,,100,,,,,,Space,keypress(Space),,,,,-- --- ---- --- ------ ----- ------- ---- -- --- ------- --<br>------- ---------- ------ -- ----- -- ----- -- ---- ------<br>--- ----- --- --- ------ -------- ----- --- ------ ----- --<br>----- ----- ---------- --- --- ------ ------ ---- -- ------<br>credit. --- ------ ----- --- ---- ------- -- ---- --- --<br>------- ------,128223.90000009537,128223.20000004768,127663.202,127664.10000014305,127679.872,128230.058,,43,credit.
screen,html.Screen,0_2_1_1_44,2021-11-19T09:55:13.849Z,,,,,,,,,,,,,,,,54,,,,,,,,,,,,,,545.1420000476792,,response,,,100,,,,,,Space,keypress(Space),,,,,-- --- ---- --- ------ ----- ------- ---- -- --- ------- --<br>------- ---------- ------ -- ----- -- ----- -- ---- ------<br>--- ----- --- --- ------ -------- ----- --- ------ ----- --<br>----- ----- ---------- --- --- ------ ------ ---- -- ------<br>------- The ------ ----- --- ---- ------- -- ---- --- --<br>------- ------,128776,128775.20000004768,128213.387,128224.20000004768,128230.058,128780.211,,44,The
screen,html.Screen,0_2_1_1_45,2021-11-19T09:55:14.393Z,,,,,,,,,,,,,,,,54,,,,,,,,,,,,,,538.8890001430555,,response,,,100,,,,,,Space,keypress(Space),,,,,-- --- ---- --- ------ ----- ------- ---- -- --- ------- --<br>------- ---------- ------ -- ----- -- ----- -- ---- ------<br>--- ----- --- --- ------ -------- ----- --- ------ ----- --<br>----- ----- ---------- --- --- ------ ------ ---- -- ------<br>------- --- French ----- --- ---- ------- -- ---- --- --<br>------- ------,129319.90000009537,129319.10000014305,128763.54,128776.20000004768,128780.211,129330.199,,45,French
screen,html.Screen,0_2_1_1_46,2021-11-19T09:55:14.913Z,,,,,,,,,,,,,,,,54,,,,,,,,,,,,,,508.9010001430579,,response,,,100,,,,,,Space,keypress(Space),,,,,-- --- ---- --- ------ ----- ------- ---- -- --- ------- --<br>------- ---------- ------ -- ----- -- ----- -- ---- ------<br>--- ----- --- --- ------ -------- ----- --- ------ ----- --<br>----- ----- ---------- --- --- ------ ------ ---- -- ------<br>------- --- ------ state --- ---- ------- -- ---- --- --<br>------- ------,129839.90000009537,129839.10000014305,129313.53,129320.10000014305,129330.199,129847.235,,46,state
screen,html.Screen,0_2_1_1_47,2021-11-19T09:55:15.449Z,,,,,,,,,,,,,,,,54,,,,,,,,,,,,,,527.7649999999994,,response,,,100,,,,,,Space,keypress(Space),,,,,-- --- ---- --- ------ ----- ------- ---- -- --- ------- --<br>------- ---------- ------ -- ----- -- ----- -- ---- ------<br>--- ----- --- --- ------ -------- ----- --- ------ ----- --<br>----- ----- ---------- --- --- ------ ------ ---- -- ------<br>------- --- ------ ----- was ---- ------- -- ---- --- --<br>------- ------,130375.90000009537,130375,129830.563,129840.10000014305,129847.235,130380.64,,47,was
screen,html.Screen,0_2_1_1_48,2021-11-19T09:55:16.145Z,,,,,,,,,,,,,,,,54,,,,,,,,,,,,,,690.4600001430517,,response,,,100,,,,,,Space,keypress(Space),,,,,-- --- ---- --- ------ ----- ------- ---- -- --- ------- --<br>------- ---------- ------ -- ----- -- ----- -- ---- ------<br>--- ----- --- --- ------ -------- ----- --- ------ ----- --<br>----- ----- ---------- --- --- ------ ------ ---- -- ------<br>------- --- ------ ----- --- left ------- -- ---- --- --<br>------- ------,131071.79999995232,131071.10000014305,130363.969,130376.10000014305,130380.64,131080.827,,48,left
screen,html.Screen,0_2_1_1_49,2021-11-19T09:55:16.721Z,,,,,,,,,,,,,,,,54,,,,,,,,,,,,,,566.2730001430609,,response,,,100,,,,,,Space,keypress(Space),,,,,-- --- ---- --- ------ ----- ------- ---- -- --- ------- --<br>------- ---------- ------ -- ----- -- ----- -- ---- ------<br>--- ----- --- --- ------ -------- ----- --- ------ ----- --<br>----- ----- ---------- --- --- ------ ------ ---- -- ------<br>------- --- ------ ----- --- ---- without -- ---- --- --<br>------- ------,131647.90000009537,131647.10000014305,131064.156,131072.10000014305,131080.827,131664.266,,49,without
screen,html.Screen,0_2_1_1_50,2021-11-19T09:55:17.097Z,,,,,,,,,,,,,,,,54,,,,,,,,,,,,,,358.73399999999674,,response,,,100,,,,,,Space,keypress(Space),,,,,-- --- ---- --- ------ ----- ------- ---- -- --- ------- --<br>------- ---------- ------ -- ----- -- ----- -- ---- ------<br>--- ----- --- --- ------ -------- ----- --- ------ ----- --<br>----- ----- ---------- --- --- ------ ------ ---- -- ------<br>------- --- ------ ----- --- ---- ------- an ---- --- --<br>------- ------,132023.79999995232,132023,131647.596,131648.20000004768,131664.266,132031.085,,50,an
screen,html.Screen,0_2_1_1_51,2021-11-19T09:55:17.729Z,,,,,,,,,,,,,,,,54,,,,,,,,,,,,,,623.8150000953756,,response,,,100,,,,,,Space,keypress(Space),,,,,-- --- ---- --- ------ ----- ------- ---- -- --- ------- --<br>------- ---------- ------ -- ----- -- ----- -- ---- ------<br>--- ----- --- --- ------ -------- ----- --- ------ ----- --<br>----- ----- ---------- --- --- ------ ------ ---- -- ------<br>------- --- ------ ----- --- ---- ------- -- easy --- --<br>------- ------,132655.70000004768,132654.90000009537,132014.414,132024,132031.085,132664.524,,51,easy
screen,html.Screen,0_2_1_1_52,2021-11-19T09:55:18.209Z,,,,,,,,,,,,,,,,54,,,,,,,,,,,,,,470.37600009536254,,response,,,100,,,,,,Space,keypress(Space),,,,,-- --- ---- --- ------ ----- ------- ---- -- --- ------- --<br>------- ---------- ------ -- ----- -- ----- -- ---- ------<br>--- ----- --- --- ------ -------- ----- --- ------ ----- --<br>----- ----- ---------- --- --- ------ ------ ---- -- ------<br>------- --- ------ ----- --- ---- ------- -- ---- way --<br>------- ------,133135.70000004768,133134.90000009537,132647.854,132655.90000009537,132664.524,133148.048,,52,way
screen,html.Screen,0_2_1_1_53,2021-11-19T09:55:18.665Z,,,,,,,,,,,,,,,,54,,,,,,,,,,,,,,442.85200009535765,,response,,,100,,,,,,Space,keypress(Space),,,,,-- --- ---- --- ------ ----- ------- ---- -- --- ------- --<br>------- ---------- ------ -- ----- -- ----- -- ---- ------<br>--- ----- --- --- ------ -------- ----- --- ------ ----- --<br>----- ----- ---------- --- --- ------ ------ ---- -- ------<br>------- --- ------ ----- --- ---- ------- -- ---- --- of<br>------- ------,133591.60000014305,133590.90000009537,133131.377,133136,133148.048,133598.175,,53,of
screen,html.Screen,0_2_1_1_54,2021-11-19T09:55:19.225Z,,,,,,,,,,,,,,,,54,,,,,,,,,,,,,,552.7250000953791,,response,,,100,,,,,,Space,keypress(Space),,,,,-- --- ---- --- ------ ----- ------- ---- -- --- ------- --<br>------- ---------- ------ -- ----- -- ----- -- ---- ------<br>--- ----- --- --- ------ -------- ----- --- ------ ----- --<br>----- ----- ---------- --- --- ------ ------ ---- -- ------<br>------- --- ------ ----- --- ---- ------- -- ---- --- --<br>raising ------,134151.70000004768,134150.90000009537,133581.504,133591.90000009537,133598.175,134164.948,,54,raising
screen,html.Screen,0_2_1_1_55,2021-11-19T09:55:19.905Z,,,,,,,,,,,,,,,,54,,,,,,,,,,,,,,665.9520000953635,,response,,,100,,,,,,Space,keypress(Space),,,,,-- --- ---- --- ------ ----- ------- ---- -- --- ------- --<br>------- ---------- ------ -- ----- -- ----- -- ---- ------<br>--- ----- --- --- ------ -------- ----- --- ------ ----- --<br>----- ----- ---------- --- --- ------ ------ ---- -- ------<br>------- --- ------ ----- --- ---- ------- -- ---- --- --<br>------- money.,134831.79999995232,134830.90000009537,134148.278,134152,134164.948,134848.32,,55,money.
Item 100,flow.Loop,0_2_1_1,2021-11-19T09:55:19.906Z,,,,,,,,,,,,,,,,,,,,,,,,,,,,,,29157.087000095373,,completion,,,,D,,,,,,,,,,silence,,134832.29999995232,134830.90000009537,105657.143,105659,105673.813,134848.32,,,
Question 1,html.Screen,0_2_1_2,2021-11-19T09:55:23.801Z,,,,,,,,,,,,,,,,,,,,,,,,,,,true,TRUE,,3878.0800000953604,,response,,,100,D,,,,,TRUE,click #choice-1,,,,silence,,138727.79999995232,138726.40000009537,134831.651,134832.40000009537,134848.32,138732.88,,,
Question 2,html.Screen,0_2_1_3,2021-11-19T09:55:27.929Z,,,,,,,,,,,,,,,,,,,,,,,,,,,true,FALSE,,4121.520000095363,,response,,,100,D,,,,,FALSE,click #choice-2,,,,silence,,142855.60000014305,142854.40000009537,138716.209,138728.10000014305,138732.88,142867.617,,,
Item 100,flow.Sequence,0_2_1,2021-11-19T09:55:27.929Z,,,,,,,,,,,,,,,,,,,,,,,,,,,,,,47182.676000095365,,completion,,,,,,,,,,,,,,,,142856,142854.40000009537,95655.038,95658.5,95671.724,142867.617,,,
End of Practice,html.Page,0_2_2,2021-11-19T09:55:33.490Z,,,,,,,,,,,,,,,,,,,,,,,,,,,,,,5548.083000047685,,form submission,,,,,,,,,,,,,,,,148416.40000009537,148415.70000004768,142850.941,142856.29999995232,142867.617,148434.966,,,
Practice,flow.Sequence,0_2,2021-11-19T09:55:33.490Z,,,,,,,,,,,,,,,,,,,,,,,,,,,,,,114795.02900004768,,completion,,,,,,,,,,,,,,,,148416.90000009537,148415.70000004768,33604.001,33613.200000047684,33620.671,148434.966,,,
Trap_instruction,html.Page,0_3_0,2021-11-19T09:55:38.113Z,,,,,,,,,,,,,,,,,,,,,,,,,,,,,,4604.434000095382,,form submission,,,,,,,,,,,,,,,,153039.90000009537,153039.40000009537,148418.297,148417.20000004768,148434.966,153102.579,,,
trap_trial,html.Screen,0_3_1,2021-11-19T09:55:40.744Z,,,,,,,,,,,,,,,,,,,,,,,,,,,true,1,,2567.0210001430532,,response,,,,,,,,,1,click #choice-1,,,,,,155670.79999995232,155669.60000014305,153035.907,153040.20000004768,153102.579,155677.105,,,
end of trap trial,html.Page,0_3_2,2021-11-19T09:55:42.161Z,,,,,,,,,,,,,,,,,,,,,,,,,,,,,,1409.9950001430407,,form submission,,,,,,,,,,,,,,,,157087.5,157087.10000014305,155660.391,155671.29999995232,155677.105,157087.829,,,
Trap 1,flow.Sequence,0_3,2021-11-19T09:55:42.161Z,,,,,,,,,,,,,,,,,,,,,,,,,,,,,,8652.134000143065,,completion,,,,,,,,,,,,,,,,157088,157087.10000014305,148418.297,148417.10000014305,148434.966,157087.829,,,
Standby,html.Page,0_4_0,2021-11-19T09:55:50.148Z,,,,,,,,,,,,,,,,,,,,,,,,,,,,,,8002.068999999989,,timeout,,,,,,,,,,,,,,,,165074.5,165073.227,157071.158,157088.29999995232,157087.829,165089.898,,,
Holding screen,html.Screen,0_4_1_0_0,2021-11-19T09:55:57.150Z,,,,,,,,,,,,,,,,,,,,,,,,,,,,,,7001.944000000018,,timeout,,,,,,,,,,,,,,,,172076.5,172075.171,165073.227,165074.90000009537,165089.898,172091.842,,,
screen,html.Screen,0_4_1_0_1_0,2021-11-19T09:55:58.808Z,,,,,,,,,,,,,,,,11,,,,,,,,,,,,,,1642.0580000953632,,response,,,4,D,,,,,Space,keypress(Space),,,,silence,Known -- ---- --- -- --- -------- ------------ ---------- --<br>- ------- ------ --------- -- ------------ -- --- ---- -----<br>------ ---- ---- ------ ------ ------- --- ----- ---------<br>---- --- -------- -------- --- --- -- ------- --- --- -----<br>-- --- ------ ------- --- --- -------- ---- --------- --<br>---------- -- -------- ----------------,173734.79999995232,173733.90000009537,172075.171,172076.90000009537,172091.842,173742.262,,0,Known
screen,html.Screen,0_4_1_0_1_1,2021-11-19T09:55:59.207Z,,,,,,,,,,,,,,,,11,,,,,,,,,,,,,,390.9380000476958,,response,,,4,D,,,,,Space,keypress(Space),,,,silence,----- as ---- --- -- --- -------- ------------ ---------- --<br>- ------- ------ --------- -- ------------ -- --- ---- -----<br>------ ---- ---- ------ ------ ------- --- ----- ---------<br>---- --- -------- -------- --- --- -- ------- --- --- -----<br>-- --- ------ ------- --- --- -------- ---- --------- --<br>---------- -- -------- ----------------,174134.10000014305,174133.20000004768,173725.591,173735.10000014305,173742.262,174142.286,,1,as
screen,html.Screen,0_4_1_0_1_2,2021-11-19T09:55:59.567Z,,,,,,,,,,,,,,,,11,,,,,,,,,,,,,,350.91400004769093,,response,,,4,D,,,,,Space,keypress(Space),,,,silence,----- -- Rapa --- -- --- -------- ------------ ---------- --<br>- ------- ------ --------- -- ------------ -- --- ---- -----<br>------ ---- ---- ------ ------ ------- --- ----- ---------<br>---- --- -------- -------- --- --- -- ------- --- --- -----<br>-- --- ------ ------- --- --- -------- ---- --------- --<br>---------- -- -------- ----------------,174494,174493.20000004768,174125.616,174134.29999995232,174142.286,174509.17,,2,Rapa
screen,html.Screen,0_4_1_0_1_3,2021-11-19T09:56:00.151Z,,,,,,,,,,,,,,,,11,,,,,,,,,,,,,,567.9300001430383,,response,,,4,D,,,,,Space,keypress(Space),,,,silence,----- -- ---- Nui -- --- -------- ------------ ---------- --<br>- ------- ------ --------- -- ------------ -- --- ---- -----<br>------ ---- ---- ------ ------ ------- --- ----- ---------<br>---- --- -------- -------- --- --- -- ------- --- --- -----<br>-- --- ------ ------- --- --- -------- ---- --------- --<br>---------- -- -------- ----------------,175078,175077.10000014305,174492.499,174494.29999995232,174509.17,175092.685,,3,Nui
screen,html.Screen,0_4_1_0_1_4,2021-11-19T09:56:00.567Z,,,,,,,,,,,,,,,,11,,,,,,,,,,,,,,400.4150001430535,,response,,,4,D,,,,,Space,keypress(Space),,,,silence,----- -- ---- --- to --- -------- ------------ ---------- --<br>- ------- ------ --------- -- ------------ -- --- ---- -----<br>------ ---- ---- ------ ------ ------- --- ----- ---------<br>---- --- -------- -------- --- --- -- ------- --- --- -----<br>-- --- ------ ------- --- --- -------- ---- --------- --<br>---------- -- -------- ----------------,175493.90000009537,175493.10000014305,175076.014,175078.20000004768,175092.685,175509.214,,4,to
screen,html.Screen,0_4_1_0_1_5,2021-11-19T09:56:00.959Z,,,,,,,,,,,,,,,,11,,,,,,,,,,,,,,375.88600014304393,,response,,,4,D,,,,,Space,keypress(Space),,,,silence,----- -- ---- --- -- the -------- ------------ ---------- --<br>- ------- ------ --------- -- ------------ -- --- ---- -----<br>------ ---- ---- ------ ------ ------- --- ----- ---------<br>---- --- -------- -------- --- --- -- ------- --- --- -----<br>-- --- ------ ------- --- --- -------- ---- --------- --<br>---------- -- -------- ----------------,175885.90000009537,175885.10000014305,175492.546,175494.29999995232,175509.214,175892.917,,5,the
screen,html.Screen,0_4_1_0_1_6,2021-11-19T09:56:01.191Z,,,,,,,,,,,,,,,,11,,,,,,,,,,,,,,224.08300000001327,,response,,,4,D,,,,,Space,keypress(Space),,,,silence,----- -- ---- --- -- --- island's ------------ ---------- --<br>- ------- ------ --------- -- ------------ -- --- ---- -----<br>------ ---- ---- ------ ------ ------- --- ----- ---------<br>---- --- -------- -------- --- --- -- ------- --- --- -----<br>-- --- ------ ------- --- --- -------- ---- --------- --<br>---------- -- -------- ----------------,176118,176117,175876.245,175886.29999995232,175892.917,176126.261,,6,island's
screen,html.Screen,0_4_1_0_1_7,2021-11-19T09:56:01.935Z,,,,,,,,,,,,,,,,11,,,,,,,,,,,,,,734.8390001430525,,response,,,4,D,,,,,Space,keypress(Space),,,,silence,"----- -- ---- --- -- --- -------- inhabitants, ---------- --<br>- ------- ------ --------- -- ------------ -- --- ---- -----<br>------ ---- ---- ------ ------ ------- --- ----- ---------<br>---- --- -------- -------- --- --- -- ------- --- --- -----<br>-- --- ------ ------- --- --- -------- ---- --------- --<br>---------- -- -------- ----------------",176862,176861.10000014305,176109.59,176118.20000004768,176126.261,176876.306,,7,"inhabitants,"
screen,html.Screen,0_4_1_0_1_8,2021-11-19T09:56:02.391Z,,,,,,,,,,,,,,,,11,,,,,,,,,,,,,,440.79400014303974,,response,,,4,D,,,,,Space,keypress(Space),,,,silence,----- -- ---- --- -- --- -------- ------------ Rongorongo --<br>- ------- ------ --------- -- ------------ -- --- ---- -----<br>------ ---- ---- ------ ------ ------- --- ----- ---------<br>---- --- -------- -------- --- --- -- ------- --- --- -----<br>-- --- ------ ------- --- --- -------- ---- --------- --<br>---------- -- -------- ----------------,177317.79999995232,177317.10000014305,176859.637,176862.20000004768,176876.306,177326.781,,8,Rongorongo
screen,html.Screen,0_4_1_0_1_9,2021-11-19T09:56:03.015Z,,,,,,,,,,,,,,,,11,,,,,,,,,,,,,,614.319000143063,,response,,,4,D,,,,,Space,keypress(Space),,,,silence,----- -- ---- --- -- --- -------- ------------ ---------- is<br>- ------- ------ --------- -- ------------ -- --- ---- -----<br>------ ---- ---- ------ ------ ------- --- ----- ---------<br>---- --- -------- -------- --- --- -- ------- --- --- -----<br>-- --- ------ ------- --- --- -------- ---- --------- --<br>---------- -- -------- ----------------,177941.79999995232,177941.10000014305,177310.106,177318.10000014305,177326.781,177943.424,,9,is
screen,html.Screen,0_4_1_0_1_10,2021-11-19T09:56:03.414Z,,,,,,,,,,,,,,,,11,,,,,,,,,,,,,,397.1760001430521,,response,,,4,D,,,,,Space,keypress(Space),,,,silence,----- -- ---- --- -- --- -------- ------------ ---------- --<br>a ------- ------ --------- -- ------------ -- --- ---- -----<br>------ ---- ---- ------ ------ ------- --- ----- ---------<br>---- --- -------- -------- --- --- -- ------- --- --- -----<br>-- --- ------ ------- --- --- -------- ---- --------- --<br>---------- -- -------- ----------------,178340.90000009537,178340.60000014305,177926.753,177942,177943.424,178343.505,,10,a
screen,html.Screen,0_4_1_0_1_11,2021-11-19T09:56:04.191Z,,,,,,,,,,,,,,,,11,,,,,,,,,,,,,,773.4949999999953,,response,,,4,D,,,,,Space,keypress(Space),,,,silence,----- -- ---- --- -- --- -------- ------------ ---------- --<br>- writing ------ --------- -- ------------ -- --- ---- -----<br>------ ---- ---- ------ ------ ------- --- ----- ---------<br>---- --- -------- -------- --- --- -- ------- --- --- -----<br>-- --- ------ ------- --- --- -------- ---- --------- --<br>---------- -- -------- ----------------,179117.70000004768,179117,178326.834,178341.10000014305,178343.505,179127.065,,11,writing
screen,html.Screen,0_4_1_0_1_12,2021-11-19T09:56:04.687Z,,,,,,,,,,,,,,,,11,,,,,,,,,,,,,,485.9349999999977,,response,,,4,D,,,,,Space,keypress(Space),,,,silence,----- -- ---- --- -- --- -------- ------------ ---------- --<br>- ------- system --------- -- ------------ -- --- ---- -----<br>------ ---- ---- ------ ------ ------- --- ----- ---------<br>---- --- -------- -------- --- --- -- ------- --- --- -----<br>-- --- ------ ------- --- --- -------- ---- --------- --<br>---------- -- -------- ----------------,179613.79999995232,179613,179110.394,179118,179127.065,179626.922,,12,system
screen,html.Screen,0_4_1_0_1_13,2021-11-19T09:56:05.522Z,,,,,,,,,,,,,,,,11,,,,,,,,,,,,,,817.978000095376,,response,,,4,D,,,,,Space,keypress(Space),,,,silence,----- -- ---- --- -- --- -------- ------------ ---------- --<br>- ------- ------ comprised -- ------------ -- --- ---- -----<br>------ ---- ---- ------ ------ ------- --- ----- ---------<br>---- --- -------- -------- --- --- -- ------- --- --- -----<br>-- --- ------ ------- --- --- -------- ---- --------- --<br>---------- -- -------- ----------------,180445.79999995232,180444.90000009537,179610.254,179614,179626.922,180460.837,,13,comprised
screen,html.Screen,0_4_1_0_1_14,2021-11-19T09:56:05.898Z,,,,,,,,,,,,,,,,11,,,,,,,,,,,,,,360.0630000953679,,response,,,4,D,,,,,Space,keypress(Space),,,,silence,----- -- ---- --- -- --- -------- ------------ ---------- --<br>- ------- ------ --------- of ------------ -- --- ---- -----<br>------ ---- ---- ------ ------ ------- --- ----- ---------<br>---- --- -------- -------- --- --- -- ------- --- --- -----<br>-- --- ------ ------- --- --- -------- ---- --------- --<br>---------- -- -------- ----------------,180821.70000004768,180820.90000009537,180444.165,180446,180460.837,180827.518,,14,of
screen,html.Screen,0_4_1_0_1_15,2021-11-19T09:56:06.361Z,,,,,,,,,,,,,,,,11,,,,,,,,,,,,,,457.28199995230534,,response,,,4,D,,,,,Space,keypress(Space),,,,silence,----- -- ---- --- -- --- -------- ------------ ---------- --<br>- ------- ------ --------- -- pictographs. -- --- ---- -----<br>------ ---- ---- ------ ------ ------- --- ----- ---------<br>---- --- -------- -------- --- --- -- ------- --- --- -----<br>-- --- ------ ------- --- --- -------- ---- --------- --<br>---------- -- -------- ----------------,181285.29999995232,181284.79999995232,180810.847,180822,180827.518,181294.337,,15,pictographs.
screen,html.Screen,0_4_1_0_1_16,2021-11-19T09:56:07.162Z,,,,,,,,,,,,,,,,11,,,,,,,,,,,,,,790.4629999523167,,response,,,4,D,,,,,Space,keypress(Space),,,,silence,----- -- ---- --- -- --- -------- ------------ ---------- --<br>- ------- ------ --------- -- ------------ It --- ---- -----<br>------ ---- ---- ------ ------ ------- --- ----- ---------<br>---- --- -------- -------- --- --- -- ------- --- --- -----<br>-- --- ------ ------- --- --- -------- ---- --------- --<br>---------- -- -------- ----------------,182085.60000014305,182084.79999995232,181277.666,181285.40000009537,181294.337,182094.469,,16,It
screen,html.Screen,0_4_1_0_1_17,2021-11-19T09:56:07.482Z,,,,,,,,,,,,,,,,11,,,,,,,,,,,,,,310.23100004767184,,response,,,4,D,,,,,Space,keypress(Space),,,,silence,----- -- ---- --- -- --- -------- ------------ ---------- --<br>- ------- ------ --------- -- ------------ -- has ---- -----<br>------ ---- ---- ------ ------ ------- --- ----- ---------<br>---- --- -------- -------- --- --- -- ------- --- --- -----<br>-- --- ------ ------- --- --- -------- ---- --------- --<br>---------- -- -------- ----------------,182405.5,182404.70000004768,182077.799,182085.79999995232,182094.469,182411.286,,17,has
screen,html.Screen,0_4_1_0_1_18,2021-11-19T09:56:08.058Z,,,,,,,,,,,,,,,,11,,,,,,,,,,,,,,569.5139999523235,,response,,,4,D,,,,,Space,keypress(Space),,,,silence,----- -- ---- --- -- --- -------- ------------ ---------- --<br>- ------- ------ --------- -- ------------ -- --- been -----<br>------ ---- ---- ------ ------ ------- --- ----- ---------<br>---- --- -------- -------- --- --- -- ------- --- --- -----<br>-- --- ------ ------- --- --- -------- ---- --------- --<br>---------- -- -------- ----------------,182981.60000014305,182980.79999995232,182394.615,182405.79999995232,182411.286,182994.781,,18,been
screen,html.Screen,0_4_1_0_1_19,2021-11-19T09:56:08.418Z,,,,,,,,,,,,,,,,11,,,,,,,,,,,,,,345.9190000476956,,response,,,4,D,,,,,Space,keypress(Space),,,,silence,----- -- ---- --- -- --- -------- ------------ ---------- --<br>- ------- ------ --------- -- ------------ -- --- ---- found<br>------ ---- ---- ------ ------ ------- --- ----- ---------<br>---- --- -------- -------- --- --- -- ------- --- --- -----<br>-- --- ------ ------- --- --- -------- ---- --------- --<br>---------- -- -------- ----------------,183341.40000009537,183340.70000004768,182978.11,182981.70000004768,182994.781,183344.839,,19,found
screen,html.Screen,0_4_1_0_1_20,2021-11-19T09:56:08.866Z,,,,,,,,,,,,,,,,11,,,,,,,,,,,,,,444.3610000476765,,response,,,4,D,,,,,Space,keypress(Space),,,,silence,----- -- ---- --- -- --- -------- ------------ ---------- --<br>- ------- ------ --------- -- ------------ -- --- ---- -----<br>carved ---- ---- ------ ------ ------- --- ----- ---------<br>---- --- -------- -------- --- --- -- ------- --- --- -----<br>-- --- ------ ------- --- --- -------- ---- --------- --<br>---------- -- -------- ----------------,183789.90000009537,183789.20000004768,183328.169,183341.60000014305,183344.839,183794.997,,20,carved
screen,html.Screen,0_4_1_0_1_21,2021-11-19T09:56:09.338Z,,,,,,,,,,,,,,,,11,,,,,,,,,,,,,,465.7030000476807,,response,,,4,D,,,,,Space,keypress(Space),,,,silence,----- -- ---- --- -- --- -------- ------------ ---------- --<br>- ------- ------ --------- -- ------------ -- --- ---- -----<br>------ into ---- ------ ------ ------- --- ----- ---------<br>---- --- -------- -------- --- --- -- ------- --- --- -----<br>-- --- ------ ------- --- --- -------- ---- --------- --<br>---------- -- -------- ----------------,184261.5,184260.70000004768,183778.326,183790.20000004768,183794.997,184278.39,,21,into
screen,html.Screen,0_4_1_0_1_22,2021-11-19T09:56:09.666Z,,,,,,,,,,,,,,,,11,,,,,,,,,,,,,,310.31000004766975,,response,,,4,D,,,,,Space,keypress(Space),,,,silence,----- -- ---- --- -- --- -------- ------------ ---------- --<br>- ------- ------ --------- -- ------------ -- --- ---- -----<br>------ ---- many ------ ------ ------- --- ----- ---------<br>---- --- -------- -------- --- --- -- ------- --- --- -----<br>-- --- ------ ------- --- --- -------- ---- --------- --<br>---------- -- -------- ----------------,184589.5,184588.70000004768,184261.72,184261.70000004768,184278.39,184595.214,,22,many
screen,html.Screen,0_4_1_0_1_23,2021-11-19T09:56:10.121Z,,,,,,,,,,,,,,,,11,,,,,,,,,,,,,,449.1860000953602,,response,,,4,D,,,,,Space,keypress(Space),,,,silence,----- -- ---- --- -- --- -------- ------------ ---------- --<br>- ------- ------ --------- -- ------------ -- --- ---- -----<br>------ ---- ---- oblong ------ ------- --- ----- ---------<br>---- --- -------- -------- --- --- -- ------- --- --- -----<br>-- --- ------ ------- --- --- -------- ---- --------- --<br>---------- -- -------- ----------------,185045.10000014305,185044.40000009537,184578.543,184589.79999995232,184595.214,185061.892,,23,oblong
screen,html.Screen,0_4_1_0_1_24,2021-11-19T09:56:10.530Z,,,,,,,,,,,,,,,,11,,,,,,,,,,,,,,390.80800004769117,,response,,,4,D,,,,,Space,keypress(Space),,,,silence,----- -- ---- --- -- --- -------- ------------ ---------- --<br>- ------- ------ --------- -- ------------ -- --- ---- -----<br>------ ---- ---- ------ wooden ------- --- ----- ---------<br>---- --- -------- -------- --- --- -- ------- --- --- -----<br>-- --- ------ ------- --- --- -------- ---- --------- --<br>---------- -- -------- ----------------,185453.5,185452.70000004768,185045.223,185045.20000004768,185061.892,185462.169,,24,wooden
screen,html.Screen,0_4_1_0_1_25,2021-11-19T09:56:11.098Z,,,,,,,,,,,,,,,,11,,,,,,,,,,,,,,558.5310000476893,,response,,,4,D,,,,,Space,keypress(Space),,,,silence,----- -- ---- --- -- --- -------- ------------ ---------- --<br>- ------- ------ --------- -- ------------ -- --- ---- -----<br>------ ---- ---- ------ ------ tablets --- ----- ---------<br>---- --- -------- -------- --- --- -- ------- --- --- -----<br>-- --- ------ ------- --- --- -------- ---- --------- --<br>---------- -- -------- ----------------,186021.5,186020.70000004768,185445.497,185453.79999995232,185462.169,186028.926,,25,tablets
screen,html.Screen,0_4_1_0_1_26,2021-11-19T09:56:11.530Z,,,,,,,,,,,,,,,,11,,,,,,,,,,,,,,423.77400004767696,,response,,,4,D,,,,,Space,keypress(Space),,,,silence,----- -- ---- --- -- --- -------- ------------ ---------- --<br>- ------- ------ --------- -- ------------ -- --- ---- -----<br>------ ---- ---- ------ ------ ------- and ----- ---------<br>---- --- -------- -------- --- --- -- ------- --- --- -----<br>-- --- ------ ------- --- --- -------- ---- --------- --<br>---------- -- -------- ----------------,186453.40000009537,186452.70000004768,186012.255,186021.70000004768,186028.926,186462.382,,26,and
screen,html.Screen,0_4_1_0_1_27,2021-11-19T09:56:11.922Z,,,,,,,,,,,,,,,,11,,,,,,,,,,,,,,382.2180001430388,,response,,,4,D,,,,,Space,keypress(Space),,,,silence,----- -- ---- --- -- --- -------- ------------ ---------- --<br>- ------- ------ --------- -- ------------ -- --- ---- -----<br>------ ---- ---- ------ ------ ------- --- other ---------<br>---- --- -------- -------- --- --- -- ------- --- --- -----<br>-- --- ------ ------- --- --- -------- ---- --------- --<br>---------- -- -------- ----------------,186845.5,186844.60000014305,186445.711,186453.70000004768,186462.382,186862.434,,27,other
screen,html.Screen,0_4_1_0_1_28,2021-11-19T09:56:12.570Z,,,,,,,,,,,,,,,,11,,,,,,,,,,,,,,630.1660001430428,,response,,,4,D,,,,,Space,keypress(Space),,,,silence,----- -- ---- --- -- --- -------- ------------ ---------- --<br>- ------- ------ --------- -- ------------ -- --- ---- -----<br>------ ---- ---- ------ ------ ------- --- ----- artifacts<br>---- --- -------- -------- --- --- -- ------- --- --- -----<br>-- --- ------ ------- --- --- -------- ---- --------- --<br>---------- -- -------- ----------------,187493.5,187492.60000014305,186845.764,186845.70000004768,186862.434,187496.066,,28,artifacts
screen,html.Screen,0_4_1_0_1_29,2021-11-19T09:56:12.946Z,,,,,,,,,,,,,,,,11,,,,,,,,,,,,,,372.6340000476921,,response,,,4,D,,,,,Space,keypress(Space),,,,silence,----- -- ---- --- -- --- -------- ------------ ---------- --<br>- ------- ------ --------- -- ------------ -- --- ---- -----<br>------ ---- ---- ------ ------ ------- --- ----- ---------<br>from --- -------- -------- --- --- -- ------- --- --- -----<br>-- --- ------ ------- --- --- -------- ---- --------- --<br>---------- -- -------- ----------------,187869.40000009537,187868.70000004768,187479.394,187493.60000014305,187496.066,187879.284,,29,from
screen,html.Screen,0_4_1_0_1_30,2021-11-19T09:56:13.313Z,,,,,,,,,,,,,,,,11,,,,,,,,,,,,,,357.31600014303694,,response,,,4,D,,,,,Space,keypress(Space),,,,silence,----- -- ---- --- -- --- -------- ------------ ---------- --<br>- ------- ------ --------- -- ------------ -- --- ---- -----<br>------ ---- ---- ------ ------ ------- --- ----- ---------<br>---- the -------- -------- --- --- -- ------- --- --- -----<br>-- --- ------ ------- --- --- -------- ---- --------- --<br>---------- -- -------- ----------------,188237.40000009537,188236.60000014305,187862.615,187869.60000014305,187879.284,188246.197,,30,the
screen,html.Screen,0_4_1_0_1_31,2021-11-19T09:56:13.777Z,,,,,,,,,,,,,,,,11,,,,,,,,,,,,,,454.4030001430656,,response,,,4,D,,,,,Space,keypress(Space),,,,silence,----- -- ---- --- -- --- -------- ------------ ---------- --<br>- ------- ------ --------- -- ------------ -- --- ---- -----<br>------ ---- ---- ------ ------ ------- --- ----- ---------<br>---- --- island's -------- --- --- -- ------- --- --- -----<br>-- --- ------ ------- --- --- -------- ---- --------- --<br>---------- -- -------- ----------------,188701.40000009537,188700.60000014305,188229.526,188237.60000014305,188246.197,188713.017,,31,island's
screen,html.Screen,0_4_1_0_1_32,2021-11-19T09:56:14.227Z,,,,,,,,,,,,,,,,11,,,,,,,,,,,,,,435.48300000000745,,response,,,4,D,,,,,Space,keypress(Space),,,,silence,----- -- ---- --- -- --- -------- ------------ ---------- --<br>- ------- ------ --------- -- ------------ -- --- ---- -----<br>------ ---- ---- ------ ------ ------- --- ----- ---------<br>---- --- -------- history. --- --- -- ------- --- --- -----<br>-- --- ------ ------- --- --- -------- ---- --------- --<br>---------- -- -------- ----------------,189150.60000014305,189148.5,188696.346,188701.5,188713.017,189163.051,,32,history.
screen,html.Screen,0_4_1_0_1_33,2021-11-19T09:56:14.641Z,,,,,,,,,,,,,,,,11,,,,,,,,,,,,,,401.44899999999325,,response,,,4,D,,,,,Space,keypress(Space),,,,silence,----- -- ---- --- -- --- -------- ------------ ---------- --<br>- ------- ------ --------- -- ------------ -- --- ---- -----<br>------ ---- ---- ------ ------ ------- --- ----- ---------<br>---- --- -------- -------- The --- -- ------- --- --- -----<br>-- --- ------ ------- --- --- -------- ---- --------- --<br>---------- -- -------- ----------------,189565.20000004768,189564.5,189146.381,189150.90000009537,189163.051,189579.896,,33,The
screen,html.Screen,0_4_1_0_1_34,2021-11-19T09:56:14.937Z,,,,,,,,,,,,,,,,11,,,,,,,,,,,,,,280.5040000953595,,response,,,4,D,,,,,Space,keypress(Space),,,,silence,----- -- ---- --- -- --- -------- ------------ ---------- --<br>- ------- ------ --------- -- ------------ -- --- ---- -----<br>------ ---- ---- ------ ------ ------- --- ----- ---------<br>---- --- -------- -------- --- art -- ------- --- --- -----<br>-- --- ------ ------- --- --- -------- ---- --------- --<br>---------- -- -------- ----------------,189861.20000004768,189860.40000009537,189563.225,189565.40000009537,189579.896,189863.3,,34,art
screen,html.Screen,0_4_1_0_1_35,2021-11-19T09:56:15.289Z,,,,,,,,,,,,,,,,11,,,,,,,,,,,,,,348.9999999523279,,response,,,4,D,,,,,Space,keypress(Space),,,,silence,----- -- ---- --- -- --- -------- ------------ ---------- --<br>- ------- ------ --------- -- ------------ -- --- ---- -----<br>------ ---- ---- ------ ------ ------- --- ----- ---------<br>---- --- -------- -------- --- --- of ------- --- --- -----<br>-- --- ------ ------- --- --- -------- ---- --------- --<br>---------- -- -------- ----------------,190213.10000014305,190212.29999995232,189846.629,189861.40000009537,189863.3,190230.065,,35,of
screen,html.Screen,0_4_1_0_1_36,2021-11-19T09:56:15.729Z,,,,,,,,,,,,,,,,11,,,,,,,,,,,,,,422.3350000953651,,response,,,4,D,,,,,Space,keypress(Space),,,,silence,----- -- ---- --- -- --- -------- ------------ ---------- --<br>- ------- ------ --------- -- ------------ -- --- ---- -----<br>------ ---- ---- ------ ------ ------- --- ----- ---------<br>---- --- -------- -------- --- --- -- writing --- --- -----<br>-- --- ------ ------- --- --- -------- ---- --------- --<br>---------- -- -------- ----------------,190653.20000004768,190652.40000009537,190213.394,190213.29999995232,190230.065,190663.513,,36,writing
screen,html.Screen,0_4_1_0_1_37,2021-11-19T09:56:16.065Z,,,,,,,,,,,,,,,,11,,,,,,,,,,,,,,324.88700009536115,,response,,,4,D,,,,,Space,keypress(Space),,,,silence,----- -- ---- --- -- --- -------- ------------ ---------- --<br>- ------- ------ --------- -- ------------ -- --- ---- -----<br>------ ---- ---- ------ ------ ------- --- ----- ---------<br>---- --- -------- -------- --- --- -- ------- was --- -----<br>-- --- ------ ------- --- --- -------- ---- --------- --<br>---------- -- -------- ----------------,190989.20000004768,190988.40000009537,190646.842,190653.29999995232,190663.513,190996.953,,37,was
screen,html.Screen,0_4_1_0_1_38,2021-11-19T09:56:16.377Z,,,,,,,,,,,,,,,,11,,,,,,,,,,,,,,303.4470000953588,,response,,,4,D,,,,,Space,keypress(Space),,,,silence,----- -- ---- --- -- --- -------- ------------ ---------- --<br>- ------- ------ --------- -- ------------ -- --- ---- -----<br>------ ---- ---- ------ ------ ------- --- ----- ---------<br>---- --- -------- -------- --- --- -- ------- --- not -----<br>-- --- ------ ------- --- --- -------- ---- --------- --<br>---------- -- -------- ----------------,191301.20000004768,191300.40000009537,190980.282,190989.40000009537,190996.953,191313.644,,38,not
screen,html.Screen,0_4_1_0_1_39,2021-11-19T09:56:16.809Z,,,,,,,,,,,,,,,,11,,,,,,,,,,,,,,418.7560000953672,,response,,,4,D,,,,,Space,keypress(Space),,,,silence,----- -- ---- --- -- --- -------- ------------ ---------- --<br>- ------- ------ --------- -- ------------ -- --- ---- -----<br>------ ---- ---- ------ ------ ------- --- ----- ---------<br>---- --- -------- -------- --- --- -- ------- --- --- known<br>-- --- ------ ------- --- --- -------- ---- --------- --<br>---------- -- -------- ----------------,191733.40000009537,191732.40000009537,191296.974,191301.40000009537,191313.644,191747.096,,39,known
screen,html.Screen,0_4_1_0_1_40,2021-11-19T09:56:17.209Z,,,,,,,,,,,,,,,,11,,,,,,,,,,,,,,385.304000095377,,response,,,4,D,,,,,Space,keypress(Space),,,,silence,----- -- ---- --- -- --- -------- ------------ ---------- --<br>- ------- ------ --------- -- ------------ -- --- ---- -----<br>------ ---- ---- ------ ------ ------- --- ----- ---------<br>---- --- -------- -------- --- --- -- ------- --- --- -----<br>in --- ------ ------- --- --- -------- ---- --------- --<br>---------- -- -------- ----------------,192133.20000004768,192132.40000009537,191730.426,191733.60000014305,191747.096,192147.235,,40,in
screen,html.Screen,0_4_1_0_1_41,2021-11-19T09:56:17.593Z,,,,,,,,,,,,,,,,11,,,,,,,,,,,,,,369.1650000953814,,response,,,4,D,,,,,Space,keypress(Space),,,,silence,----- -- ---- --- -- --- -------- ------------ ---------- --<br>- ------- ------ --------- -- ------------ -- --- ---- -----<br>------ ---- ---- ------ ------ ------- --- ----- ---------<br>---- --- -------- -------- --- --- -- ------- --- --- -----<br>-- any ------ ------- --- --- -------- ---- --------- --<br>---------- -- -------- ----------------,192517.10000014305,192516.40000009537,192130.564,192133.40000009537,192147.235,192530.622,,41,any
screen,html.Screen,0_4_1_0_1_42,2021-11-19T09:56:17.937Z,,,,,,,,,,,,,,,,11,,,,,,,,,,,,,,329.7780000953644,,response,,,4,D,,,,,Space,keypress(Space),,,,silence,----- -- ---- --- -- --- -------- ------------ ---------- --<br>- ------- ------ --------- -- ------------ -- --- ---- -----<br>------ ---- ---- ------ ------ ------- --- ----- ---------<br>---- --- -------- -------- --- --- -- ------- --- --- -----<br>-- --- nearby ------- --- --- -------- ---- --------- --<br>---------- -- -------- ----------------,192861.10000014305,192860.40000009537,192513.952,192517.29999995232,192530.622,192863.988,,42,nearby
screen,html.Screen,0_4_1_0_1_43,2021-11-19T09:56:18.377Z,,,,,,,,,,,,,,,,11,,,,,,,,,,,,,,436.4120000953553,,response,,,4,D,,,,,Space,keypress(Space),,,,silence,----- -- ---- --- -- --- -------- ------------ ---------- --<br>- ------- ------ --------- -- ------------ -- --- ---- -----<br>------ ---- ---- ------ ------ ------- --- ----- ---------<br>---- --- -------- -------- --- --- -- ------- --- --- -----<br>-- --- ------ islands --- --- -------- ---- --------- --<br>---------- -- -------- ----------------,193301.10000014305,193300.40000009537,192847.319,192861.40000009537,192863.988,193314.317,,43,islands
screen,html.Screen,0_4_1_0_1_44,2021-11-19T09:56:18.769Z,,,,,,,,,,,,,,,,11,,,,,,,,,,,,,,378.0830000953574,,response,,,4,D,,,,,Space,keypress(Space),,,,silence,----- -- ---- --- -- --- -------- ------------ ---------- --<br>- ------- ------ --------- -- ------------ -- --- ---- -----<br>------ ---- ---- ------ ------ ------- --- ----- ---------<br>---- --- -------- -------- --- --- -- ------- --- --- -----<br>-- --- ------ ------- and --- -------- ---- --------- --<br>---------- -- -------- ----------------,193693.10000014305,193692.40000009537,193297.644,193301.29999995232,193314.317,193697.613,,44,and
screen,html.Screen,0_4_1_0_1_45,2021-11-19T09:56:19.178Z,,,,,,,,,,,,,,,,11,,,,,,,,,,,,,,403.0870000476716,,response,,,4,D,,,,,Space,keypress(Space),,,,silence,----- -- ---- --- -- --- -------- ------------ ---------- --<br>- ------- ------ --------- -- ------------ -- --- ---- -----<br>------ ---- ---- ------ ------ ------- --- ----- ---------<br>---- --- -------- -------- --- --- -- ------- --- --- -----<br>-- --- ------ ------- --- the -------- ---- --------- --<br>---------- -- -------- ----------------,194101.5,194100.70000004768,193680.943,193693.29999995232,193697.613,194114.308,,45,the
screen,html.Screen,0_4_1_0_1_46,2021-11-19T09:56:19.633Z,,,,,,,,,,,,,,,,11,,,,,,,,,,,,,,441.9919999523263,,response,,,4,D,,,,,Space,keypress(Space),,,,silence,----- -- ---- --- -- --- -------- ------------ ---------- --<br>- ------- ------ --------- -- ------------ -- --- ---- -----<br>------ ---- ---- ------ ------ ------- --- ----- ---------<br>---- --- -------- -------- --- --- -- ------- --- --- -----<br>-- --- ------ ------- --- --- script's ---- --------- --<br>---------- -- -------- ----------------,194557.10000014305,194556.29999995232,194097.639,194101.79999995232,194114.308,194564.605,,46,script's
screen,html.Screen,0_4_1_0_1_47,2021-11-19T09:56:20.017Z,,,,,,,,,,,,,,,,11,,,,,,,,,,,,,,375.6949999523058,,response,,,4,D,,,,,Space,keypress(Space),,,,silence,----- -- ---- --- -- --- -------- ------------ ---------- --<br>- ------- ------ --------- -- ------------ -- --- ---- -----<br>------ ---- ---- ------ ------ ------- --- ----- ---------<br>---- --- -------- -------- --- --- -- ------- --- --- -----<br>-- --- ------ ------- --- --- -------- mere --------- --<br>---------- -- -------- ----------------,194941.10000014305,194940.29999995232,194547.933,194557.29999995232,194564.605,194947.986,,47,mere
screen,html.Screen,0_4_1_0_1_48,2021-11-19T09:56:20.554Z,,,,,,,,,,,,,,,,11,,,,,,,,,,,,,,528.7140000476793,,response,,,4,D,,,,,Space,keypress(Space),,,,silence,----- -- ---- --- -- --- -------- ------------ ---------- --<br>- ------- ------ --------- -- ------------ -- --- ---- -----<br>------ ---- ---- ------ ------ ------- --- ----- ---------<br>---- --- -------- -------- --- --- -- ------- --- --- -----<br>-- --- ------ ------- --- --- -------- ---- existence --<br>---------- -- -------- ----------------,195477.40000009537,195476.70000004768,194931.315,194941.29999995232,194947.986,195481.316,,48,existence
screen,html.Screen,0_4_1_0_1_49,2021-11-19T09:56:20.993Z,,,,,,,,,,,,,,,,11,,,,,,,,,,,,,,434.8840000476921,,response,,,4,D,,,,,Space,keypress(Space),,,,silence,----- -- ---- --- -- --- -------- ------------ ---------- --<br>- ------- ------ --------- -- ------------ -- --- ---- -----<br>------ ---- ---- ------ ------ ------- --- ----- ---------<br>---- --- -------- -------- --- --- -- ------- --- --- -----<br>-- --- ------ ------- --- --- -------- ---- --------- is<br>---------- -- -------- ----------------,195917,195916.20000004768,195464.647,195477.70000004768,195481.316,195931.71,,49,is
screen,html.Screen,0_4_1_0_1_50,2021-11-19T09:56:21.489Z,,,,,,,,,,,,,,,,11,,,,,,,,,,,,,,480.49000004769186,,response,,,4,D,,,,,Space,keypress(Space),,,,silence,----- -- ---- --- -- --- -------- ------------ ---------- --<br>- ------- ------ --------- -- ------------ -- --- ---- -----<br>------ ---- ---- ------ ------ ------- --- ----- ---------<br>---- --- -------- -------- --- --- -- ------- --- --- -----<br>-- --- ------ ------- --- --- -------- ---- --------- --<br>sufficient -- -------- ----------------,196412.90000009537,196412.20000004768,195915.037,195917.20000004768,195931.71,196415.076,,50,sufficient
