sender,sender_type,sender_id,timestamp,meta,,Blues,Classical,Country,Dance,Electronic,Folk,Gospel,Hip-Hop,Jazz,Latin,Musical/Film,New-age,Pop,Provo_ID,R&B,Rap,Reggae,Religious,Rock,Soul,Swing,Traditional,age,artist_name,correct,correctResponse,distraction,duration,education,ended_on,familiarity,gender,item,list,music_frequency,offensiveness,pleasantness,preference,response,response_action,snippet_file,song_name,song_rating,sound,text,time_commit,time_end,time_render,time_run,time_show,time_switch,url,word,word_ID
Instructions,html.Page,0_0,2021-11-12T14:49:47.723Z,"{""labjs_version"":""20.2.3"",""labjs_build"":{""flavor"":""production"",""commit"":""7ea907d66ca8aeef8054924ca5d82ffbe11e34e5""},""location"":""https://run.pavlovia.org/mvasilev/lab_music_f/"",""userAgent"":""Mozilla/5.0 (Windows NT 6.1; Win64; x64) AppleWebKit/537.36 (KHTML, like Gecko) Chrome/95.0.4638.69 Safari/537.36"",""platform"":""Win32"",""language"":""en-US"",""locale"":""en-US"",""timeZone"":""Europe/London"",""timezoneOffset"":0,""screen_width"":1920,""screen_height"":1080,""scroll_width"":1920,""scroll_height"":959,""window_innerWidth"":1920,""window_innerHeight"":1007,""devicePixelRatio"":1}",,,,,,,,,,,,,,,,,,,,,,,,,,,,,30527.848999964237,,form submission,,,,,,,,,,,,,,,,40258.39999997616,40257.09999996424,9695.911,9716,9729.251,40264.167,{},,
Headphones,html.Page,0_1,2021-11-12T14:49:52.092Z,,,,,,,,,,,,,,,,,,,,,,,,,,,,,,4362.232999976157,,form submission,,,,,,,,,,,,,,,,44627,44626.39999997616,40247.501,40259.19999998808,40264.167,44637.918,,,
Holding screen,html.Screen,0_2_0_0,2021-11-12T14:50:02.096Z,,,,,,,,,,,,,,,,,,,,,,,,,,,,,,10003.052000000003,,timeout,,,,,,,,,,,,,,,,54630.59999996424,54624.3,44621.25,44627.80000001192,44637.918,54640.97,,,
screen,html.Screen,0_2_0_1_0,2021-11-12T14:50:02.844Z,,,,,,,,,,,,,,,,53,,,,,,,,,,,,,,736.2299999880779,,response,,,99,,,,,,Space,keypress(Space),,,,,When -- ----- -- ------ - ------- --- ----------<br>------------- ------ ------ ---- ---- ------- ----- -- ----<br>-------- ------- -- ---------- --- - --- ----- ----- ----<br>---- --- --- ----- --- ---- ---- ------- ----- ---- -------<br>--- --- -- ----- -- --- ---- -- --- ---- -- ------ ------<br>--- ----- -- ----,55378.59999996424,55377.19999998808,54624.3,54631.19999998808,54640.97,55391.321,,0,When
screen,html.Screen,0_2_0_1_1,2021-11-12T14:50:03.171Z,,,,,,,,,,,,,,,,53,,,,,,,,,,,,,,313.3789999880755,,response,,,99,,,,,,Space,keypress(Space),,,,,---- it ----- -- ------ - ------- --- ----------<br>------------- ------ ------ ---- ---- ------- ----- -- ----<br>-------- ------- -- ---------- --- - --- ----- ----- ----<br>---- --- --- ----- --- ---- ---- ------- ----- ---- -------<br>--- --- -- ----- -- --- ---- -- --- ---- -- ------ ------<br>--- ----- -- ----,55705.59999996424,55704.69999998808,55374.65,55379,55391.321,55707.989,,1,it
screen,html.Screen,0_2_0_1_2,2021-11-12T14:50:03.499Z,,,,,,,,,,,,,,,,53,,,,,,,,,,,,,,324.7109999880777,,response,,,99,,,,,,Space,keypress(Space),,,,,---- -- comes -- ------ - ------- --- ----------<br>------------- ------ ------ ---- ---- ------- ----- -- ----<br>-------- ------- -- ---------- --- - --- ----- ----- ----<br>---- --- --- ----- --- ---- ---- ------- ----- ---- -------<br>--- --- -- ----- -- --- ---- -- --- ---- -- ------ ------<br>--- ----- -- ----,56033.59999996424,56032.69999998808,55691.319,55705.89999997616,55707.989,56041.531,,2,comes
screen,html.Screen,0_2_0_1_3,2021-11-12T14:50:03.795Z,,,,,,,,,,,,,,,,53,,,,,,,,,,,,,,287.1689999880764,,response,,,99,,,,,,Space,keypress(Space),,,,,---- -- ----- to ------ - ------- --- ----------<br>------------- ------ ------ ---- ---- ------- ----- -- ----<br>-------- ------- -- ---------- --- - --- ----- ----- ----<br>---- --- --- ----- --- ---- ---- ------- ----- ---- -------<br>--- --- -- ----- -- --- ---- -- --- ---- -- ------ ------<br>--- ----- -- ----,56329.5,56328.69999998808,56024.859,56033.89999997616,56041.531,56341.553,,3,to
screen,html.Screen,0_2_0_1_4,2021-11-12T14:50:04.091Z,,,,,,,,,,,,,,,,53,,,,,,,,,,,,,,283.1469999880792,,response,,,99,,,,,,Space,keypress(Space),,,,,---- -- ----- -- having - ------- --- ----------<br>------------- ------ ------ ---- ---- ------- ----- -- ----<br>-------- ------- -- ---------- --- - --- ----- ----- ----<br>---- --- --- ----- --- ---- ---- ------- ----- ---- -------<br>--- --- -- ----- -- --- ---- -- --- ---- -- ------ ------<br>--- ----- -- ----,56626,56624.69999998808,56324.883,56330.19999998808,56341.553,56641.523,,4,having
screen,html.Screen,0_2_0_1_5,2021-11-12T14:50:04.411Z,,,,,,,,,,,,,,,,53,,,,,,,,,,,,,,303.07699996423617,,response,,,99,,,,,,Space,keypress(Space),,,,,---- -- ----- -- ------ a ------- --- ----------<br>------------- ------ ------ ---- ---- ------- ----- -- ----<br>-------- ------- -- ---------- --- - --- ----- ----- ----<br>---- --- --- ----- --- ---- ---- ------- ----- ---- -------<br>--- --- -- ----- -- --- ---- -- --- ---- -- ------ ------<br>--- ----- -- ----,56945.59999996424,56944.59999996424,56624.855,56626.30000001192,56641.523,56958.449,,5,a
screen,html.Screen,0_2_0_1_6,2021-11-12T14:50:04.723Z,,,,,,,,,,,,,,,,53,,,,,,,,,,,,,,298.1509999642367,,response,,,99,,,,,,Space,keypress(Space),,,,,---- -- ----- -- ------ - lasting --- ----------<br>------------- ------ ------ ---- ---- ------- ----- -- ----<br>-------- ------- -- ---------- --- - --- ----- ----- ----<br>---- --- --- ----- --- ---- ---- ------- ----- ---- -------<br>--- --- -- ----- -- --- ---- -- --- ---- -- ------ ------<br>--- ----- -- ----,57257.59999996424,57256.59999996424,56941.777,56946,56958.449,57275.151,,6,lasting
screen,html.Screen,0_2_0_1_7,2021-11-12T14:50:05.067Z,,,,,,,,,,,,,,,,53,,,,,,,,,,,,,,325.4489999642392,,response,,,99,,,,,,Space,keypress(Space),,,,,---- -- ----- -- ------ - ------- and ----------<br>------------- ------ ------ ---- ---- ------- ----- -- ----<br>-------- ------- -- ---------- --- - --- ----- ----- ----<br>---- --- --- ----- --- ---- ---- ------- ----- ---- -------<br>--- --- -- ----- -- --- ---- -- --- ---- -- ------ ------<br>--- ----- -- ----,57601.5,57600.59999996424,57258.48,57257.89999997616,57275.151,57608.537,,7,and
screen,html.Screen,0_2_0_1_8,2021-11-12T14:50:05.459Z,,,,,,,,,,,,,,,,53,,,,,,,,,,,,,,384.0629999642406,,response,,,99,,,,,,Space,keypress(Space),,,,,---- -- ----- -- ------ - ------- --- fulfilling<br>------------- ------ ------ ---- ---- ------- ----- -- ----<br>-------- ------- -- ---------- --- - --- ----- ----- ----<br>---- --- --- ----- --- ---- ---- ------- ----- ---- -------<br>--- --- -- ----- -- --- ---- -- --- ---- -- ------ ------<br>--- ----- -- ----,57993.69999998808,57992.59999996424,57591.867,57601.80000001192,57608.537,58008.618,,8,fulfilling
screen,html.Screen,0_2_0_1_9,2021-11-12T14:50:05.818Z,,,,,,,,,,,,,,,,53,,,,,,,,,,,,,,343.8819999999978,,response,,,99,,,,,,Space,keypress(Space),,,,,"---- -- ----- -- ------ - ------- --- ----------<br>relationship, ------ ------ ---- ---- ------- ----- -- ----<br>-------- ------- -- ---------- --- - --- ----- ----- ----<br>---- --- --- ----- --- ---- ---- ------- ----- ---- -------<br>--- --- -- ----- -- --- ---- -- --- ---- -- ------ ------<br>--- ----- -- ----",58353.5,58352.5,57991.948,57994,58008.618,58358.758,,9,"relationship,"
screen,html.Screen,0_2_0_1_10,2021-11-12T14:50:06.195Z,,,,,,,,,,,,,,,,53,,,,,,,,,,,,,,369.74199999999837,,response,,,99,,,,,,Space,keypress(Space),,,,,---- -- ----- -- ------ - ------- --- ----------<br>------------- common ------ ---- ---- ------- ----- -- ----<br>-------- ------- -- ---------- --- - --- ----- ----- ----<br>---- --- --- ----- --- ---- ---- ------- ----- ---- -------<br>--- --- -- ----- -- --- ---- -- --- ---- -- ------ ------<br>--- ----- -- ----,58729.5,58728.5,58342.087,58353.80000001192,58358.758,58742.198,,10,common
screen,html.Screen,0_2_0_1_11,2021-11-12T14:50:06.538Z,,,,,,,,,,,,,,,,53,,,,,,,,,,,,,,330.3020000000033,,response,,,99,,,,,,Space,keypress(Space),,,,,---- -- ----- -- ------ - ------- --- ----------<br>------------- ------ wisdom ---- ---- ------- ----- -- ----<br>-------- ------- -- ---------- --- - --- ----- ----- ----<br>---- --- --- ----- --- ---- ---- ------- ----- ---- -------<br>--- --- -- ----- -- --- ---- -- --- ---- -- ------ ------<br>--- ----- -- ----,59073.5,59072.5,58725.527,58729.80000001192,58742.198,59075.592,,11,wisdom
screen,html.Screen,0_2_0_1_12,2021-11-12T14:50:06.890Z,,,,,,,,,,,,,,,,53,,,,,,,,,,,,,,348.8079999761612,,response,,,99,,,,,,Space,keypress(Space),,,,,---- -- ----- -- ------ - ------- --- ----------<br>------------- ------ ------ says ---- ------- ----- -- ----<br>-------- ------- -- ---------- --- - --- ----- ----- ----<br>---- --- --- ----- --- ---- ---- ------- ----- ---- -------<br>--- --- -- ----- -- --- ---- -- --- ---- -- ------ ------<br>--- ----- -- ----,59425.30000001192,59424.39999997616,59058.922,59073.69999998808,59075.592,59442.214,,12,says
screen,html.Screen,0_2_0_1_13,2021-11-12T14:50:07.290Z,,,,,,,,,,,,,,,,53,,,,,,,,,,,,,,382.1859999761582,,response,,,99,,,,,,Space,keypress(Space),,,,,---- -- ----- -- ------ - ------- --- ----------<br>------------- ------ ------ ---- that ------- ----- -- ----<br>-------- ------- -- ---------- --- - --- ----- ----- ----<br>---- --- --- ----- --- ---- ---- ------- ----- ---- -------<br>--- --- -- ----- -- --- ---- -- --- ---- -- ------ ------<br>--- ----- -- ----,59825.30000001192,59824.39999997616,59425.546,59425.69999998808,59442.214,59842.439,,13,that
screen,html.Screen,0_2_0_1_14,2021-11-12T14:50:07.638Z,,,,,,,,,,,,,,,,53,,,,,,,,,,,,,,325.96099997615966,,response,,,99,,,,,,Space,keypress(Space),,,,,---- -- ----- -- ------ - ------- --- ----------<br>------------- ------ ------ ---- ---- feeling ----- -- ----<br>-------- ------- -- ---------- --- - --- ----- ----- ----<br>---- --- --- ----- --- ---- ---- ------- ----- ---- -------<br>--- --- -- ----- -- --- ---- -- --- ---- -- ------ ------<br>--- ----- -- ----,60169.39999997616,60168.39999997616,59825.768,59825.59999996424,59842.439,60175.938,,14,feeling
screen,html.Screen,0_2_0_1_15,2021-11-12T14:50:08.006Z,,,,,,,,,,,,,,,,53,,,,,,,,,,,,,,360.362000011919,,response,,,99,,,,,,Space,keypress(Space),,,,,---- -- ----- -- ------ - ------- --- ----------<br>------------- ------ ------ ---- ---- ------- close -- ----<br>-------- ------- -- ---------- --- - --- ----- ----- ----<br>---- --- --- ----- --- ---- ---- ------- ----- ---- -------<br>--- --- -- ----- -- --- ---- -- --- ---- -- ------ ------<br>--- ----- -- ----,60537.19999998808,60536.30000001192,60159.266,60169.59999996424,60175.938,60542.629,,15,close
screen,html.Screen,0_2_0_1_16,2021-11-12T14:50:08.358Z,,,,,,,,,,,,,,,,53,,,,,,,,,,,,,,345.6710000119201,,response,,,99,,,,,,Space,keypress(Space),,,,,---- -- ----- -- ------ - ------- --- ----------<br>------------- ------ ------ ---- ---- ------- ----- to ----<br>-------- ------- -- ---------- --- - --- ----- ----- ----<br>---- --- --- ----- --- ---- ---- ------- ----- ---- -------<br>--- --- -- ----- -- --- ---- -- --- ---- -- ------ ------<br>--- ----- -- ----,60889.19999998808,60888.30000001192,60525.959,60537.39999997616,60542.629,60892.755,,16,to
screen,html.Screen,0_2_0_1_17,2021-11-12T14:50:08.757Z,,,,,,,,,,,,,,,,53,,,,,,,,,,,,,,395.54500001192355,,response,,,99,,,,,,Space,keypress(Space),,,,,---- -- ----- -- ------ - ------- --- ----------<br>------------- ------ ------ ---- ---- ------- ----- -- your<br>-------- ------- -- ---------- --- - --- ----- ----- ----<br>---- --- --- ----- --- ---- ---- ------- ----- ---- -------<br>--- --- -- ----- -- --- ---- -- --- ---- -- ------ ------<br>--- ----- -- ----,61289.09999996424,61288.30000001192,60876.084,60889.39999997616,60892.755,61292.805,,17,your
screen,html.Screen,0_2_0_1_18,2021-11-12T14:50:09.149Z,,,,,,,,,,,,,,,,53,,,,,,,,,,,,,,387.49500001192064,,response,,,99,,,,,,Space,keypress(Space),,,,,---- -- ----- -- ------ - ------- --- ----------<br>------------- ------ ------ ---- ---- ------- ----- -- ----<br>romantic ------- -- ---------- --- - --- ----- ----- ----<br>---- --- --- ----- --- ---- ---- ------- ----- ---- -------<br>--- --- -- ----- -- --- ---- -- --- ---- -- ------ ------<br>--- ----- -- ----,61681.09999996424,61680.30000001192,61276.135,61289.5,61292.805,61692.968,,18,romantic
screen,html.Screen,0_2_0_1_19,2021-11-12T14:50:10.208Z,,,,,,,,,,,,,,,,53,,,,,,,,,,,,,,1045.9319999761574,,response,,,99,,,,,,Space,keypress(Space),,,,,---- -- ----- -- ------ - ------- --- ----------<br>------------- ------ ------ ---- ---- ------- ----- -- ----<br>-------- partner -- ---------- --- - --- ----- ----- ----<br>---- --- --- ----- --- ---- ---- ------- ----- ---- -------<br>--- --- -- ----- -- --- ---- -- --- ---- -- ------ ------<br>--- ----- -- ----,62739.80000001192,62738.89999997616,61676.297,61681.39999997616,61692.968,62743.139,,19,partner
screen,html.Screen,0_2_0_1_20,2021-11-12T14:50:10.541Z,,,,,,,,,,,,,,,,53,,,,,,,,,,,,,,328.96099996423436,,response,,,99,,,,,,Space,keypress(Space),,,,,---- -- ----- -- ------ - ------- --- ----------<br>------------- ------ ------ ---- ---- ------- ----- -- ----<br>-------- ------- is ---------- --- - --- ----- ----- ----<br>---- --- --- ----- --- ---- ---- ------- ----- ---- -------<br>--- --- -- ----- -- --- ---- -- --- ---- -- ------ ------<br>--- ----- -- ----,63072.89999997616,63072.09999996424,62726.469,62740,62743.139,63076.678,,20,is
screen,html.Screen,0_2_0_1_21,2021-11-12T14:50:10.901Z,,,,,,,,,,,,,,,,53,,,,,,,,,,,,,,355.5219999880792,,response,,,99,,,,,,Space,keypress(Space),,,,,---- -- ----- -- ------ - ------- --- ----------<br>------------- ------ ------ ---- ---- ------- ----- -- ----<br>-------- ------- -- paramount. --- - --- ----- ----- ----<br>---- --- --- ----- --- ---- ---- ------- ----- ---- -------<br>--- --- -- ----- -- --- ---- -- --- ---- -- ------ ------<br>--- ----- -- ----,63433,63432.19999998808,63060.007,63073.19999998808,63076.678,63443.368,,21,paramount.
screen,html.Screen,0_2_0_1_22,2021-11-12T14:50:11.277Z,,,,,,,,,,,,,,,,53,,,,,,,,,,,,,,364.83199998807686,,response,,,99,,,,,,Space,keypress(Space),,,,,---- -- ----- -- ------ - ------- --- ----------<br>------------- ------ ------ ---- ---- ------- ----- -- ----<br>-------- ------- -- ---------- But - --- ----- ----- ----<br>---- --- --- ----- --- ---- ---- ------- ----- ---- -------<br>--- --- -- ----- -- --- ---- -- --- ---- -- ------ ------<br>--- ----- -- ----,63809,63808.19999998808,63426.698,63433.59999996424,63443.368,63810.132,,22,But
screen,html.Screen,0_2_0_1_23,2021-11-12T14:50:11.677Z,,,,,,,,,,,,,,,,53,,,,,,,,,,,,,,397.9679999642394,,response,,,99,,,,,,Space,keypress(Space),,,,,---- -- ----- -- ------ - ------- --- ----------<br>------------- ------ ------ ---- ---- ------- ----- -- ----<br>-------- ------- -- ---------- --- a --- ----- ----- ----<br>---- --- --- ----- --- ---- ---- ------- ----- ---- -------<br>--- --- -- ----- -- --- ---- -- --- ---- -- ------ ------<br>--- ----- -- ----,64209.09999996424,64208.09999996424,63793.462,63809.30000001192,63810.132,64210.159,,23,a
screen,html.Screen,0_2_0_1_24,2021-11-12T14:50:12.085Z,,,,,,,,,,,,,,,,53,,,,,,,,,,,,,,406.0409999880794,,response,,,99,,,,,,Space,keypress(Space),,,,,---- -- ----- -- ------ - ------- --- ----------<br>------------- ------ ------ ---- ---- ------- ----- -- ----<br>-------- ------- -- ---------- --- - new ----- ----- ----<br>---- --- --- ----- --- ---- ---- ------- ----- ---- -------<br>--- --- -- ----- -- --- ---- -- --- ---- -- ------ ------<br>--- ----- -- ----,64617,64616.19999998808,64193.49,64209.39999997616,64210.159,64627.11,,24,new
screen,html.Screen,0_2_0_1_25,2021-11-12T14:50:12.437Z,,,,,,,,,,,,,,,,53,,,,,,,,,,,,,,340.98999996423663,,response,,,99,,,,,,Space,keypress(Space),,,,,---- -- ----- -- ------ - ------- --- ----------<br>------------- ------ ------ ---- ---- ------- ----- -- ----<br>-------- ------- -- ---------- --- - --- study ----- ----<br>---- --- --- ----- --- ---- ---- ------- ----- ---- -------<br>--- --- -- ----- -- --- ---- -- --- ---- -- ------ ------<br>--- ----- -- ----,64969,64968.09999996424,64610.438,64617.30000001192,64627.11,64977.086,,25,study
screen,html.Screen,0_2_0_1_26,2021-11-12T14:50:12.741Z,,,,,,,,,,,,,,,,53,,,,,,,,,,,,,,294.91399999999703,,response,,,99,,,,,,Space,keypress(Space),,,,,---- -- ----- -- ------ - ------- --- ----------<br>------------- ------ ------ ---- ---- ------- ----- -- ----<br>-------- ------- -- ---------- --- - --- ----- finds ----<br>---- --- --- ----- --- ---- ---- ------- ----- ---- -------<br>--- --- -- ----- -- --- ---- -- --- ---- -- ------ ------<br>--- ----- -- ----,65272.80000001192,65272,64960.416,64969.19999998808,64977.086,65277.209,,26,finds
screen,html.Screen,0_2_0_1_27,2021-11-12T14:50:13.134Z,,,,,,,,,,,,,,,,53,,,,,,,,,,,,,,387.39099996423465,,response,,,99,,,,,,Space,keypress(Space),,,,,---- -- ----- -- ------ - ------- --- ----------<br>------------- ------ ------ ---- ---- ------- ----- -- ----<br>-------- ------- -- ---------- --- - --- ----- ----- that<br>---- --- --- ----- --- ---- ---- ------- ----- ---- -------<br>--- --- -- ----- -- --- ---- -- --- ---- -- ------ ------<br>--- ----- -- ----,65665.30000001192,65664.59999996424,65260.538,65273.09999996424,65277.209,65677.282,,27,that
screen,html.Screen,0_2_0_1_28,2021-11-12T14:50:13.485Z,,,,,,,,,,,,,,,,53,,,,,,,,,,,,,,338.7179999999935,,response,,,99,,,,,,Space,keypress(Space),,,,,---- -- ----- -- ------ - ------- --- ----------<br>------------- ------ ------ ---- ---- ------- ----- -- ----<br>-------- ------- -- ---------- --- - --- ----- ----- ----<br>it's --- --- ----- --- ---- ---- ------- ----- ---- -------<br>--- --- -- ----- -- --- ---- -- --- ---- -- ------ ------<br>--- ----- -- ----,66016.89999997616,66016,65660.612,65665.59999996424,65677.282,66027.372,,28,it's
screen,html.Screen,0_2_0_1_29,2021-11-12T14:50:13.829Z,,,,,,,,,,,,,,,,53,,,,,,,,,,,,,,332.7279999642342,,response,,,99,,,,,,Space,keypress(Space),,,,,---- -- ----- -- ------ - ------- --- ----------<br>------------- ------ ------ ---- ---- ------- ----- -- ----<br>-------- ------- -- ---------- --- - --- ----- ----- ----<br>---- not --- ----- --- ---- ---- ------- ----- ---- -------<br>--- --- -- ----- -- --- ---- -- --- ---- -- ------ ------<br>--- ----- -- ----,66360.89999997616,66360.09999996424,66010.702,66017.09999996424,66027.372,66377.365,,29,not
screen,html.Screen,0_2_0_1_30,2021-11-12T14:50:14.173Z,,,,,,,,,,,,,,,,53,,,,,,,,,,,,,,326.734999964232,,response,,,99,,,,,,Space,keypress(Space),,,,,---- -- ----- -- ------ - ------- --- ----------<br>------------- ------ ------ ---- ---- ------- ----- -- ----<br>-------- ------- -- ---------- --- - --- ----- ----- ----<br>---- --- how ----- --- ---- ---- ------- ----- ---- -------<br>--- --- -- ----- -- --- ---- -- --- ---- -- ------ ------<br>--- ----- -- ----,66704.89999997616,66704.09999996424,66360.696,66361.19999998808,66377.365,66710.944,,30,how
screen,html.Screen,0_2_0_1_31,2021-11-12T14:50:14.501Z,,,,,,,,,,,,,,,,53,,,,,,,,,,,,,,321.05599999999686,,response,,,99,,,,,,Space,keypress(Space),,,,,---- -- ----- -- ------ - ------- --- ----------<br>------------- ------ ------ ---- ---- ------- ----- -- ----<br>-------- ------- -- ---------- --- - --- ----- ----- ----<br>---- --- --- close --- ---- ---- ------- ----- ---- -------<br>--- --- -- ----- -- --- ---- -- --- ---- -- ------ ------<br>--- ----- -- ----,67032.89999997616,67032,66694.272,66705.19999998808,66710.944,67044.338,,31,close
screen,html.Screen,0_2_0_1_32,2021-11-12T14:50:14.813Z,,,,,,,,,,,,,,,,53,,,,,,,,,,,,,,299.76199996423384,,response,,,99,,,,,,Space,keypress(Space),,,,,---- -- ----- -- ------ - ------- --- ----------<br>------------- ------ ------ ---- ---- ------- ----- -- ----<br>-------- ------- -- ---------- --- - --- ----- ----- ----<br>---- --- --- ----- you ---- ---- ------- ----- ---- -------<br>--- --- -- ----- -- --- ---- -- --- ---- -- ------ ------<br>--- ----- -- ----,67344.89999997616,67344.09999996424,67027.667,67033.19999998808,67044.338,67361.056,,32,you
screen,html.Screen,0_2_0_1_33,2021-11-12T14:50:15.117Z,,,,,,,,,,,,,,,,53,,,,,,,,,,,,,,286.94400000000314,,response,,,99,,,,,,Space,keypress(Space),,,,,---- -- ----- -- ------ - ------- --- ----------<br>------------- ------ ------ ---- ---- ------- ----- -- ----<br>-------- ------- -- ---------- --- - --- ----- ----- ----<br>---- --- --- ----- --- feel ---- ------- ----- ---- -------<br>--- --- -- ----- -- --- ---- -- --- ---- -- ------ ------<br>--- ----- -- ----,67648.89999997616,67648,67344.386,67345.19999998808,67361.056,67661.023,,33,feel
screen,html.Screen,0_2_0_1_34,2021-11-12T14:50:15.413Z,,,,,,,,,,,,,,,,53,,,,,,,,,,,,,,282.8769999761571,,response,,,99,,,,,,Space,keypress(Space),,,,,---- -- ----- -- ------ - ------- --- ----------<br>------------- ------ ------ ---- ---- ------- ----- -- ----<br>-------- ------- -- ---------- --- - --- ----- ----- ----<br>---- --- --- ----- --- ---- that ------- ----- ---- -------<br>--- --- -- ----- -- --- ---- -- --- ---- -- ------ ------<br>--- ----- -- ----,67944.89999997616,67943.89999997616,67644.355,67649.09999996424,67661.023,67961.286,,34,that
screen,html.Screen,0_2_0_1_35,2021-11-12T14:50:15.733Z,,,,,,,,,,,,,,,,53,,,,,,,,,,,,,,302.7140000000072,,response,,,99,,,,,,Space,keypress(Space),,,,,---- -- ----- -- ------ - ------- --- ----------<br>------------- ------ ------ ---- ---- ------- ----- -- ----<br>-------- ------- -- ---------- --- - --- ----- ----- ----<br>---- --- --- ----- --- ---- ---- matters ----- ---- -------<br>--- --- -- ----- -- --- ---- -- --- ---- -- ------ ------<br>--- ----- -- ----,68265.09999996424,68264,67944.614,67945.19999998808,67961.286,68277.952,,35,matters
screen,html.Screen,0_2_0_1_36,2021-11-12T14:50:16.014Z,,,,,,,,,,,,,,,,53,,,,,,,,,,,,,,266.0479999999952,,response,,,99,,,,,,Space,keypress(Space),,,,,"---- -- ----- -- ------ - ------- --- ----------<br>------------- ------ ------ ---- ---- ------- ----- -- ----<br>-------- ------- -- ---------- --- - --- ----- ----- ----<br>---- --- --- ----- --- ---- ---- ------- most, ---- -------<br>--- --- -- ----- -- --- ---- -- --- ---- -- ------ ------<br>--- ----- -- ----",68545.19999998808,68544,68261.282,68265.39999997616,68277.952,68561.238,,36,"most,"
screen,html.Screen,0_2_0_1_37,2021-11-12T14:50:16.373Z,,,,,,,,,,,,,,,,53,,,,,,,,,,,,,,342.76200000000244,,response,,,99,,,,,,Space,keypress(Space),,,,,---- -- ----- -- ------ - ------- --- ----------<br>------------- ------ ------ ---- ---- ------- ----- -- ----<br>-------- ------- -- ---------- --- - --- ----- ----- ----<br>---- --- --- ----- --- ---- ---- ------- ----- it's -------<br>--- --- -- ----- -- --- ---- -- --- ---- -- ------ ------<br>--- ----- -- ----,68904.69999998808,68904,68544.57,68545.59999996424,68561.238,68911.388,,37,it's
screen,html.Screen,0_2_0_1_38,2021-11-12T14:50:16.701Z,,,,,,,,,,,,,,,,53,,,,,,,,,,,,,,320.6119999999937,,response,,,99,,,,,,Space,keypress(Space),,,,,---- -- ----- -- ------ - ------- --- ----------<br>------------- ------ ------ ---- ---- ------- ----- -- ----<br>-------- ------- -- ---------- --- - --- ----- ----- ----<br>---- --- --- ----- --- ---- ---- ------- ----- ---- whether<br>--- --- -- ----- -- --- ---- -- --- ---- -- ------ ------<br>--- ----- -- ----,69232.80000001192,69232,68894.718,68905,68911.388,69244.871,,38,whether
screen,html.Screen,0_2_0_1_39,2021-11-12T14:50:17.045Z,,,,,,,,,,,,,,,,53,,,,,,,,,,,,,,331.02899997615896,,response,,,99,,,,,,Space,keypress(Space),,,,,---- -- ----- -- ------ - ------- --- ----------<br>------------- ------ ------ ---- ---- ------- ----- -- ----<br>-------- ------- -- ---------- --- - --- ----- ----- ----<br>---- --- --- ----- --- ---- ---- ------- ----- ---- -------<br>you --- -- ----- -- --- ---- -- --- ---- -- ------ ------<br>--- ----- -- ----,69576.69999998808,69575.89999997616,69228.2,69233,69244.871,69578.365,,39,you
screen,html.Screen,0_2_0_1_40,2021-11-12T14:50:17.381Z,,,,,,,,,,,,,,,,53,,,,,,,,,,,,,,333.63499999999476,,response,,,99,,,,,,Space,keypress(Space),,,,,---- -- ----- -- ------ - ------- --- ----------<br>------------- ------ ------ ---- ---- ------- ----- -- ----<br>-------- ------- -- ---------- --- - --- ----- ----- ----<br>---- --- --- ----- --- ---- ---- ------- ----- ---- -------<br>--- are -- ----- -- --- ---- -- --- ---- -- ------ ------<br>--- ----- -- ----,69912.80000001192,69912,69561.693,69577,69578.365,69928.372,,40,are
screen,html.Screen,0_2_0_1_41,2021-11-12T14:50:17.685Z,,,,,,,,,,,,,,,,53,,,,,,,,,,,,,,287.4280000119179,,response,,,99,,,,,,Space,keypress(Space),,,,,---- -- ----- -- ------ - ------- --- ----------<br>------------- ------ ------ ---- ---- ------- ----- -- ----<br>-------- ------- -- ---------- --- - --- ----- ----- ----<br>---- --- --- ----- --- ---- ---- ------- ----- ---- -------<br>--- --- as ----- -- --- ---- -- --- ---- -- ------ ------<br>--- ----- -- ----,70216.69999998808,70215.80000001192,69911.702,69913,69928.372,70228.459,,41,as
screen,html.Screen,0_2_0_1_42,2021-11-12T14:50:17.997Z,,,,,,,,,,,,,,,,53,,,,,,,,,,,,,,299.4409999761556,,response,,,99,,,,,,Space,keypress(Space),,,,,---- -- ----- -- ------ - ------- --- ----------<br>------------- ------ ------ ---- ---- ------- ----- -- ----<br>-------- ------- -- ---------- --- - --- ----- ----- ----<br>---- --- --- ----- --- ---- ---- ------- ----- ---- -------<br>--- --- -- close -- --- ---- -- --- ---- -- ------ ------<br>--- ----- -- ----,70528.59999996424,70527.89999997616,70211.789,70216.89999997616,70228.459,70545.082,,42,close
screen,html.Screen,0_2_0_1_43,2021-11-12T14:50:18.309Z,,,,,,,,,,,,,,,,53,,,,,,,,,,,,,,294.71800001192605,,response,,,99,,,,,,Space,keypress(Space),,,,,---- -- ----- -- ------ - ------- --- ----------<br>------------- ------ ------ ---- ---- ------- ----- -- ----<br>-------- ------- -- ---------- --- - --- ----- ----- ----<br>---- --- --- ----- --- ---- ---- ------- ----- ---- -------<br>--- --- -- ----- as --- ---- -- --- ---- -- ------ ------<br>--- ----- -- ----,70840.59999996424,70839.80000001192,70528.414,70528.89999997616,70545.082,70845.376,,43,as
screen,html.Screen,0_2_0_1_44,2021-11-12T14:50:18.605Z,,,,,,,,,,,,,,,,53,,,,,,,,,,,,,,290.4240000119171,,response,,,99,,,,,,Space,keypress(Space),,,,,---- -- ----- -- ------ - ------- --- ----------<br>------------- ------ ------ ---- ---- ------- ----- -- ----<br>-------- ------- -- ---------- --- - --- ----- ----- ----<br>---- --- --- ----- --- ---- ---- ------- ----- ---- -------<br>--- --- -- ----- -- you ---- -- --- ---- -- ------ ------<br>--- ----- -- ----,71136.59999996424,71135.80000001192,70828.703,70840.80000001192,70845.376,71145.388,,44,you
screen,html.Screen,0_2_0_1_45,2021-11-12T14:50:18.917Z,,,,,,,,,,,,,,,,53,,,,,,,,,,,,,,302.41200001191464,,response,,,99,,,,,,Space,keypress(Space),,,,,---- -- ----- -- ------ - ------- --- ----------<br>------------- ------ ------ ---- ---- ------- ----- -- ----<br>-------- ------- -- ---------- --- - --- ----- ----- ----<br>---- --- --- ----- --- ---- ---- ------- ----- ---- -------<br>--- --- -- ----- -- --- want -- --- ---- -- ------ ------<br>--- ----- -- ----,71448.59999996424,71447.80000001192,71128.717,71136.89999997616,71145.388,71462.113,,45,want
screen,html.Screen,0_2_0_1_46,2021-11-12T14:50:19.213Z,,,,,,,,,,,,,,,,53,,,,,,,,,,,,,,281.6870000119234,,response,,,99,,,,,,Space,keypress(Space),,,,,---- -- ----- -- ------ - ------- --- ----------<br>------------- ------ ------ ---- ---- ------- ----- -- ----<br>-------- ------- -- ---------- --- - --- ----- ----- ----<br>---- --- --- ----- --- ---- ---- ------- ----- ---- -------<br>--- --- -- ----- -- --- ---- to --- ---- -- ------ ------<br>--- ----- -- ----,71744.59999996424,71743.80000001192,71445.443,71448.80000001192,71462.113,71762.189,,46,to
screen,html.Screen,0_2_0_1_47,2021-11-12T14:50:19.533Z,,,,,,,,,,,,,,,,53,,,,,,,,,,,,,,301.61100001192244,,response,,,99,,,,,,Space,keypress(Space),,,,,"---- -- ----- -- ------ - ------- --- ----------<br>------------- ------ ------ ---- ---- ------- ----- -- ----<br>-------- ------- -- ---------- --- - --- ----- ----- ----<br>---- --- --- ----- --- ---- ---- ------- ----- ---- -------<br>--- --- -- ----- -- --- ---- -- be, ---- -- ------ ------<br>--- ----- -- ----",72064.59999996424,72063.80000001192,71745.519,71744.80000001192,71762.189,72078.807,,47,"be,"
screen,html.Screen,0_2_0_1_48,2021-11-12T14:50:19.829Z,,,,,,,,,,,,,,,,53,,,,,,,,,,,,,,280.8929999880784,,response,,,99,,,,,,Space,keypress(Space),,,,,---- -- ----- -- ------ - ------- --- ----------<br>------------- ------ ------ ---- ---- ------- ----- -- ----<br>-------- ------- -- ---------- --- - --- ----- ----- ----<br>---- --- --- ----- --- ---- ---- ------- ----- ---- -------<br>--- --- -- ----- -- --- ---- -- --- even -- ------ ------<br>--- ----- -- ----,72360.39999997616,72359.69999998808,72062.139,72064.80000001192,72078.807,72362.433,,48,even
screen,html.Screen,0_2_0_1_49,2021-11-12T14:50:20.125Z,,,,,,,,,,,,,,,,53,,,,,,,,,,,,,,293.26699998807453,,response,,,99,,,,,,Space,keypress(Space),,,,,---- -- ----- -- ------ - ------- --- ----------<br>------------- ------ ------ ---- ---- ------- ----- -- ----<br>-------- ------- -- ---------- --- - --- ----- ----- ----<br>---- --- --- ----- --- ---- ---- ------- ----- ---- -------<br>--- --- -- ----- -- --- ---- -- --- ---- if ------ ------<br>--- ----- -- ----,72656.5,72655.69999998808,72345.76,72360.69999998808,72362.433,72662.385,,49,if
screen,html.Screen,0_2_0_1_50,2021-11-12T14:50:20.421Z,,,,,,,,,,,,,,,,53,,,,,,,,,,,,,,289.3149999880843,,response,,,99,,,,,,Space,keypress(Space),,,,,---- -- ----- -- ------ - ------- --- ----------<br>------------- ------ ------ ---- ---- ------- ----- -- ----<br>-------- ------- -- ---------- --- - --- ----- ----- ----<br>---- --- --- ----- --- ---- ---- ------- ----- ---- -------<br>--- --- -- ----- -- --- ---- -- --- ---- -- that's ------<br>--- ----- -- ----,72952.5,72951.69999998808,72645.716,72656.80000001192,72662.385,72962.493,,50,that's
screen,html.Screen,0_2_0_1_51,2021-11-12T14:50:20.749Z,,,,,,,,,,,,,,,,53,,,,,,,,,,,,,,317.106999964235,,response,,,99,,,,,,Space,keypress(Space),,,,,---- -- ----- -- ------ - ------- --- ----------<br>------------- ------ ------ ---- ---- ------- ----- -- ----<br>-------- ------- -- ---------- --- - --- ----- ----- ----<br>---- --- --- ----- --- ---- ---- ------- ----- ---- -------<br>--- --- -- ----- -- --- ---- -- --- ---- -- ------ really<br>--- ----- -- ----,73280.39999997616,73279.59999996424,72945.823,72952.80000001192,72962.493,73295.908,,51,really
screen,html.Screen,0_2_0_1_52,2021-11-12T14:50:21.061Z,,,,,,,,,,,,,,,,53,,,,,,,,,,,,,,295.79199998808326,,response,,,99,,,,,,Space,keypress(Space),,,,,---- -- ----- -- ------ - ------- --- ----------<br>------------- ------ ------ ---- ---- ------- ----- -- ----<br>-------- ------- -- ---------- --- - --- ----- ----- ----<br>---- --- --- ----- --- ---- ---- ------- ----- ---- -------<br>--- --- -- ----- -- --- ---- -- --- ---- -- ------ ------<br>not ----- -- ----,73592.39999997616,73591.69999998808,73279.238,73280.69999998808,73295.908,73595.866,,52,not
screen,html.Screen,0_2_0_1_53,2021-11-12T14:50:21.357Z,,,,,,,,,,,,,,,,53,,,,,,,,,,,,,,291.7339999642427,,response,,,99,,,,,,Space,keypress(Space),,,,,---- -- ----- -- ------ - ------- --- ----------<br>------------- ------ ------ ---- ---- ------- ----- -- ----<br>-------- ------- -- ---------- --- - --- ----- ----- ----<br>---- --- --- ----- --- ---- ---- ------- ----- ---- -------<br>--- --- -- ----- -- --- ---- -- --- ---- -- ------ ------<br>--- close -- ----,73888.39999997616,73887.59999996424,73579.198,73592.80000001192,73595.866,73896.164,,53,close
screen,html.Screen,0_2_0_1_54,2021-11-12T14:50:21.717Z,,,,,,,,,,,,,,,,53,,,,,,,,,,,,,,351.53599998807476,,response,,,99,,,,,,Space,keypress(Space),,,,,---- -- ----- -- ------ - ------- --- ----------<br>------------- ------ ------ ---- ---- ------- ----- -- ----<br>-------- ------- -- ---------- --- - --- ----- ----- ----<br>---- --- --- ----- --- ---- ---- ------- ----- ---- -------<br>--- --- -- ----- -- --- ---- -- --- ---- -- ------ ------<br>--- ----- at ----,74248.5,74247.69999998808,73879.491,73888.69999998808,73896.164,74262.82,,54,at
screen,html.Screen,0_2_0_1_55,2021-11-12T14:50:22.677Z,,,,,,,,,,,,,,,,53,,,,,,,,,,,,,,944.679999999993,,response,,,99,,,,,,Space,keypress(Space),,,,,---- -- ----- -- ------ - ------- --- ----------<br>------------- ------ ------ ---- ---- ------- ----- -- ----<br>-------- ------- -- ---------- --- - --- ----- ----- ----<br>---- --- --- ----- --- ---- ---- ------- ----- ---- -------<br>--- --- -- ----- -- --- ---- -- --- ---- -- ------ ------<br>--- ----- -- all.,75208.30000001192,75207.5,74246.15,74248.69999998808,74262.82,75229.706,,55,all.
Item 99,flow.Loop,0_2_0_1,2021-11-12T14:50:22.681Z,,,,,,,,,,,,,,,,,,,,,,,,,,,,,,20566.53,,completion,,,,F,,,,,,,,,,silence,,75213,75207.5,54624.3,54631.09999996424,54640.97,75229.706,,,
Question 1,html.Screen,0_2_0_2,2021-11-12T14:50:27.820Z,,,,,,,,,,,,,,,,,,,,,,,,,,,true,FALSE,,5120.393999964232,,response,,,99,F,,,,,FALSE,click #choice-2,,,,silence,,80351.59999996424,80350.09999996424,75213.036,75213.30000001192,75229.706,80364.407,,,
Question 2,html.Screen,0_2_0_3,2021-11-12T14:50:28.100Z,,,,,,,,,,,,,,,,,,,,,,,,,,,false,TRUE,,266.0929999999935,,response,,,99,F,,,,,FALSE,click #choice-2,,,,silence,,80631.80000001192,80630.5,80347.737,80352,80364.407,80647.64,,,
Item 99,flow.Sequence,0_2_0,2021-11-12T14:50:28.101Z,,,,,,,,,,,,,,,,,,,,,,,,,,,,,,35992.582,,completion,,,,,,,,,,,,,,,,80632.30000001192,80630.5,44621.25,44627.69999998808,44637.918,80647.64,,,
Holding screen,html.Screen,0_2_1_0,2021-11-12T14:50:38.103Z,,,,,,,,,,,,,,,,,,,,,,,,,,,,,,10002.631999999998,,timeout,,,,,,,,,,,,,,,,90634.69999998808,90633.602,80630.975,80632.59999996424,80647.64,90650.272,,,
screen,html.Screen,0_2_1_1_0,2021-11-12T14:50:38.828Z,,,,,,,,,,,,,,,,54,,,,,,,,,,,,,,708.82799996424,,response,,,100,,,,,,Space,keypress(Space),,,,,At --- ---- --- ------ ----- ------- ---- -- --- ------- --<br>------- ---------- ------ -- ----- -- ----- -- ---- ------<br>--- ----- --- --- ------ -------- ----- --- ------ ----- --<br>----- ----- ---------- --- --- ------ ------ ---- -- ------<br>------- --- ------ ----- --- ---- ------- -- ---- --- --<br>------- ------,91360.09999996424,91359.09999996424,90633.602,90635.19999998808,90650.272,91367.267,,0,At
screen,html.Screen,0_2_1_1_1,2021-11-12T14:50:39.140Z,,,,,,,,,,,,,,,,54,,,,,,,,,,,,,,303.43299998807197,,response,,,100,,,,,,Space,keypress(Space),,,,,-- the ---- --- ------ ----- ------- ---- -- --- ------- --<br>------- ---------- ------ -- ----- -- ----- -- ---- ------<br>--- ----- --- --- ------ -------- ----- --- ------ ----- --<br>----- ----- ---------- --- --- ------ ------ ---- -- ------<br>------- --- ------ ----- --- ---- ------- -- ---- --- --<br>------- ------,91671.5,91670.69999998808,91350.596,91360.39999997616,91367.267,91683.971,,1,the
screen,html.Screen,0_2_1_1_2,2021-11-12T14:50:39.508Z,,,,,,,,,,,,,,,,54,,,,,,,,,,,,,,354.72899998807407,,response,,,100,,,,,,Space,keypress(Space),,,,,-- --- time --- ------ ----- ------- ---- -- --- ------- --<br>------- ---------- ------ -- ----- -- ----- -- ---- ------<br>--- ----- --- --- ------ -------- ----- --- ------ ----- --<br>----- ----- ---------- --- --- ------ ------ ---- -- ------<br>------- --- ------ ----- --- ---- ------- -- ---- --- --<br>------- ------,92039.5,92038.69999998808,91667.301,91671.80000001192,91683.971,92050.738,,2,time
screen,html.Screen,0_2_1_1_3,2021-11-12T14:50:39.798Z,,,,,,,,,,,,,,,,54,,,,,,,,,,,,,,278.4619999880815,,response,,,100,,,,,,Space,keypress(Space),,,,,-- --- ---- the ------ ----- ------- ---- -- --- ------- --<br>------- ---------- ------ -- ----- -- ----- -- ---- ------<br>--- ----- --- --- ------ -------- ----- --- ------ ----- --<br>----- ----- ---------- --- --- ------ ------ ---- -- ------<br>------- --- ------ ----- --- ---- ------- -- ---- --- --<br>------- ------,92330,92329.19999998808,92034.068,92039.80000001192,92050.738,92334.149,,3,the
screen,html.Screen,0_2_1_1_4,2021-11-12T14:50:40.092Z,,,,,,,,,,,,,,,,54,,,,,,,,,,,,,,288.4509999642323,,response,,,100,,,,,,Space,keypress(Space),,,,,-- --- ---- --- French ----- ------- ---- -- --- ------- --<br>------- ---------- ------ -- ----- -- ----- -- ---- ------<br>--- ----- --- --- ------ -------- ----- --- ------ ----- --<br>----- ----- ---------- --- --- ------ ------ ---- -- ------<br>------- --- ------ ----- --- ---- ------- -- ---- --- --<br>------- ------,92623.39999997616,92622.59999996424,92317.479,92330.19999998808,92334.149,92634.225,,4,French
screen,html.Screen,0_2_1_1_5,2021-11-12T14:50:40.380Z,,,,,,,,,,,,,,,,54,,,,,,,,,,,,,,276.2749999999942,,response,,,100,,,,,,Space,keypress(Space),,,,,-- --- ---- --- ------ crown ------- ---- -- --- ------- --<br>------- ---------- ------ -- ----- -- ----- -- ---- ------<br>--- ----- --- --- ------ -------- ----- --- ------ ----- --<br>----- ----- ---------- --- --- ------ ------ ---- -- ------<br>------- --- ------ ----- --- ---- ------- -- ---- --- --<br>------- ------,92911.69999998808,92910.5,92617.555,92623.59999996424,92634.225,92917.63,,5,crown
screen,html.Screen,0_2_1_1_6,2021-11-12T14:50:40.668Z,,,,,,,,,,,,,,,,54,,,,,,,,,,,,,,280.86999999999534,,response,,,100,,,,,,Space,keypress(Space),,,,,-- --- ---- --- ------ ----- secured ---- -- --- ------- --<br>------- ---------- ------ -- ----- -- ----- -- ---- ------<br>--- ----- --- --- ------ -------- ----- --- ------ ----- --<br>----- ----- ---------- --- --- ------ ------ ---- -- ------<br>------- --- ------ ----- --- ---- ------- -- ---- --- --<br>------- ------,93199.39999997616,93198.5,92900.96,92912,92917.63,93200.89,,6,secured
screen,html.Screen,0_2_1_1_7,2021-11-12T14:50:40.932Z,,,,,,,,,,,,,,,,54,,,,,,,,,,,,,,261.7099999642378,,response,,,100,,,,,,Space,keypress(Space),,,,,-- --- ---- --- ------ ----- ------- much -- --- ------- --<br>------- ---------- ------ -- ----- -- ----- -- ---- ------<br>--- ----- --- --- ------ -------- ----- --- ------ ----- --<br>----- ----- ---------- --- --- ------ ------ ---- -- ------<br>------- --- ------ ----- --- ---- ------- -- ---- --- --<br>------- ------,93463.39999997616,93462.59999996424,93184.223,93199.69999998808,93200.89,93467.768,,7,much
screen,html.Screen,0_2_1_1_8,2021-11-12T14:50:41.212Z,,,,,,,,,,,,,,,,54,,,,,,,,,,,,,,274.7320000000036,,response,,,100,,,,,,Space,keypress(Space),,,,,-- --- ---- --- ------ ----- ------- ---- of --- ------- --<br>------- ---------- ------ -- ----- -- ----- -- ---- ------<br>--- ----- --- --- ------ -------- ----- --- ------ ----- --<br>----- ----- ---------- --- --- ------ ------ ---- -- ------<br>------- --- ------ ----- --- ---- ------- -- ---- --- --<br>------- ------,93743.39999997616,93742.5,93451.097,93464.59999996424,93467.768,93751.235,,8,of
screen,html.Screen,0_2_1_1_9,2021-11-12T14:50:41.508Z,,,,,,,,,,,,,,,,54,,,,,,,,,,,,,,287.2649999999994,,response,,,100,,,,,,Space,keypress(Space),,,,,-- --- ---- --- ------ ----- ------- ---- -- its ------- --<br>------- ---------- ------ -- ----- -- ----- -- ---- ------<br>--- ----- --- --- ------ -------- ----- --- ------ ----- --<br>----- ----- ---------- --- --- ------ ------ ---- -- ------<br>------- --- ------ ----- --- ---- ------- -- ---- --- --<br>------- ------,94039.30000001192,94038.5,93734.563,93743.59999996424,93751.235,94051.233,,9,its
screen,html.Screen,0_2_1_1_10,2021-11-12T14:50:41.812Z,,,,,,,,,,,,,,,,54,,,,,,,,,,,,,,291.3669999642443,,response,,,100,,,,,,Space,keypress(Space),,,,,-- --- ---- --- ------ ----- ------- ---- -- --- revenue --<br>------- ---------- ------ -- ----- -- ----- -- ---- ------<br>--- ----- --- --- ------ -------- ----- --- ------ ----- --<br>----- ----- ---------- --- --- ------ ------ ---- -- ------<br>------- --- ------ ----- --- ---- ------- -- ---- --- --<br>------- ------,94343.30000001192,94342.59999996424,94034.563,94039.59999996424,94051.233,94351.368,,10,revenue
screen,html.Screen,0_2_1_1_11,2021-11-12T14:50:42.204Z,,,,,,,,,,,,,,,,54,,,,,,,,,,,,,,383.1319999999978,,response,,,100,,,,,,Space,keypress(Space),,,,,-- --- ---- --- ------ ----- ------- ---- -- --- ------- by<br>------- ---------- ------ -- ----- -- ----- -- ---- ------<br>--- ----- --- --- ------ -------- ----- --- ------ ----- --<br>----- ----- ---------- --- --- ------ ------ ---- -- ------<br>------- --- ------ ----- --- ---- ------- -- ---- --- --<br>------- ------,94735.39999997616,94734.5,94334.697,94343.5,94351.368,94751.423,,11,by
screen,html.Screen,0_2_1_1_12,2021-11-12T14:50:42.564Z,,,,,,,,,,,,,,,,54,,,,,,,,,,,,,,343.0770000000048,,response,,,100,,,,,,Space,keypress(Space),,,,,-- --- ---- --- ------ ----- ------- ---- -- --- ------- --<br>issuing ---------- ------ -- ----- -- ----- -- ---- ------<br>--- ----- --- --- ------ -------- ----- --- ------ ----- --<br>----- ----- ---------- --- --- ------ ------ ---- -- ------<br>------- --- ------ ----- --- ---- ------- -- ---- --- --<br>------- ------,95095.30000001192,95094.5,94734.753,94735.59999996424,94751.423,95101.522,,12,issuing
screen,html.Screen,0_2_1_1_13,2021-11-12T14:50:42.892Z,,,,,,,,,,,,,,,,54,,,,,,,,,,,,,,320.9780000000028,,response,,,100,,,,,,Space,keypress(Space),,,,,-- --- ---- --- ------ ----- ------- ---- -- --- ------- --<br>------- government ------ -- ----- -- ----- -- ---- ------<br>--- ----- --- --- ------ -------- ----- --- ------ ----- --<br>----- ----- ---------- --- --- ------ ------ ---- -- ------<br>------- --- ------ ----- --- ---- ------- -- ---- --- --<br>------- ------,95423.19999998808,95422.5,95084.852,95095.5,95101.522,95434.946,,13,government
screen,html.Screen,0_2_1_1_14,2021-11-12T14:50:43.220Z,,,,,,,,,,,,,,,,54,,,,,,,,,,,,,,315.5540000000037,,response,,,100,,,,,,Space,keypress(Space),,,,,-- --- ---- --- ------ ----- ------- ---- -- --- ------- --<br>------- ---------- bonds. -- ----- -- ----- -- ---- ------<br>--- ----- --- --- ------ -------- ----- --- ------ ----- --<br>----- ----- ---------- --- --- ------ ------ ---- -- ------<br>------- --- ------ ----- --- ---- ------- -- ---- --- --<br>------- ------,95751.30000001192,95750.5,95418.276,95423.5,95434.946,95768.356,,14,bonds.
screen,html.Screen,0_2_1_1_15,2021-11-12T14:50:43.756Z,,,,,,,,,,,,,,,,54,,,,,,,,,,,,,,518.0439999761584,,response,,,100,,,,,,Space,keypress(Space),,,,,-- --- ---- --- ------ ----- ------- ---- -- --- ------- --<br>------- ---------- ------ In ----- -- ----- -- ---- ------<br>--- ----- --- --- ------ -------- ----- --- ------ ----- --<br>----- ----- ---------- --- --- ------ ------ ---- -- ------<br>------- --- ------ ----- --- ---- ------- -- ---- --- --<br>------- ------,96287.30000001192,96286.39999997616,95751.686,95751.5,95768.356,96301.864,,15,In
screen,html.Screen,0_2_1_1_16,2021-11-12T14:50:44.131Z,,,,,,,,,,,,,,,,54,,,,,,,,,,,,,,360.53599997615675,,response,,,100,,,,,,Space,keypress(Space),,,,,"-- --- ---- --- ------ ----- ------- ---- -- --- ------- --<br>------- ---------- ------ -- 1727, -- ----- -- ---- ------<br>--- ----- --- --- ------ -------- ----- --- ------ ----- --<br>----- ----- ---------- --- --- ------ ------ ---- -- ------<br>------- --- ------ ----- --- ---- ------- -- ---- --- --<br>------- ------",96663.19999998808,96662.39999997616,96285.193,96287.59999996424,96301.864,96668.595,,16,"1727,"
screen,html.Screen,0_2_1_1_17,2021-11-12T14:50:45.643Z,,,,,,,,,,,,,,,,54,,,,,,,,,,,,,,1505.7050000119198,,response,,,100,,,,,,Space,keypress(Space),,,,,-- --- ---- --- ------ ----- ------- ---- -- --- ------- --<br>------- ---------- ------ -- ----- in ----- -- ---- ------<br>--- ----- --- --- ------ -------- ----- --- ------ ----- --<br>----- ----- ---------- --- --- ------ ------ ---- -- ------<br>------- --- ------ ----- --- ---- ------- -- ---- --- --<br>------- ------,98175.09999996424,98174.30000001192,96651.925,96663.39999997616,96668.595,98185.575,,17,in
screen,html.Screen,0_2_1_1_18,2021-11-12T14:50:45.963Z,,,,,,,,,,,,,,,,54,,,,,,,,,,,,,,308.72500001192384,,response,,,100,,,,,,Space,keypress(Space),,,,,-- --- ---- --- ------ ----- ------- ---- -- --- ------- --<br>------- ---------- ------ -- ----- -- order -- ---- ------<br>--- ----- --- --- ------ -------- ----- --- ------ ----- --<br>----- ----- ---------- --- --- ------ ------ ---- -- ------<br>------- --- ------ ----- --- ---- ------- -- ---- --- --<br>------- ------,98495.09999996424,98494.30000001192,98168.905,98175.39999997616,98185.575,98502.444,,18,order
screen,html.Screen,0_2_1_1_19,2021-11-12T14:50:46.275Z,,,,,,,,,,,,,,,,54,,,,,,,,,,,,,,303.8560000119178,,response,,,100,,,,,,Space,keypress(Space),,,,,-- --- ---- --- ------ ----- ------- ---- -- --- ------- --<br>------- ---------- ------ -- ----- -- ----- to ---- ------<br>--- ----- --- --- ------ -------- ----- --- ------ ----- --<br>----- ----- ---------- --- --- ------ ------ ---- -- ------<br>------- --- ------ ----- --- ---- ------- -- ---- --- --<br>------- ------,98807.09999996424,98806.30000001192,98485.773,98495.39999997616,98502.444,98819.136,,19,to
screen,html.Screen,0_2_1_1_20,2021-11-12T14:50:46.667Z,,,,,,,,,,,,,,,,54,,,,,,,,,,,,,,379.1640000119223,,response,,,100,,,,,,Space,keypress(Space),,,,,-- --- ---- --- ------ ----- ------- ---- -- --- ------- --<br>------- ---------- ------ -- ----- -- ----- -- save ------<br>--- ----- --- --- ------ -------- ----- --- ------ ----- --<br>----- ----- ---------- --- --- ------ ------ ---- -- ------<br>------- --- ------ ----- --- ---- ------- -- ---- --- --<br>------- ------,99199.09999996424,99198.30000001192,98802.466,98807.39999997616,98819.136,99202.571,,20,save
screen,html.Screen,0_2_1_1_21,2021-11-12T14:50:47.091Z,,,,,,,,,,,,,,,,54,,,,,,,,,,,,,,419.6289999880828,,response,,,100,,,,,,Space,keypress(Space),,,,,"-- --- ---- --- ------ ----- ------- ---- -- --- ------- --<br>------- ---------- ------ -- ----- -- ----- -- ---- money,<br>--- ----- --- --- ------ -------- ----- --- ------ ----- --<br>----- ----- ---------- --- --- ------ ------ ---- -- ------<br>------- --- ------ ----- --- ---- ------- -- ---- --- --<br>------- ------",99623.09999996424,99622.19999998808,99185.901,99199.30000001192,99202.571,99636.053,,21,"money,"
screen,html.Screen,0_2_1_1_22,2021-11-12T14:50:47.691Z,,,,,,,,,,,,,,,,54,,,,,,,,,,,,,,586.247000011921,,response,,,100,,,,,,Space,keypress(Space),,,,,-- --- ---- --- ------ ----- ------- ---- -- --- ------- --<br>------- ---------- ------ -- ----- -- ----- -- ---- ------<br>the ----- --- --- ------ -------- ----- --- ------ ----- --<br>----- ----- ---------- --- --- ------ ------ ---- -- ------<br>------- --- ------ ----- --- ---- ------- -- ---- --- --<br>------- ------,100223,100222.30000001192,99619.382,99623.30000001192,99636.053,100236.17,,22,the
screen,html.Screen,0_2_1_1_23,2021-11-12T14:50:48.027Z,,,,,,,,,,,,,,,,54,,,,,,,,,,,,,,322.0299999880808,,response,,,100,,,,,,Space,keypress(Space),,,,,-- --- ---- --- ------ ----- ------- ---- -- --- ------- --<br>------- ---------- ------ -- ----- -- ----- -- ---- ------<br>--- state --- --- ------ -------- ----- --- ------ ----- --<br>----- ----- ---------- --- --- ------ ------ ---- -- ------<br>------- --- ------ ----- --- ---- ------- -- ---- --- --<br>------- ------,100559,100558.19999998808,100219.5,100223.39999997616,100236.17,100569.57,,23,state
screen,html.Screen,0_2_1_1_24,2021-11-12T14:50:48.379Z,,,,,,,,,,,,,,,,54,,,,,,,,,,,,,,340.6299999880721,,response,,,100,,,,,,Space,keypress(Space),,,,,-- --- ---- --- ------ ----- ------- ---- -- --- ------- --<br>------- ---------- ------ -- ----- -- ----- -- ---- ------<br>--- ----- cut --- ------ -------- ----- --- ------ ----- --<br>----- ----- ---------- --- --- ------ ------ ---- -- ------<br>------- --- ------ ----- --- ---- ------- -- ---- --- --<br>------- ------,100911,100910.19999998808,100552.9,100559.30000001192,100569.57,100919.717,,24,cut
screen,html.Screen,0_2_1_1_25,2021-11-12T14:50:48.699Z,,,,,,,,,,,,,,,,54,,,,,,,,,,,,,,310.4829999880749,,response,,,100,,,,,,Space,keypress(Space),,,,,-- --- ---- --- ------ ----- ------- ---- -- --- ------- --<br>------- ---------- ------ -- ----- -- ----- -- ---- ------<br>--- ----- --- the ------ -------- ----- --- ------ ----- --<br>----- ----- ---------- --- --- ------ ------ ---- -- ------<br>------- --- ------ ----- --- ---- ------- -- ---- --- --<br>------- ------,101230.89999997616,101230.19999998808,100903.046,100911.19999998808,100919.717,101236.42,,25,the
screen,html.Screen,0_2_1_1_26,2021-11-12T14:50:49.060Z,,,,,,,,,,,,,,,,54,,,,,,,,,,,,,,354.17999996423896,,response,,,100,,,,,,Space,keypress(Space),,,,,-- --- ---- --- ------ ----- ------- ---- -- --- ------- --<br>------- ---------- ------ -- ----- -- ----- -- ---- ------<br>--- ----- --- --- bonds' -------- ----- --- ------ ----- --<br>----- ----- ---------- --- --- ------ ------ ---- -- ------<br>------- --- ------ ----- --- ---- ------- -- ---- --- --<br>------- ------,101591.5,101590.59999996424,101219.75,101231.19999998808,101236.42,101603.192,,26,bonds'
screen,html.Screen,0_2_1_1_27,2021-11-12T14:50:49.443Z,,,,,,,,,,,,,,,,54,,,,,,,,,,,,,,370.90799996424175,,response,,,100,,,,,,Space,keypress(Space),,,,,-- --- ---- --- ------ ----- ------- ---- -- --- ------- --<br>------- ---------- ------ -- ----- -- ----- -- ---- ------<br>--- ----- --- --- ------ interest ----- --- ------ ----- --<br>----- ----- ---------- --- --- ------ ------ ---- -- ------<br>------- --- ------ ----- --- ---- ------- -- ---- --- --<br>------- ------,101974.89999997616,101974.09999996424,101586.522,101591.80000001192,101603.192,101986.665,,27,interest
screen,html.Screen,0_2_1_1_28,2021-11-12T14:50:49.819Z,,,,,,,,,,,,,,,,54,,,,,,,,,,,,,,363.4349999642436,,response,,,100,,,,,,Space,keypress(Space),,,,,-- --- ---- --- ------ ----- ------- ---- -- --- ------- --<br>------- ---------- ------ -- ----- -- ----- -- ---- ------<br>--- ----- --- --- ------ -------- rate. --- ------ ----- --<br>----- ----- ---------- --- --- ------ ------ ---- -- ------<br>------- --- ------ ----- --- ---- ------- -- ---- --- --<br>------- ------,102350.89999997616,102350.09999996424,101969.994,101975.19999998808,101986.665,102353.393,,28,rate.
screen,html.Screen,0_2_1_1_29,2021-11-12T14:50:50.203Z,,,,,,,,,,,,,,,,54,,,,,,,,,,,,,,380.7069999642408,,response,,,100,,,,,,Space,keypress(Space),,,,,-- --- ---- --- ------ ----- ------- ---- -- --- ------- --<br>------- ---------- ------ -- ----- -- ----- -- ---- ------<br>--- ----- --- --- ------ -------- ----- The ------ ----- --<br>----- ----- ---------- --- --- ------ ------ ---- -- ------<br>------- --- ------ ----- --- ---- ------- -- ---- --- --<br>------- ------,102734.89999997616,102734.09999996424,102336.723,102351.09999996424,102353.393,102736.811,,29,The
screen,html.Screen,0_2_1_1_30,2021-11-12T14:50:50.595Z,,,,,,,,,,,,,,,,54,,,,,,,,,,,,,,389.2889999642357,,response,,,100,,,,,,Space,keypress(Space),,,,,-- --- ---- --- ------ ----- ------- ---- -- --- ------- --<br>------- ---------- ------ -- ----- -- ----- -- ---- ------<br>--- ----- --- --- ------ -------- ----- --- market ----- --<br>----- ----- ---------- --- --- ------ ------ ---- -- ------<br>------- --- ------ ----- --- ---- ------- -- ---- --- --<br>------- ------,103126.89999997616,103126.09999996424,102720.141,102735.09999996424,102736.811,103136.958,,30,market
screen,html.Screen,0_2_1_1_31,2021-11-12T14:50:50.963Z,,,,,,,,,,,,,,,,54,,,,,,,,,,,,,,357.0420000000013,,response,,,100,,,,,,Space,keypress(Space),,,,,-- --- ---- --- ------ ----- ------- ---- -- --- ------- --<br>------- ---------- ------ -- ----- -- ----- -- ---- ------<br>--- ----- --- --- ------ -------- ----- --- ------ value --<br>----- ----- ---------- --- --- ------ ------ ---- -- ------<br>------- --- ------ ----- --- ---- ------- -- ---- --- --<br>------- ------,103494.80000001192,103494,103120.287,103127.19999998808,103136.958,103503.589,,31,value
screen,html.Screen,0_2_1_1_32,2021-11-12T14:50:51.363Z,,,,,,,,,,,,,,,,54,,,,,,,,,,,,,,390.4109999999928,,response,,,100,,,,,,Space,keypress(Space),,,,,-- --- ---- --- ------ ----- ------- ---- -- --- ------- --<br>------- ---------- ------ -- ----- -- ----- -- ---- ------<br>--- ----- --- --- ------ -------- ----- --- ------ ----- of<br>----- ----- ---------- --- --- ------ ------ ---- -- ------<br>------- --- ------ ----- --- ---- ------- -- ---- --- --<br>------- ------,103894.80000001192,103894,103486.92,103495.09999996424,103503.589,103903.75,,32,of
screen,html.Screen,0_2_1_1_33,2021-11-12T14:50:51.715Z,,,,,,,,,,,,,,,,54,,,,,,,,,,,,,,342.25,,response,,,100,,,,,,Space,keypress(Space),,,,,-- --- ---- --- ------ ----- ------- ---- -- --- ------- --<br>------- ---------- ------ -- ----- -- ----- -- ---- ------<br>--- ----- --- --- ------ -------- ----- --- ------ ----- --<br>these ----- ---------- --- --- ------ ------ ---- -- ------<br>------- --- ------ ----- --- ---- ------- -- ---- --- --<br>------- ------,104246.80000001192,104246,103887.08,103895.09999996424,103903.75,104253.965,,33,these
screen,html.Screen,0_2_1_1_34,2021-11-12T14:50:52.019Z,,,,,,,,,,,,,,,,54,,,,,,,,,,,,,,295.8350000119244,,response,,,100,,,,,,Space,keypress(Space),,,,,-- --- ---- --- ------ ----- ------- ---- -- --- ------- --<br>------- ---------- ------ -- ----- -- ----- -- ---- ------<br>--- ----- --- --- ------ -------- ----- --- ------ ----- --<br>----- bonds ---------- --- --- ------ ------ ---- -- ------<br>------- --- ------ ----- --- ---- ------- -- ---- --- --<br>------- ------,104550.69999998808,104549.80000001192,104237.293,104247,104253.965,104553.943,,34,bonds
screen,html.Screen,0_2_1_1_35,2021-11-12T14:50:52.275Z,,,,,,,,,,,,,,,,54,,,,,,,,,,,,,,252.0570000000007,,response,,,100,,,,,,Space,keypress(Space),,,,,"-- --- ---- --- ------ ----- ------- ---- -- --- ------- --<br>------- ---------- ------ -- ----- -- ----- -- ---- ------<br>--- ----- --- --- ------ -------- ----- --- ------ ----- --<br>----- ----- plummeted, --- --- ------ ------ ---- -- ------<br>------- --- ------ ----- --- ---- ------- -- ---- --- --<br>------- ------",104806.80000001192,104806,104537.273,104551,104553.943,104820.622,,35,"plummeted,"
screen,html.Screen,0_2_1_1_36,2021-11-12T14:50:52.515Z,,,,,,,,,,,,,,,,54,,,,,,,,,,,,,,225.27799997615512,,response,,,100,,,,,,Space,keypress(Space),,,,,-- --- ---- --- ------ ----- ------- ---- -- --- ------- --<br>------- ---------- ------ -- ----- -- ----- -- ---- ------<br>--- ----- --- --- ------ -------- ----- --- ------ ----- --<br>----- ----- ---------- and --- ------ ------ ---- -- ------<br>------- --- ------ ----- --- ---- ------- -- ---- --- --<br>------- ------,105046.80000001192,105045.89999997616,104803.953,104807,104820.622,105054.004,,36,and
screen,html.Screen,0_2_1_1_37,2021-11-12T14:50:52.987Z,,,,,,,,,,,,,,,,54,,,,,,,,,,,,,,463.9959999999992,,response,,,100,,,,,,Space,keypress(Space),,,,,-- --- ---- --- ------ ----- ------- ---- -- --- ------- --<br>------- ---------- ------ -- ----- -- ----- -- ---- ------<br>--- ----- --- --- ------ -------- ----- --- ------ ----- --<br>----- ----- ---------- --- the ------ ------ ---- -- ------<br>------- --- ------ ----- --- ---- ------- -- ---- --- --<br>------- ------,105518.69999998808,105518,105037.335,105047.09999996424,105054.004,105521.027,,37,the
screen,html.Screen,0_2_1_1_38,2021-11-12T14:50:53.323Z,,,,,,,,,,,,,,,,54,,,,,,,,,,,,,,332.8729999761563,,response,,,100,,,,,,Space,keypress(Space),,,,,-- --- ---- --- ------ ----- ------- ---- -- --- ------- --<br>------- ---------- ------ -- ----- -- ----- -- ---- ------<br>--- ----- --- --- ------ -------- ----- --- ------ ----- --<br>----- ----- ---------- --- --- market ------ ---- -- ------<br>------- --- ------ ----- --- ---- ------- -- ---- --- --<br>------- ------,105854.80000001192,105853.89999997616,105504.353,105518.89999997616,105521.027,105870.965,,38,market
screen,html.Screen,0_2_1_1_39,2021-11-12T14:50:53.651Z,,,,,,,,,,,,,,,,54,,,,,,,,,,,,,,310.93499997616163,,response,,,100,,,,,,Space,keypress(Space),,,,,-- --- ---- --- ------ ----- ------- ---- -- --- ------- --<br>------- ---------- ------ -- ----- -- ----- -- ---- ------<br>--- ----- --- --- ------ -------- ----- --- ------ ----- --<br>----- ----- ---------- --- --- ------ became ---- -- ------<br>------- --- ------ ----- --- ---- ------- -- ---- --- --<br>------- ------,106182.69999998808,106181.89999997616,105854.295,105855.09999996424,105870.965,106187.613,,39,became
screen,html.Screen,0_2_1_1_40,2021-11-12T14:50:53.931Z,,,,,,,,,,,,,,,,54,,,,,,,,,,,,,,274.1870000119234,,response,,,100,,,,,,Space,keypress(Space),,,,,-- --- ---- --- ------ ----- ------- ---- -- --- ------- --<br>------- ---------- ------ -- ----- -- ----- -- ---- ------<br>--- ----- --- --- ------ -------- ----- --- ------ ----- --<br>----- ----- ---------- --- --- ------ ------ wary -- ------<br>------- --- ------ ----- --- ---- ------- -- ---- --- --<br>------- ------,106462.59999996424,106461.80000001192,106170.944,106182.89999997616,106187.613,106471.113,,40,wary
screen,html.Screen,0_2_1_1_41,2021-11-12T14:50:54.259Z,,,,,,,,,,,,,,,,54,,,,,,,,,,,,,,318.5869999880815,,response,,,100,,,,,,Space,keypress(Space),,,,,-- --- ---- --- ------ ----- ------- ---- -- --- ------- --<br>------- ---------- ------ -- ----- -- ----- -- ---- ------<br>--- ----- --- --- ------ -------- ----- --- ------ ----- --<br>----- ----- ---------- --- --- ------ ------ ---- of ------<br>------- --- ------ ----- --- ---- ------- -- ---- --- --<br>------- ------,106790.59999996424,106789.69999998808,106454.442,106463,106471.113,106804.617,,41,of
screen,html.Screen,0_2_1_1_42,2021-11-12T14:50:54.523Z,,,,,,,,,,,,,,,,54,,,,,,,,,,,,,,249.18300001192256,,response,,,100,,,,,,Space,keypress(Space),,,,,-- --- ---- --- ------ ----- ------- ---- -- --- ------- --<br>------- ---------- ------ -- ----- -- ----- -- ---- ------<br>--- ----- --- --- ------ -------- ----- --- ------ ----- --<br>----- ----- ---------- --- --- ------ ------ ---- -- French<br>------- --- ------ ----- --- ---- ------- -- ---- --- --<br>------- ------,107054.69999998808,107053.80000001192,106787.945,106790.80000001192,106804.617,107071.263,,42,French
screen,html.Screen,0_2_1_1_43,2021-11-12T14:50:54.907Z,,,,,,,,,,,,,,,,54,,,,,,,,,,,,,,366.53700001191464,,response,,,100,,,,,,Space,keypress(Space),,,,,-- --- ---- --- ------ ----- ------- ---- -- --- ------- --<br>------- ---------- ------ -- ----- -- ----- -- ---- ------<br>--- ----- --- --- ------ -------- ----- --- ------ ----- --<br>----- ----- ---------- --- --- ------ ------ ---- -- ------<br>credit. --- ------ ----- --- ---- ------- -- ---- --- --<br>------- ------,107438.59999996424,107437.80000001192,107054.593,107054.89999997616,107071.263,107454.586,,43,credit.
screen,html.Screen,0_2_1_1_44,2021-11-12T14:50:55.211Z,,,,,,,,,,,,,,,,54,,,,,,,,,,,,,,287.1139999880834,,response,,,100,,,,,,Space,keypress(Space),,,,,-- --- ---- --- ------ ----- ------- ---- -- --- ------- --<br>------- ---------- ------ -- ----- -- ----- -- ---- ------<br>--- ----- --- --- ------ -------- ----- --- ------ ----- --<br>----- ----- ---------- --- --- ------ ------ ---- -- ------<br>------- The ------ ----- --- ---- ------- -- ---- --- --<br>------- ------,107742.5,107741.69999998808,107437.918,107438.80000001192,107454.586,107754.724,,44,The
screen,html.Screen,0_2_1_1_45,2021-11-12T14:50:55.523Z,,,,,,,,,,,,,,,,54,,,,,,,,,,,,,,299.07600001191895,,response,,,100,,,,,,Space,keypress(Space),,,,,-- --- ---- --- ------ ----- ------- ---- -- --- ------- --<br>------- ---------- ------ -- ----- -- ----- -- ---- ------<br>--- ----- --- --- ------ -------- ----- --- ------ ----- --<br>----- ----- ---------- --- --- ------ ------ ---- -- ------<br>------- --- French ----- --- ---- ------- -- ---- --- --<br>------- ------,108054.59999996424,108053.80000001192,107738.054,107742.69999998808,107754.724,108071.594,,45,French
screen,html.Screen,0_2_1_1_46,2021-11-12T14:50:55.827Z,,,,,,,,,,,,,,,,54,,,,,,,,,,,,,,286.10599998808175,,response,,,100,,,,,,Space,keypress(Space),,,,,-- --- ---- --- ------ ----- ------- ---- -- --- ------- --<br>------- ---------- ------ -- ----- -- ----- -- ---- ------<br>--- ----- --- --- ------ -------- ----- --- ------ ----- --<br>----- ----- ---------- --- --- ------ ------ ---- -- ------<br>------- --- ------ state --- ---- ------- -- ---- --- --<br>------- ------,108358.59999996424,108357.69999998808,108054.922,108054.89999997616,108071.594,108371.603,,46,state
screen,html.Screen,0_2_1_1_47,2021-11-12T14:50:56.363Z,,,,,,,,,,,,,,,,54,,,,,,,,,,,,,,522.0969999880763,,response,,,100,,,,,,Space,keypress(Space),,,,,-- --- ---- --- ------ ----- ------- ---- -- --- ------- --<br>------- ---------- ------ -- ----- -- ----- -- ---- ------<br>--- ----- --- --- ------ -------- ----- --- ------ ----- --<br>----- ----- ---------- --- --- ------ ------ ---- -- ------<br>------- --- ------ ----- was ---- ------- -- ---- --- --<br>------- ------,108894.5,108893.69999998808,108354.933,108358.80000001192,108371.603,108905.037,,47,was
screen,html.Screen,0_2_1_1_48,2021-11-12T14:50:56.643Z,,,,,,,,,,,,,,,,54,,,,,,,,,,,,,,268.66299998808245,,response,,,100,,,,,,Space,keypress(Space),,,,,-- --- ---- --- ------ ----- ------- ---- -- --- ------- --<br>------- ---------- ------ -- ----- -- ----- -- ---- ------<br>--- ----- --- --- ------ -------- ----- --- ------ ----- --<br>----- ----- ---------- --- --- ------ ------ ---- -- ------<br>------- --- ------ ----- --- left ------- -- ---- --- --<br>------- ------,109174.59999996424,109173.69999998808,108888.367,108894.80000001192,108905.037,109188.406,,48,left
screen,html.Screen,0_2_1_1_49,2021-11-12T14:50:56.915Z,,,,,,,,,,,,,,,,54,,,,,,,,,,,,,,257.2939999880764,,response,,,100,,,,,,Space,keypress(Space),,,,,-- --- ---- --- ------ ----- ------- ---- -- --- ------- --<br>------- ---------- ------ -- ----- -- ----- -- ---- ------<br>--- ----- --- --- ------ -------- ----- --- ------ ----- --<br>----- ----- ---------- --- --- ------ ------ ---- -- ------<br>------- --- ------ ----- --- ---- without -- ---- --- --<br>------- ------,109446.5,109445.69999998808,109171.737,109174.69999998808,109188.406,109455.246,,49,without
screen,html.Screen,0_2_1_1_50,2021-11-12T14:50:57.235Z,,,,,,,,,,,,,,,,54,,,,,,,,,,,,,,310.4539999880799,,response,,,100,,,,,,Space,keypress(Space),,,,,-- --- ---- --- ------ ----- ------- ---- -- --- ------- --<br>------- ---------- ------ -- ----- -- ----- -- ---- ------<br>--- ----- --- --- ------ -------- ----- --- ------ ----- --<br>----- ----- ---------- --- --- ------ ------ ---- -- ------<br>------- --- ------ ----- --- ---- ------- an ---- --- --<br>------- ------,109766.5,109765.69999998808,109438.575,109446.80000001192,109455.246,109771.848,,50,an
screen,html.Screen,0_2_1_1_51,2021-11-12T14:50:57.555Z,,,,,,,,,,,,,,,,54,,,,,,,,,,,,,,313.7519999642391,,response,,,100,,,,,,Space,keypress(Space),,,,,-- --- ---- --- ------ ----- ------- ---- -- --- ------- --<br>------- ---------- ------ -- ----- -- ----- -- ---- ------<br>--- ----- --- --- ------ -------- ----- --- ------ ----- --<br>----- ----- ---------- --- --- ------ ------ ---- -- ------<br>------- --- ------ ----- --- ---- ------- -- easy --- --<br>------- ------,110086.5,110085.59999996424,109755.18,109766.80000001192,109771.848,110088.671,,51,easy
screen,html.Screen,0_2_1_1_52,2021-11-12T14:50:58.083Z,,,,,,,,,,,,,,,,54,,,,,,,,,,,,,,524.9289999642351,,response,,,100,,,,,,Space,keypress(Space),,,,,-- --- ---- --- ------ ----- ------- ---- -- --- ------- --<br>------- ---------- ------ -- ----- -- ----- -- ---- ------<br>--- ----- --- --- ------ -------- ----- --- ------ ----- --<br>----- ----- ---------- --- --- ------ ------ ---- -- ------<br>------- --- ------ ----- --- ---- ------- -- ---- way --<br>------- ------,110614.5,110613.59999996424,110072.001,110086.80000001192,110088.671,110622.259,,52,way
screen,html.Screen,0_2_1_1_53,2021-11-12T14:50:58.539Z,,,,,,,,,,,,,,,,54,,,,,,,,,,,,,,447.34099996423174,,response,,,100,,,,,,Space,keypress(Space),,,,,-- --- ---- --- ------ ----- ------- ---- -- --- ------- --<br>------- ---------- ------ -- ----- -- ----- -- ---- ------<br>--- ----- --- --- ------ -------- ----- --- ------ ----- --<br>----- ----- ---------- --- --- ------ ------ ---- -- ------<br>------- --- ------ ----- --- ---- ------- -- ---- --- of<br>------- ------,111070.5,111069.59999996424,110605.587,110615.19999998808,110622.259,111072.357,,53,of
screen,html.Screen,0_2_1_1_54,2021-11-12T14:50:58.971Z,,,,,,,,,,,,,,,,54,,,,,,,,,,,,,,429.2429999642336,,response,,,100,,,,,,Space,keypress(Space),,,,,-- --- ---- --- ------ ----- ------- ---- -- --- ------- --<br>------- ---------- ------ -- ----- -- ----- -- ---- ------<br>--- ----- --- --- ------ -------- ----- --- ------ ----- --<br>----- ----- ---------- --- --- ------ ------ ---- -- ------<br>------- --- ------ ----- --- ---- ------- -- ---- --- --<br>raising ------,111502.39999997616,111501.59999996424,111055.686,111070.69999998808,111072.357,111505.736,,54,raising
screen,html.Screen,0_2_1_1_55,2021-11-12T14:50:59.522Z,,,,,,,,,,,,,,,,54,,,,,,,,,,,,,,547.5640000119165,,response,,,100,,,,,,Space,keypress(Space),,,,,-- --- ---- --- ------ ----- ------- ---- -- --- ------- --<br>------- ---------- ------ -- ----- -- ----- -- ---- ------<br>--- ----- --- --- ------ -------- ----- --- ------ ----- --<br>----- ----- ---------- --- --- ------ ------ ---- -- ------<br>------- --- ------ ----- --- ---- ------- -- ---- --- --<br>------- money.,112053.69999998808,112053.30000001192,111489.066,111502.59999996424,111505.736,112055.863,,55,money.
Item 100,flow.Loop,0_2_1_1,2021-11-12T14:50:59.522Z,,,,,,,,,,,,,,,,,,,,,,,,,,,,,,21403.028000011924,,completion,,,,F,,,,,,,,,,silence,,112053.89999997616,112053.30000001192,90633.602,90634.89999997616,90650.272,112055.863,,,
Question 1,html.Screen,0_2_1_2,2021-11-12T14:51:02.945Z,,,,,,,,,,,,,,,,,,,,,,,,,,,true,TRUE,,3420.0369999761606,,response,,,100,F,,,,,TRUE,click #choice-1,,,,silence,,115477.19999998808,115475.89999997616,112039.193,112053.89999997616,112055.863,115490.105,,,
Question 2,html.Screen,0_2_1_3,2021-11-12T14:51:06.178Z,,,,,,,,,,,,,,,,,,,,,,,,,,,true,FALSE,,3218.294999976162,,response,,,100,F,,,,,FALSE,click #choice-2,,,,silence,,118709.59999996424,118708.39999997616,115473.435,115477.39999997616,115490.105,118724.267,,,
Item 100,flow.Sequence,0_2_1,2021-11-12T14:51:06.178Z,,,,,,,,,,,,,,,,,,,,,,,,,,,,,,38060.75999997616,,completion,,,,,,,,,,,,,,,,118710,118708.39999997616,80630.975,80632.5,80647.64,118724.267,,,
End of Practice,html.Page,0_2_2,2021-11-12T14:51:11.297Z,,,,,,,,,,,,,,,,,,,,,,,,,,,,,,5099.83299996423,,form submission,,,,,,,,,,,,,,,,123824.69999998808,123824.09999996424,118707.597,118710.19999998808,118724.267,123825.564,,,
Practice,flow.Sequence,0_2,2021-11-12T14:51:11.298Z,,,,,,,,,,,,,,,,,,,,,,,,,,,,,,79186.18199996423,,completion,,,,,,,,,,,,,,,,123825,123824.09999996424,44621.25,44627.5,44637.918,123825.564,,,
Trap_instruction,html.Page,0_3_0,2021-11-12T14:51:15.579Z,,,,,,,,,,,,,,,,,,,,,,,,,,,,,,4280.33599997616,,form submission,,,,,,,,,,,,,,,,128106.5,128105.89999997616,123808.894,123825.30000001192,123825.564,128143.515,,,
trap_trial,html.Screen,0_3_1,2021-11-12T14:51:19.141Z,,,,,,,,,,,,,,,,,,,,,,,,,,,true,1,,3523.2850000119215,,response,,,,,,,,,1,click #choice-1,,,,,,131668.09999996424,131666.80000001192,128093.469,128106.80000001192,128143.515,131677.965,,,
end of trap trial,html.Page,0_3_2,2021-11-12T14:51:21.439Z,,,,,,,,,,,,,,,,,,,,,,,,,,,,,,2287.8350000119244,,form submission,,,,,,,,,,,,,,,,133966.19999998808,133965.80000001192,131661.292,131668.30000001192,131677.965,133978.109,,,
Trap 1,flow.Sequence,0_3,2021-11-12T14:51:21.439Z,,,,,,,,,,,,,,,,,,,,,,,,,,,,,,10140.236000011922,,completion,,,,,,,,,,,,,,,,133966.80000001192,133965.80000001192,123808.894,123825.19999998808,123825.564,133978.109,,,
Standby,html.Page,0_4_0,2021-11-12T14:51:29.437Z,,,,,,,,,,,,,,,,,,,,,,,,,,,,,,8002.1449999999895,,timeout,,,,,,,,,,,,,,,,141964.80000001192,141963.583,133961.439,133967.09999996424,133978.109,141980.254,,,
Holding screen,html.Screen,0_4_1_0_0,2021-11-12T14:51:36.439Z,,,,,,,,,,,,,,,,,,,,,,,,,,,,,,7001.832000000024,,timeout,,,,,,,,,,,,,,,,148966.30000001192,148965.415,141963.583,141965.19999998808,141980.254,148982.086,,,
screen,html.Screen,0_4_1_0_1_0,2021-11-12T14:51:37.078Z,,,,,,,,,,,,,,,,15,,,,,,,,,,,,,,621.9139999999898,,response,,,7,F,,,,,Space,keypress(Space),,,,instrumental,Greg --------- ---------- - --- ------- -- --- ------------<br>----- -- -------- ------- ---- ------ - -------- ---- -----<br>--- ------- ---- -- --- -------- --- - ----- ------ ---- --<br>-------- --- -------- -------- --- -------- ---- -- ----- -<br>-------- ---- --- ---------- --------- -- ------- ------ -<br>--------- ----- -----,149605.19999998808,149604,148965.415,148966.69999998808,148982.086,149615.526,,0,Greg
screen,html.Screen,0_4_1_0_1_1,2021-11-12T14:51:37.405Z,,,,,,,,,,,,,,,,15,,,,,,,,,,,,,,315.87399997614557,,response,,,7,F,,,,,Space,keypress(Space),,,,instrumental,"---- Anderson, ---------- - --- ------- -- --- ------------<br>----- -- -------- ------- ---- ------ - -------- ---- -----<br>--- ------- ---- -- --- -------- --- - ----- ------ ---- --<br>-------- --- -------- -------- --- -------- ---- -- ----- -<br>-------- ---- --- ---------- --------- -- ------- ------ -<br>--------- ----- -----",149932.39999997616,149931.39999997616,149598.856,149605.5,149615.526,149948.86,,1,"Anderson,"
screen,html.Screen,0_4_1_0_1_2,2021-11-12T14:51:37.797Z,,,,,,,,,,,,,,,,15,,,,,,,,,,,,,,374.4400000119349,,response,,,7,F,,,,,Space,keypress(Space),,,,instrumental,---- --------- considered - --- ------- -- --- ------------<br>----- -- -------- ------- ---- ------ - -------- ---- -----<br>--- ------- ---- -- --- -------- --- - ----- ------ ---- --<br>-------- --- -------- -------- --- -------- ---- -- ----- -<br>-------- ---- --- ---------- --------- -- ------- ------ -<br>--------- ----- -----,150324.30000001192,150323.30000001192,149932.191,149932.69999998808,149948.86,150332.395,,2,considered
screen,html.Screen,0_4_1_0_1_3,2021-11-12T14:51:38.197Z,,,,,,,,,,,,,,,,15,,,,,,,,,,,,,,391.0049999761686,,response,,,7,F,,,,,Space,keypress(Space),,,,instrumental,---- --------- ---------- a --- ------- -- --- ------------<br>----- -- -------- ------- ---- ------ - -------- ---- -----<br>--- ------- ---- -- --- -------- --- - ----- ------ ---- --<br>-------- --- -------- -------- --- -------- ---- -- ----- -<br>-------- ---- --- ---------- --------- -- ------- ------ -<br>--------- ----- -----,150724.09999996424,150723.39999997616,150315.724,150324.5,150332.395,150732.51,,3,a
screen,html.Screen,0_4_1_0_1_4,2021-11-12T14:51:38.589Z,,,,,,,,,,,,,,,,15,,,,,,,,,,,,,,382.88999997614883,,response,,,7,F,,,,,Space,keypress(Space),,,,instrumental,---- --------- ---------- - key ------- -- --- ------------<br>----- -- -------- ------- ---- ------ - -------- ---- -----<br>--- ------- ---- -- --- -------- --- - ----- ------ ---- --<br>-------- --- -------- -------- --- -------- ---- -- ----- -<br>-------- ---- --- ---------- --------- -- ------- ------ -<br>--------- ----- -----,151116.5,151115.39999997616,150715.839,150724.39999997616,150732.51,151132.69,,4,key
screen,html.Screen,0_4_1_0_1_5,2021-11-12T14:51:39.061Z,,,,,,,,,,,,,,,,15,,,,,,,,,,,,,,454.7099999761558,,response,,,7,F,,,,,Space,keypress(Space),,,,instrumental,---- --------- ---------- - --- witness -- --- ------------<br>----- -- -------- ------- ---- ------ - -------- ---- -----<br>--- ------- ---- -- --- -------- --- - ----- ------ ---- --<br>-------- --- -------- -------- --- -------- ---- -- ----- -<br>-------- ---- --- ---------- --------- -- ------- ------ -<br>--------- ----- -----,151588.30000001192,151587.39999997616,151116.018,151116.80000001192,151132.69,151599.241,,5,witness
screen,html.Screen,0_4_1_0_1_6,2021-11-12T14:51:39.469Z,,,,,,,,,,,,,,,,15,,,,,,,,,,,,,,396.05900001191185,,response,,,7,F,,,,,Space,keypress(Space),,,,instrumental,---- --------- ---------- - --- ------- by --- ------------<br>----- -- -------- ------- ---- ------ - -------- ---- -----<br>--- ------- ---- -- --- -------- --- - ----- ------ ---- --<br>-------- --- -------- -------- --- -------- ---- -- ----- -<br>-------- ---- --- ---------- --------- -- ------- ------ -<br>--------- ----- -----,151996.09999996424,151995.30000001192,151582.573,151588.5,151599.241,151999.588,,6,by
screen,html.Screen,0_4_1_0_1_7,2021-11-12T14:51:39.836Z,,,,,,,,,,,,,,,,15,,,,,,,,,,,,,,363.61199998809025,,response,,,7,F,,,,,Space,keypress(Space),,,,instrumental,---- --------- ---------- - --- ------- -- the ------------<br>----- -- -------- ------- ---- ------ - -------- ---- -----<br>--- ------- ---- -- --- -------- --- - ----- ------ ---- --<br>-------- --- -------- -------- --- -------- ---- -- ----- -<br>-------- ---- --- ---------- --------- -- ------- ------ -<br>--------- ----- -----,152364.09999996424,152363.19999998808,151982.916,151996.5,151999.588,152366.246,,7,the
screen,html.Screen,0_4_1_0_1_8,2021-11-12T14:51:40.293Z,,,,,,,,,,,,,,,,15,,,,,,,,,,,,,,453.0540000119072,,response,,,7,F,,,,,Space,keypress(Space),,,,instrumental,"---- --------- ---------- - --- ------- -- --- prosecution,<br>----- -- -------- ------- ---- ------ - -------- ---- -----<br>--- ------- ---- -- --- -------- --- - ----- ------ ---- --<br>-------- --- -------- -------- --- -------- ---- -- ----- -<br>-------- ---- --- ---------- --------- -- ------- ------ -<br>--------- ----- -----",152820.19999998808,152819.30000001192,152349.576,152364.30000001192,152366.246,152832.929,,8,"prosecution,"
screen,html.Screen,0_4_1_0_1_9,2021-11-12T14:51:40.709Z,,,,,,,,,,,,,,,,15,,,,,,,,,,,,,,402.3710000119172,,response,,,7,F,,,,,Space,keypress(Space),,,,instrumental,---- --------- ---------- - --- ------- -- --- ------------<br>vowed -- -------- ------- ---- ------ - -------- ---- -----<br>--- ------- ---- -- --- -------- --- - ----- ------ ---- --<br>-------- --- -------- -------- --- -------- ---- -- ----- -<br>-------- ---- --- ---------- --------- -- ------- ------ -<br>--------- ----- -----,153236.19999998808,153235.30000001192,152816.26,152820.59999996424,152832.929,153249.808,,9,vowed
screen,html.Screen,0_4_1_0_1_10,2021-11-12T14:51:41.196Z,,,,,,,,,,,,,,,,15,,,,,,,,,,,,,,473.3919999880891,,response,,,7,F,,,,,Space,keypress(Space),,,,instrumental,---- --------- ---------- - --- ------- -- --- ------------<br>----- he -------- ------- ---- ------ - -------- ---- -----<br>--- ------- ---- -- --- -------- --- - ----- ------ ---- --<br>-------- --- -------- -------- --- -------- ---- -- ----- -<br>-------- ---- --- ---------- --------- -- ------- ------ -<br>--------- ----- -----,153723.89999997616,153723.19999998808,153233.137,153236.39999997616,153249.808,153733.376,,10,he
screen,html.Screen,0_4_1_0_1_11,2021-11-12T14:51:41.565Z,,,,,,,,,,,,,,,,15,,,,,,,,,,,,,,357.92400001193164,,response,,,7,F,,,,,Space,keypress(Space),,,,instrumental,---- --------- ---------- - --- ------- -- --- ------------<br>----- -- wouldn't ------- ---- ------ - -------- ---- -----<br>--- ------- ---- -- --- -------- --- - ----- ------ ---- --<br>-------- --- -------- -------- --- -------- ---- -- ----- -<br>-------- ---- --- ---------- --------- -- ------- ------ -<br>--------- ----- -----,154092,154091.30000001192,153716.704,153724.09999996424,153733.376,154100.026,,11,wouldn't
screen,html.Screen,0_4_1_0_1_12,2021-11-12T14:51:41.940Z,,,,,,,,,,,,,,,,15,,,,,,,,,,,,,,367.1739999880665,,response,,,7,F,,,,,Space,keypress(Space),,,,instrumental,---- --------- ---------- - --- ------- -- --- ------------<br>----- -- -------- testify ---- ------ - -------- ---- -----<br>--- ------- ---- -- --- -------- --- - ----- ------ ---- --<br>-------- --- -------- -------- --- -------- ---- -- ----- -<br>-------- ---- --- ---------- --------- -- ------- ------ -<br>--------- ----- -----,154468,154467.19999998808,154083.356,154092.30000001192,154100.026,154483.472,,12,testify
screen,html.Screen,0_4_1_0_1_13,2021-11-12T14:51:42.324Z,,,,,,,,,,,,,,,,15,,,,,,,,,,,,,,367.7279999880702,,response,,,7,F,,,,,Space,keypress(Space),,,,instrumental,---- --------- ---------- - --- ------- -- --- ------------<br>----- -- -------- ------- when ------ - -------- ---- -----<br>--- ------- ---- -- --- -------- --- - ----- ------ ---- --<br>-------- --- -------- -------- --- -------- ---- -- ----- -<br>-------- ---- --- ---------- --------- -- ------- ------ -<br>--------- ----- -----,154852,154851.19999998808,154466.802,154468.30000001192,154483.472,154866.759,,13,when
screen,html.Screen,0_4_1_0_1_14,2021-11-12T14:51:42.724Z,,,,,,,,,,,,,,,,15,,,,,,,,,,,,,,384.3409999642463,,response,,,7,F,,,,,Space,keypress(Space),,,,instrumental,---- --------- ---------- - --- ------- -- --- ------------<br>----- -- -------- ------- ---- served - -------- ---- -----<br>--- ------- ---- -- --- -------- --- - ----- ------ ---- --<br>-------- --- -------- -------- --- -------- ---- -- ----- -<br>-------- ---- --- ---------- --------- -- ------- ------ -<br>--------- ----- -----,155252.09999996424,155251.09999996424,154850.091,154852.30000001192,154866.759,155267.129,,14,served
screen,html.Screen,0_4_1_0_1_15,2021-11-12T14:51:43.116Z,,,,,,,,,,,,,,,,15,,,,,,,,,,,,,,375.97099996425095,,response,,,7,F,,,,,Space,keypress(Space),,,,instrumental,---- --------- ---------- - --- ------- -- --- ------------<br>----- -- -------- ------- ---- ------ a -------- ---- -----<br>--- ------- ---- -- --- -------- --- - ----- ------ ---- --<br>-------- --- -------- -------- --- -------- ---- -- ----- -<br>-------- ---- --- ---------- --------- -- ------- ------ -<br>--------- ----- -----,155643.89999997616,155643.09999996424,155250.456,155252.30000001192,155267.129,155650.427,,15,a
screen,html.Screen,0_4_1_0_1_16,2021-11-12T14:51:43.508Z,,,,,,,,,,,,,,,,15,,,,,,,,,,,,,,384.67299996424117,,response,,,7,F,,,,,Space,keypress(Space),,,,instrumental,---- --------- ---------- - --- ------- -- --- ------------<br>----- -- -------- ------- ---- ------ - subpoena ---- -----<br>--- ------- ---- -- --- -------- --- - ----- ------ ---- --<br>-------- --- -------- -------- --- -------- ---- -- ----- -<br>-------- ---- --- ---------- --------- -- ------- ------ -<br>--------- ----- -----,156035.89999997616,156035.09999996424,155633.757,155644.19999998808,155650.427,156050.526,,16,subpoena
screen,html.Screen,0_4_1_0_1_17,2021-11-12T14:51:43.996Z,,,,,,,,,,,,,,,,15,,,,,,,,,,,,,,472.4739999999874,,response,,,7,F,,,,,Space,keypress(Space),,,,instrumental,---- --------- ---------- - --- ------- -- --- ------------<br>----- -- -------- ------- ---- ------ - -------- last -----<br>--- ------- ---- -- --- -------- --- - ----- ------ ---- --<br>-------- --- -------- -------- --- -------- ---- -- ----- -<br>-------- ---- --- ---------- --------- -- ------- ------ -<br>--------- ----- -----,156523.80000001192,156523,156033.856,156036.19999998808,156050.526,156533.875,,17,last
screen,html.Screen,0_4_1_0_1_18,2021-11-12T14:51:44.516Z,,,,,,,,,,,,,,,,15,,,,,,,,,,,,,,509.125,,response,,,7,F,,,,,Space,keypress(Space),,,,instrumental,---- --------- ---------- - --- ------- -- --- ------------<br>----- -- -------- ------- ---- ------ - -------- ---- week.<br>--- ------- ---- -- --- -------- --- - ----- ------ ---- --<br>-------- --- -------- -------- --- -------- ---- -- ----- -<br>-------- ---- --- ---------- --------- -- ------- ------ -<br>--------- ----- -----,157043.80000001192,157043,156517.206,156524.09999996424,156533.875,157050.881,,18,week.
screen,html.Screen,0_4_1_0_1_19,2021-11-12T14:51:45.164Z,,,,,,,,,,,,,,,,15,,,,,,,,,,,,,,640.119000000006,,response,,,7,F,,,,,Space,keypress(Space),,,,instrumental,---- --------- ---------- - --- ------- -- --- ------------<br>----- -- -------- ------- ---- ------ - -------- ---- -----<br>His ------- ---- -- --- -------- --- - ----- ------ ---- --<br>-------- --- -------- -------- --- -------- ---- -- ----- -<br>-------- ---- --- ---------- --------- -- ------- ------ -<br>--------- ----- -----,157691.80000001192,157691,157034.209,157044,157050.881,157700.851,,19,His
screen,html.Screen,0_4_1_0_1_20,2021-11-12T14:51:45.468Z,,,,,,,,,,,,,,,,15,,,,,,,,,,,,,,294.2489999642421,,response,,,7,F,,,,,Space,keypress(Space),,,,instrumental,---- --------- ---------- - --- ------- -- --- ------------<br>----- -- -------- ------- ---- ------ - -------- ---- -----<br>--- lawyers ---- -- --- -------- --- - ----- ------ ---- --<br>-------- --- -------- -------- --- -------- ---- -- ----- -<br>-------- ---- --- ---------- --------- -- ------- ------ -<br>--------- ----- -----,157995.89999997616,157995.09999996424,157684.182,157692.09999996424,157700.851,158001.054,,20,lawyers
screen,html.Screen,0_4_1_0_1_21,2021-11-12T14:51:45.781Z,,,,,,,,,,,,,,,,15,,,,,,,,,,,,,,306.4459999999963,,response,,,7,F,,,,,Space,keypress(Space),,,,instrumental,---- --------- ---------- - --- ------- -- --- ------------<br>----- -- -------- ------- ---- ------ - -------- ---- -----<br>--- ------- said -- --- -------- --- - ----- ------ ---- --<br>-------- --- -------- -------- --- -------- ---- -- ----- -<br>-------- ---- --- ---------- --------- -- ------- ------ -<br>--------- ----- -----,158308.39999997616,158307.5,157984.383,157996.09999996424,158001.054,158317.827,,21,said
screen,html.Screen,0_4_1_0_1_22,2021-11-12T14:51:46.116Z,,,,,,,,,,,,,,,,15,,,,,,,,,,,,,,325.0729999761679,,response,,,7,F,,,,,Space,keypress(Space),,,,instrumental,---- --------- ---------- - --- ------- -- --- ------------<br>----- -- -------- ------- ---- ------ - -------- ---- -----<br>--- ------- ---- he --- -------- --- - ----- ------ ---- --<br>-------- --- -------- -------- --- -------- ---- -- ----- -<br>-------- ---- --- ---------- --------- -- ------- ------ -<br>--------- ----- -----,158643.69999998808,158642.89999997616,158301.156,158308.59999996424,158317.827,158651.206,,22,he
screen,html.Screen,0_4_1_0_1_23,2021-11-12T14:51:46.460Z,,,,,,,,,,,,,,,,15,,,,,,,,,,,,,,335.69399997615255,,response,,,7,F,,,,,Space,keypress(Space),,,,instrumental,---- --------- ---------- - --- ------- -- --- ------------<br>----- -- -------- ------- ---- ------ - -------- ---- -----<br>--- ------- ---- -- was -------- --- - ----- ------ ---- --<br>-------- --- -------- -------- --- -------- ---- -- ----- -<br>-------- ---- --- ---------- --------- -- ------- ------ -<br>--------- ----- -----,158987.80000001192,158986.89999997616,158634.536,158644,158651.206,159001.303,,23,was
screen,html.Screen,0_4_1_0_1_24,2021-11-12T14:51:46.820Z,,,,,,,,,,,,,,,,15,,,,,,,,,,,,,,345.69699999998556,,response,,,7,F,,,,,Space,keypress(Space),,,,instrumental,---- --------- ---------- - --- ------- -- --- ------------<br>----- -- -------- ------- ---- ------ - -------- ---- -----<br>--- ------- ---- -- --- prepared --- - ----- ------ ---- --<br>-------- --- -------- -------- --- -------- ---- -- ----- -<br>-------- ---- --- ---------- --------- -- ------- ------ -<br>--------- ----- -----,159347.69999998808,159347,158984.633,158988,159001.303,159351.391,,24,prepared
screen,html.Screen,0_4_1_0_1_25,2021-11-12T14:51:47.181Z,,,,,,,,,,,,,,,,15,,,,,,,,,,,,,,356.10899999999674,,response,,,7,F,,,,,Space,keypress(Space),,,,instrumental,---- --------- ---------- - --- ------- -- --- ------------<br>----- -- -------- ------- ---- ------ - -------- ---- -----<br>--- ------- ---- -- --- -------- for - ----- ------ ---- --<br>-------- --- -------- -------- --- -------- ---- -- ----- -<br>-------- ---- --- ---------- --------- -- ------- ------ -<br>--------- ----- -----,159708.30000001192,159707.5,159334.721,159348,159351.391,159718.026,,25,for
screen,html.Screen,0_4_1_0_1_26,2021-11-12T14:51:47.532Z,,,,,,,,,,,,,,,,15,,,,,,,,,,,,,,340.87399997614557,,response,,,7,F,,,,,Space,keypress(Space),,,,instrumental,---- --------- ---------- - --- ------- -- --- ------------<br>----- -- -------- ------- ---- ------ - -------- ---- -----<br>--- ------- ---- -- --- -------- --- a ----- ------ ---- --<br>-------- --- -------- -------- --- -------- ---- -- ----- -<br>-------- ---- --- ---------- --------- -- ------- ------ -<br>--------- ----- -----,160059.80000001192,160058.89999997616,159701.358,159708.5,159718.026,160068.315,,26,a
screen,html.Screen,0_4_1_0_1_27,2021-11-12T14:51:47.908Z,,,,,,,,,,,,,,,,15,,,,,,,,,,,,,,366.5849999761558,,response,,,7,F,,,,,Space,keypress(Space),,,,instrumental,---- --------- ---------- - --- ------- -- --- ------------<br>----- -- -------- ------- ---- ------ - -------- ---- -----<br>--- ------- ---- -- --- -------- --- - third ------ ---- --<br>-------- --- -------- -------- --- -------- ---- -- ----- -<br>-------- ---- --- ---------- --------- -- ------- ------ -<br>--------- ----- -----,160435.80000001192,160434.89999997616,160051.643,160060,160068.315,160451.715,,27,third
screen,html.Screen,0_4_1_0_1_28,2021-11-12T14:51:48.244Z,,,,,,,,,,,,,,,,15,,,,,,,,,,,,,,319.18499997616163,,response,,,7,F,,,,,Space,keypress(Space),,,,instrumental,---- --------- ---------- - --- ------- -- --- ------------<br>----- -- -------- ------- ---- ------ - -------- ---- -----<br>--- ------- ---- -- --- -------- --- - ----- prison ---- --<br>-------- --- -------- -------- --- -------- ---- -- ----- -<br>-------- ---- --- ---------- --------- -- ------- ------ -<br>--------- ----- -----,160771.69999998808,160770.89999997616,160435.044,160436,160451.715,160784.951,,28,prison
screen,html.Screen,0_4_1_0_1_29,2021-11-12T14:51:48.620Z,,,,,,,,,,,,,,,,15,,,,,,,,,,,,,,361.84900001192,,response,,,7,F,,,,,Space,keypress(Space),,,,instrumental,---- --------- ---------- - --- ------- -- --- ------------<br>----- -- -------- ------- ---- ------ - -------- ---- -----<br>--- ------- ---- -- --- -------- --- - ----- ------ stay --<br>-------- --- -------- -------- --- -------- ---- -- ----- -<br>-------- ---- --- ---------- --------- -- ------- ------ -<br>--------- ----- -----,161147.59999996424,161146.80000001192,160768.283,160771.89999997616,160784.951,161151.936,,29,stay
screen,html.Screen,0_4_1_0_1_30,2021-11-12T14:51:49.068Z,,,,,,,,,,,,,,,,15,,,,,,,,,,,,,,442.86400001193397,,response,,,7,F,,,,,Space,keypress(Space),,,,instrumental,---- --------- ---------- - --- ------- -- --- ------------<br>----- -- -------- ------- ---- ------ - -------- ---- -----<br>--- ------- ---- -- --- -------- --- - ----- ------ ---- to<br>-------- --- -------- -------- --- -------- ---- -- ----- -<br>-------- ---- --- ---------- --------- -- ------- ------ -<br>--------- ----- -----,161595.59999996424,161594.80000001192,161135.264,161147.89999997616,161151.936,161601.826,,30,to
screen,html.Screen,0_4_1_0_1_31,2021-11-12T14:51:49.428Z,,,,,,,,,,,,,,,,15,,,,,,,,,,,,,,352.97400001192,,response,,,7,F,,,,,Space,keypress(Space),,,,instrumental,---- --------- ---------- - --- ------- -- --- ------------<br>----- -- -------- ------- ---- ------ - -------- ---- -----<br>--- ------- ---- -- --- -------- --- - ----- ------ ---- --<br>maintain --- -------- -------- --- -------- ---- -- ----- -<br>-------- ---- --- ---------- --------- -- ------- ------ -<br>--------- ----- -----,161955.69999998808,161954.80000001192,161585.158,161595.80000001192,161601.826,161968.802,,31,maintain
screen,html.Screen,0_4_1_0_1_32,2021-11-12T14:51:49.812Z,,,,,,,,,,,,,,,,15,,,,,,,,,,,,,,369.9980000119249,,response,,,7,F,,,,,Space,keypress(Space),,,,instrumental,---- --------- ---------- - --- ------- -- --- ------------<br>----- -- -------- ------- ---- ------ - -------- ---- -----<br>--- ------- ---- -- --- -------- --- - ----- ------ ---- --<br>-------- his -------- -------- --- -------- ---- -- ----- -<br>-------- ---- --- ---------- --------- -- ------- ------ -<br>--------- ----- -----,162339.59999996424,162338.80000001192,161952.13,161955.80000001192,161968.802,162352.156,,32,his
screen,html.Screen,0_4_1_0_1_33,2021-11-12T14:51:50.236Z,,,,,,,,,,,,,,,,15,,,,,,,,,,,,,,410.4439999642491,,response,,,7,F,,,,,Space,keypress(Space),,,,instrumental,---- --------- ---------- - --- ------- -- --- ------------<br>----- -- -------- ------- ---- ------ - -------- ---- -----<br>--- ------- ---- -- --- -------- --- - ----- ------ ---- --<br>-------- --- silence. -------- --- -------- ---- -- ----- -<br>-------- ---- --- ---------- --------- -- ------- ------ -<br>--------- ----- -----,162763.5,162762.59999996424,162335.486,162339.80000001192,162352.156,162768.931,,33,silence.
screen,html.Screen,0_4_1_0_1_34,2021-11-12T14:51:50.684Z,,,,,,,,,,,,,,,,15,,,,,,,,,,,,,,441.76899998806766,,response,,,7,F,,,,,Space,keypress(Space),,,,instrumental,---- --------- ---------- - --- ------- -- --- ------------<br>----- -- -------- ------- ---- ------ - -------- ---- -----<br>--- ------- ---- -- --- -------- --- - ----- ------ ---- --<br>-------- --- -------- Anderson --- -------- ---- -- ----- -<br>-------- ---- --- ---------- --------- -- ------- ------ -<br>--------- ----- -----,163211.59999996424,163210.69999998808,162752.261,162763.69999998808,162768.931,163218.965,,34,Anderson
screen,html.Screen,0_4_1_0_1_35,2021-11-12T14:51:51.116Z,,,,,,,,,,,,,,,,15,,,,,,,,,,,,,,423.6349999642407,,response,,,7,F,,,,,Space,keypress(Space),,,,instrumental,---- --------- ---------- - --- ------- -- --- ------------<br>----- -- -------- ------- ---- ------ - -------- ---- -----<br>--- ------- ---- -- --- -------- --- - ----- ------ ---- --<br>-------- --- -------- -------- was -------- ---- -- ----- -<br>-------- ---- --- ---------- --------- -- ------- ------ -<br>--------- ----- -----,163643.39999997616,163642.59999996424,163202.296,163212,163218.965,163652.394,,35,was
screen,html.Screen,0_4_1_0_1_36,2021-11-12T14:51:51.492Z,,,,,,,,,,,,,,,,15,,,,,,,,,,,,,,366.30599998807884,,response,,,7,F,,,,,Space,keypress(Space),,,,instrumental,---- --------- ---------- - --- ------- -- --- ------------<br>----- -- -------- ------- ---- ------ - -------- ---- -----<br>--- ------- ---- -- --- -------- --- - ----- ------ ---- --<br>-------- --- -------- -------- --- released ---- -- ----- -<br>-------- ---- --- ---------- --------- -- ------- ------ -<br>--------- ----- -----,164019.5,164018.69999998808,163635.725,163643.59999996424,163652.394,164035.879,,36,released
screen,html.Screen,0_4_1_0_1_37,2021-11-12T14:51:52.012Z,,,,,,,,,,,,,,,,15,,,,,,,,,,,,,,502.62100000001374,,response,,,7,F,,,,,Space,keypress(Space),,,,instrumental,---- --------- ---------- - --- ------- -- --- ------------<br>----- -- -------- ------- ---- ------ - -------- ---- -----<br>--- ------- ---- -- --- -------- --- - ----- ------ ---- --<br>-------- --- -------- -------- --- -------- July -- ----- -<br>-------- ---- --- ---------- --------- -- ------- ------ -<br>--------- ----- -----,164539.59999996424,164538.5,164019.209,164019.80000001192,164035.879,164552.831,,37,July
screen,html.Screen,0_4_1_0_1_38,2021-11-12T14:51:52.492Z,,,,,,,,,,,,,,,,15,,,,,,,,,,,,,,465.7689999642316,,response,,,7,F,,,,,Space,keypress(Space),,,,instrumental,---- --------- ---------- - --- ------- -- --- ------------<br>----- -- -------- ------- ---- ------ - -------- ---- -----<br>--- ------- ---- -- --- -------- --- - ----- ------ ---- --<br>-------- --- -------- -------- --- -------- ---- 20 ----- -<br>-------- ---- --- ---------- --------- -- ------- ------ -<br>--------- ----- -----,165019.5,165018.59999996424,164536.159,164539.89999997616,164552.831,165036.095,,38,20
screen,html.Screen,0_4_1_0_1_39,2021-11-12T14:51:53.004Z,,,,,,,,,,,,,,,,15,,,,,,,,,,,,,,494.40499999999884,,response,,,7,F,,,,,Space,keypress(Space),,,,instrumental,---- --------- ---------- - --- ------- -- --- ------------<br>----- -- -------- ------- ---- ------ - -------- ---- -----<br>--- ------- ---- -- --- -------- --- - ----- ------ ---- --<br>-------- --- -------- -------- --- -------- ---- -- after -<br>-------- ---- --- ---------- --------- -- ------- ------ -<br>--------- ----- -----,165531.39999997616,165530.5,165019.426,165019.80000001192,165036.095,165536.19,,39,after
screen,html.Screen,0_4_1_0_1_40,2021-11-12T14:51:53.676Z,,,,,,,,,,,,,,,,15,,,,,,,,,,,,,,666.3099999999977,,response,,,7,F,,,,,Space,keypress(Space),,,,instrumental,---- --------- ---------- - --- ------- -- --- ------------<br>----- -- -------- ------- ---- ------ - -------- ---- -----<br>--- ------- ---- -- --- -------- --- - ----- ------ ---- --<br>-------- --- -------- -------- --- -------- ---- -- ----- a<br>-------- ---- --- ---------- --------- -- ------- ------ -<br>--------- ----- -----,166203.30000001192,166202.5,165519.521,165531.59999996424,165536.19,166219.937,,40,a
screen,html.Screen,0_4_1_0_1_41,2021-11-12T14:51:54.068Z,,,,,,,,,,,,,,,,15,,,,,,,,,,,,,,374.4629999761528,,response,,,7,F,,,,,Space,keypress(Space),,,,instrumental,---- --------- ---------- - --- ------- -- --- ------------<br>----- -- -------- ------- ---- ------ - -------- ---- -----<br>--- ------- ---- -- --- -------- --- - ----- ------ ---- --<br>-------- --- -------- -------- --- -------- ---- -- ----- -<br>two-week ---- --- ---------- --------- -- ------- ------ -<br>--------- ----- -----,166595.30000001192,166594.39999997616,166203.265,166203.59999996424,166219.937,166603.146,,41,two-week
screen,html.Screen,0_4_1_0_1_42,2021-11-12T14:51:54.436Z,,,,,,,,,,,,,,,,15,,,,,,,,,,,,,,359.3539999999921,,response,,,7,F,,,,,Space,keypress(Space),,,,instrumental,---- --------- ---------- - --- ------- -- --- ------------<br>----- -- -------- ------- ---- ------ - -------- ---- -----<br>--- ------- ---- -- --- -------- --- - ----- ------ ---- --<br>-------- --- -------- -------- --- -------- ---- -- ----- -<br>-------- stay --- ---------- --------- -- ------- ------ -<br>--------- ----- -----,166963.30000001192,166962.5,166586.477,166595.59999996424,166603.146,166970.056,,42,stay
screen,html.Screen,0_4_1_0_1_43,2021-11-12T14:51:54.820Z,,,,,,,,,,,,,,,,15,,,,,,,,,,,,,,376.4439999999886,,response,,,7,F,,,,,Space,keypress(Space),,,,instrumental,---- --------- ---------- - --- ------- -- --- ------------<br>----- -- -------- ------- ---- ------ - -------- ---- -----<br>--- ------- ---- -- --- -------- --- - ----- ------ ---- --<br>-------- --- -------- -------- --- -------- ---- -- ----- -<br>-------- ---- for ---------- --------- -- ------- ------ -<br>--------- ----- -----,167347.39999997616,167346.5,166953.385,166963.59999996424,166970.056,167353.384,,43,for
screen,html.Screen,0_4_1_0_1_44,2021-11-12T14:51:55.180Z,,,,,,,,,,,,,,,,15,,,,,,,,,,,,,,353.0159999761672,,response,,,7,F,,,,,Space,keypress(Space),,,,instrumental,---- --------- ---------- - --- ------- -- --- ------------<br>----- -- -------- ------- ---- ------ - -------- ---- -----<br>--- ------- ---- -- --- -------- --- - ----- ------ ---- --<br>-------- --- -------- -------- --- -------- ---- -- ----- -<br>-------- ---- --- previously --------- -- ------- ------ -<br>--------- ----- -----,167707.30000001192,167706.39999997616,167336.715,167347.59999996424,167353.384,167720.249,,44,previously
screen,html.Screen,0_4_1_0_1_45,2021-11-12T14:51:55.524Z,,,,,,,,,,,,,,,,15,,,,,,,,,,,,,,330.2509999999893,,response,,,7,F,,,,,Space,keypress(Space),,,,instrumental,---- --------- ---------- - --- ------- -- --- ------------<br>----- -- -------- ------- ---- ------ - -------- ---- -----<br>--- ------- ---- -- --- -------- --- - ----- ------ ---- --<br>-------- --- -------- -------- --- -------- ---- -- ----- -<br>-------- ---- --- ---------- declining -- ------- ------ -<br>--------- ----- -----,168051.30000001192,168050.5,167703.578,167707.59999996424,167720.249,168053.626,,45,declining
screen,html.Screen,0_4_1_0_1_46,2021-11-12T14:51:56.005Z,,,,,,,,,,,,,,,,15,,,,,,,,,,,,,,476.77399997616885,,response,,,7,F,,,,,Space,keypress(Space),,,,instrumental,---- --------- ---------- - --- ------- -- --- ------------<br>----- -- -------- ------- ---- ------ - -------- ---- -----<br>--- ------- ---- -- --- -------- --- - ----- ------ ---- --<br>-------- --- -------- -------- --- -------- ---- -- ----- -<br>-------- ---- --- ---------- --------- to ------- ------ -<br>--------- ----- -----,168532.30000001192,168530.39999997616,168036.956,168051.5,168053.626,168537.067,,46,to
screen,html.Screen,0_4_1_0_1_47,2021-11-12T14:51:56.420Z,,,,,,,,,,,,,,,,15,,,,,,,,,,,,,,409.33299997614813,,response,,,7,F,,,,,Space,keypress(Space),,,,instrumental,---- --------- ---------- - --- ------- -- --- ------------<br>----- -- -------- ------- ---- ------ - -------- ---- -----<br>--- ------- ---- -- --- -------- --- - ----- ------ ---- --<br>-------- --- -------- -------- --- -------- ---- -- ----- -<br>-------- ---- --- ---------- --------- -- testify ------ -<br>--------- ----- -----,168947.30000001192,168946.39999997616,168520.397,168532.80000001192,168537.067,168953.851,,47,testify
screen,html.Screen,0_4_1_0_1_48,2021-11-12T14:51:56.876Z,,,,,,,,,,,,,,,,15,,,,,,,,,,,,,,448.4490000119258,,response,,,7,F,,,,,Space,keypress(Space),,,,instrumental,---- --------- ---------- - --- ------- -- --- ------------<br>----- -- -------- ------- ---- ------ - -------- ---- -----<br>--- ------- ---- -- --- -------- --- - ----- ------ ---- --<br>-------- --- -------- -------- --- -------- ---- -- ----- -<br>-------- ---- --- ---------- --------- -- ------- before -<br>--------- ----- -----,169403.19999998808,169402.30000001192,168937.181,168947.39999997616,168953.851,169420.563,,48,before
screen,html.Screen,0_4_1_0_1_49,2021-11-12T14:51:57.372Z,,,,,,,,,,,,,,,,15,,,,,,,,,,,,,,478.2370000119263,,response,,,7,F,,,,,Space,keypress(Space),,,,instrumental,---- --------- ---------- - --- ------- -- --- ------------<br>----- -- -------- ------- ---- ------ - -------- ---- -----<br>--- ------- ---- -- --- -------- --- - ----- ------ ---- --<br>-------- --- -------- -------- --- -------- ---- -- ----- -<br>-------- ---- --- ---------- --------- -- ------- ------ a<br>--------- ----- -----,169899.59999996424,169898.80000001192,169403.894,169403.5,169420.563,169904.184,,49,a
screen,html.Screen,0_4_1_0_1_50,2021-11-12T14:51:57.812Z,,,,,,,,,,,,,,,,15,,,,,,,,,,,,,,434.11600001191255,,response,,,7,F,,,,,Space,keypress(Space),,,,instrumental,---- --------- ---------- - --- ------- -- --- ------------<br>----- -- -------- ------- ---- ------ - -------- ---- -----<br>--- ------- ---- -- --- -------- --- - ----- ------ ---- --<br>-------- --- -------- -------- --- -------- ---- -- ----- -<br>-------- ---- --- ---------- --------- -- ------- ------ -<br>different ----- -----,170339.09999996424,170338.30000001192,169887.512,169899.80000001192,169904.184,170354.255,,50,different
screen,html.Screen,0_4_1_0_1_51,2021-11-12T14:51:58.212Z,,,,,,,,,,,,,,,,15,,,,,,,,,,,,,,384.0450000119163,,response,,,7,F,,,,,Space,keypress(Space),,,,instrumental,---- --------- ---------- - --- ------- -- --- ------------<br>----- -- -------- ------- ---- ------ - -------- ---- -----<br>--- ------- ---- -- --- -------- --- - ----- ------ ---- --<br>-------- --- -------- -------- --- -------- ---- -- ----- -<br>-------- ---- --- ---------- --------- -- ------- ------ -<br>--------- grand -----,170739.09999996424,170738.30000001192,170337.584,170339.30000001192,170354.255,170754.207,,51,grand
screen,html.Screen,0_4_1_0_1_52,2021-11-12T14:51:58.708Z,,,,,,,,,,,,,,,,15,,,,,,,,,,,,,,480.19299997616326,,response,,,7,F,,,,,Space,keypress(Space),,,,instrumental,---- --------- ---------- - --- ------- -- --- ------------<br>----- -- -------- ------- ---- ------ - -------- ---- -----<br>--- ------- ---- -- --- -------- --- - ----- ------ ---- --<br>-------- --- -------- -------- --- -------- ---- -- ----- -<br>-------- ---- --- ---------- --------- -- ------- ------ -<br>--------- ----- jury.,171235.09999996424,171234.39999997616,170737.538,170739.30000001192,170754.207,171254.398,,52,jury.
Item 7,flow.Loop,0_4_1_0_1,2021-11-12T14:51:58.708Z,,,,,,,,,,,,,,,,,,,,,,,,,,,,,,22252.313999976148,,completion,,,,,,,,,,,,,,,,171235.59999996424,171234.39999997616,148965.415,148966.59999996424,148982.086,171254.398,,,
