sender,sender_type,sender_id,timestamp,meta,,Blues,Classical,Country,Dance,Electronic,Folk,Gospel,Hip-Hop,Jazz,Latin,Musical/Film,New-age,Pop,Provo_ID,R&B,Rap,Reggae,Religious,Rock,Soul,Swing,Traditional,age,artist_name,correct,correctResponse,distraction,duration,education,ended_on,familiarity,gender,item,list,music_frequency,offensiveness,pleasantness,preference,response,response_action,snippet_file,song_name,song_rating,sound,text,time_commit,time_end,time_render,time_run,time_show,time_switch,url,word,word_ID
Instructions,html.Page,0_0,2021-11-05T10:55:49.382Z,"{""labjs_version"":""20.2.3"",""labjs_build"":{""flavor"":""production"",""commit"":""7ea907d66ca8aeef8054924ca5d82ffbe11e34e5""},""location"":""https://run.pavlovia.org/mvasilev/lab_music_f/"",""userAgent"":""Mozilla/5.0 (Windows NT 6.1; Win64; x64) AppleWebKit/537.36 (KHTML, like Gecko) Chrome/95.0.4638.69 Safari/537.36"",""platform"":""Win32"",""language"":""en-US"",""locale"":""en-US"",""timeZone"":""Europe/London"",""timezoneOffset"":0,""screen_width"":1920,""screen_height"":1080,""scroll_width"":1920,""scroll_height"":959,""window_innerWidth"":1920,""window_innerHeight"":1007,""devicePixelRatio"":1}",,,,,,,,,,,,,,,,,,,,,,,,,,,,,27626.153,,form submission,,,,,,,,,,,,,,,,38170.79999999702,38169.5,10526.677,10534.09999999404,10543.347,38167.215,{},,
Headphones,html.Page,0_1,2021-11-05T10:55:52.208Z,,,,,,,,,,,,,,,,,,,,,,,,,,,,,,2828.884999994043,,form submission,,,,,,,,,,,,,,,,40996.59999999404,40996.09999999404,38150.545,38171.5,38167.215,40999.018,,,
Holding screen,html.Screen,0_2_0_0,2021-11-05T10:56:02.205Z,,,,,,,,,,,,,,,,,,,,,,,,,,,,,,10004.498000000007,,timeout,,,,,,,,,,,,,,,,50993.09999999404,50986.847,40982.359,40997.09999999404,40999.018,51003.516,,,
screen,html.Screen,0_2_0_1_0,2021-11-05T10:56:03.200Z,,,,,,,,,,,,,,,,53,,,,,,,,,,,,,,983.2839999970165,,response,,,99,,,,,,Space,keypress(Space),,,,,When -- ----- -- ------ - ------- --- ----------<br>------------- ------ ------ ---- ---- ------- ----- -- ----<br>-------- ------- -- ---------- --- - --- ----- ----- ----<br>---- --- --- ----- --- ---- ---- ------- ----- ---- -------<br>--- --- -- ----- -- --- ---- -- --- ---- -- ------ ------<br>--- ----- -- ----,51988.29999999702,51986.79999999702,50986.847,50993.39999999106,51003.516,52004,,0,When
screen,html.Screen,0_2_0_1_1,2021-11-05T10:56:03.615Z,,,,,,,,,,,,,,,,53,,,,,,,,,,,,,,398.20000000298023,,response,,,99,,,,,,Space,keypress(Space),,,,,---- it ----- -- ------ - ------- --- ----------<br>------------- ------ ------ ---- ---- ------- ----- -- ----<br>-------- ------- -- ---------- --- - --- ----- ----- ----<br>---- --- --- ----- --- ---- ---- ------- ----- ---- -------<br>--- --- -- ----- -- --- ---- -- --- ---- -- ------ ------<br>--- ----- -- ----,52403.20000000298,52402.20000000298,51987.329,51988.70000000298,52004,52404.143,,1,it
screen,html.Screen,0_2_0_1_2,2021-11-05T10:56:04.031Z,,,,,,,,,,,,,,,,53,,,,,,,,,,,,,,414.1569999970234,,response,,,99,,,,,,Space,keypress(Space),,,,,---- -- comes -- ------ - ------- --- ----------<br>------------- ------ ------ ---- ---- ------- ----- -- ----<br>-------- ------- -- ---------- --- - --- ----- ----- ----<br>---- --- --- ----- --- ---- ---- ------- ----- ---- -------<br>--- --- -- ----- -- --- ---- -- --- ---- -- ------ ------<br>--- ----- -- ----,52819.20000000298,52818.29999999702,52387.472,52403.39999999106,52404.143,52820.912,,2,comes
screen,html.Screen,0_2_0_1_3,2021-11-05T10:56:04.447Z,,,,,,,,,,,,,,,,53,,,,,,,,,,,,,,413.38799999702314,,response,,,99,,,,,,Space,keypress(Space),,,,,---- -- ----- to ------ - ------- --- ----------<br>------------- ------ ------ ---- ---- ------- ----- -- ----<br>-------- ------- -- ---------- --- - --- ----- ----- ----<br>---- --- --- ----- --- ---- ---- ------- ----- ---- -------<br>--- --- -- ----- -- --- ---- -- --- ---- -- ------ ------<br>--- ----- -- ----,53235.29999999702,53234.29999999702,52804.241,52819.5,52820.912,53237.639,,3,to
screen,html.Screen,0_2_0_1_4,2021-11-05T10:56:04.863Z,,,,,,,,,,,,,,,,53,,,,,,,,,,,,,,412.6609999970169,,response,,,99,,,,,,Space,keypress(Space),,,,,---- -- ----- -- having - ------- --- ----------<br>------------- ------ ------ ---- ---- ------- ----- -- ----<br>-------- ------- -- ---------- --- - --- ----- ----- ----<br>---- --- --- ----- --- ---- ---- ------- ----- ---- -------<br>--- --- -- ----- -- --- ---- -- --- ---- -- ------ ------<br>--- ----- -- ----,53651.39999999106,53650.29999999702,53220.969,53235.70000000298,53237.639,53654.392,,4,having
screen,html.Screen,0_2_0_1_5,2021-11-05T10:56:05.247Z,,,,,,,,,,,,,,,,53,,,,,,,,,,,,,,379.8080000029804,,response,,,99,,,,,,Space,keypress(Space),,,,,---- -- ----- -- ------ a ------- --- ----------<br>------------- ------ ------ ---- ---- ------- ----- -- ----<br>-------- ------- -- ---------- --- - --- ----- ----- ----<br>---- --- --- ----- --- ---- ---- ------- ----- ---- -------<br>--- --- -- ----- -- --- ---- -- --- ---- -- ------ ------<br>--- ----- -- ----,54035.09999999404,54034.20000000298,53637.722,53651.79999999702,53654.392,54037.711,,5,a
screen,html.Screen,0_2_0_1_6,2021-11-05T10:56:05.671Z,,,,,,,,,,,,,,,,53,,,,,,,,,,,,,,420.5889999970168,,response,,,99,,,,,,Space,keypress(Space),,,,,---- -- ----- -- ------ - lasting --- ----------<br>------------- ------ ------ ---- ---- ------- ----- -- ----<br>-------- ------- -- ---------- --- - --- ----- ----- ----<br>---- --- --- ----- --- ---- ---- ------- ----- ---- -------<br>--- --- -- ----- -- --- ---- -- --- ---- -- ------ ------<br>--- ----- -- ----,54459.29999999702,54458.29999999702,54021.043,54035.59999999404,54037.711,54471.236,,6,lasting
screen,html.Screen,0_2_0_1_7,2021-11-05T10:56:06.079Z,,,,,,,,,,,,,,,,53,,,,,,,,,,,,,,394.9640000029831,,response,,,99,,,,,,Space,keypress(Space),,,,,---- -- ----- -- ------ - ------- and ----------<br>------------- ------ ------ ---- ---- ------- ----- -- ----<br>-------- ------- -- ---------- --- - --- ----- ----- ----<br>---- --- --- ----- --- ---- ---- ------- ----- ---- -------<br>--- --- -- ----- -- --- ---- -- --- ---- -- ------ ------<br>--- ----- -- ----,54867.20000000298,54866.20000000298,54454.566,54459.59999999404,54471.236,54871.48,,7,and
screen,html.Screen,0_2_0_1_8,2021-11-05T10:56:06.519Z,,,,,,,,,,,,,,,,53,,,,,,,,,,,,,,434.72000000297703,,response,,,99,,,,,,Space,keypress(Space),,,,,---- -- ----- -- ------ - ------- --- fulfilling<br>------------- ------ ------ ---- ---- ------- ----- -- ----<br>-------- ------- -- ---------- --- - --- ----- ----- ----<br>---- --- --- ----- --- ---- ---- ------- ----- ---- -------<br>--- --- -- ----- -- --- ---- -- --- ---- -- ------ ------<br>--- ----- -- ----,55307.29999999702,55306.20000000298,54854.808,54867.5,54871.48,55321.478,,8,fulfilling
screen,html.Screen,0_2_0_1_9,2021-11-05T10:56:07.079Z,,,,,,,,,,,,,,,,53,,,,,,,,,,,,,,544.7220000029774,,response,,,99,,,,,,Space,keypress(Space),,,,,"---- -- ----- -- ------ - ------- --- ----------<br>relationship, ------ ------ ---- ---- ------- ----- -- ----<br>-------- ------- -- ---------- --- - --- ----- ----- ----<br>---- --- --- ----- --- ---- ---- ------- ----- ---- -------<br>--- --- -- ----- -- --- ---- -- --- ---- -- ------ ------<br>--- ----- -- ----",55867.20000000298,55866.20000000298,55304.808,55307.59999999404,55321.478,55871.508,,9,"relationship,"
screen,html.Screen,0_2_0_1_10,2021-11-05T10:56:07.543Z,,,,,,,,,,,,,,,,53,,,,,,,,,,,,,,458.5919999940379,,response,,,99,,,,,,Space,keypress(Space),,,,,---- -- ----- -- ------ - ------- --- ----------<br>------------- common ------ ---- ---- ------- ----- -- ----<br>-------- ------- -- ---------- --- - --- ----- ----- ----<br>---- --- --- ----- --- ---- ---- ------- ----- ---- -------<br>--- --- -- ----- -- --- ---- -- --- ---- -- ------ ------<br>--- ----- -- ----,56331.09999999404,56330.09999999404,55854.839,55867.39999999106,55871.508,56338.521,,10,common
screen,html.Screen,0_2_0_1_11,2021-11-05T10:56:08.030Z,,,,,,,,,,,,,,,,53,,,,,,,,,,,,,,479.2789999970191,,response,,,99,,,,,,Space,keypress(Space),,,,,---- -- ----- -- ------ - ------- --- ----------<br>------------- ------ wisdom ---- ---- ------- ----- -- ----<br>-------- ------- -- ---------- --- - --- ----- ----- ----<br>---- --- --- ----- --- ---- ---- ------- ----- ---- -------<br>--- --- -- ----- -- --- ---- -- --- ---- -- ------ ------<br>--- ----- -- ----,56818.29999999702,56817.79999999702,56321.849,56331.39999999106,56338.521,56821.838,,11,wisdom
screen,html.Screen,0_2_0_1_12,2021-11-05T10:56:08.470Z,,,,,,,,,,,,,,,,53,,,,,,,,,,,,,,436.26199999403616,,response,,,99,,,,,,Space,keypress(Space),,,,,---- -- ----- -- ------ - ------- --- ----------<br>------------- ------ ------ says ---- ------- ----- -- ----<br>-------- ------- -- ---------- --- - --- ----- ----- ----<br>---- --- --- ----- --- ---- ---- ------- ----- ---- -------<br>--- --- -- ----- -- --- ---- -- --- ---- -- ------ ------<br>--- ----- -- ----,57258.89999999106,57258.09999999404,56805.168,56818.39999999106,56821.838,57271.864,,12,says
screen,html.Screen,0_2_0_1_13,2021-11-05T10:56:08.878Z,,,,,,,,,,,,,,,,53,,,,,,,,,,,,,,394.1359999999986,,response,,,99,,,,,,Space,keypress(Space),,,,,---- -- ----- -- ------ - ------- --- ----------<br>------------- ------ ------ ---- that ------- ----- -- ----<br>-------- ------- -- ---------- --- - --- ----- ----- ----<br>---- --- --- ----- --- ---- ---- ------- ----- ---- -------<br>--- --- -- ----- -- --- ---- -- --- ---- -- ------ ------<br>--- ----- -- ----,57666.89999999106,57666,57255.195,57259.20000000298,57271.864,57672.006,,13,that
screen,html.Screen,0_2_0_1_14,2021-11-05T10:56:09.294Z,,,,,,,,,,,,,,,,53,,,,,,,,,,,,,,409.9939999999988,,response,,,99,,,,,,Space,keypress(Space),,,,,---- -- ----- -- ------ - ------- --- ----------<br>------------- ------ ------ ---- ---- feeling ----- -- ----<br>-------- ------- -- ---------- --- - --- ----- ----- ----<br>---- --- --- ----- --- ---- ---- ------- ----- ---- -------<br>--- --- -- ----- -- --- ---- -- --- ---- -- ------ ------<br>--- ----- -- ----,58082.89999999106,58082,57655.336,57667.09999999404,57672.006,58088.927,,14,feeling
screen,html.Screen,0_2_0_1_15,2021-11-05T10:56:09.750Z,,,,,,,,,,,,,,,,53,,,,,,,,,,,,,,448.972999991056,,response,,,99,,,,,,Space,keypress(Space),,,,,---- -- ----- -- ------ - ------- --- ----------<br>------------- ------ ------ ---- ---- ------- close -- ----<br>-------- ------- -- ---------- --- - --- ----- ----- ----<br>---- --- --- ----- --- ---- ---- ------- ----- ---- -------<br>--- --- -- ----- -- --- ---- -- --- ---- -- ------ ------<br>--- ----- -- ----,58538.79999999702,58537.89999999106,58072.255,58083.20000000298,58088.927,58555.659,,15,close
screen,html.Screen,0_2_0_1_16,2021-11-05T10:56:10.158Z,,,,,,,,,,,,,,,,53,,,,,,,,,,,,,,390.24099999105965,,response,,,99,,,,,,Space,keypress(Space),,,,,---- -- ----- -- ------ - ------- --- ----------<br>------------- ------ ------ ---- ---- ------- ----- to ----<br>-------- ------- -- ---------- --- - --- ----- ----- ----<br>---- --- --- ----- --- ---- ---- ------- ----- ---- -------<br>--- --- -- ----- -- --- ---- -- --- ---- -- ------ ------<br>--- ----- -- ----,58946.79999999702,58945.89999999106,58538.988,58539.09999999404,58555.659,58955.77,,16,to
screen,html.Screen,0_2_0_1_17,2021-11-05T10:56:10.622Z,,,,,,,,,,,,,,,,53,,,,,,,,,,,,,,454.1299999910625,,response,,,99,,,,,,Space,keypress(Space),,,,,---- -- ----- -- ------ - ------- --- ----------<br>------------- ------ ------ ---- ---- ------- ----- -- your<br>-------- ------- -- ---------- --- - --- ----- ----- ----<br>---- --- --- ----- --- ---- ---- ------- ----- ---- -------<br>--- --- -- ----- -- --- ---- -- --- ---- -- ------ ------<br>--- ----- -- ----,59410.79999999702,59409.89999999106,58939.099,58947,58955.77,59422.518,,17,your
screen,html.Screen,0_2_0_1_18,2021-11-05T10:56:11.038Z,,,,,,,,,,,,,,,,53,,,,,,,,,,,,,,403.3819999910629,,response,,,99,,,,,,Space,keypress(Space),,,,,---- -- ----- -- ------ - ------- --- ----------<br>------------- ------ ------ ---- ---- ------- ----- -- ----<br>romantic ------- -- ---------- --- - --- ----- ----- ----<br>---- --- --- ----- --- ---- ---- ------- ----- ---- -------<br>--- --- -- ----- -- --- ---- -- --- ---- -- ------ ------<br>--- ----- -- ----,59826.79999999702,59825.89999999106,59405.848,59411,59422.518,59839.276,,18,romantic
screen,html.Screen,0_2_0_1_19,2021-11-05T10:56:11.483Z,,,,,,,,,,,,,,,,53,,,,,,,,,,,,,,426.52399999702175,,response,,,99,,,,,,Space,keypress(Space),,,,,---- -- ----- -- ------ - ------- --- ----------<br>------------- ------ ------ ---- ---- ------- ----- -- ----<br>-------- partner -- ---------- --- - --- ----- ----- ----<br>---- --- --- ----- --- ---- ---- ------- ----- ---- -------<br>--- --- -- ----- -- --- ---- -- --- ---- -- ------ ------<br>--- ----- -- ----,60266.70000000298,60265.79999999702,59822.606,59827,59839.276,60272.712,,19,partner
screen,html.Screen,0_2_0_1_20,2021-11-05T10:56:11.907Z,,,,,,,,,,,,,,,,53,,,,,,,,,,,,,,417.18799999105977,,response,,,99,,,,,,Space,keypress(Space),,,,,---- -- ----- -- ------ - ------- --- ----------<br>------------- ------ ------ ---- ---- ------- ----- -- ----<br>-------- ------- is ---------- --- - --- ----- ----- ----<br>---- --- --- ----- --- ---- ---- ------- ----- ---- -------<br>--- --- -- ----- -- --- ---- -- --- ---- -- ------ ------<br>--- ----- -- ----,60690.70000000298,60689.89999999106,60256.042,60266.89999999106,60272.712,60706.16,,20,is
screen,html.Screen,0_2_0_1_21,2021-11-05T10:56:12.307Z,,,,,,,,,,,,,,,,53,,,,,,,,,,,,,,383.6399999970163,,response,,,99,,,,,,Space,keypress(Space),,,,,---- -- ----- -- ------ - ------- --- ----------<br>------------- ------ ------ ---- ---- ------- ----- -- ----<br>-------- ------- -- paramount. --- - --- ----- ----- ----<br>---- --- --- ----- --- ---- ---- ------- ----- ---- -------<br>--- --- -- ----- -- --- ---- -- --- ---- -- ------ ------<br>--- ----- -- ----,61090.70000000298,61089.79999999702,60689.49,60690.89999999106,60706.16,61106.265,,21,paramount.
screen,html.Screen,0_2_0_1_22,2021-11-05T10:56:12.739Z,,,,,,,,,,,,,,,,53,,,,,,,,,,,,,,415.53499999702035,,response,,,99,,,,,,Space,keypress(Space),,,,,---- -- ----- -- ------ - ------- --- ----------<br>------------- ------ ------ ---- ---- ------- ----- -- ----<br>-------- ------- -- ---------- But - --- ----- ----- ----<br>---- --- --- ----- --- ---- ---- ------- ----- ---- -------<br>--- --- -- ----- -- --- ---- -- --- ---- -- ------ ------<br>--- ----- -- ----,61522.59999999404,61521.79999999702,61089.595,61091.09999999404,61106.265,61539.706,,22,But
screen,html.Screen,0_2_0_1_23,2021-11-05T10:56:13.179Z,,,,,,,,,,,,,,,,53,,,,,,,,,,,,,,421.9940000029819,,response,,,99,,,,,,Space,keypress(Space),,,,,---- -- ----- -- ------ - ------- --- ----------<br>------------- ------ ------ ---- ---- ------- ----- -- ----<br>-------- ------- -- ---------- --- a --- ----- ----- ----<br>---- --- --- ----- --- ---- ---- ------- ----- ---- -------<br>--- --- -- ----- -- --- ---- -- --- ---- -- ------ ------<br>--- ----- -- ----,61962.59999999404,61961.70000000298,61523.036,61522.89999999106,61539.706,61973.186,,23,a
screen,html.Screen,0_2_0_1_24,2021-11-05T10:56:13.611Z,,,,,,,,,,,,,,,,53,,,,,,,,,,,,,,420.913999994038,,response,,,99,,,,,,Space,keypress(Space),,,,,---- -- ----- -- ------ - ------- --- ----------<br>------------- ------ ------ ---- ---- ------- ----- -- ----<br>-------- ------- -- ---------- --- - new ----- ----- ----<br>---- --- --- ----- --- ---- ---- ------- ----- ---- -------<br>--- --- -- ----- -- --- ---- -- --- ---- -- ------ ------<br>--- ----- -- ----,62394.89999999106,62394.09999999404,61956.515,61962.79999999702,61973.186,62406.594,,24,new
screen,html.Screen,0_2_0_1_25,2021-11-05T10:56:14.043Z,,,,,,,,,,,,,,,,53,,,,,,,,,,,,,,419.1060000029829,,response,,,99,,,,,,Space,keypress(Space),,,,,---- -- ----- -- ------ - ------- --- ----------<br>------------- ------ ------ ---- ---- ------- ----- -- ----<br>-------- ------- -- ---------- --- - --- study ----- ----<br>---- --- --- ----- --- ---- ---- ------- ----- ---- -------<br>--- --- -- ----- -- --- ---- -- --- ---- -- ------ ------<br>--- ----- -- ----,62826.59999999404,62825.70000000298,62389.924,62395.20000000298,62406.594,62840.009,,25,study
screen,html.Screen,0_2_0_1_26,2021-11-05T10:56:14.443Z,,,,,,,,,,,,,,,,53,,,,,,,,,,,,,,385.69100000298204,,response,,,99,,,,,,Space,keypress(Space),,,,,---- -- ----- -- ------ - ------- --- ----------<br>------------- ------ ------ ---- ---- ------- ----- -- ----<br>-------- ------- -- ---------- --- - --- ----- finds ----<br>---- --- --- ----- --- ---- ---- ------- ----- ---- -------<br>--- --- -- ----- -- --- ---- -- --- ---- -- ------ ------<br>--- ----- -- ----,63226.5,63225.70000000298,62823.339,62826.79999999702,62840.009,63240.167,,26,finds
screen,html.Screen,0_2_0_1_27,2021-11-05T10:56:14.867Z,,,,,,,,,,,,,,,,53,,,,,,,,,,,,,,409.53300000297895,,response,,,99,,,,,,Space,keypress(Space),,,,,---- -- ----- -- ------ - ------- --- ----------<br>------------- ------ ------ ---- ---- ------- ----- -- ----<br>-------- ------- -- ---------- --- - --- ----- ----- that<br>---- --- --- ----- --- ---- ---- ------- ----- ---- -------<br>--- --- -- ----- -- --- ---- -- --- ---- -- ------ ------<br>--- ----- -- ----,63650.5,63649.70000000298,63223.496,63226.79999999702,63240.167,63656.813,,27,that
screen,html.Screen,0_2_0_1_28,2021-11-05T10:56:15.291Z,,,,,,,,,,,,,,,,53,,,,,,,,,,,,,,416.8870000029783,,response,,,99,,,,,,Space,keypress(Space),,,,,---- -- ----- -- ------ - ------- --- ----------<br>------------- ------ ------ ---- ---- ------- ----- -- ----<br>-------- ------- -- ---------- --- - --- ----- ----- ----<br>it's --- --- ----- --- ---- ---- ------- ----- ---- -------<br>--- --- -- ----- -- --- ---- -- --- ---- -- ------ ------<br>--- ----- -- ----,64074.5,64073.70000000298,63640.144,63650.79999999702,63656.813,64090.365,,28,it's
screen,html.Screen,0_2_0_1_29,2021-11-05T10:56:15.707Z,,,,,,,,,,,,,,,,53,,,,,,,,,,,,,,399.2349999940416,,response,,,99,,,,,,Space,keypress(Space),,,,,---- -- ----- -- ------ - ------- --- ----------<br>------------- ------ ------ ---- ---- ------- ----- -- ----<br>-------- ------- -- ---------- --- - --- ----- ----- ----<br>---- not --- ----- --- ---- ---- ------- ----- ---- -------<br>--- --- -- ----- -- --- ---- -- --- ---- -- ------ ------<br>--- ----- -- ----,64490.39999999106,64489.59999999404,64073.694,64074.79999999702,64090.365,64507.141,,29,not
screen,html.Screen,0_2_0_1_30,2021-11-05T10:56:16.171Z,,,,,,,,,,,,,,,,53,,,,,,,,,,,,,,446.35899999999674,,response,,,99,,,,,,Space,keypress(Space),,,,,---- -- ----- -- ------ - ------- --- ----------<br>------------- ------ ------ ---- ---- ------- ----- -- ----<br>-------- ------- -- ---------- --- - --- ----- ----- ----<br>---- --- how ----- --- ---- ---- ------- ----- ---- -------<br>--- --- -- ----- -- --- ---- -- --- ---- -- ------ ------<br>--- ----- -- ----,64954.39999999106,64953.5,64490.47,64490.59999999404,64507.141,64957.21,,30,how
screen,html.Screen,0_2_0_1_31,2021-11-05T10:56:16.555Z,,,,,,,,,,,,,,,,53,,,,,,,,,,,,,,380.3899999940404,,response,,,99,,,,,,Space,keypress(Space),,,,,---- -- ----- -- ------ - ------- --- ----------<br>------------- ------ ------ ---- ---- ------- ----- -- ----<br>-------- ------- -- ---------- --- - --- ----- ----- ----<br>---- --- --- close --- ---- ---- ------- ----- ---- -------<br>--- --- -- ----- -- --- ---- -- --- ---- -- ------ ------<br>--- ----- -- ----,65338.39999999106,65337.59999999404,64940.54,64954.59999999404,64957.21,65340.648,,31,close
screen,html.Screen,0_2_0_1_32,2021-11-05T10:56:16.955Z,,,,,,,,,,,,,,,,53,,,,,,,,,,,,,,396.85199999999895,,response,,,99,,,,,,Space,keypress(Space),,,,,---- -- ----- -- ------ - ------- --- ----------<br>------------- ------ ------ ---- ---- ------- ----- -- ----<br>-------- ------- -- ---------- --- - --- ----- ----- ----<br>---- --- --- ----- you ---- ---- ------- ----- ---- -------<br>--- --- -- ----- -- --- ---- -- --- ---- -- ------ ------<br>--- ----- -- ----,65738.29999999702,65737.5,65323.978,65338.70000000298,65340.648,65757.468,,32,you
screen,html.Screen,0_2_0_1_33,2021-11-05T10:56:17.299Z,,,,,,,,,,,,,,,,53,,,,,,,,,,,,,,324.0320000000065,,response,,,99,,,,,,Space,keypress(Space),,,,,---- -- ----- -- ------ - ------- --- ----------<br>------------- ------ ------ ---- ---- ------- ----- -- ----<br>-------- ------- -- ---------- --- - --- ----- ----- ----<br>---- --- --- ----- --- feel ---- ------- ----- ---- -------<br>--- --- -- ----- -- --- ---- -- --- ---- -- ------ ------<br>--- ----- -- ----,66082.5,66081.5,65740.797,65740.79999999702,65757.468,66090.839,,33,feel
screen,html.Screen,0_2_0_1_34,2021-11-05T10:56:17.714Z,,,,,,,,,,,,,,,,53,,,,,,,,,,,,,,406.5609999910521,,response,,,99,,,,,,Space,keypress(Space),,,,,---- -- ----- -- ------ - ------- --- ----------<br>------------- ------ ------ ---- ---- ------- ----- -- ----<br>-------- ------- -- ---------- --- - --- ----- ----- ----<br>---- --- --- ----- --- ---- that ------- ----- ---- -------<br>--- --- -- ----- -- --- ---- -- --- ---- -- ------ ------<br>--- ----- -- ----,66498.29999999702,66497.39999999106,66074.169,66082.79999999702,66090.839,66507.59,,34,that
screen,html.Screen,0_2_0_1_35,2021-11-05T10:56:18.122Z,,,,,,,,,,,,,,,,53,,,,,,,,,,,,,,397.8099999910628,,response,,,99,,,,,,Space,keypress(Space),,,,,---- -- ----- -- ------ - ------- --- ----------<br>------------- ------ ------ ---- ---- ------- ----- -- ----<br>-------- ------- -- ---------- --- - --- ----- ----- ----<br>---- --- --- ----- --- ---- ---- matters ----- ---- -------<br>--- --- -- ----- -- --- ---- -- --- ---- -- ------ ------<br>--- ----- -- ----,66906.09999999404,66905.39999999106,66490.92,66498.5,66507.59,66907.745,,35,matters
screen,html.Screen,0_2_0_1_36,2021-11-05T10:56:18.458Z,,,,,,,,,,,,,,,,53,,,,,,,,,,,,,,333.65499999106396,,response,,,99,,,,,,Space,keypress(Space),,,,,"---- -- ----- -- ------ - ------- --- ----------<br>------------- ------ ------ ---- ---- ------- ----- -- ----<br>-------- ------- -- ---------- --- - --- ----- ----- ----<br>---- --- --- ----- --- ---- ---- ------- most, ---- -------<br>--- --- -- ----- -- --- ---- -- --- ---- -- ------ ------<br>--- ----- -- ----",67242.20000000298,67241.39999999106,66891.074,66906.29999999702,66907.745,67257.804,,36,"most,"
screen,html.Screen,0_2_0_1_37,2021-11-05T10:56:18.866Z,,,,,,,,,,,,,,,,53,,,,,,,,,,,,,,391.49599999701604,,response,,,99,,,,,,Space,keypress(Space),,,,,---- -- ----- -- ------ - ------- --- ----------<br>------------- ------ ------ ---- ---- ------- ----- -- ----<br>-------- ------- -- ---------- --- - --- ----- ----- ----<br>---- --- --- ----- --- ---- ---- ------- ----- it's -------<br>--- --- -- ----- -- --- ---- -- --- ---- -- ------ ------<br>--- ----- -- ----,67650.20000000298,67649.29999999702,67241.134,67242.5,67257.804,67657.901,,37,it's
screen,html.Screen,0_2_0_1_38,2021-11-05T10:56:19.258Z,,,,,,,,,,,,,,,,53,,,,,,,,,,,,,,383.39899999702175,,response,,,99,,,,,,Space,keypress(Space),,,,,---- -- ----- -- ------ - ------- --- ----------<br>------------- ------ ------ ---- ---- ------- ----- -- ----<br>-------- ------- -- ---------- --- - --- ----- ----- ----<br>---- --- --- ----- --- ---- ---- ------- ----- ---- whether<br>--- --- -- ----- -- --- ---- -- --- ---- -- ------ ------<br>--- ----- -- ----,68042.09999999404,68041.29999999702,67641.231,67650.5,67657.901,68057.975,,38,whether
screen,html.Screen,0_2_0_1_39,2021-11-05T10:56:19.674Z,,,,,,,,,,,,,,,,53,,,,,,,,,,,,,,399.32499999701395,,response,,,99,,,,,,Space,keypress(Space),,,,,---- -- ----- -- ------ - ------- --- ----------<br>------------- ------ ------ ---- ---- ------- ----- -- ----<br>-------- ------- -- ---------- --- - --- ----- ----- ----<br>---- --- --- ----- --- ---- ---- ------- ----- ---- -------<br>you --- -- ----- -- --- ---- -- --- ---- -- ------ ------<br>--- ----- -- ----,68458.09999999404,68457.29999999702,68041.305,68042.39999999106,68057.975,68474.76,,39,you
screen,html.Screen,0_2_0_1_40,2021-11-05T10:56:20.050Z,,,,,,,,,,,,,,,,53,,,,,,,,,,,,,,358.44000000298547,,response,,,99,,,,,,Space,keypress(Space),,,,,---- -- ----- -- ------ - ------- --- ----------<br>------------- ------ ------ ---- ---- ------- ----- -- ----<br>-------- ------- -- ---------- --- - --- ----- ----- ----<br>---- --- --- ----- --- ---- ---- ------- ----- ---- -------<br>--- are -- ----- -- --- ---- -- --- ---- -- ------ ------<br>--- ----- -- ----,68834,68833.20000000298,68458.09,68458.39999999106,68474.76,68841.395,,40,are
screen,html.Screen,0_2_0_1_41,2021-11-05T10:56:20.426Z,,,,,,,,,,,,,,,,53,,,,,,,,,,,,,,367.80500000297616,,response,,,99,,,,,,Space,keypress(Space),,,,,---- -- ----- -- ------ - ------- --- ----------<br>------------- ------ ------ ---- ---- ------- ----- -- ----<br>-------- ------- -- ---------- --- - --- ----- ----- ----<br>---- --- --- ----- --- ---- ---- ------- ----- ---- -------<br>--- --- as ----- -- --- ---- -- --- ---- -- ------ ------<br>--- ----- -- ----,69210.09999999404,69209.20000000298,68824.727,68834.29999999702,68841.395,69225.029,,41,as
screen,html.Screen,0_2_0_1_42,2021-11-05T10:56:20.802Z,,,,,,,,,,,,,,,,53,,,,,,,,,,,,,,360.17100000298524,,response,,,99,,,,,,Space,keypress(Space),,,,,---- -- ----- -- ------ - ------- --- ----------<br>------------- ------ ------ ---- ---- ------- ----- -- ----<br>-------- ------- -- ---------- --- - --- ----- ----- ----<br>---- --- --- ----- --- ---- ---- ------- ----- ---- -------<br>--- --- -- close -- --- ---- -- --- ---- -- ------ ------<br>--- ----- -- ----,69586,69585.20000000298,69208.357,69210.29999999702,69225.029,69591.69,,42,close
screen,html.Screen,0_2_0_1_43,2021-11-05T10:56:21.178Z,,,,,,,,,,,,,,,,53,,,,,,,,,,,,,,369.4099999940372,,response,,,99,,,,,,Space,keypress(Space),,,,,---- -- ----- -- ------ - ------- --- ----------<br>------------- ------ ------ ---- ---- ------- ----- -- ----<br>-------- ------- -- ---------- --- - --- ----- ----- ----<br>---- --- --- ----- --- ---- ---- ------- ----- ---- -------<br>--- --- -- ----- as --- ---- -- --- ---- -- ------ ------<br>--- ----- -- ----,69961.89999999106,69961.09999999404,69575.02,69586.20000000298,69591.69,69975.06,,43,as
screen,html.Screen,0_2_0_1_44,2021-11-05T10:56:21.530Z,,,,,,,,,,,,,,,,53,,,,,,,,,,,,,,338.03999999404186,,response,,,99,,,,,,Space,keypress(Space),,,,,---- -- ----- -- ------ - ------- --- ----------<br>------------- ------ ------ ---- ---- ------- ----- -- ----<br>-------- ------- -- ---------- --- - --- ----- ----- ----<br>---- --- --- ----- --- ---- ---- ------- ----- ---- -------<br>--- --- -- ----- -- you ---- -- --- ---- -- ------ ------<br>--- ----- -- ----,70313.89999999106,70313.09999999404,69958.391,69962.20000000298,69975.06,70325.303,,44,you
screen,html.Screen,0_2_0_1_45,2021-11-05T10:56:21.922Z,,,,,,,,,,,,,,,,53,,,,,,,,,,,,,,379.79699999403965,,response,,,99,,,,,,Space,keypress(Space),,,,,---- -- ----- -- ------ - ------- --- ----------<br>------------- ------ ------ ---- ---- ------- ----- -- ----<br>-------- ------- -- ---------- --- - --- ----- ----- ----<br>---- --- --- ----- --- ---- ---- ------- ----- ---- -------<br>--- --- -- ----- -- --- want -- --- ---- -- ------ ------<br>--- ----- -- ----,70705.89999999106,70705.09999999404,70308.631,70314.20000000298,70325.303,70708.658,,45,want
screen,html.Screen,0_2_0_1_46,2021-11-05T10:56:22.314Z,,,,,,,,,,,,,,,,53,,,,,,,,,,,,,,388.4419999940437,,response,,,99,,,,,,Space,keypress(Space),,,,,---- -- ----- -- ------ - ------- --- ----------<br>------------- ------ ------ ---- ---- ------- ----- -- ----<br>-------- ------- -- ---------- --- - --- ----- ----- ----<br>---- --- --- ----- --- ---- ---- ------- ----- ---- -------<br>--- --- -- ----- -- --- ---- to --- ---- -- ------ ------<br>--- ----- -- ----,71098,71097.09999999404,70691.988,70706.20000000298,70708.658,71108.758,,46,to
screen,html.Screen,0_2_0_1_47,2021-11-05T10:56:22.706Z,,,,,,,,,,,,,,,,53,,,,,,,,,,,,,,380.3419999940379,,response,,,99,,,,,,Space,keypress(Space),,,,,"---- -- ----- -- ------ - ------- --- ----------<br>------------- ------ ------ ---- ---- ------- ----- -- ----<br>-------- ------- -- ---------- --- - --- ----- ----- ----<br>---- --- --- ----- --- ---- ---- ------- ----- ---- -------<br>--- --- -- ----- -- --- ---- -- be, ---- -- ------ ------<br>--- ----- -- ----",71489.89999999106,71489.09999999404,71092.088,71098.20000000298,71108.758,71492.173,,47,"be,"
screen,html.Screen,0_2_0_1_48,2021-11-05T10:56:23.066Z,,,,,,,,,,,,,,,,53,,,,,,,,,,,,,,356.9269999940443,,response,,,99,,,,,,Space,keypress(Space),,,,,---- -- ----- -- ------ - ------- --- ----------<br>------------- ------ ------ ---- ---- ------- ----- -- ----<br>-------- ------- -- ---------- --- - --- ----- ----- ----<br>---- --- --- ----- --- ---- ---- ------- ----- ---- -------<br>--- --- -- ----- -- --- ---- -- --- even -- ------ ------<br>--- ----- -- ----,71849.89999999106,71849.09999999404,71475.503,71490.20000000298,71492.173,71858.94,,48,even
screen,html.Screen,0_2_0_1_49,2021-11-05T10:56:23.466Z,,,,,,,,,,,,,,,,53,,,,,,,,,,,,,,390.2600000029779,,response,,,99,,,,,,Space,keypress(Space),,,,,---- -- ----- -- ------ - ------- --- ----------<br>------------- ------ ------ ---- ---- ------- ----- -- ----<br>-------- ------- -- ---------- --- - --- ----- ----- ----<br>---- --- --- ----- --- ---- ---- ------- ----- ---- -------<br>--- --- -- ----- -- --- ---- -- --- ---- if ------ ------<br>--- ----- -- ----,72249.89999999106,72249.20000000298,71842.27,71851.20000000298,71858.94,72259.073,,49,if
screen,html.Screen,0_2_0_1_50,2021-11-05T10:56:23.811Z,,,,,,,,,,,,,,,,53,,,,,,,,,,,,,,334.42699999999604,,response,,,99,,,,,,Space,keypress(Space),,,,,---- -- ----- -- ------ - ------- --- ----------<br>------------- ------ ------ ---- ---- ------- ----- -- ----<br>-------- ------- -- ---------- --- - --- ----- ----- ----<br>---- --- --- ----- --- ---- ---- ------- ----- ---- -------<br>--- --- -- ----- -- --- ---- -- --- ---- -- that's ------<br>--- ----- -- ----,72594.5,72593.5,72242.402,72250.20000000298,72259.073,72609.123,,50,that's
screen,html.Screen,0_2_0_1_51,2021-11-05T10:56:24.226Z,,,,,,,,,,,,,,,,53,,,,,,,,,,,,,,399.97699999403267,,response,,,99,,,,,,Space,keypress(Space),,,,,---- -- ----- -- ------ - ------- --- ----------<br>------------- ------ ------ ---- ---- ------- ----- -- ----<br>-------- ------- -- ---------- --- - --- ----- ----- ----<br>---- --- --- ----- --- ---- ---- ------- ----- ---- -------<br>--- --- -- ----- -- --- ---- -- --- ---- -- ------ really<br>--- ----- -- ----,73009.89999999106,73009.09999999404,72592.453,72594.79999999702,72609.123,73025.749,,51,really
screen,html.Screen,0_2_0_1_52,2021-11-05T10:56:24.586Z,,,,,,,,,,,,,,,,53,,,,,,,,,,,,,,343.25100000000384,,response,,,99,,,,,,Space,keypress(Space),,,,,---- -- ----- -- ------ - ------- --- ----------<br>------------- ------ ------ ---- ---- ------- ----- -- ----<br>-------- ------- -- ---------- --- - --- ----- ----- ----<br>---- --- --- ----- --- ---- ---- ------- ----- ---- -------<br>--- --- -- ----- -- --- ---- -- --- ---- -- ------ ------<br>not ----- -- ----,73369.89999999106,73369,73009.081,73010.09999999404,73025.749,73376.106,,52,not
screen,html.Screen,0_2_0_1_53,2021-11-05T10:56:25.002Z,,,,,,,,,,,,,,,,53,,,,,,,,,,,,,,408.79399999105954,,response,,,99,,,,,,Space,keypress(Space),,,,,---- -- ----- -- ------ - ------- --- ----------<br>------------- ------ ------ ---- ---- ------- ----- -- ----<br>-------- ------- -- ---------- --- - --- ----- ----- ----<br>---- --- --- ----- --- ---- ---- ------- ----- ---- -------<br>--- --- -- ----- -- --- ---- -- --- ---- -- ------ ------<br>--- close -- ----,73785.70000000298,73784.89999999106,73359.433,73370.09999999404,73376.106,73792.661,,53,close
screen,html.Screen,0_2_0_1_54,2021-11-05T10:56:25.514Z,,,,,,,,,,,,,,,,53,,,,,,,,,,,,,,504.3390000000072,,response,,,99,,,,,,Space,keypress(Space),,,,,---- -- ----- -- ------ - ------- --- ----------<br>------------- ------ ------ ---- ---- ------- ----- -- ----<br>-------- ------- -- ---------- --- - --- ----- ----- ----<br>---- --- --- ----- --- ---- ---- ------- ----- ---- -------<br>--- --- -- ----- -- --- ---- -- --- ---- -- ------ ------<br>--- ----- at ----,74297.70000000298,74297,73775.992,73785.89999999106,73792.661,74309.638,,54,at
screen,html.Screen,0_2_0_1_55,2021-11-05T10:56:25.930Z,,,,,,,,,,,,,,,,53,,,,,,,,,,,,,,403.261999991053,,response,,,99,,,,,,Space,keypress(Space),,,,,---- -- ----- -- ------ - ------- --- ----------<br>------------- ------ ------ ---- ---- ------- ----- -- ----<br>-------- ------- -- ---------- --- - --- ----- ----- ----<br>---- --- --- ----- --- ---- ---- ------- ----- ---- -------<br>--- --- -- ----- -- --- ---- -- --- ---- -- ------ ------<br>--- ----- -- all.,74713.70000000298,74712.89999999106,74292.966,74298,74309.638,74726.308,,55,all.
Item 99,flow.Loop,0_2_0_1,2021-11-05T10:56:25.934Z,,,,,,,,,,,,,,,,,,,,,,,,,,,,,,23709.383999991056,,completion,,,,F,,,,,,,,,,silence,,74718.09999999404,74712.89999999106,50986.847,50993.39999999106,51003.516,74726.308,,,
Question 1,html.Screen,0_2_0_2,2021-11-05T10:56:32.066Z,,,,,,,,,,,,,,,,,,,,,,,,,,,true,FALSE,,6121.991999997015,,response,,,99,F,,,,,FALSE,click #choice-2,,,,silence,,80849.70000000298,80848.29999999702,74709.638,74718.39999999106,74726.308,80861.216,,,
Question 2,html.Screen,0_2_0_3,2021-11-05T10:56:38.529Z,,,,,,,,,,,,,,,,,,,,,,,,,,,true,TRUE,,6450.583999997019,,response,,,99,F,,,,,TRUE,click #choice-1,,,,silence,,87313.09999999404,87311.79999999702,80844.545,80850,80861.216,87329.436,,,
Item 99,flow.Sequence,0_2_0,2021-11-05T10:56:38.530Z,,,,,,,,,,,,,,,,,,,,,,,,,,,,,,46312.78199999702,,completion,,,,,,,,,,,,,,,,87313.59999999404,87311.79999999702,40982.359,40997,40999.018,87329.436,,,
Holding screen,html.Screen,0_2_1_0,2021-11-05T10:56:48.532Z,,,,,,,,,,,,,,,,,,,,,,,,,,,,,,10002.259000000005,,timeout,,,,,,,,,,,,,,,,97316.20000000298,97315.026,87312.766,87314.09999999404,87329.436,97331.695,,,
screen,html.Screen,0_2_1_1_0,2021-11-05T10:56:49.137Z,,,,,,,,,,,,,,,,54,,,,,,,,,,,,,,588.2049999910523,,response,,,100,,,,,,Space,keypress(Space),,,,,At --- ---- --- ------ ----- ------- ---- -- --- ------- --<br>------- ---------- ------ -- ----- -- ----- -- ---- ------<br>--- ----- --- --- ------ -------- ----- --- ------ ----- --<br>----- ----- ---------- --- --- ------ ------ ---- -- ------<br>------- --- ------ ----- --- ---- ------- -- ---- --- --<br>------- ------,97920.79999999702,97919.89999999106,97315.026,97316.70000000298,97331.695,97932.163,,0,At
screen,html.Screen,0_2_1_1_1,2021-11-05T10:56:49.536Z,,,,,,,,,,,,,,,,54,,,,,,,,,,,,,,387.23699999105884,,response,,,100,,,,,,Space,keypress(Space),,,,,-- the ---- --- ------ ----- ------- ---- -- --- ------- --<br>------- ---------- ------ -- ----- -- ----- -- ---- ------<br>--- ----- --- --- ------ -------- ----- --- ------ ----- --<br>----- ----- ---------- --- --- ------ ------ ---- -- ------<br>------- --- ------ ----- --- ---- ------- -- ---- --- --<br>------- ------,98320.29999999702,98319.39999999106,97915.492,97921.09999999404,97932.163,98332.204,,1,the
screen,html.Screen,0_2_1_1_2,2021-11-05T10:56:49.880Z,,,,,,,,,,,,,,,,54,,,,,,,,,,,,,,331.1959999910614,,response,,,100,,,,,,Space,keypress(Space),,,,,-- --- time --- ------ ----- ------- ---- -- --- ------- --<br>------- ---------- ------ -- ----- -- ----- -- ---- ------<br>--- ----- --- --- ------ -------- ----- --- ------ ----- --<br>----- ----- ---------- --- --- ------ ------ ---- -- ------<br>------- --- ------ ----- --- ---- ------- -- ---- --- --<br>------- ------,98664.29999999702,98663.39999999106,98315.534,98320.5,98332.204,98665.61,,2,time
screen,html.Screen,0_2_1_1_3,2021-11-05T10:56:50.235Z,,,,,,,,,,,,,,,,54,,,,,,,,,,,,,,349.8899999999994,,response,,,100,,,,,,Space,keypress(Space),,,,,-- --- ---- the ------ ----- ------- ---- -- --- ------- --<br>------- ---------- ------ -- ----- -- ----- -- ---- ------<br>--- ----- --- --- ------ -------- ----- --- ------ ----- --<br>----- ----- ---------- --- --- ------ ------ ---- -- ------<br>------- --- ------ ----- --- ---- ------- -- ---- --- --<br>------- ------,99018.29999999702,99015.5,98648.94,98664.5,98665.61,99032.378,,3,the
screen,html.Screen,0_2_1_1_4,2021-11-05T10:56:50.616Z,,,,,,,,,,,,,,,,54,,,,,,,,,,,,,,367.02199999106233,,response,,,100,,,,,,Space,keypress(Space),,,,,-- --- ---- --- French ----- ------- ---- -- --- ------- --<br>------- ---------- ------ -- ----- -- ----- -- ---- ------<br>--- ----- --- --- ------ -------- ----- --- ------ ----- --<br>----- ----- ---------- --- --- ------ ------ ---- -- ------<br>------- --- ------ ----- --- ---- ------- -- ---- --- --<br>------- ------,99400.20000000298,99399.39999999106,99015.708,99018.70000000298,99032.378,99415.796,,4,French
screen,html.Screen,0_2_1_1_5,2021-11-05T10:56:51.032Z,,,,,,,,,,,,,,,,54,,,,,,,,,,,,,,399.6039999910572,,response,,,100,,,,,,Space,keypress(Space),,,,,-- --- ---- --- ------ crown ------- ---- -- --- ------- --<br>------- ---------- ------ -- ----- -- ----- -- ---- ------<br>--- ----- --- --- ------ -------- ----- --- ------ ----- --<br>----- ----- ---------- --- --- ------ ------ ---- -- ------<br>------- --- ------ ----- --- ---- ------- -- ---- --- --<br>------- ------,99816.09999999404,99815.39999999106,99399.126,99400.5,99415.796,99832.571,,5,crown
screen,html.Screen,0_2_1_1_6,2021-11-05T10:56:51.424Z,,,,,,,,,,,,,,,,54,,,,,,,,,,,,,,374.7289999970235,,response,,,100,,,,,,Space,keypress(Space),,,,,-- --- ---- --- ------ ----- secured ---- -- --- ------- --<br>------- ---------- ------ -- ----- -- ----- -- ---- ------<br>--- ----- --- --- ------ -------- ----- --- ------ ----- --<br>----- ----- ---------- --- --- ------ ------ ---- -- ------<br>------- --- ------ ----- --- ---- ------- -- ---- --- --<br>------- ------,100208.20000000298,100207.29999999702,99815.901,99816.39999999106,99832.571,100215.927,,6,secured
screen,html.Screen,0_2_1_1_7,2021-11-05T10:56:52.280Z,,,,,,,,,,,,,,,,54,,,,,,,,,,,,,,847.3729999970237,,response,,,100,,,,,,Space,keypress(Space),,,,,-- --- ---- --- ------ ----- ------- much -- --- ------- --<br>------- ---------- ------ -- ----- -- ----- -- ---- ------<br>--- ----- --- --- ------ -------- ----- --- ------ ----- --<br>----- ----- ---------- --- --- ------ ------ ---- -- ------<br>------- --- ------ ----- --- ---- ------- -- ---- --- --<br>------- ------,101064.09999999404,101063.29999999702,100199.258,100208.39999999106,100215.927,101066.247,,7,much
screen,html.Screen,0_2_1_1_8,2021-11-05T10:56:52.704Z,,,,,,,,,,,,,,,,54,,,,,,,,,,,,,,421.05299999701674,,response,,,100,,,,,,Space,keypress(Space),,,,,-- --- ---- --- ------ ----- ------- ---- of --- ------- --<br>------- ---------- ------ -- ----- -- ----- -- ---- ------<br>--- ----- --- --- ------ -------- ----- --- ------ ----- --<br>----- ----- ---------- --- --- ------ ------ ---- -- ------<br>------- --- ------ ----- --- ---- ------- -- ---- --- --<br>------- ------,101488.09999999404,101487.29999999702,101049.576,101064.39999999106,101066.247,101499.647,,8,of
screen,html.Screen,0_2_1_1_9,2021-11-05T10:56:53.048Z,,,,,,,,,,,,,,,,54,,,,,,,,,,,,,,331.553000002983,,response,,,100,,,,,,Space,keypress(Space),,,,,-- --- ---- --- ------ ----- ------- ---- -- its ------- --<br>------- ---------- ------ -- ----- -- ----- -- ---- ------<br>--- ----- --- --- ------ -------- ----- --- ------ ----- --<br>----- ----- ---------- --- --- ------ ------ ---- -- ------<br>------- --- ------ ----- --- ---- ------- -- ---- --- --<br>------- ------,101832.09999999404,101831.20000000298,101482.977,101488.39999999106,101499.647,101833.055,,9,its
screen,html.Screen,0_2_1_1_10,2021-11-05T10:56:53.424Z,,,,,,,,,,,,,,,,54,,,,,,,,,,,,,,374.1450000029872,,response,,,100,,,,,,Space,keypress(Space),,,,,-- --- ---- --- ------ ----- ------- ---- -- --- revenue --<br>------- ---------- ------ -- ----- -- ----- -- ---- ------<br>--- ----- --- --- ------ -------- ----- --- ------ ----- --<br>----- ----- ---------- --- --- ------ ------ ---- -- ------<br>------- --- ------ ----- --- ---- ------- -- ---- --- --<br>------- ------,102208,102207.20000000298,101816.385,101832.29999999702,101833.055,102216.54,,10,revenue
screen,html.Screen,0_2_1_1_11,2021-11-05T10:56:53.864Z,,,,,,,,,,,,,,,,54,,,,,,,,,,,,,,430.66000000298664,,response,,,100,,,,,,Space,keypress(Space),,,,,-- --- ---- --- ------ ----- ------- ---- -- --- ------- by<br>------- ---------- ------ -- ----- -- ----- -- ---- ------<br>--- ----- --- --- ------ -------- ----- --- ------ ----- --<br>----- ----- ---------- --- --- ------ ------ ---- -- ------<br>------- --- ------ ----- --- ---- ------- -- ---- --- --<br>------- ------,102648,102647.20000000298,102199.869,102208.29999999702,102216.54,102649.799,,11,by
screen,html.Screen,0_2_1_1_12,2021-11-05T10:56:54.248Z,,,,,,,,,,,,,,,,54,,,,,,,,,,,,,,381.30099999404047,,response,,,100,,,,,,Space,keypress(Space),,,,,-- --- ---- --- ------ ----- ------- ---- -- --- ------- --<br>issuing ---------- ------ -- ----- -- ----- -- ---- ------<br>--- ----- --- --- ------ -------- ----- --- ------ ----- --<br>----- ----- ---------- --- --- ------ ------ ---- -- ------<br>------- --- ------ ----- --- ---- ------- -- ---- --- --<br>------- ------,103031.89999999106,103031.09999999404,102633.131,102648.29999999702,102649.799,103033.416,,12,issuing
screen,html.Screen,0_2_1_1_13,2021-11-05T10:56:54.696Z,,,,,,,,,,,,,,,,54,,,,,,,,,,,,,,445.6839999940421,,response,,,100,,,,,,Space,keypress(Space),,,,,-- --- ---- --- ------ ----- ------- ---- -- --- ------- --<br>------- government ------ -- ----- -- ----- -- ---- ------<br>--- ----- --- --- ------ -------- ----- --- ------ ----- --<br>----- ----- ---------- --- --- ------ ------ ---- -- ------<br>------- --- ------ ----- --- ---- ------- -- ---- --- --<br>------- ------,103480,103479.09999999404,103016.745,103032.20000000298,103033.416,103483.513,,13,government
screen,html.Screen,0_2_1_1_14,2021-11-05T10:56:55.096Z,,,,,,,,,,,,,,,,54,,,,,,,,,,,,,,395.58699999403325,,response,,,100,,,,,,Space,keypress(Space),,,,,-- --- ---- --- ------ ----- ------- ---- -- --- ------- --<br>------- ---------- bonds. -- ----- -- ----- -- ---- ------<br>--- ----- --- --- ------ -------- ----- --- ------ ----- --<br>----- ----- ---------- --- --- ------ ------ ---- -- ------<br>------- --- ------ ----- --- ---- ------- -- ---- --- --<br>------- ------,103880,103879.09999999404,103466.842,103480.20000000298,103483.513,103883.57,,14,bonds.
screen,html.Screen,0_2_1_1_15,2021-11-05T10:56:55.512Z,,,,,,,,,,,,,,,,54,,,,,,,,,,,,,,411.429999999993,,response,,,100,,,,,,Space,keypress(Space),,,,,-- --- ---- --- ------ ----- ------- ---- -- --- ------- --<br>------- ---------- ------ In ----- -- ----- -- ---- ------<br>--- ----- --- --- ------ -------- ----- --- ------ ----- --<br>----- ----- ---------- --- --- ------ ------ ---- -- ------<br>------- --- ------ ----- --- ---- ------- -- ---- --- --<br>------- ------,104295.79999999702,104295,103866.9,103880.20000000298,103883.57,104300.324,,15,In
screen,html.Screen,0_2_1_1_16,2021-11-05T10:56:55.888Z,,,,,,,,,,,,,,,,54,,,,,,,,,,,,,,370.67600000000675,,response,,,100,,,,,,Space,keypress(Space),,,,,"-- --- ---- --- ------ ----- ------- ---- -- --- ------- --<br>------- ---------- ------ -- 1727, -- ----- -- ---- ------<br>--- ----- --- --- ------ -------- ----- --- ------ ----- --<br>----- ----- ---------- --- --- ------ ------ ---- -- ------<br>------- --- ------ ----- --- ---- ------- -- ---- --- --<br>------- ------",104671.79999999702,104671,104283.654,104296,104300.324,104683.819,,16,"1727,"
screen,html.Screen,0_2_1_1_17,2021-11-05T10:56:56.888Z,,,,,,,,,,,,,,,,54,,,,,,,,,,,,,,987.1809999999969,,response,,,100,,,,,,Space,keypress(Space),,,,,-- --- ---- --- ------ ----- ------- ---- -- --- ------- --<br>------- ---------- ------ -- ----- in ----- -- ---- ------<br>--- ----- --- --- ------ -------- ----- --- ------ ----- --<br>----- ----- ---------- --- --- ------ ------ ---- -- ------<br>------- --- ------ ----- --- ---- ------- -- ---- --- --<br>------- ------,105671.70000000298,105671,104667.148,104672.09999999404,104683.819,105683.977,,17,in
screen,html.Screen,0_2_1_1_18,2021-11-05T10:56:57.528Z,,,,,,,,,,,,,,,,54,,,,,,,,,,,,,,626.9229999910604,,response,,,100,,,,,,Space,keypress(Space),,,,,-- --- ---- --- ------ ----- ------- ---- -- --- ------- --<br>------- ---------- ------ -- ----- -- order -- ---- ------<br>--- ----- --- --- ------ -------- ----- --- ------ ----- --<br>----- ----- ---------- --- --- ------ ------ ---- -- ------<br>------- --- ------ ----- --- ---- ------- -- ---- --- --<br>------- ------,106311.70000000298,106310.89999999106,105667.307,105672,105683.977,106317.36,,18,order
screen,html.Screen,0_2_1_1_19,2021-11-05T10:56:57.944Z,,,,,,,,,,,,,,,,54,,,,,,,,,,,,,,409.5399999910587,,response,,,100,,,,,,Space,keypress(Space),,,,,-- --- ---- --- ------ ----- ------- ---- -- --- ------- --<br>------- ---------- ------ -- ----- -- ----- to ---- ------<br>--- ----- --- --- ------ -------- ----- --- ------ ----- --<br>----- ----- ---------- --- --- ------ ------ ---- -- ------<br>------- --- ------ ----- --- ---- ------- -- ---- --- --<br>------- ------,106727.70000000298,106726.89999999106,106300.691,106311.89999999106,106317.36,106734.314,,19,to
screen,html.Screen,0_2_1_1_20,2021-11-05T10:56:58.376Z,,,,,,,,,,,,,,,,54,,,,,,,,,,,,,,424.5859999910608,,response,,,100,,,,,,Space,keypress(Space),,,,,-- --- ---- --- ------ ----- ------- ---- -- --- ------- --<br>------- ---------- ------ -- ----- -- ----- -- save ------<br>--- ----- --- --- ------ -------- ----- --- ------ ----- --<br>----- ----- ---------- --- --- ------ ------ ---- -- ------<br>------- --- ------ ----- --- ---- ------- -- ---- --- --<br>------- ------,107159.70000000298,107158.89999999106,106717.643,106727.89999999106,106734.314,107167.765,,20,save
screen,html.Screen,0_2_1_1_21,2021-11-05T10:56:58.744Z,,,,,,,,,,,,,,,,54,,,,,,,,,,,,,,359.03499999702035,,response,,,100,,,,,,Space,keypress(Space),,,,,"-- --- ---- --- ------ ----- ------- ---- -- --- ------- --<br>------- ---------- ------ -- ----- -- ----- -- ---- money,<br>--- ----- --- --- ------ -------- ----- --- ------ ----- --<br>----- ----- ---------- --- --- ------ ------ ---- -- ------<br>------- --- ------ ----- --- ---- ------- -- ---- --- --<br>------- ------",107527.5,107526.79999999702,107151.094,107159.89999999106,107167.765,107534.464,,21,"money,"
screen,html.Screen,0_2_1_1_22,2021-11-05T10:56:59.128Z,,,,,,,,,,,,,,,,54,,,,,,,,,,,,,,376.33599999701255,,response,,,100,,,,,,Space,keypress(Space),,,,,-- --- ---- --- ------ ----- ------- ---- -- --- ------- --<br>------- ---------- ------ -- ----- -- ----- -- ---- ------<br>the ----- --- --- ------ -------- ----- --- ------ ----- --<br>----- ----- ---------- --- --- ------ ------ ---- -- ------<br>------- --- ------ ----- --- ---- ------- -- ---- --- --<br>------- ------,107911.70000000298,107910.79999999702,107517.794,107527.70000000298,107534.464,107917.946,,22,the
screen,html.Screen,0_2_1_1_23,2021-11-05T10:56:59.552Z,,,,,,,,,,,,,,,,54,,,,,,,,,,,,,,417.25400000298396,,response,,,100,,,,,,Space,keypress(Space),,,,,-- --- ---- --- ------ ----- ------- ---- -- --- ------- --<br>------- ---------- ------ -- ----- -- ----- -- ---- ------<br>--- state --- --- ------ -------- ----- --- ------ ----- --<br>----- ----- ---------- --- --- ------ ------ ---- -- ------<br>------- --- ------ ----- --- ---- ------- -- ---- --- --<br>------- ------,108336,108335.20000000298,107901.275,107912,107917.946,108351.342,,23,state
screen,html.Screen,0_2_1_1_24,2021-11-05T10:56:59.968Z,,,,,,,,,,,,,,,,54,,,,,,,,,,,,,,399.4579999970156,,response,,,100,,,,,,Space,keypress(Space),,,,,-- --- ---- --- ------ ----- ------- ---- -- --- ------- --<br>------- ---------- ------ -- ----- -- ----- -- ---- ------<br>--- ----- cut --- ------ -------- ----- --- ------ ----- --<br>----- ----- ---------- --- --- ------ ------ ---- -- ------<br>------- --- ------ ----- --- ---- ------- -- ---- --- --<br>------- ------,108751.59999999404,108750.79999999702,108334.672,108336.29999999702,108351.342,108768.169,,24,cut
screen,html.Screen,0_2_1_1_25,2021-11-05T10:57:00.376Z,,,,,,,,,,,,,,,,54,,,,,,,,,,,,,,390.63099999702536,,response,,,100,,,,,,Space,keypress(Space),,,,,-- --- ---- --- ------ ----- ------- ---- -- --- ------- --<br>------- ---------- ------ -- ----- -- ----- -- ---- ------<br>--- ----- --- the ------ -------- ----- --- ------ ----- --<br>----- ----- ---------- --- --- ------ ------ ---- -- ------<br>------- --- ------ ----- --- ---- ------- -- ---- --- --<br>------- ------,109159.70000000298,109158.79999999702,108751.498,108751.89999999106,108768.169,109168.231,,25,the
screen,html.Screen,0_2_1_1_26,2021-11-05T10:57:00.784Z,,,,,,,,,,,,,,,,54,,,,,,,,,,,,,,398.46900000298047,,response,,,100,,,,,,Space,keypress(Space),,,,,-- --- ---- --- ------ ----- ------- ---- -- --- ------- --<br>------- ---------- ------ -- ----- -- ----- -- ---- ------<br>--- ----- --- --- bonds' -------- ----- --- ------ ----- --<br>----- ----- ---------- --- --- ------ ------ ---- -- ------<br>------- --- ------ ----- --- ---- ------- -- ---- --- --<br>------- ------,109567.59999999404,109566.70000000298,109151.561,109159.89999999106,109168.231,109584.835,,26,bonds'
screen,html.Screen,0_2_1_1_27,2021-11-05T10:57:01.192Z,,,,,,,,,,,,,,,,54,,,,,,,,,,,,,,389.86500000297383,,response,,,100,,,,,,Space,keypress(Space),,,,,-- --- ---- --- ------ ----- ------- ---- -- --- ------- --<br>------- ---------- ------ -- ----- -- ----- -- ---- ------<br>--- ----- --- --- ------ interest ----- --- ------ ----- --<br>----- ----- ---------- --- --- ------ ------ ---- -- ------<br>------- --- ------ ----- --- ---- ------- -- ---- --- --<br>------- ------,109975.5,109974.70000000298,109568.167,109567.70000000298,109584.835,109985.185,,27,interest
screen,html.Screen,0_2_1_1_28,2021-11-05T10:57:01.656Z,,,,,,,,,,,,,,,,54,,,,,,,,,,,,,,453.41499999404186,,response,,,100,,,,,,Space,keypress(Space),,,,,-- --- ---- --- ------ ----- ------- ---- -- --- ------- --<br>------- ---------- ------ -- ----- -- ----- -- ---- ------<br>--- ----- --- --- ------ -------- rate. --- ------ ----- --<br>----- ----- ---------- --- --- ------ ------ ---- -- ------<br>------- --- ------ ----- --- ---- ------- -- ---- --- --<br>------- ------,110439.39999999106,110438.59999999404,109968.513,109975.79999999702,109985.185,110451.864,,28,rate.
screen,html.Screen,0_2_1_1_29,2021-11-05T10:57:02.048Z,,,,,,,,,,,,,,,,54,,,,,,,,,,,,,,378.73599999403814,,response,,,100,,,,,,Space,keypress(Space),,,,,-- --- ---- --- ------ ----- ------- ---- -- --- ------- --<br>------- ---------- ------ -- ----- -- ----- -- ---- ------<br>--- ----- --- --- ------ -------- ----- The ------ ----- --<br>----- ----- ---------- --- --- ------ ------ ---- -- ------<br>------- --- ------ ----- --- ---- ------- -- ---- --- --<br>------- ------,110831.5,110830.59999999404,110435.194,110439.70000000298,110451.864,110835.339,,29,The
screen,html.Screen,0_2_1_1_30,2021-11-05T10:57:02.440Z,,,,,,,,,,,,,,,,54,,,,,,,,,,,,,,387.361000002973,,response,,,100,,,,,,Space,keypress(Space),,,,,-- --- ---- --- ------ ----- ------- ---- -- --- ------- --<br>------- ---------- ------ -- ----- -- ----- -- ---- ------<br>--- ----- --- --- ------ -------- ----- --- market ----- --<br>----- ----- ---------- --- --- ------ ------ ---- -- ------<br>------- --- ------ ----- --- ---- ------- -- ---- --- --<br>------- ------,111223.39999999106,111222.70000000298,110818.668,110831.79999999702,110835.339,111235.396,,30,market
screen,html.Screen,0_2_1_1_31,2021-11-05T10:57:02.808Z,,,,,,,,,,,,,,,,54,,,,,,,,,,,,,,355.20399999404617,,response,,,100,,,,,,Space,keypress(Space),,,,,-- --- ---- --- ------ ----- ------- ---- -- --- ------- --<br>------- ---------- ------ -- ----- -- ----- -- ---- ------<br>--- ----- --- --- ------ -------- ----- --- ------ value --<br>----- ----- ---------- --- --- ------ ------ ---- -- ------<br>------- --- ------ ----- --- ---- ------- -- ---- --- --<br>------- ------,111591.39999999106,111590.59999999404,111218.726,111223.70000000298,111235.396,111602.198,,31,value
screen,html.Screen,0_2_1_1_32,2021-11-05T10:57:03.192Z,,,,,,,,,,,,,,,,54,,,,,,,,,,,,,,372.4019999940356,,response,,,100,,,,,,Space,keypress(Space),,,,,-- --- ---- --- ------ ----- ------- ---- -- --- ------- --<br>------- ---------- ------ -- ----- -- ----- -- ---- ------<br>--- ----- --- --- ------ -------- ----- --- ------ ----- of<br>----- ----- ---------- --- --- ------ ------ ---- -- ------<br>------- --- ------ ----- --- ---- ------- -- ---- --- --<br>------- ------,111975.39999999106,111974.59999999404,111585.527,111591.59999999404,111602.198,111985.586,,32,of
screen,html.Screen,0_2_1_1_33,2021-11-05T10:57:03.560Z,,,,,,,,,,,,,,,,54,,,,,,,,,,,,,,357.01399999404384,,response,,,100,,,,,,Space,keypress(Space),,,,,-- --- ---- --- ------ ----- ------- ---- -- --- ------- --<br>------- ---------- ------ -- ----- -- ----- -- ---- ------<br>--- ----- --- --- ------ -------- ----- --- ------ ----- --<br>these ----- ---------- --- --- ------ ------ ---- -- ------<br>------- --- ------ ----- --- ---- ------- -- ---- --- --<br>------- ------,112343.39999999106,112342.59999999404,111968.916,111975.59999999404,111985.586,112352.354,,33,these
screen,html.Screen,0_2_1_1_34,2021-11-05T10:57:03.928Z,,,,,,,,,,,,,,,,54,,,,,,,,,,,,,,358.2459999940329,,response,,,100,,,,,,Space,keypress(Space),,,,,-- --- ---- --- ------ ----- ------- ---- -- --- ------- --<br>------- ---------- ------ -- ----- -- ----- -- ---- ------<br>--- ----- --- --- ------ -------- ----- --- ------ ----- --<br>----- bonds ---------- --- --- ------ ------ ---- -- ------<br>------- --- ------ ----- --- ---- ------- -- ---- --- --<br>------- ------,112711.39999999106,112710.59999999404,112335.684,112343.59999999404,112352.354,112718.994,,34,bonds
screen,html.Screen,0_2_1_1_35,2021-11-05T10:57:04.384Z,,,,,,,,,,,,,,,,54,,,,,,,,,,,,,,447.50599999999395,,response,,,100,,,,,,Space,keypress(Space),,,,,"-- --- ---- --- ------ ----- ------- ---- -- --- ------- --<br>------- ---------- ------ -- ----- -- ----- -- ---- ------<br>--- ----- --- --- ------ -------- ----- --- ------ ----- --<br>----- ----- plummeted, --- --- ------ ------ ---- -- ------<br>------- --- ------ ----- --- ---- ------- -- ---- --- --<br>------- ------",113167.29999999702,113166.5,112702.326,112711.70000000298,112718.994,113169.303,,35,"plummeted,"
screen,html.Screen,0_2_1_1_36,2021-11-05T10:57:04.768Z,,,,,,,,,,,,,,,,54,,,,,,,,,,,,,,381.1970000000001,,response,,,100,,,,,,Space,keypress(Space),,,,,-- --- ---- --- ------ ----- ------- ---- -- --- ------- --<br>------- ---------- ------ -- ----- -- ----- -- ---- ------<br>--- ----- --- --- ------ -------- ----- --- ------ ----- --<br>----- ----- ---------- and --- ------ ------ ---- -- ------<br>------- --- ------ ----- --- ---- ------- -- ---- --- --<br>------- ------,113551.29999999702,113550.5,113152.631,113167.59999999404,113169.303,113552.628,,36,and
screen,html.Screen,0_2_1_1_37,2021-11-05T10:57:05.152Z,,,,,,,,,,,,,,,,54,,,,,,,,,,,,,,381.872000000003,,response,,,100,,,,,,Space,keypress(Space),,,,,-- --- ---- --- ------ ----- ------- ---- -- --- ------- --<br>------- ---------- ------ -- ----- -- ----- -- ---- ------<br>--- ----- --- --- ------ -------- ----- --- ------ ----- --<br>----- ----- ---------- --- the ------ ------ ---- -- ------<br>------- --- ------ ----- --- ---- ------- -- ---- --- --<br>------- ------,113935.29999999702,113934.5,113535.958,113551.59999999404,113552.628,113952.781,,37,the
screen,html.Screen,0_2_1_1_38,2021-11-05T10:57:05.543Z,,,,,,,,,,,,,,,,54,,,,,,,,,,,,,,373.6189999910566,,response,,,100,,,,,,Space,keypress(Space),,,,,-- --- ---- --- ------ ----- ------- ---- -- --- ------- --<br>------- ---------- ------ -- ----- -- ----- -- ---- ------<br>--- ----- --- --- ------ -------- ----- --- ------ ----- --<br>----- ----- ---------- --- --- market ------ ---- -- ------<br>------- --- ------ ----- --- ---- ------- -- ---- --- --<br>------- ------,114327.29999999702,114326.39999999106,113936.11,113935.59999999404,113952.781,114336.181,,38,market
screen,html.Screen,0_2_1_1_39,2021-11-05T10:57:05.951Z,,,,,,,,,,,,,,,,54,,,,,,,,,,,,,,398.21899999106245,,response,,,100,,,,,,Space,keypress(Space),,,,,-- --- ---- --- ------ ----- ------- ---- -- --- ------- --<br>------- ---------- ------ -- ----- -- ----- -- ---- ------<br>--- ----- --- --- ------ -------- ----- --- ------ ----- --<br>----- ----- ---------- --- --- ------ became ---- -- ------<br>------- --- ------ ----- --- ---- ------- -- ---- --- --<br>------- ------,114735.29999999702,114734.39999999106,114319.511,114327.5,114336.181,114736.257,,39,became
screen,html.Screen,0_2_1_1_40,2021-11-05T10:57:06.359Z,,,,,,,,,,,,,,,,54,,,,,,,,,,,,,,406.1429999910615,,response,,,100,,,,,,Space,keypress(Space),,,,,-- --- ---- --- ------ ----- ------- ---- -- --- ------- --<br>------- ---------- ------ -- ----- -- ----- -- ---- ------<br>--- ----- --- --- ------ -------- ----- --- ------ ----- --<br>----- ----- ---------- --- --- ------ ------ wary -- ------<br>------- --- ------ ----- --- ---- ------- -- ---- --- --<br>------- ------,115143.20000000298,115142.39999999106,114719.587,114735.5,114736.257,115153.079,,40,wary
screen,html.Screen,0_2_1_1_41,2021-11-05T10:57:06.759Z,,,,,,,,,,,,,,,,54,,,,,,,,,,,,,,389.3209999910614,,response,,,100,,,,,,Space,keypress(Space),,,,,-- --- ---- --- ------ ----- ------- ---- -- --- ------- --<br>------- ---------- ------ -- ----- -- ----- -- ---- ------<br>--- ----- --- --- ------ -------- ----- --- ------ ----- --<br>----- ----- ---------- --- --- ------ ------ ---- of ------<br>------- --- ------ ----- --- ---- ------- -- ---- --- --<br>------- ------,115543.20000000298,115542.39999999106,115136.408,115143.5,115153.079,115553.134,,41,of
screen,html.Screen,0_2_1_1_42,2021-11-05T10:57:07.151Z,,,,,,,,,,,,,,,,54,,,,,,,,,,,,,,381.26599999105383,,response,,,100,,,,,,Space,keypress(Space),,,,,-- --- ---- --- ------ ----- ------- ---- -- --- ------- --<br>------- ---------- ------ -- ----- -- ----- -- ---- ------<br>--- ----- --- --- ------ -------- ----- --- ------ ----- --<br>----- ----- ---------- --- --- ------ ------ ---- -- French<br>------- --- ------ ----- --- ---- ------- -- ---- --- --<br>------- ------,115935.20000000298,115934.39999999106,115536.464,115543.39999999106,115553.134,115936.571,,42,French
screen,html.Screen,0_2_1_1_43,2021-11-05T10:57:07.543Z,,,,,,,,,,,,,,,,54,,,,,,,,,,,,,,389.7289999970235,,response,,,100,,,,,,Space,keypress(Space),,,,,-- --- ---- --- ------ ----- ------- ---- -- --- ------- --<br>------- ---------- ------ -- ----- -- ----- -- ---- ------<br>--- ----- --- --- ------ -------- ----- --- ------ ----- --<br>----- ----- ---------- --- --- ------ ------ ---- -- ------<br>credit. --- ------ ----- --- ---- ------- -- ---- --- --<br>------- ------,116327.09999999404,116326.29999999702,115919.901,115935.39999999106,115936.571,116336.672,,43,credit.
screen,html.Screen,0_2_1_1_44,2021-11-05T10:57:07.943Z,,,,,,,,,,,,,,,,54,,,,,,,,,,,,,,389.62799999701383,,response,,,100,,,,,,Space,keypress(Space),,,,,-- --- ---- --- ------ ----- ------- ---- -- --- ------- --<br>------- ---------- ------ -- ----- -- ----- -- ---- ------<br>--- ----- --- --- ------ -------- ----- --- ------ ----- --<br>----- ----- ---------- --- --- ------ ------ ---- -- ------<br>------- The ------ ----- --- ---- ------- -- ---- --- --<br>------- ------,116727.09999999404,116726.29999999702,116320.002,116327.29999999702,116336.672,116736.755,,44,The
screen,html.Screen,0_2_1_1_45,2021-11-05T10:57:08.351Z,,,,,,,,,,,,,,,,54,,,,,,,,,,,,,,397.4450000029756,,response,,,100,,,,,,Space,keypress(Space),,,,,-- --- ---- --- ------ ----- ------- ---- -- --- ------- --<br>------- ---------- ------ -- ----- -- ----- -- ---- ------<br>--- ----- --- --- ------ -------- ----- --- ------ ----- --<br>----- ----- ---------- --- --- ------ ------ ---- -- ------<br>------- --- French ----- --- ---- ------- -- ---- --- --<br>------- ------,117135.09999999404,117134.20000000298,116720.085,116727.29999999702,116736.755,117136.85,,45,French
screen,html.Screen,0_2_1_1_46,2021-11-05T10:57:08.767Z,,,,,,,,,,,,,,,,54,,,,,,,,,,,,,,413.3500000029744,,response,,,100,,,,,,Space,keypress(Space),,,,,-- --- ---- --- ------ ----- ------- ---- -- --- ------- --<br>------- ---------- ------ -- ----- -- ----- -- ---- ------<br>--- ----- --- --- ------ -------- ----- --- ------ ----- --<br>----- ----- ---------- --- --- ------ ------ ---- -- ------<br>------- --- ------ state --- ---- ------- -- ---- --- --<br>------- ------,117551,117550.20000000298,117120.18,117135.29999999702,117136.85,117553.69,,46,state
screen,html.Screen,0_2_1_1_47,2021-11-05T10:57:09.167Z,,,,,,,,,,,,,,,,54,,,,,,,,,,,,,,396.5100000029779,,response,,,100,,,,,,Space,keypress(Space),,,,,-- --- ---- --- ------ ----- ------- ---- -- --- ------- --<br>------- ---------- ------ -- ----- -- ----- -- ---- ------<br>--- ----- --- --- ------ -------- ----- --- ------ ----- --<br>----- ----- ---------- --- --- ------ ------ ---- -- ------<br>------- --- ------ ----- was ---- ------- -- ---- --- --<br>------- ------,117951.09999999404,117950.20000000298,117537.019,117551.29999999702,117553.69,117953.746,,47,was
screen,html.Screen,0_2_1_1_48,2021-11-05T10:57:09.535Z,,,,,,,,,,,,,,,,54,,,,,,,,,,,,,,364.45400000298105,,response,,,100,,,,,,Space,keypress(Space),,,,,-- --- ---- --- ------ ----- ------- ---- -- --- ------- --<br>------- ---------- ------ -- ----- -- ----- -- ---- ------<br>--- ----- --- --- ------ -------- ----- --- ------ ----- --<br>----- ----- ---------- --- --- ------ ------ ---- -- ------<br>------- --- ------ ----- --- left ------- -- ---- --- --<br>------- ------,118319,118318.20000000298,117937.076,117951.29999999702,117953.746,118320.539,,48,left
screen,html.Screen,0_2_1_1_49,2021-11-05T10:57:09.895Z,,,,,,,,,,,,,,,,54,,,,,,,,,,,,,,357.860999991055,,response,,,100,,,,,,Space,keypress(Space),,,,,-- --- ---- --- ------ ----- ------- ---- -- --- ------- --<br>------- ---------- ------ -- ----- -- ----- -- ---- ------<br>--- ----- --- --- ------ -------- ----- --- ------ ----- --<br>----- ----- ---------- --- --- ------ ------ ---- -- ------<br>------- --- ------ ----- --- ---- without -- ---- --- --<br>------- ------,118679.29999999702,118678.39999999106,118303.868,118319.29999999702,118320.539,118687.256,,49,without
screen,html.Screen,0_2_1_1_50,2021-11-05T10:57:10.207Z,,,,,,,,,,,,,,,,54,,,,,,,,,,,,,,302.9440000029863,,response,,,100,,,,,,Space,keypress(Space),,,,,-- --- ---- --- ------ ----- ------- ---- -- --- ------- --<br>------- ---------- ------ -- ----- -- ----- -- ---- ------<br>--- ----- --- --- ------ -------- ----- --- ------ ----- --<br>----- ----- ---------- --- --- ------ ------ ---- -- ------<br>------- --- ------ ----- --- ---- ------- an ---- --- --<br>------- ------,118991,118990.20000000298,118670.586,118679.5,118687.256,119003.997,,50,an
screen,html.Screen,0_2_1_1_51,2021-11-05T10:57:10.527Z,,,,,,,,,,,,,,,,54,,,,,,,,,,,,,,306.1029999940365,,response,,,100,,,,,,Space,keypress(Space),,,,,-- --- ---- --- ------ ----- ------- ---- -- --- ------- --<br>------- ---------- ------ -- ----- -- ----- -- ---- ------<br>--- ----- --- --- ------ -------- ----- --- ------ ----- --<br>----- ----- ---------- --- --- ------ ------ ---- -- ------<br>------- --- ------ ----- --- ---- ------- -- easy --- --<br>------- ------,119310.89999999106,119310.09999999404,118987.327,118991.20000000298,119003.997,119320.748,,51,easy
screen,html.Screen,0_2_1_1_52,2021-11-05T10:57:11.055Z,,,,,,,,,,,,,,,,54,,,,,,,,,,,,,,517.3519999940327,,response,,,100,,,,,,Space,keypress(Space),,,,,-- --- ---- --- ------ ----- ------- ---- -- --- ------- --<br>------- ---------- ------ -- ----- -- ----- -- ---- ------<br>--- ----- --- --- ------ -------- ----- --- ------ ----- --<br>----- ----- ---------- --- --- ------ ------ ---- -- ------<br>------- --- ------ ----- --- ---- ------- -- ---- way --<br>------- ------,119838.89999999106,119838.09999999404,119304.078,119311.09999999404,119320.748,119854.2,,52,way
screen,html.Screen,0_2_1_1_53,2021-11-05T10:57:11.399Z,,,,,,,,,,,,,,,,54,,,,,,,,,,,,,,327.89999999404245,,response,,,100,,,,,,Space,keypress(Space),,,,,-- --- ---- --- ------ ----- ------- ---- -- --- ------- --<br>------- ---------- ------ -- ----- -- ----- -- ---- ------<br>--- ----- --- --- ------ -------- ----- --- ------ ----- --<br>----- ----- ---------- --- --- ------ ------ ---- -- ------<br>------- --- ------ ----- --- ---- ------- -- ---- --- of<br>------- ------,120182.89999999106,120182.09999999404,119837.53,119839.20000000298,119854.2,120187.63,,53,of
screen,html.Screen,0_2_1_1_54,2021-11-05T10:57:11.754Z,,,,,,,,,,,,,,,,54,,,,,,,,,,,,,,346.4699999940349,,response,,,100,,,,,,Space,keypress(Space),,,,,-- --- ---- --- ------ ----- ------- ---- -- --- ------- --<br>------- ---------- ------ -- ----- -- ----- -- ---- ------<br>--- ----- --- --- ------ -------- ----- --- ------ ----- --<br>----- ----- ---------- --- --- ------ ------ ---- -- ------<br>------- --- ------ ----- --- ---- ------- -- ---- --- --<br>raising ------,120534.79999999702,120534.09999999404,120170.96,120183.20000000298,120187.63,120537.755,,54,raising
screen,html.Screen,0_2_1_1_55,2021-11-05T10:57:12.234Z,,,,,,,,,,,,,,,,54,,,,,,,,,,,,,,476.3449999940349,,response,,,100,,,,,,Space,keypress(Space),,,,,-- --- ---- --- ------ ----- ------- ---- -- --- ------- --<br>------- ---------- ------ -- ----- -- ----- -- ---- ------<br>--- ----- --- --- ------ -------- ----- --- ------ ----- --<br>----- ----- ---------- --- --- ------ ------ ---- -- ------<br>------- --- ------ ----- --- ---- ------- -- ---- --- --<br>------- money.,121014.79999999702,121014.09999999404,120521.084,120535,120537.755,121021.168,,55,money.
Item 100,flow.Loop,0_2_1_1,2021-11-05T10:57:12.235Z,,,,,,,,,,,,,,,,,,,,,,,,,,,,,,23682.404999994033,,completion,,,,F,,,,,,,,,,silence,,121015.29999999702,121014.09999999404,97315.026,97316.59999999404,97331.695,121021.168,,,
Question 1,html.Screen,0_2_1_2,2021-11-05T10:57:15.194Z,,,,,,,,,,,,,,,,,,,,,,,,,,,true,TRUE,,2952.4319999940344,,response,,,100,F,,,,,TRUE,click #choice-1,,,,silence,,123974.70000000298,123973.59999999404,121004.498,121015.39999999106,121021.168,123989.568,,,
Question 2,html.Screen,0_2_1_3,2021-11-05T10:57:17.618Z,,,,,,,,,,,,,,,,,,,,,,,,,,,true,FALSE,,2407.83199999106,,response,,,100,F,,,,,FALSE,click #choice-2,,,,silence,,126398.59999999404,126397.39999999106,123972.88,123974.89999999106,123989.568,126405.832,,,
Item 100,flow.Sequence,0_2_1,2021-11-05T10:57:17.618Z,,,,,,,,,,,,,,,,,,,,,,,,,,,,,,39067.96399999106,,completion,,,,,,,,,,,,,,,,126398.89999999106,126397.39999999106,87312.766,87313.89999999106,87329.436,126405.832,,,
End of Practice,html.Page,0_2_2,2021-11-05T10:57:21.987Z,,,,,,,,,,,,,,,,,,,,,,,,,,,,,,4360.767999994045,,form submission,,,,,,,,,,,,,,,,130767.20000000298,130766.59999999404,126389.162,126399.20000000298,126405.832,130772.853,,,
Practice,flow.Sequence,0_2,2021-11-05T10:57:21.987Z,,,,,,,,,,,,,,,,,,,,,,,,,,,,,,89767.58199999404,,completion,,,,,,,,,,,,,,,,130767.5,130766.59999999404,40982.359,40996.89999999106,40999.018,130772.853,,,
Trap_instruction,html.Page,0_3_0,2021-11-05T10:57:23.554Z,,,,,,,,,,,,,,,,,,,,,,,,,,,,,,1561.6469999999972,,form submission,,,,,,,,,,,,,,,,132334.89999999106,132334.5,130756.185,130767.79999999702,130772.853,132356.983,,,
trap_trial,html.Screen,0_3_1,2021-11-05T10:57:28.058Z,,,,,,,,,,,,,,,,,,,,,,,,,,,true,1,,4479.717000002973,,response,,,,,,,,,1,click #choice-1,,,,,,136838.09999999404,136836.70000000298,132323.649,132335.20000000298,132356.983,136841.262,,,
end of trap trial,html.Page,0_3_2,2021-11-05T10:57:29.714Z,,,,,,,,,,,,,,,,,,,,,,,,,,,,,,1653.0379999970319,,form submission,,,,,,,,,,,,,,,,138494.79999999702,138494.29999999702,136824.593,136838.39999999106,136841.262,138502.921,,,
Trap 1,flow.Sequence,0_3,2021-11-05T10:57:29.715Z,,,,,,,,,,,,,,,,,,,,,,,,,,,,,,7721.446999997017,,completion,,,,,,,,,,,,,,,,138495.20000000298,138494.29999999702,130756.185,130767.79999999702,130772.853,138502.921,,,
Standby,html.Page,0_4_0,2021-11-05T10:57:37.715Z,,,,,,,,,,,,,,,,,,,,,,,,,,,,,,8008.0350000000035,,timeout,,,,,,,,,,,,,,,,146495.59999999404,146494.285,138486.313,138495.5,138502.921,146510.956,,,
Holding screen,html.Screen,0_4_1_0_0,2021-11-05T10:57:44.717Z,,,,,,,,,,,,,,,,,,,,,,,,,,,,,,7001.3979999999865,,timeout,,,,,,,,,,,,,,,,153497.09999999404,153495.685,146494.285,146496,146510.956,153512.354,,,
screen,html.Screen,0_4_1_0_1_0,2021-11-05T10:57:45.369Z,,,,,,,,,,,,,,,,51,,,,,,,,,,,,,,635.8460000029881,,response,,,13,F,,,,,Space,keypress(Space),,,,instrumental,American -------- --- --- ---- --- --- ------ -- --------<br>---- --------- --- ------- ------------ ---------- ---------<br>--- ---------- ------- ---------- ------- -- -------- ----<br>---- --- ------ ----- ------ -- ---- --- ----- -- - -------<br>-------- -- --- --- -- ----- ----------- ----- -----------<br>---- --- ---------- --- ---- --- -- ----------,154149.20000000298,154148.20000000298,153495.685,153497.59999999404,153512.354,154162.688,,0,American
screen,html.Screen,0_4_1_0_1_1,2021-11-05T10:57:45.832Z,,,,,,,,,,,,,,,,51,,,,,,,,,,,,,,449.21199999106466,,response,,,13,F,,,,,Space,keypress(Space),,,,instrumental,-------- industry --- --- ---- --- --- ------ -- --------<br>---- --------- --- ------- ------------ ---------- ---------<br>--- ---------- ------- ---------- ------- -- -------- ----<br>---- --- ------ ----- ------ -- ---- --- ----- -- - -------<br>-------- -- --- --- -- ----- ----------- ----- -----------<br>---- --- ---------- --- ---- --- -- ----------,154612.70000000298,154611.89999999106,154146.018,154149.5,154162.688,154629.575,,1,industry
screen,html.Screen,0_4_1_0_1_2,2021-11-05T10:57:46.304Z,,,,,,,,,,,,,,,,51,,,,,,,,,,,,,,454.2249999970081,,response,,,13,F,,,,,Space,keypress(Space),,,,instrumental,-------- -------- may --- ---- --- --- ------ -- --------<br>---- --------- --- ------- ------------ ---------- ---------<br>--- ---------- ------- ---------- ------- -- -------- ----<br>---- --- ------ ----- ------ -- ---- --- ----- -- - -------<br>-------- -- --- --- -- ----- ----------- ----- -----------<br>---- --- ---------- --- ---- --- -- ----------,155084.59999999404,155083.79999999702,154612.904,154613,154629.575,155096.355,,2,may
screen,html.Screen,0_4_1_0_1_3,2021-11-05T10:57:46.712Z,,,,,,,,,,,,,,,,51,,,,,,,,,,,,,,395.5449999910488,,response,,,13,F,,,,,Space,keypress(Space),,,,instrumental,-------- -------- --- not ---- --- --- ------ -- --------<br>---- --------- --- ------- ------------ ---------- ---------<br>--- ---------- ------- ---------- ------- -- -------- ----<br>---- --- ------ ----- ------ -- ---- --- ----- -- - -------<br>-------- -- --- --- -- ----- ----------- ----- -----------<br>---- --- ---------- --- ---- --- -- ----------,155492.70000000298,155491.89999999106,155079.684,155084.89999999106,155096.355,155496.332,,3,not
screen,html.Screen,0_4_1_0_1_4,2021-11-05T10:57:47.280Z,,,,,,,,,,,,,,,,51,,,,,,,,,,,,,,563.3680000029854,,response,,,13,F,,,,,Space,keypress(Space),,,,instrumental,-------- -------- --- --- know --- --- ------ -- --------<br>---- --------- --- ------- ------------ ---------- ---------<br>--- ---------- ------- ---------- ------- -- -------- ----<br>---- --- ------ ----- ------ -- ---- --- ----- -- - -------<br>-------- -- --- --- -- ----- ----------- ----- -----------<br>---- --- ---------- --- ---- --- -- ----------,156060.5,156059.70000000298,155479.663,155492.89999999106,155496.332,156063.27,,4,know
screen,html.Screen,0_4_1_0_1_5,2021-11-05T10:57:47.712Z,,,,,,,,,,,,,,,,51,,,,,,,,,,,,,,428.4300000029907,,response,,,13,F,,,,,Space,keypress(Space),,,,instrumental,"-------- -------- --- --- ---- it, --- ------ -- --------<br>---- --------- --- ------- ------------ ---------- ---------<br>--- ---------- ------- ---------- ------- -- -------- ----<br>---- --- ------ ----- ------ -- ---- --- ----- -- - -------<br>-------- -- --- --- -- ----- ----------- ----- -----------<br>---- --- ---------- --- ---- --- -- ----------",156492.59999999404,156491.70000000298,156046.599,156060.79999999702,156063.27,156496.65,,5,"it,"
screen,html.Screen,0_4_1_0_1_6,2021-11-05T10:57:48.200Z,,,,,,,,,,,,,,,,51,,,,,,,,,,,,,,482.94999999404536,,response,,,13,F,,,,,Space,keypress(Space),,,,instrumental,-------- -------- --- --- ---- --- but ------ -- --------<br>---- --------- --- ------- ------------ ---------- ---------<br>--- ---------- ------- ---------- ------- -- -------- ----<br>---- --- ------ ----- ------ -- ---- --- ----- -- - -------<br>-------- -- --- --- -- ----- ----------- ----- -----------<br>---- --- ---------- --- ---- --- -- ----------,156980.39999999106,156979.59999999404,156479.98,156492.79999999702,156496.65,156996.683,,6,but
screen,html.Screen,0_4_1_0_1_7,2021-11-05T10:57:48.488Z,,,,,,,,,,,,,,,,51,,,,,,,,,,,,,,270.81700000001,,response,,,13,F,,,,,Space,keypress(Space),,,,instrumental,-------- -------- --- --- ---- --- --- debate -- --------<br>---- --------- --- ------- ------------ ---------- ---------<br>--- ---------- ------- ---------- ------- -- -------- ----<br>---- --- ------ ----- ------ -- ---- --- ----- -- - -------<br>-------- -- --- --- -- ----- ----------- ----- -----------<br>---- --- ---------- --- ---- --- -- ----------,157268.39999999106,157267.5,156980.014,156980.59999999404,156996.683,157280.276,,7,debate
screen,html.Screen,0_4_1_0_1_8,2021-11-05T10:57:48.928Z,,,,,,,,,,,,,,,,51,,,,,,,,,,,,,,427.2239999999874,,response,,,13,F,,,,,Space,keypress(Space),,,,instrumental,-------- -------- --- --- ---- --- --- ------ in --------<br>---- --------- --- ------- ------------ ---------- ---------<br>--- ---------- ------- ---------- ------- -- -------- ----<br>---- --- ------ ----- ------ -- ---- --- ----- -- - -------<br>-------- -- --- --- -- ----- ----------- ----- -----------<br>---- --- ---------- --- ---- --- -- ----------,157708.29999999702,157707.5,157263.604,157268.70000000298,157280.276,157713.641,,8,in
screen,html.Screen,0_4_1_0_1_9,2021-11-05T10:57:49.360Z,,,,,,,,,,,,,,,,51,,,,,,,,,,,,,,425.9589999940363,,response,,,13,F,,,,,Space,keypress(Space),,,,instrumental,-------- -------- --- --- ---- --- --- ------ -- Congress<br>---- --------- --- ------- ------------ ---------- ---------<br>--- ---------- ------- ---------- ------- -- -------- ----<br>---- --- ------ ----- ------ -- ---- --- ----- -- - -------<br>-------- -- --- --- -- ----- ----------- ----- -----------<br>---- --- ---------- --- ---- --- -- ----------,158140.39999999106,158139.59999999404,157696.971,157708.5,157713.641,158146.88,,9,Congress
screen,html.Screen,0_4_1_0_1_10,2021-11-05T10:57:49.792Z,,,,,,,,,,,,,,,,51,,,,,,,,,,,,,,424.7199999940349,,response,,,13,F,,,,,Space,keypress(Space),,,,instrumental,-------- -------- --- --- ---- --- --- ------ -- --------<br>over --------- --- ------- ------------ ---------- ---------<br>--- ---------- ------- ---------- ------- -- -------- ----<br>---- --- ------ ----- ------ -- ---- --- ----- -- - -------<br>-------- -- --- --- -- ----- ----------- ----- -----------<br>---- --- ---------- --- ---- --- -- ----------,158572.29999999702,158571.59999999404,158130.213,158140.70000000298,158146.88,158580.537,,10,over
screen,html.Screen,0_4_1_0_1_11,2021-11-05T10:57:50.216Z,,,,,,,,,,,,,,,,51,,,,,,,,,,,,,,415.06299999402836,,response,,,13,F,,,,,Space,keypress(Space),,,,instrumental,-------- -------- --- --- ---- --- --- ------ -- --------<br>---- reforming --- ------- ------------ ---------- ---------<br>--- ---------- ------- ---------- ------- -- -------- ----<br>---- --- ------ ----- ------ -- ---- --- ----- -- - -------<br>-------- -- --- --- -- ----- ----------- ----- -----------<br>---- --- ---------- --- ---- --- -- ----------,158996.5,158995.59999999404,158563.866,158572.59999999404,158580.537,159013.985,,11,reforming
screen,html.Screen,0_4_1_0_1_12,2021-11-05T10:57:50.648Z,,,,,,,,,,,,,,,,51,,,,,,,,,,,,,,413.81499999703374,,response,,,13,F,,,,,Space,keypress(Space),,,,instrumental,-------- -------- --- --- ---- --- --- ------ -- --------<br>---- --------- the ------- ------------ ---------- ---------<br>--- ---------- ------- ---------- ------- -- -------- ----<br>---- --- ------ ----- ------ -- ---- --- ----- -- - -------<br>-------- -- --- --- -- ----- ----------- ----- -----------<br>---- --- ---------- --- ---- --- -- ----------,159428.59999999404,159427.79999999702,158997.314,158996.70000000298,159013.985,159430.78,,12,the
screen,html.Screen,0_4_1_0_1_13,2021-11-05T10:57:51.080Z,,,,,,,,,,,,,,,,51,,,,,,,,,,,,,,428.72000000000116,,response,,,13,F,,,,,Space,keypress(Space),,,,instrumental,-------- -------- --- --- ---- --- --- ------ -- --------<br>---- --------- --- federal ------------ ---------- ---------<br>--- ---------- ------- ---------- ------- -- -------- ----<br>---- --- ------ ----- ------ -- ---- --- ----- -- - -------<br>-------- -- --- --- -- ----- ----------- ----- -----------<br>---- --- ---------- --- ---- --- -- ----------,159860.5,159859.5,159414.109,159428.79999999702,159430.78,159864.157,,13,federal
screen,html.Screen,0_4_1_0_1_14,2021-11-05T10:57:51.520Z,,,,,,,,,,,,,,,,51,,,,,,,,,,,,,,435.442999994033,,response,,,13,F,,,,,Space,keypress(Space),,,,instrumental,-------- -------- --- --- ---- --- --- ------ -- --------<br>---- --------- --- ------- government's ---------- ---------<br>--- ---------- ------- ---------- ------- -- -------- ----<br>---- --- ------ ----- ------ -- ---- --- ----- -- - -------<br>-------- -- --- --- -- ----- ----------- ----- -----------<br>---- --- ---------- --- ---- --- -- ----------,160300.29999999702,160299.59999999404,159847.487,159860.70000000298,159864.157,160314.256,,14,government's
screen,html.Screen,0_4_1_0_1_15,2021-11-05T10:57:51.976Z,,,,,,,,,,,,,,,,51,,,,,,,,,,,,,,441.24400000000605,,response,,,13,F,,,,,Space,keypress(Space),,,,instrumental,-------- -------- --- --- ---- --- --- ------ -- --------<br>---- --------- --- ------- ------------ regulatory ---------<br>--- ---------- ------- ---------- ------- -- -------- ----<br>---- --- ------ ----- ------ -- ---- --- ----- -- - -------<br>-------- -- --- --- -- ----- ----------- ----- -----------<br>---- --- ---------- --- ---- --- -- ----------,160756.29999999702,160755.5,160297.586,160300.59999999404,160314.256,160764.283,,15,regulatory
screen,html.Screen,0_4_1_0_1_16,2021-11-05T10:57:52.608Z,,,,,,,,,,,,,,,,51,,,,,,,,,,,,,,623.016999997024,,response,,,13,F,,,,,Space,keypress(Space),,,,instrumental,-------- -------- --- --- ---- --- --- ------ -- --------<br>---- --------- --- ------- ------------ ---------- apparatus<br>--- ---------- ------- ---------- ------- -- -------- ----<br>---- --- ------ ----- ------ -- ---- --- ----- -- - -------<br>-------- -- --- --- -- ----- ----------- ----- -----------<br>---- --- ---------- --- ---- --- -- ----------,161388.09999999404,161387.29999999702,160747.614,160756.59999999404,160764.283,161397.974,,16,apparatus
screen,html.Screen,0_4_1_0_1_17,2021-11-05T10:57:53.256Z,,,,,,,,,,,,,,,,51,,,,,,,,,,,,,,637.4259999910719,,response,,,13,F,,,,,Space,keypress(Space),,,,instrumental,-------- -------- --- --- ---- --- --- ------ -- --------<br>---- --------- --- ------- ------------ ---------- ---------<br>may ---------- ------- ---------- ------- -- -------- ----<br>---- --- ------ ----- ------ -- ---- --- ----- -- - -------<br>-------- -- --- --- -- ----- ----------- ----- -----------<br>---- --- ---------- --- ---- --- -- ----------,162036.29999999702,162035.39999999106,161381.302,161388.29999999702,161397.974,162048.086,,17,may
screen,html.Screen,0_4_1_0_1_18,2021-11-05T10:57:53.840Z,,,,,,,,,,,,,,,,51,,,,,,,,,,,,,,571.2139999970095,,response,,,13,F,,,,,Space,keypress(Space),,,,instrumental,-------- -------- --- --- ---- --- --- ------ -- --------<br>---- --------- --- ------- ------------ ---------- ---------<br>--- profoundly ------- ---------- ------- -- -------- ----<br>---- --- ------ ----- ------ -- ---- --- ----- -- - -------<br>-------- -- --- --- -- ----- ----------- ----- -----------<br>---- --- ---------- --- ---- --- -- ----------,162620.20000000298,162619.29999999702,162031.415,162036.5,162048.086,162631.516,,18,profoundly
screen,html.Screen,0_4_1_0_1_19,2021-11-05T10:57:54.344Z,,,,,,,,,,,,,,,,51,,,,,,,,,,,,,,491.7839999970165,,response,,,13,F,,,,,Space,keypress(Space),,,,instrumental,-------- -------- --- --- ---- --- --- ------ -- --------<br>---- --------- --- ------- ------------ ---------- ---------<br>--- ---------- improve ---------- ------- -- -------- ----<br>---- --- ------ ----- ------ -- ---- --- ----- -- - -------<br>-------- -- --- --- -- ----- ----------- ----- -----------<br>---- --- ---------- --- ---- --- -- ----------,163124.09999999404,163123.29999999702,162614.846,162620.39999999106,162631.516,163131.65,,19,improve
screen,html.Screen,0_4_1_0_1_20,2021-11-05T10:57:54.896Z,,,,,,,,,,,,,,,,51,,,,,,,,,,,,,,543.6499999970256,,response,,,13,F,,,,,Space,keypress(Space),,,,instrumental,-------- -------- --- --- ---- --- --- ------ -- --------<br>---- --------- --- ------- ------------ ---------- ---------<br>--- ---------- ------- companies' ------- -- -------- ----<br>---- --- ------ ----- ------ -- ---- --- ----- -- - -------<br>-------- -- --- --- -- ----- ----------- ----- -----------<br>---- --- ---------- --- ---- --- -- ----------,163676.20000000298,163675.29999999702,163114.98,163124.29999999702,163131.65,163681.757,,20,companies'
screen,html.Screen,0_4_1_0_1_21,2021-11-05T10:57:55.456Z,,,,,,,,,,,,,,,,51,,,,,,,,,,,,,,553.8429999940272,,response,,,13,F,,,,,Space,keypress(Space),,,,instrumental,-------- -------- --- --- ---- --- --- ------ -- --------<br>---- --------- --- ------- ------------ ---------- ---------<br>--- ---------- ------- ---------- ability -- -------- ----<br>---- --- ------ ----- ------ -- ---- --- ----- -- - -------<br>-------- -- --- --- -- ----- ----------- ----- -----------<br>---- --- ---------- --- ---- --- -- ----------,164236.39999999106,164235.59999999404,163665.087,163676.39999999106,163681.757,164248.571,,21,ability
screen,html.Screen,0_4_1_0_1_22,2021-11-05T10:57:55.967Z,,,,,,,,,,,,,,,,51,,,,,,,,,,,,,,498.52899999404326,,response,,,13,F,,,,,Space,keypress(Space),,,,instrumental,-------- -------- --- --- ---- --- --- ------ -- --------<br>---- --------- --- ------- ------------ ---------- ---------<br>--- ---------- ------- ---------- ------- to -------- ----<br>---- --- ------ ----- ------ -- ---- --- ----- -- - -------<br>-------- -- --- --- -- ----- ----------- ----- -----------<br>---- --- ---------- --- ---- --- -- ----------,164747.89999999106,164747.09999999404,164231.901,164236.70000000298,164248.571,164765.428,,22,to
screen,html.Screen,0_4_1_0_1_23,2021-11-05T10:57:56.536Z,,,,,,,,,,,,,,,,51,,,,,,,,,,,,,,549.7720000029658,,response,,,13,F,,,,,Space,keypress(Space),,,,instrumental,-------- -------- --- --- ---- --- --- ------ -- --------<br>---- --------- --- ------- ------------ ---------- ---------<br>--- ---------- ------- ---------- ------- -- survive. ----<br>---- --- ------ ----- ------ -- ---- --- ----- -- - -------<br>-------- -- --- --- -- ----- ----------- ----- -----------<br>---- --- ---------- --- ---- --- -- ----------,165316,165315.20000000298,164748.757,164748.09999999404,164765.428,165332.176,,23,survive.
screen,html.Screen,0_4_1_0_1_24,2021-11-05T10:57:56.976Z,,,,,,,,,,,,,,,,51,,,,,,,,,,,,,,423.4239999940328,,response,,,13,F,,,,,Space,keypress(Space),,,,instrumental,-------- -------- --- --- ---- --- --- ------ -- --------<br>---- --------- --- ------- ------------ ---------- ---------<br>--- ---------- ------- ---------- ------- -- -------- This<br>---- --- ------ ----- ------ -- ---- --- ----- -- - -------<br>-------- -- --- --- -- ----- ----------- ----- -----------<br>---- --- ---------- --- ---- --- -- ----------,165756.29999999702,165755.59999999404,165315.506,165316.20000000298,165332.176,165765.516,,24,This
screen,html.Screen,0_4_1_0_1_25,2021-11-05T10:57:57.559Z,,,,,,,,,,,,,,,,51,,,,,,,,,,,,,,573.5839999940363,,response,,,13,F,,,,,Space,keypress(Space),,,,instrumental,-------- -------- --- --- ---- --- --- ------ -- --------<br>---- --------- --- ------- ------------ ---------- ---------<br>--- ---------- ------- ---------- ------- -- -------- ----<br>week --- ------ ----- ------ -- ---- --- ----- -- - -------<br>-------- -- --- --- -- ----- ----------- ----- -----------<br>---- --- ---------- --- ---- --- -- ----------,166340,166339.09999999404,165748.847,165756.5,165765.516,166349.145,,25,week
screen,html.Screen,0_4_1_0_1_26,2021-11-05T10:57:58.007Z,,,,,,,,,,,,,,,,51,,,,,,,,,,,,,,437.7549999910698,,response,,,13,F,,,,,Space,keypress(Space),,,,instrumental,-------- -------- --- --- ---- --- --- ------ -- --------<br>---- --------- --- ------- ------------ ---------- ---------<br>--- ---------- ------- ---------- ------- -- -------- ----<br>---- the ------ ----- ------ -- ---- --- ----- -- - -------<br>-------- -- --- --- -- ----- ----------- ----- -----------<br>---- --- ---------- --- ---- --- -- ----------,166787.70000000298,166786.89999999106,166332.474,166340.09999999404,166349.145,166799.27,,26,the
screen,html.Screen,0_4_1_0_1_27,2021-11-05T10:57:58.471Z,,,,,,,,,,,,,,,,51,,,,,,,,,,,,,,451.82999999405,,response,,,13,F,,,,,Space,keypress(Space),,,,instrumental,-------- -------- --- --- ---- --- --- ------ -- --------<br>---- --------- --- ------- ------------ ---------- ---------<br>--- ---------- ------- ---------- ------- -- -------- ----<br>---- --- Senate ----- ------ -- ---- --- ----- -- - -------<br>-------- -- --- --- -- ----- ----------- ----- -----------<br>---- --- ---------- --- ---- --- -- ----------,167251.89999999106,167251.09999999404,166782.599,166787.89999999106,166799.27,167266.06,,27,Senate
screen,html.Screen,0_4_1_0_1_28,2021-11-05T10:57:58.959Z,,,,,,,,,,,,,,,,51,,,,,,,,,,,,,,472.9400000000023,,response,,,13,F,,,,,Space,keypress(Space),,,,instrumental,-------- -------- --- --- ---- --- --- ------ -- --------<br>---- --------- --- ------- ------------ ---------- ---------<br>--- ---------- ------- ---------- ------- -- -------- ----<br>---- --- ------ seems ------ -- ---- --- ----- -- - -------<br>-------- -- --- --- -- ----- ----------- ----- -----------<br>---- --- ---------- --- ---- --- -- ----------,167739.79999999702,167739,167249.389,167252.09999999404,167266.06,167749.295,,28,seems
screen,html.Screen,0_4_1_0_1_29,2021-11-05T10:57:59.583Z,,,,,,,,,,,,,,,,51,,,,,,,,,,,,,,613.6049999910465,,response,,,13,F,,,,,Space,keypress(Space),,,,instrumental,-------- -------- --- --- ---- --- --- ------ -- --------<br>---- --------- --- ------- ------------ ---------- ---------<br>--- ---------- ------- ---------- ------- -- -------- ----<br>---- --- ------ ----- poised -- ---- --- ----- -- - -------<br>-------- -- --- --- -- ----- ----------- ----- -----------<br>---- --- ---------- --- ---- --- -- ----------,168363.89999999106,168362.89999999106,167732.627,167740.09999999404,167749.295,168366.385,,29,poised
screen,html.Screen,0_4_1_0_1_30,2021-11-05T10:58:00.023Z,,,,,,,,,,,,,,,,51,,,,,,,,,,,,,,436.6149999999907,,response,,,13,F,,,,,Space,keypress(Space),,,,instrumental,-------- -------- --- --- ---- --- --- ------ -- --------<br>---- --------- --- ------- ------------ ---------- ---------<br>--- ---------- ------- ---------- ------- -- -------- ----<br>---- --- ------ ----- ------ to ---- --- ----- -- - -------<br>-------- -- --- --- -- ----- ----------- ----- -----------<br>---- --- ---------- --- ---- --- -- ----------,168803.79999999702,168803,168349.713,168364.09999999404,168366.385,168816.27,,30,to
screen,html.Screen,0_4_1_0_1_31,2021-11-05T10:58:00.423Z,,,,,,,,,,,,,,,,51,,,,,,,,,,,,,,386.7300000000105,,response,,,13,F,,,,,Space,keypress(Space),,,,instrumental,-------- -------- --- --- ---- --- --- ------ -- --------<br>---- --------- --- ------- ------------ ---------- ---------<br>--- ---------- ------- ---------- ------- -- -------- ----<br>---- --- ------ ----- ------ -- join --- ----- -- - -------<br>-------- -- --- --- -- ----- ----------- ----- -----------<br>---- --- ---------- --- ---- --- -- ----------,169203.89999999106,169203,168799.601,168804.09999999404,168816.27,169216.512,,31,join
screen,html.Screen,0_4_1_0_1_32,2021-11-05T10:58:00.799Z,,,,,,,,,,,,,,,,51,,,,,,,,,,,,,,362.3879999910714,,response,,,13,F,,,,,Space,keypress(Space),,,,instrumental,-------- -------- --- --- ---- --- --- ------ -- --------<br>---- --------- --- ------- ------------ ---------- ---------<br>--- ---------- ------- ---------- ------- -- -------- ----<br>---- --- ------ ----- ------ -- ---- the ----- -- - -------<br>-------- -- --- --- -- ----- ----------- ----- -----------<br>---- --- ---------- --- ---- --- -- ----------,169579.79999999702,169578.89999999106,169199.841,169204.20000000298,169216.512,169583.105,,32,the
screen,html.Screen,0_4_1_0_1_33,2021-11-05T10:58:01.287Z,,,,,,,,,,,,,,,,51,,,,,,,,,,,,,,483.59500000296975,,response,,,13,F,,,,,Space,keypress(Space),,,,instrumental,-------- -------- --- --- ---- --- --- ------ -- --------<br>---- --------- --- ------- ------------ ---------- ---------<br>--- ---------- ------- ---------- ------- -- -------- ----<br>---- --- ------ ----- ------ -- ---- --- House -- - -------<br>-------- -- --- --- -- ----- ----------- ----- -----------<br>---- --- ---------- --- ---- --- -- ----------,170067.5,170066.70000000298,169566.437,169580,169583.105,170083.516,,33,House
screen,html.Screen,0_4_1_0_1_34,2021-11-05T10:58:01.711Z,,,,,,,,,,,,,,,,51,,,,,,,,,,,,,,407.38399999105604,,response,,,13,F,,,,,Space,keypress(Space),,,,instrumental,-------- -------- --- --- ---- --- --- ------ -- --------<br>---- --------- --- ------- ------------ ---------- ---------<br>--- ---------- ------- ---------- ------- -- -------- ----<br>---- --- ------ ----- ------ -- ---- --- ----- in - -------<br>-------- -- --- --- -- ----- ----------- ----- -----------<br>---- --- ---------- --- ---- --- -- ----------,170491.70000000298,170490.89999999106,170066.843,170067.79999999702,170083.516,170499.996,,34,in
screen,html.Screen,0_4_1_0_1_35,2021-11-05T10:58:02.087Z,,,,,,,,,,,,,,,,51,,,,,,,,,,,,,,366.7040000029665,,response,,,13,F,,,,,Space,keypress(Space),,,,instrumental,-------- -------- --- --- ---- --- --- ------ -- --------<br>---- --------- --- ------- ------------ ---------- ---------<br>--- ---------- ------- ---------- ------- -- -------- ----<br>---- --- ------ ----- ------ -- ---- --- ----- -- a -------<br>-------- -- --- --- -- ----- ----------- ----- -----------<br>---- --- ---------- --- ---- --- -- ----------,170867.5,170866.70000000298,170483.328,170491.89999999106,170499.996,170883.652,,35,a
screen,html.Screen,0_4_1_0_1_36,2021-11-05T10:58:02.543Z,,,,,,,,,,,,,,,,51,,,,,,,,,,,,,,439.1479999970179,,response,,,13,F,,,,,Space,keypress(Space),,,,instrumental,-------- -------- --- --- ---- --- --- ------ -- --------<br>---- --------- --- ------- ------------ ---------- ---------<br>--- ---------- ------- ---------- ------- -- -------- ----<br>---- --- ------ ----- ------ -- ---- --- ----- -- - massive<br>-------- -- --- --- -- ----- ----------- ----- -----------<br>---- --- ---------- --- ---- --- -- ----------,171323.59999999404,171322.79999999702,170866.98,170867.79999999702,170883.652,171333.684,,36,massive
screen,html.Screen,0_4_1_0_1_37,2021-11-05T10:58:03.023Z,,,,,,,,,,,,,,,,51,,,,,,,,,,,,,,469.1159999970114,,response,,,13,F,,,,,Space,keypress(Space),,,,instrumental,-------- -------- --- --- ---- --- --- ------ -- --------<br>---- --------- --- ------- ------------ ---------- ---------<br>--- ---------- ------- ---------- ------- -- -------- ----<br>---- --- ------ ----- ------ -- ---- --- ----- -- - -------<br>overhaul -- --- --- -- ----- ----------- ----- -----------<br>---- --- ---------- --- ---- --- -- ----------,171803.70000000298,171802.79999999702,171317.014,171323.89999999106,171333.684,171817.106,,37,overhaul
screen,html.Screen,0_4_1_0_1_38,2021-11-05T10:58:03.471Z,,,,,,,,,,,,,,,,51,,,,,,,,,,,,,,433.59400000298047,,response,,,13,F,,,,,Space,keypress(Space),,,,instrumental,-------- -------- --- --- ---- --- --- ------ -- --------<br>---- --------- --- ------- ------------ ---------- ---------<br>--- ---------- ------- ---------- ------- -- -------- ----<br>---- --- ------ ----- ------ -- ---- --- ----- -- - -------<br>-------- of --- --- -- ----- ----------- ----- -----------<br>---- --- ---------- --- ---- --- -- ----------,172251.59999999404,172250.70000000298,171800.436,171803.89999999106,171817.106,172267.282,,38,of
screen,html.Screen,0_4_1_0_1_39,2021-11-05T10:58:03.919Z,,,,,,,,,,,,,,,,51,,,,,,,,,,,,,,431.51799999701325,,response,,,13,F,,,,,Space,keypress(Space),,,,instrumental,-------- -------- --- --- ---- --- --- ------ -- --------<br>---- --------- --- ------- ------------ ---------- ---------<br>--- ---------- ------- ---------- ------- -- -------- ----<br>---- --- ------ ----- ------ -- ---- --- ----- -- - -------<br>-------- -- the --- -- ----- ----------- ----- -----------<br>---- --- ---------- --- ---- --- -- ----------,172699.5,172698.79999999702,172250.611,172251.79999999702,172267.282,172700.69,,39,the
screen,html.Screen,0_4_1_0_1_40,2021-11-05T10:58:04.407Z,,,,,,,,,,,,,,,,51,,,,,,,,,,,,,,485.8099999999977,,response,,,13,F,,,,,Space,keypress(Space),,,,instrumental,-------- -------- --- --- ---- --- --- ------ -- --------<br>---- --------- --- ------- ------------ ---------- ---------<br>--- ---------- ------- ---------- ------- -- -------- ----<br>---- --- ------ ----- ------ -- ---- --- ----- -- - -------<br>-------- -- --- way -- ----- ----------- ----- -----------<br>---- --- ---------- --- ---- --- -- ----------,173187.29999999702,173186.5,172684.02,172699.70000000298,172700.69,173200.861,,40,way
screen,html.Screen,0_4_1_0_1_41,2021-11-05T10:58:04.823Z,,,,,,,,,,,,,,,,51,,,,,,,,,,,,,,401.7389999940351,,response,,,13,F,,,,,Space,keypress(Space),,,,instrumental,-------- -------- --- --- ---- --- --- ------ -- --------<br>---- --------- --- ------- ------------ ---------- ---------<br>--- ---------- ------- ---------- ------- -- -------- ----<br>---- --- ------ ----- ------ -- ---- --- ----- -- - -------<br>-------- -- --- --- in ----- ----------- ----- -----------<br>---- --- ---------- --- ---- --- -- ----------,173603.39999999106,173602.59999999404,173184.19,173187.5,173200.861,173617.603,,41,in
screen,html.Screen,0_4_1_0_1_42,2021-11-05T10:58:05.223Z,,,,,,,,,,,,,,,,51,,,,,,,,,,,,,,384.99699999403674,,response,,,13,F,,,,,Space,keypress(Space),,,,instrumental,-------- -------- --- --- ---- --- --- ------ -- --------<br>---- --------- --- ------- ------------ ---------- ---------<br>--- ---------- ------- ---------- ------- -- -------- ----<br>---- --- ------ ----- ------ -- ---- --- ----- -- - -------<br>-------- -- --- --- -- which ----------- ----- -----------<br>---- --- ---------- --- ---- --- -- ----------,174003.5,174002.59999999404,173600.933,173603.59999999404,173617.603,174017.631,,42,which
screen,html.Screen,0_4_1_0_1_43,2021-11-05T10:58:05.671Z,,,,,,,,,,,,,,,,51,,,,,,,,,,,,,,433.36900000000605,,response,,,13,F,,,,,Space,keypress(Space),,,,instrumental,-------- -------- --- --- ---- --- --- ------ -- --------<br>---- --------- --- ------- ------------ ---------- ---------<br>--- ---------- ------- ---------- ------- -- -------- ----<br>---- --- ------ ----- ------ -- ---- --- ----- -- - -------<br>-------- -- --- --- -- ----- bureaucrats ----- -----------<br>---- --- ---------- --- ---- --- -- ----------,174451.79999999702,174451,174000.962,174003.70000000298,174017.631,174467.831,,43,bureaucrats
screen,html.Screen,0_4_1_0_1_44,2021-11-05T10:58:06.215Z,,,,,,,,,,,,,,,,51,,,,,,,,,,,,,,526.768999994034,,response,,,13,F,,,,,Space,keypress(Space),,,,instrumental,-------- -------- --- --- ---- --- --- ------ -- --------<br>---- --------- --- ------- ------------ ---------- ---------<br>--- ---------- ------- ---------- ------- -- -------- ----<br>---- --- ------ ----- ------ -- ---- --- ----- -- - -------<br>-------- -- --- --- -- ----- ----------- enact -----------<br>---- --- ---------- --- ---- --- -- ----------,174995.39999999106,174994.59999999404,174451.16,174452,174467.831,175001.32,,44,enact
screen,html.Screen,0_4_1_0_1_45,2021-11-05T10:58:06.719Z,,,,,,,,,,,,,,,,51,,,,,,,,,,,,,,497.27999999403255,,response,,,13,F,,,,,Space,keypress(Space),,,,instrumental,-------- -------- --- --- ---- --- --- ------ -- --------<br>---- --------- --- ------- ------------ ---------- ---------<br>--- ---------- ------- ---------- ------- -- -------- ----<br>---- --- ------ ----- ------ -- ---- --- ----- -- - -------<br>-------- -- --- --- -- ----- ----------- ----- regulations<br>---- --- ---------- --- ---- --- -- ----------,175499.29999999702,175498.59999999404,174984.649,174995.70000000298,175001.32,175501.362,,45,regulations
screen,html.Screen,0_4_1_0_1_46,2021-11-05T10:58:07.159Z,,,,,,,,,,,,,,,,51,,,,,,,,,,,,,,437.0379999910656,,response,,,13,F,,,,,Space,keypress(Space),,,,instrumental,-------- -------- --- --- ---- --- --- ------ -- --------<br>---- --------- --- ------- ------------ ---------- ---------<br>--- ---------- ------- ---------- ------- -- -------- ----<br>---- --- ------ ----- ------ -- ---- --- ----- -- - -------<br>-------- -- --- --- -- ----- ----------- ----- -----------<br>that --- ---------- --- ---- --- -- ----------,175939.20000000298,175938.39999999106,175484.692,175499.5,175501.362,175951.505,,46,that
screen,html.Screen,0_4_1_0_1_47,2021-11-05T10:58:07.639Z,,,,,,,,,,,,,,,,51,,,,,,,,,,,,,,466.89499999105465,,response,,,13,F,,,,,Space,keypress(Space),,,,instrumental,-------- -------- --- --- ---- --- --- ------ -- --------<br>---- --------- --- ------- ------------ ---------- ---------<br>--- ---------- ------- ---------- ------- -- -------- ----<br>---- --- ------ ----- ------ -- ---- --- ----- -- - -------<br>-------- -- --- --- -- ----- ----------- ----- -----------<br>---- are ---------- --- ---- --- -- ----------,176419.29999999702,176418.39999999106,175934.835,175939.39999999106,175951.505,176434.845,,47,are
screen,html.Screen,0_4_1_0_1_48,2021-11-05T10:58:08.119Z,,,,,,,,,,,,,,,,51,,,,,,,,,,,,,,464.05499999105814,,response,,,13,F,,,,,Space,keypress(Space),,,,instrumental,-------- -------- --- --- ---- --- --- ------ -- --------<br>---- --------- --- ------- ------------ ---------- ---------<br>--- ---------- ------- ---------- ------- -- -------- ----<br>---- --- ------ ----- ------ -- ---- --- ----- -- - -------<br>-------- -- --- --- -- ----- ----------- ----- -----------<br>---- --- strangling --- ---- --- -- ----------,176899.70000000298,176898.89999999106,176418.176,176419.5,176434.845,176901.692,,48,strangling
screen,html.Screen,0_4_1_0_1_49,2021-11-05T10:58:08.567Z,,,,,,,,,,,,,,,,51,,,,,,,,,,,,,,444.60799999700976,,response,,,13,F,,,,,Space,keypress(Space),,,,instrumental,-------- -------- --- --- ---- --- --- ------ -- --------<br>---- --------- --- ------- ------------ ---------- ---------<br>--- ---------- ------- ---------- ------- -- -------- ----<br>---- --- ------ ----- ------ -- ---- --- ----- -- - -------<br>-------- -- --- --- -- ----- ----------- ----- -----------<br>---- --- ---------- the ---- --- -- ----------,177347.09999999404,177346.29999999702,176885.022,176900,176901.692,177351.957,,49,the
