sender,sender_type,sender_id,timestamp,meta,,Blues,Classical,Country,Dance,Electronic,Folk,Gospel,Hip-Hop,Jazz,Latin,Musical/Film,New-age,Pop,Provo_ID,R&B,Rap,Reggae,Religious,Rock,Soul,Swing,Traditional,age,artist_name,correct,correctResponse,distraction,duration,education,ended_on,familiarity,gender,item,list,music_frequency,offensiveness,pleasantness,preference,response,response_action,snippet_file,song_name,song_rating,sound,text,time_commit,time_end,time_render,time_run,time_show,time_switch,url,word,word_ID
Instructions,html.Page,0_0,2021-11-04T13:18:38.004Z,"{""labjs_version"":""20.2.3"",""labjs_build"":{""flavor"":""production"",""commit"":""7ea907d66ca8aeef8054924ca5d82ffbe11e34e5""},""location"":""https://run.pavlovia.org/mvasilev/lab_music_a/"",""userAgent"":""Mozilla/5.0 (Windows NT 6.1; Win64; x64) AppleWebKit/537.36 (KHTML, like Gecko) Chrome/95.0.4638.69 Safari/537.36"",""platform"":""Win32"",""language"":""en-US"",""locale"":""en-US"",""timeZone"":""Europe/London"",""timezoneOffset"":0,""screen_width"":1920,""screen_height"":1080,""scroll_width"":1920,""scroll_height"":959,""window_innerWidth"":1920,""window_innerHeight"":1007,""devicePixelRatio"":1}",,,,,,,,,,,,,,,,,,,,,,,,,,,,,19015.297000002236,,form submission,,,,,,,,,,,,,,,,29182.199999999255,29180.900000002235,10148.933,10163.699999999255,10165.603,29189.554,{},,
Headphones,html.Page,0_1,2021-11-04T13:18:40.365Z,,,,,,,,,,,,,,,,,,,,,,,,,,,,,,2353.746000000745,,form submission,,,,,,,,,,,,,,,,31543.699999999255,31543.300000000745,29172.862,29182.900000002235,29189.554,31554.569,,,
Holding screen,html.Screen,0_2_0_0,2021-11-04T13:18:50.368Z,,,,,,,,,,,,,,,,,,,,,,,,,,,,,,10002.265000000003,,timeout,,,,,,,,,,,,,,,,41546.300000000745,41540.165,31537.898,31544.300000000745,31554.569,41556.834,,,
screen,html.Screen,0_2_0_1_0,2021-11-04T13:18:51.237Z,,,,,,,,,,,,,,,,53,,,,,,,,,,,,,,857.1659999999974,,response,,,99,,,,,,Space,keypress(Space),,,,,When -- ----- -- ------ - ------- --- ----------<br>------------- ------ ------ ---- ---- ------- ----- -- ----<br>-------- ------- -- ---------- --- - --- ----- ----- ----<br>---- --- --- ----- --- ---- ---- ------- ----- ---- -------<br>--- --- -- ----- -- --- ---- -- --- ---- -- ------ ------<br>--- ----- -- ----,42415.400000002235,42414,41540.165,41546.699999999255,41556.834,42423.958,,0,When
screen,html.Screen,0_2_0_1_1,2021-11-04T13:18:51.756Z,,,,,,,,,,,,,,,,53,,,,,,,,,,,,,,509.5420000000013,,response,,,99,,,,,,Space,keypress(Space),,,,,---- it ----- -- ------ - ------- --- ----------<br>------------- ------ ------ ---- ---- ------- ----- -- ----<br>-------- ------- -- ---------- --- - --- ----- ----- ----<br>---- --- --- ----- --- ---- ---- ------- ----- ---- -------<br>--- --- -- ----- -- --- ---- -- --- ---- -- ------ ------<br>--- ----- -- ----,42934.5,42933.5,42407.287,42415.699999999255,42423.958,42940.704,,1,it
screen,html.Screen,0_2_0_1_2,2021-11-04T13:18:52.348Z,,,,,,,,,,,,,,,,53,,,,,,,,,,,,,,584.7960000000021,,response,,,99,,,,,,Space,keypress(Space),,,,,---- -- comes -- ------ - ------- --- ----------<br>------------- ------ ------ ---- ---- ------- ----- -- ----<br>-------- ------- -- ---------- --- - --- ----- ----- ----<br>---- --- --- ----- --- ---- ---- ------- ----- ---- -------<br>--- --- -- ----- -- --- ---- -- --- ---- -- ------ ------<br>--- ----- -- ----,43526.300000000745,43525.5,42924.034,42934.800000000745,42940.704,43540.927,,2,comes
screen,html.Screen,0_2_0_1_3,2021-11-04T13:18:52.804Z,,,,,,,,,,,,,,,,53,,,,,,,,,,,,,,440.47300000223186,,response,,,99,,,,,,Space,keypress(Space),,,,,---- -- ----- to ------ - ------- --- ----------<br>------------- ------ ------ ---- ---- ------- ----- -- ----<br>-------- ------- -- ---------- --- - --- ----- ----- ----<br>---- --- --- ----- --- ---- ---- ------- ----- ---- -------<br>--- --- -- ----- -- --- ---- -- --- ---- -- ------ ------<br>--- ----- -- ----,43982.400000002235,43981.400000002235,43524.256,43526.60000000149,43540.927,43990.922,,3,to
screen,html.Screen,0_2_0_1_4,2021-11-04T13:18:53.276Z,,,,,,,,,,,,,,,,53,,,,,,,,,,,,,,462.4780000022365,,response,,,99,,,,,,Space,keypress(Space),,,,,---- -- ----- -- having - ------- --- ----------<br>------------- ------ ------ ---- ---- ------- ----- -- ----<br>-------- ------- -- ---------- --- - --- ----- ----- ----<br>---- --- --- ----- --- ---- ---- ------- ----- ---- -------<br>--- --- -- ----- -- --- ---- -- --- ---- -- ------ ------<br>--- ----- -- ----,44454.5,44453.400000002235,43974.253,43982.900000002235,43990.922,44457.814,,4,having
screen,html.Screen,0_2_0_1_5,2021-11-04T13:18:53.772Z,,,,,,,,,,,,,,,,53,,,,,,,,,,,,,,491.5860000022367,,response,,,99,,,,,,Space,keypress(Space),,,,,---- -- ----- -- ------ a ------- --- ----------<br>------------- ------ ------ ---- ---- ------- ----- -- ----<br>-------- ------- -- ---------- --- - --- ----- ----- ----<br>---- --- --- ----- --- ---- ---- ------- ----- ---- -------<br>--- --- -- ----- -- --- ---- -- --- ---- -- ------ ------<br>--- ----- -- ----,44950.300000000745,44949.400000002235,44441.143,44454.800000000745,44457.814,44957.904,,5,a
screen,html.Screen,0_2_0_1_6,2021-11-04T13:18:54.244Z,,,,,,,,,,,,,,,,53,,,,,,,,,,,,,,463.3960000007428,,response,,,99,,,,,,Space,keypress(Space),,,,,---- -- ----- -- ------ - lasting --- ----------<br>------------- ------ ------ ---- ---- ------- ----- -- ----<br>-------- ------- -- ---------- --- - --- ----- ----- ----<br>---- --- --- ----- --- ---- ---- ------- ----- ---- -------<br>--- --- -- ----- -- --- ---- -- --- ---- -- ------ ------<br>--- ----- -- ----,45422.300000000745,45421.300000000745,44941.234,44950.800000000745,44957.904,45424.66,,6,lasting
screen,html.Screen,0_2_0_1_7,2021-11-04T13:18:54.740Z,,,,,,,,,,,,,,,,53,,,,,,,,,,,,,,492.64000000074157,,response,,,99,,,,,,Space,keypress(Space),,,,,---- -- ----- -- ------ - ------- and ----------<br>------------- ------ ------ ---- ---- ------- ----- -- ----<br>-------- ------- -- ---------- --- - --- ----- ----- ----<br>---- --- --- ----- --- ---- ---- ------- ----- ---- -------<br>--- --- -- ----- -- --- ---- -- --- ---- -- ------ ------<br>--- ----- -- ----,45918.199999999255,45917.300000000745,45407.99,45422.699999999255,45424.66,45924.805,,7,and
screen,html.Screen,0_2_0_1_8,2021-11-04T13:18:55.276Z,,,,,,,,,,,,,,,,53,,,,,,,,,,,,,,528.4950000007448,,response,,,99,,,,,,Space,keypress(Space),,,,,---- -- ----- -- ------ - ------- --- fulfilling<br>------------- ------ ------ ---- ---- ------- ----- -- ----<br>-------- ------- -- ---------- --- - --- ----- ----- ----<br>---- --- --- ----- --- ---- ---- ------- ----- ---- -------<br>--- --- -- ----- -- --- ---- -- --- ---- -- ------ ------<br>--- ----- -- ----,46454.400000002235,46453.300000000745,45908.135,45918.60000000149,45924.805,46458.155,,8,fulfilling
screen,html.Screen,0_2_0_1_9,2021-11-04T13:18:55.836Z,,,,,,,,,,,,,,,,53,,,,,,,,,,,,,,555.0449999992561,,response,,,99,,,,,,Space,keypress(Space),,,,,"---- -- ----- -- ------ - ------- --- ----------<br>relationship, ------ ------ ---- ---- ------- ----- -- ----<br>-------- ------- -- ---------- --- - --- ----- ----- ----<br>---- --- --- ----- --- ---- ---- ------- ----- ---- -------<br>--- --- -- ----- -- --- ---- -- --- ---- -- ------ ------<br>--- ----- -- ----",47014.10000000149,47013.199999999255,46441.486,46454.699999999255,46458.155,47025.035,,9,"relationship,"
screen,html.Screen,0_2_0_1_10,2021-11-04T13:18:56.436Z,,,,,,,,,,,,,,,,53,,,,,,,,,,,,,,588.2650000007416,,response,,,99,,,,,,Space,keypress(Space),,,,,---- -- ----- -- ------ - ------- --- ----------<br>------------- common ------ ---- ---- ------- ----- -- ----<br>-------- ------- -- ---------- --- - --- ----- ----- ----<br>---- --- --- ----- --- ---- ---- ------- ----- ---- -------<br>--- --- -- ----- -- --- ---- -- --- ---- -- ------ ------<br>--- ----- -- ----,47614.199999999255,47613.300000000745,47008.365,47014.400000002235,47025.035,47625.346,,10,common
screen,html.Screen,0_2_0_1_11,2021-11-04T13:18:56.972Z,,,,,,,,,,,,,,,,53,,,,,,,,,,,,,,523.8539999992572,,response,,,99,,,,,,Space,keypress(Space),,,,,---- -- ----- -- ------ - ------- --- ----------<br>------------- ------ wisdom ---- ---- ------- ----- -- ----<br>-------- ------- -- ---------- --- - --- ----- ----- ----<br>---- --- --- ----- --- ---- ---- ------- ----- ---- -------<br>--- --- -- ----- -- --- ---- -- --- ---- -- ------ ------<br>--- ----- -- ----,48150.10000000149,48149.199999999255,47608.674,47614.5,47625.346,48158.693,,11,wisdom
screen,html.Screen,0_2_0_1_12,2021-11-04T13:18:57.532Z,,,,,,,,,,,,,,,,53,,,,,,,,,,,,,,550.5069999992556,,response,,,99,,,,,,Space,keypress(Space),,,,,---- -- ----- -- ------ - ------- --- ----------<br>------------- ------ ------ says ---- ------- ----- -- ----<br>-------- ------- -- ---------- --- - --- ----- ----- ----<br>---- --- --- ----- --- ---- ---- ------- ----- ---- -------<br>--- --- -- ----- -- --- ---- -- --- ---- -- ------ ------<br>--- ----- -- ----,48710.10000000149,48709.199999999255,48142.023,48150.400000002235,48158.693,48725.506,,12,says
screen,html.Screen,0_2_0_1_13,2021-11-04T13:18:58.051Z,,,,,,,,,,,,,,,,53,,,,,,,,,,,,,,503.5940000014889,,response,,,99,,,,,,Space,keypress(Space),,,,,---- -- ----- -- ------ - ------- --- ----------<br>------------- ------ ------ ---- that ------- ----- -- ----<br>-------- ------- -- ---------- --- - --- ----- ----- ----<br>---- --- --- ----- --- ---- ---- ------- ----- ---- -------<br>--- --- -- ----- -- --- ---- -- --- ---- -- ------ ------<br>--- ----- -- ----,49229.900000002235,49229.10000000149,48708.836,48710.300000000745,48725.506,49242.263,,13,that
screen,html.Screen,0_2_0_1_14,2021-11-04T13:18:58.595Z,,,,,,,,,,,,,,,,53,,,,,,,,,,,,,,530.8370000014911,,response,,,99,,,,,,Space,keypress(Space),,,,,---- -- ----- -- ------ - ------- --- ----------<br>------------- ------ ------ ---- ---- feeling ----- -- ----<br>-------- ------- -- ---------- --- - --- ----- ----- ----<br>---- --- --- ----- --- ---- ---- ------- ----- ---- -------<br>--- --- -- ----- -- --- ---- -- --- ---- -- ------ ------<br>--- ----- -- ----,49774,49773.10000000149,49225.593,49230.199999999255,49242.263,49775.82,,14,feeling
screen,html.Screen,0_2_0_1_15,2021-11-04T13:18:59.163Z,,,,,,,,,,,,,,,,53,,,,,,,,,,,,,,565.2800000014904,,response,,,99,,,,,,Space,keypress(Space),,,,,---- -- ----- -- ------ - ------- --- ----------<br>------------- ------ ------ ---- ---- ------- close -- ----<br>-------- ------- -- ---------- --- - --- ----- ----- ----<br>---- --- --- ----- --- ---- ---- ------- ----- ---- -------<br>--- --- -- ----- -- --- ---- -- --- ---- -- ------ ------<br>--- ----- -- ----,50341.900000002235,50341.10000000149,49759.149,49774.10000000149,49775.82,50359.072,,15,close
screen,html.Screen,0_2_0_1_16,2021-11-04T13:18:59.707Z,,,,,,,,,,,,,,,,53,,,,,,,,,,,,,,525.9279999999999,,response,,,99,,,,,,Space,keypress(Space),,,,,---- -- ----- -- ------ - ------- --- ----------<br>------------- ------ ------ ---- ---- ------- ----- to ----<br>-------- ------- -- ---------- --- - --- ----- ----- ----<br>---- --- --- ----- --- ---- ---- ------- ----- ---- -------<br>--- --- -- ----- -- --- ---- -- --- ---- -- ------ ------<br>--- ----- -- ----,50885.800000000745,50885,50342.404,50342.10000000149,50359.072,50892.773,,16,to
screen,html.Screen,0_2_0_1_17,2021-11-04T13:19:00.235Z,,,,,,,,,,,,,,,,53,,,,,,,,,,,,,,520.1270000022341,,response,,,99,,,,,,Space,keypress(Space),,,,,---- -- ----- -- ------ - ------- --- ----------<br>------------- ------ ------ ---- ---- ------- ----- -- your<br>-------- ------- -- ---------- --- - --- ----- ----- ----<br>---- --- --- ----- --- ---- ---- ------- ----- ---- -------<br>--- --- -- ----- -- --- ---- -- --- ---- -- ------ ------<br>--- ----- -- ----,51413.800000000745,51412.900000002235,50876.102,50886.10000000149,50892.773,51426.175,,17,your
screen,html.Screen,0_2_0_1_18,2021-11-04T13:19:00.771Z,,,,,,,,,,,,,,,,53,,,,,,,,,,,,,,522.8249999999971,,response,,,99,,,,,,Space,keypress(Space),,,,,---- -- ----- -- ------ - ------- --- ----------<br>------------- ------ ------ ---- ---- ------- ----- -- ----<br>romantic ------- -- ---------- --- - --- ----- ----- ----<br>---- --- --- ----- --- ---- ---- ------- ----- ---- -------<br>--- --- -- ----- -- --- ---- -- --- ---- -- ------ ------<br>--- ----- -- ----,51949.800000000745,51949,51409.505,51414,51426.175,51959.627,,18,romantic
screen,html.Screen,0_2_0_1_19,2021-11-04T13:19:01.300Z,,,,,,,,,,,,,,,,53,,,,,,,,,,,,,,517.5729999992545,,response,,,99,,,,,,Space,keypress(Space),,,,,---- -- ----- -- ------ - ------- --- ----------<br>------------- ------ ------ ---- ---- ------- ----- -- ----<br>-------- partner -- ---------- --- - --- ----- ----- ----<br>---- --- --- ----- --- ---- ---- ------- ----- ---- -------<br>--- --- -- ----- -- --- ---- -- --- ---- -- ------ ------<br>--- ----- -- ----,52478,52477.199999999255,51942.957,51950,51959.627,52493.155,,19,partner
screen,html.Screen,0_2_0_1_20,2021-11-04T13:19:01.867Z,,,,,,,,,,,,,,,,53,,,,,,,,,,,,,,551.7450000022363,,response,,,99,,,,,,Space,keypress(Space),,,,,---- -- ----- -- ------ - ------- --- ----------<br>------------- ------ ------ ---- ---- ------- ----- -- ----<br>-------- ------- is ---------- --- - --- ----- ----- ----<br>---- --- --- ----- --- ---- ---- ------- ----- ---- -------<br>--- --- -- ----- -- --- ---- -- --- ---- -- ------ ------<br>--- ----- -- ----,53045.699999999255,53044.900000002235,52476.484,52478.300000000745,52493.155,53059.9,,20,is
screen,html.Screen,0_2_0_1_21,2021-11-04T13:19:02.499Z,,,,,,,,,,,,,,,,53,,,,,,,,,,,,,,617.0000000022337,,response,,,99,,,,,,Space,keypress(Space),,,,,---- -- ----- -- ------ - ------- --- ----------<br>------------- ------ ------ ---- ---- ------- ----- -- ----<br>-------- ------- -- paramount. --- - --- ----- ----- ----<br>---- --- --- ----- --- ---- ---- ------- ----- ---- -------<br>--- --- -- ----- -- --- ---- -- --- ---- -- ------ ------<br>--- ----- -- ----,53677.699999999255,53676.900000002235,53043.23,53045.900000002235,53059.9,53693.457,,21,paramount.
screen,html.Screen,0_2_0_1_22,2021-11-04T13:19:03.147Z,,,,,,,,,,,,,,,,53,,,,,,,,,,,,,,631.3430000007429,,response,,,99,,,,,,Space,keypress(Space),,,,,---- -- ----- -- ------ - ------- --- ----------<br>------------- ------ ------ ---- ---- ------- ----- -- ----<br>-------- ------- -- ---------- But - --- ----- ----- ----<br>---- --- --- ----- --- ---- ---- ------- ----- ---- -------<br>--- --- -- ----- -- --- ---- -- --- ---- -- ------ ------<br>--- ----- -- ----,54325.60000000149,54324.800000000745,53676.786,53678.199999999255,53693.457,54326.877,,22,But
screen,html.Screen,0_2_0_1_23,2021-11-04T13:19:03.715Z,,,,,,,,,,,,,,,,53,,,,,,,,,,,,,,565.8229999992545,,response,,,99,,,,,,Space,keypress(Space),,,,,---- -- ----- -- ------ - ------- --- ----------<br>------------- ------ ------ ---- ---- ------- ----- -- ----<br>-------- ------- -- ---------- --- a --- ----- ----- ----<br>---- --- --- ----- --- ---- ---- ------- ----- ---- -------<br>--- --- -- ----- -- --- ---- -- --- ---- -- ------ ------<br>--- ----- -- ----,54893.60000000149,54892.699999999255,54310.207,54325.800000000745,54326.877,54910.367,,23,a
screen,html.Screen,0_2_0_1_24,2021-11-04T13:19:04.243Z,,,,,,,,,,,,,,,,53,,,,,,,,,,,,,,510.3329999992566,,response,,,99,,,,,,Space,keypress(Space),,,,,---- -- ----- -- ------ - ------- --- ----------<br>------------- ------ ------ ---- ---- ------- ----- -- ----<br>-------- ------- -- ---------- --- - new ----- ----- ----<br>---- --- --- ----- --- ---- ---- ------- ----- ---- -------<br>--- --- -- ----- -- --- ---- -- --- ---- -- ------ ------<br>--- ----- -- ----,55421.5,55420.699999999255,54893.697,54893.900000002235,54910.367,55427.169,,24,new
screen,html.Screen,0_2_0_1_25,2021-11-04T13:19:04.707Z,,,,,,,,,,,,,,,,53,,,,,,,,,,,,,,457.4310000014884,,response,,,99,,,,,,Space,keypress(Space),,,,,---- -- ----- -- ------ - ------- --- ----------<br>------------- ------ ------ ---- ---- ------- ----- -- ----<br>-------- ------- -- ---------- --- - --- study ----- ----<br>---- --- --- ----- --- ---- ---- ------- ----- ---- -------<br>--- --- -- ----- -- --- ---- -- --- ---- -- ------ ------<br>--- ----- -- ----,55885.5,55884.60000000149,55410.499,55421.800000000745,55427.169,55893.942,,25,study
screen,html.Screen,0_2_0_1_26,2021-11-04T13:19:05.179Z,,,,,,,,,,,,,,,,53,,,,,,,,,,,,,,462.7579999992522,,response,,,99,,,,,,Space,keypress(Space),,,,,---- -- ----- -- ------ - ------- --- ----------<br>------------- ------ ------ ---- ---- ------- ----- -- ----<br>-------- ------- -- ---------- --- - --- ----- finds ----<br>---- --- --- ----- --- ---- ---- ------- ----- ---- -------<br>--- --- -- ----- -- --- ---- -- --- ---- -- ------ ------<br>--- ----- -- ----,56357.5,56356.699999999255,55877.272,55885.699999999255,55893.942,56360.737,,26,finds
screen,html.Screen,0_2_0_1_27,2021-11-04T13:19:05.611Z,,,,,,,,,,,,,,,,53,,,,,,,,,,,,,,427.8630000014891,,response,,,99,,,,,,Space,keypress(Space),,,,,---- -- ----- -- ------ - ------- --- ----------<br>------------- ------ ------ ---- ---- ------- ----- -- ----<br>-------- ------- -- ---------- --- - --- ----- ----- that<br>---- --- --- ----- --- ---- ---- ------- ----- ---- -------<br>--- --- -- ----- -- --- ---- -- --- ---- -- ------ ------<br>--- ----- -- ----,56789.400000002235,56788.60000000149,56344.067,56357.800000000745,56360.737,56794.184,,27,that
screen,html.Screen,0_2_0_1_28,2021-11-04T13:19:06.099Z,,,,,,,,,,,,,,,,53,,,,,,,,,,,,,,482.416000001489,,response,,,99,,,,,,Space,keypress(Space),,,,,---- -- ----- -- ------ - ------- --- ----------<br>------------- ------ ------ ---- ---- ------- ----- -- ----<br>-------- ------- -- ---------- --- - --- ----- ----- ----<br>it's --- --- ----- --- ---- ---- ------- ----- ---- -------<br>--- --- -- ----- -- --- ---- -- --- ---- -- ------ ------<br>--- ----- -- ----,57277.400000002235,57276.60000000149,56777.514,56789.699999999255,56794.184,57294.292,,28,it's
screen,html.Screen,0_2_0_1_29,2021-11-04T13:19:06.579Z,,,,,,,,,,,,,,,,53,,,,,,,,,,,,,,462.2079999999987,,response,,,99,,,,,,Space,keypress(Space),,,,,---- -- ----- -- ------ - ------- --- ----------<br>------------- ------ ------ ---- ---- ------- ----- -- ----<br>-------- ------- -- ---------- --- - --- ----- ----- ----<br>---- not --- ----- --- ---- ---- ------- ----- ---- -------<br>--- --- -- ----- -- --- ---- -- --- ---- -- ------ ------<br>--- ----- -- ----,57757.400000002235,57756.5,57277.622,57277.699999999255,57294.292,57761.129,,29,not
screen,html.Screen,0_2_0_1_30,2021-11-04T13:19:07.035Z,,,,,,,,,,,,,,,,53,,,,,,,,,,,,,,451.3709999999992,,response,,,99,,,,,,Space,keypress(Space),,,,,---- -- ----- -- ------ - ------- --- ----------<br>------------- ------ ------ ---- ---- ------- ----- -- ----<br>-------- ------- -- ---------- --- - --- ----- ----- ----<br>---- --- how ----- --- ---- ---- ------- ----- ---- -------<br>--- --- -- ----- -- --- ---- -- --- ---- -- ------ ------<br>--- ----- -- ----,58213.300000000745,58212.5,57744.458,57757.60000000149,57761.129,58227.725,,30,how
screen,html.Screen,0_2_0_1_31,2021-11-04T13:19:07.483Z,,,,,,,,,,,,,,,,53,,,,,,,,,,,,,,432.77500000000146,,response,,,99,,,,,,Space,keypress(Space),,,,,---- -- ----- -- ------ - ------- --- ----------<br>------------- ------ ------ ---- ---- ------- ----- -- ----<br>-------- ------- -- ---------- --- - --- ----- ----- ----<br>---- --- --- close --- ---- ---- ------- ----- ---- -------<br>--- --- -- ----- -- --- ---- -- --- ---- -- ------ ------<br>--- ----- -- ----,58661.300000000745,58660.5,58211.057,58213.60000000149,58227.725,58678.074,,31,close
screen,html.Screen,0_2_0_1_32,2021-11-04T13:19:07.963Z,,,,,,,,,,,,,,,,53,,,,,,,,,,,,,,462.4259999999995,,response,,,99,,,,,,Space,keypress(Space),,,,,---- -- ----- -- ------ - ------- --- ----------<br>------------- ------ ------ ---- ---- ------- ----- -- ----<br>-------- ------- -- ---------- --- - --- ----- ----- ----<br>---- --- --- ----- you ---- ---- ------- ----- ---- -------<br>--- --- -- ----- -- --- ---- -- --- ---- -- ------ ------<br>--- ----- -- ----,59141.199999999255,59140.5,58661.402,58661.60000000149,58678.074,59144.768,,32,you
screen,html.Screen,0_2_0_1_33,2021-11-04T13:19:08.443Z,,,,,,,,,,,,,,,,53,,,,,,,,,,,,,,475.6320000022388,,response,,,99,,,,,,Space,keypress(Space),,,,,---- -- ----- -- ------ - ------- --- ----------<br>------------- ------ ------ ---- ---- ------- ----- -- ----<br>-------- ------- -- ---------- --- - --- ----- ----- ----<br>---- --- --- ----- --- feel ---- ------- ----- ---- -------<br>--- --- -- ----- -- --- ---- -- --- ---- -- ------ ------<br>--- ----- -- ----,59621.199999999255,59620.400000002235,59128.098,59141.5,59144.768,59628.226,,33,feel
screen,html.Screen,0_2_0_1_34,2021-11-04T13:19:08.927Z,,,,,,,,,,,,,,,,53,,,,,,,,,,,,,,472.1740000022328,,response,,,99,,,,,,Space,keypress(Space),,,,,---- -- ----- -- ------ - ------- --- ----------<br>------------- ------ ------ ---- ---- ------- ----- -- ----<br>-------- ------- -- ---------- --- - --- ----- ----- ----<br>---- --- --- ----- --- ---- that ------- ----- ---- -------<br>--- --- -- ----- -- --- ---- -- --- ---- -- ------ ------<br>--- ----- -- ----,60101.400000002235,60100.400000002235,59611.556,59621.5,59628.226,60111.522,,34,that
screen,html.Screen,0_2_0_1_35,2021-11-04T13:19:09.463Z,,,,,,,,,,,,,,,,53,,,,,,,,,,,,,,524.878000002238,,response,,,99,,,,,,Space,keypress(Space),,,,,---- -- ----- -- ------ - ------- --- ----------<br>------------- ------ ------ ---- ---- ------- ----- -- ----<br>-------- ------- -- ---------- --- - --- ----- ----- ----<br>---- --- --- ----- --- ---- ---- matters ----- ---- -------<br>--- --- -- ----- -- --- ---- -- --- ---- -- ------ ------<br>--- ----- -- ----,60637.199999999255,60636.400000002235,60094.854,60101.60000000149,60111.522,60645.239,,35,matters
screen,html.Screen,0_2_0_1_36,2021-11-04T13:19:10.135Z,,,,,,,,,,,,,,,,53,,,,,,,,,,,,,,663.0610000007437,,response,,,99,,,,,,Space,keypress(Space),,,,,"---- -- ----- -- ------ - ------- --- ----------<br>------------- ------ ------ ---- ---- ------- ----- -- ----<br>-------- ------- -- ---------- --- - --- ----- ----- ----<br>---- --- --- ----- --- ---- ---- ------- most, ---- -------<br>--- --- -- ----- -- --- ---- -- --- ---- -- ------ ------<br>--- ----- -- ----",61309.400000002235,61308.300000000745,60628.567,60637.400000002235,60645.239,61311.96,,36,"most,"
screen,html.Screen,0_2_0_1_37,2021-11-04T13:19:10.727Z,,,,,,,,,,,,,,,,53,,,,,,,,,,,,,,588.3400000007459,,response,,,99,,,,,,Space,keypress(Space),,,,,---- -- ----- -- ------ - ------- --- ----------<br>------------- ------ ------ ---- ---- ------- ----- -- ----<br>-------- ------- -- ---------- --- - --- ----- ----- ----<br>---- --- --- ----- --- ---- ---- ------- ----- it's -------<br>--- --- -- ----- -- --- ---- -- --- ---- -- ------ ------<br>--- ----- -- ----,61901.10000000149,61900.300000000745,61295.29,61309.699999999255,61311.96,61912.096,,37,it's
screen,html.Screen,0_2_0_1_38,2021-11-04T13:19:11.263Z,,,,,,,,,,,,,,,,53,,,,,,,,,,,,,,524.2040000007473,,response,,,99,,,,,,Space,keypress(Space),,,,,---- -- ----- -- ------ - ------- --- ----------<br>------------- ------ ------ ---- ---- ------- ----- -- ----<br>-------- ------- -- ---------- --- - --- ----- ----- ----<br>---- --- --- ----- --- ---- ---- ------- ----- ---- whether<br>--- --- -- ----- -- --- ---- -- --- ---- -- ------ ------<br>--- ----- -- ----,62437,62436.300000000745,61895.426,61901.300000000745,61912.096,62445.627,,38,whether
screen,html.Screen,0_2_0_1_39,2021-11-04T13:19:11.767Z,,,,,,,,,,,,,,,,53,,,,,,,,,,,,,,494.8729999999996,,response,,,99,,,,,,Space,keypress(Space),,,,,---- -- ----- -- ------ - ------- --- ----------<br>------------- ------ ------ ---- ---- ------- ----- -- ----<br>-------- ------- -- ---------- --- - --- ----- ----- ----<br>---- --- --- ----- --- ---- ---- ------- ----- ---- -------<br>you --- -- ----- -- --- ---- -- --- ---- -- ------ ------<br>--- ----- -- ----,62941.400000002235,62940.5,62428.956,62437.300000000745,62445.627,62945.712,,39,you
screen,html.Screen,0_2_0_1_40,2021-11-04T13:19:12.303Z,,,,,,,,,,,,,,,,53,,,,,,,,,,,,,,530.4879999992554,,response,,,99,,,,,,Space,keypress(Space),,,,,---- -- ----- -- ------ - ------- --- ----------<br>------------- ------ ------ ---- ---- ------- ----- -- ----<br>-------- ------- -- ---------- --- - --- ----- ----- ----<br>---- --- --- ----- --- ---- ---- ------- ----- ---- -------<br>--- are -- ----- -- --- ---- -- --- ---- -- ------ ------<br>--- ----- -- ----,63477,63476.199999999255,62929.042,62941.60000000149,62945.712,63479.175,,40,are
screen,html.Screen,0_2_0_1_41,2021-11-04T13:19:12.791Z,,,,,,,,,,,,,,,,53,,,,,,,,,,,,,,484.9250000014872,,response,,,99,,,,,,Space,keypress(Space),,,,,---- -- ----- -- ------ - ------- --- ----------<br>------------- ------ ------ ---- ---- ------- ----- -- ----<br>-------- ------- -- ---------- --- - --- ----- ----- ----<br>---- --- --- ----- --- ---- ---- ------- ----- ---- -------<br>--- --- as ----- -- --- ---- -- --- ---- -- ------ ------<br>--- ----- -- ----,63964.900000002235,63964.10000000149,63462.505,63477.199999999255,63479.175,63979.285,,41,as
screen,html.Screen,0_2_0_1_42,2021-11-04T13:19:13.287Z,,,,,,,,,,,,,,,,53,,,,,,,,,,,,,,480.91499999925145,,response,,,99,,,,,,Space,keypress(Space),,,,,---- -- ----- -- ------ - ------- --- ----------<br>------------- ------ ------ ---- ---- ------- ----- -- ----<br>-------- ------- -- ---------- --- - --- ----- ----- ----<br>---- --- --- ----- --- ---- ---- ------- ----- ---- -------<br>--- --- -- close -- --- ---- -- --- ---- -- ------ ------<br>--- ----- -- ----,64461,64460.199999999255,63962.615,63965.199999999255,63979.285,64462.796,,42,close
screen,html.Screen,0_2_0_1_43,2021-11-04T13:19:13.743Z,,,,,,,,,,,,,,,,53,,,,,,,,,,,,,,453.304000001488,,response,,,99,,,,,,Space,keypress(Space),,,,,---- -- ----- -- ------ - ------- --- ----------<br>------------- ------ ------ ---- ---- ------- ----- -- ----<br>-------- ------- -- ---------- --- - --- ----- ----- ----<br>---- --- --- ----- --- ---- ---- ------- ----- ---- -------<br>--- --- -- ----- as --- ---- -- --- ---- -- ------ ------<br>--- ----- -- ----,64916.900000002235,64916.10000000149,64446.125,64461.10000000149,64462.796,64929.514,,43,as
screen,html.Screen,0_2_0_1_44,2021-11-04T13:19:14.167Z,,,,,,,,,,,,,,,,53,,,,,,,,,,,,,,410.58600000148726,,response,,,99,,,,,,Space,keypress(Space),,,,,---- -- ----- -- ------ - ------- --- ----------<br>------------- ------ ------ ---- ---- ------- ----- -- ----<br>-------- ------- -- ---------- --- - --- ----- ----- ----<br>---- --- --- ----- --- ---- ---- ------- ----- ---- -------<br>--- --- -- ----- -- you ---- -- --- ---- -- ------ ------<br>--- ----- -- ----,65340.900000002235,65340.10000000149,64912.844,64917.10000000149,64929.514,65346.345,,44,you
screen,html.Screen,0_2_0_1_45,2021-11-04T13:19:14.631Z,,,,,,,,,,,,,,,,53,,,,,,,,,,,,,,457.75500000148895,,response,,,99,,,,,,Space,keypress(Space),,,,,---- -- ----- -- ------ - ------- --- ----------<br>------------- ------ ------ ---- ---- ------- ----- -- ----<br>-------- ------- -- ---------- --- - --- ----- ----- ----<br>---- --- --- ----- --- ---- ---- ------- ----- ---- -------<br>--- --- -- ----- -- --- want -- --- ---- -- ------ ------<br>--- ----- -- ----,65804.90000000224,65804.10000000149,65329.674,65341.10000000149,65346.345,65813.092,,45,want
screen,html.Screen,0_2_0_1_46,2021-11-04T13:19:15.055Z,,,,,,,,,,,,,,,,53,,,,,,,,,,,,,,415.0080000014859,,response,,,99,,,,,,Space,keypress(Space),,,,,---- -- ----- -- ------ - ------- --- ----------<br>------------- ------ ------ ---- ---- ------- ----- -- ----<br>-------- ------- -- ---------- --- - --- ----- ----- ----<br>---- --- --- ----- --- ---- ---- ------- ----- ---- -------<br>--- --- -- ----- -- --- ---- to --- ---- -- ------ ------<br>--- ----- -- ----,66228.90000000224,66228.10000000149,65796.422,65805.10000000149,65813.092,66229.865,,46,to
screen,html.Screen,0_2_0_1_47,2021-11-04T13:19:15.470Z,,,,,,,,,,,,,,,,53,,,,,,,,,,,,,,414.13499999999476,,response,,,99,,,,,,Space,keypress(Space),,,,,"---- -- ----- -- ------ - ------- --- ----------<br>------------- ------ ------ ---- ---- ------- ----- -- ----<br>-------- ------- -- ---------- --- - --- ----- ----- ----<br>---- --- --- ----- --- ---- ---- ------- ----- ---- -------<br>--- --- -- ----- -- --- ---- -- be, ---- -- ------ ------<br>--- ----- -- ----",66644.80000000075,66644,66213.195,66229.19999999925,66229.865,66646.501,,47,"be,"
screen,html.Screen,0_2_0_1_48,2021-11-04T13:19:15.942Z,,,,,,,,,,,,,,,,53,,,,,,,,,,,,,,469.39900000223133,,response,,,99,,,,,,Space,keypress(Space),,,,,---- -- ----- -- ------ - ------- --- ----------<br>------------- ------ ------ ---- ---- ------- ----- -- ----<br>-------- ------- -- ---------- --- - --- ----- ----- ----<br>---- --- --- ----- --- ---- ---- ------- ----- ---- -------<br>--- --- -- ----- -- --- ---- -- --- even -- ------ ------<br>--- ----- -- ----,67116.69999999925,67115.90000000224,66629.833,66645.10000000149,66646.501,67130.182,,48,even
screen,html.Screen,0_2_0_1_49,2021-11-04T13:19:16.342Z,,,,,,,,,,,,,,,,53,,,,,,,,,,,,,,385.7180000022345,,response,,,99,,,,,,Space,keypress(Space),,,,,---- -- ----- -- ------ - ------- --- ----------<br>------------- ------ ------ ---- ---- ------- ----- -- ----<br>-------- ------- -- ---------- --- - --- ----- ----- ----<br>---- --- --- ----- --- ---- ---- ------- ----- ---- -------<br>--- --- -- ----- -- --- ---- -- --- ---- if ------ ------<br>--- ----- -- ----,67516.69999999925,67515.90000000224,67113.51,67117.10000000149,67130.182,67530.175,,49,if
screen,html.Screen,0_2_0_1_50,2021-11-04T13:19:16.814Z,,,,,,,,,,,,,,,,53,,,,,,,,,,,,,,457.72500000223226,,response,,,99,,,,,,Space,keypress(Space),,,,,---- -- ----- -- ------ - ------- --- ----------<br>------------- ------ ------ ---- ---- ------- ----- -- ----<br>-------- ------- -- ---------- --- - --- ----- ----- ----<br>---- --- --- ----- --- ---- ---- ------- ----- ---- -------<br>--- --- -- ----- -- --- ---- -- --- ---- -- that's ------<br>--- ----- -- ----,67988.80000000075,67987.90000000224,67513.505,67517,67530.175,67997.033,,50,that's
screen,html.Screen,0_2_0_1_51,2021-11-04T13:19:17.246Z,,,,,,,,,,,,,,,,53,,,,,,,,,,,,,,422.86700000223937,,response,,,99,,,,,,Space,keypress(Space),,,,,---- -- ----- -- ------ - ------- --- ----------<br>------------- ------ ------ ---- ---- ------- ----- -- ----<br>-------- ------- -- ---------- --- - --- ----- ----- ----<br>---- --- --- ----- --- ---- ---- ------- ----- ---- -------<br>--- --- -- ----- -- --- ---- -- --- ---- -- ------ really<br>--- ----- -- ----,68420.69999999925,68419.90000000224,67980.362,67989,67997.033,68430.285,,51,really
screen,html.Screen,0_2_0_1_52,2021-11-04T13:19:17.734Z,,,,,,,,,,,,,,,,53,,,,,,,,,,,,,,477.51500000074157,,response,,,99,,,,,,Space,keypress(Space),,,,,---- -- ----- -- ------ - ------- --- ----------<br>------------- ------ ------ ---- ---- ------- ----- -- ----<br>-------- ------- -- ---------- --- - --- ----- ----- ----<br>---- --- --- ----- --- ---- ---- ------- ----- ---- -------<br>--- --- -- ----- -- --- ---- -- --- ---- -- ------ ------<br>not ----- -- ----,68908.60000000149,68907.80000000075,68413.617,68420.90000000224,68430.285,68913.911,,52,not
screen,html.Screen,0_2_0_1_53,2021-11-04T13:19:18.190Z,,,,,,,,,,,,,,,,53,,,,,,,,,,,,,,449.8890000007523,,response,,,99,,,,,,Space,keypress(Space),,,,,---- -- ----- -- ------ - ------- --- ----------<br>------------- ------ ------ ---- ---- ------- ----- -- ----<br>-------- ------- -- ---------- --- - --- ----- ----- ----<br>---- --- --- ----- --- ---- ---- ------- ----- ---- -------<br>--- --- -- ----- -- --- ---- -- --- ---- -- ------ ------<br>--- close -- ----,69364.80000000075,69363.80000000075,68897.24,68908.90000000224,68913.911,69380.648,,53,close
screen,html.Screen,0_2_0_1_54,2021-11-04T13:19:18.606Z,,,,,,,,,,,,,,,,53,,,,,,,,,,,,,,399.152000000744,,response,,,99,,,,,,Space,keypress(Space),,,,,---- -- ----- -- ------ - ------- --- ----------<br>------------- ------ ------ ---- ---- ------- ----- -- ----<br>-------- ------- -- ---------- --- - --- ----- ----- ----<br>---- --- --- ----- --- ---- ---- ------- ----- ---- -------<br>--- --- -- ----- -- --- ---- -- --- ---- -- ------ ------<br>--- ----- at ----,69780.60000000149,69779.80000000075,69363.978,69365,69380.648,69797.422,,54,at
screen,html.Screen,0_2_0_1_55,2021-11-04T13:19:19.078Z,,,,,,,,,,,,,,,,53,,,,,,,,,,,,,,454.3780000007391,,response,,,99,,,,,,Space,keypress(Space),,,,,---- -- ----- -- ------ - ------- --- ----------<br>------------- ------ ------ ---- ---- ------- ----- -- ----<br>-------- ------- -- ---------- --- - --- ----- ----- ----<br>---- --- --- ----- --- ---- ---- ------- ----- ---- -------<br>--- --- -- ----- -- --- ---- -- --- ---- -- ------ ------<br>--- ----- -- all.,70252.60000000149,70251.80000000075,69780.752,69780.90000000224,69797.422,70264.19,,55,all.
Item 99,flow.Loop,0_2_0_1,2021-11-04T13:19:19.083Z,,,,,,,,,,,,,,,,,,,,,,,,,,,,,,28694.966000000742,,completion,,,,A,,,,,,,,,,silence,,70256.90000000224,70251.80000000075,41540.165,41546.60000000149,41556.834,70264.19,,,
Question 1,html.Screen,0_2_0_2,2021-11-04T13:19:24.574Z,,,,,,,,,,,,,,,,,,,,,,,,,,,true,FALSE,,5482.910000001488,,response,,,99,A,,,,,FALSE,click #choice-2,,,,silence,,75748.60000000149,75747.10000000149,70247.52,70257.19999999925,70264.19,75748.902,,,
Question 2,html.Screen,0_2_0_3,2021-11-04T13:19:28.470Z,,,,,,,,,,,,,,,,,,,,,,,,,,,true,TRUE,,3893.9980000022333,,response,,,99,A,,,,,TRUE,click #choice-1,,,,silence,,79644.10000000149,79642.90000000224,75732.232,75748.90000000224,75748.902,79649.87,,,
Item 99,flow.Sequence,0_2_0,2021-11-04T13:19:28.470Z,,,,,,,,,,,,,,,,,,,,,,,,,,,,,,48088.33100000223,,completion,,,,,,,,,,,,,,,,79644.60000000149,79642.90000000224,31537.898,31544.199999999255,31554.569,79649.87,,,
Holding screen,html.Screen,0_2_1_0,2021-11-04T13:19:38.462Z,,,,,,,,,,,,,,,,,,,,,,,,,,,,,,10002.398000000001,,timeout,,,,,,,,,,,,,,,,89636.60000000149,89635.598,79633.2,79644.90000000224,79649.87,89652.268,,,
screen,html.Screen,0_2_1_1_0,2021-11-04T13:19:39.149Z,,,,,,,,,,,,,,,,54,,,,,,,,,,,,,,670.6320000022388,,response,,,100,,,,,,Space,keypress(Space),,,,,At --- ---- --- ------ ----- ------- ---- -- --- ------- --<br>------- ---------- ------ -- ----- -- ----- -- ---- ------<br>--- ----- --- --- ------ -------- ----- --- ------ ----- --<br>----- ----- ---------- --- --- ------ ------ ---- -- ------<br>------- --- ------ ----- --- ---- ------- -- ---- --- --<br>------- ------,90323.80000000075,90322.90000000224,89635.598,89637,89652.268,90335.868,,0,At
screen,html.Screen,0_2_1_1_1,2021-11-04T13:19:39.677Z,,,,,,,,,,,,,,,,54,,,,,,,,,,,,,,514.6319999999978,,response,,,100,,,,,,Space,keypress(Space),,,,,-- the ---- --- ------ ----- ------- ---- -- --- ------- --<br>------- ---------- ------ -- ----- -- ----- -- ---- ------<br>--- ----- --- --- ------ -------- ----- --- ------ ----- --<br>----- ----- ---------- --- --- ------ ------ ---- -- ------<br>------- --- ------ ----- --- ---- ------- -- ---- --- --<br>------- ------,90851.30000000075,90850.5,90319.197,90324.10000000149,90335.868,90852.685,,1,the
screen,html.Screen,0_2_1_1_2,2021-11-04T13:19:40.229Z,,,,,,,,,,,,,,,,54,,,,,,,,,,,,,,549.7150000022375,,response,,,100,,,,,,Space,keypress(Space),,,,,-- --- time --- ------ ----- ------- ---- -- --- ------- --<br>------- ---------- ------ -- ----- -- ----- -- ---- ------<br>--- ----- --- --- ------ -------- ----- --- ------ ----- --<br>----- ----- ---------- --- --- ------ ------ ---- -- ------<br>------- --- ------ ----- --- ---- ------- -- ---- --- --<br>------- ------,91403.30000000075,91402.40000000224,90836.014,90851.5,90852.685,91419.454,,2,time
screen,html.Screen,0_2_1_1_3,2021-11-04T13:19:40.709Z,,,,,,,,,,,,,,,,54,,,,,,,,,,,,,,462.94600000223727,,response,,,100,,,,,,Space,keypress(Space),,,,,-- --- ---- the ------ ----- ------- ---- -- --- ------- --<br>------- ---------- ------ -- ----- -- ----- -- ---- ------<br>--- ----- --- --- ------ -------- ----- --- ------ ----- --<br>----- ----- ---------- --- --- ------ ------ ---- -- ------<br>------- --- ------ ----- --- ---- ------- -- ---- --- --<br>------- ------,91883.19999999925,91882.40000000224,91402.784,91403.5,91419.454,91886.285,,3,the
screen,html.Screen,0_2_1_1_4,2021-11-04T13:19:41.189Z,,,,,,,,,,,,,,,,54,,,,,,,,,,,,,,476.1150000022317,,response,,,100,,,,,,Space,keypress(Space),,,,,-- --- ---- --- French ----- ------- ---- -- --- ------- --<br>------- ---------- ------ -- ----- -- ----- -- ---- ------<br>--- ----- --- --- ------ -------- ----- --- ------ ----- --<br>----- ----- ---------- --- --- ------ ------ ---- -- ------<br>------- --- ------ ----- --- ---- ------- -- ---- --- --<br>------- ------,92363.10000000149,92362.40000000224,91869.614,91883.40000000224,91886.285,92369.706,,4,French
screen,html.Screen,0_2_1_1_5,2021-11-04T13:19:41.677Z,,,,,,,,,,,,,,,,54,,,,,,,,,,,,,,480.59400000073947,,response,,,100,,,,,,Space,keypress(Space),,,,,-- --- ---- --- ------ crown ------- ---- -- --- ------- --<br>------- ---------- ------ -- ----- -- ----- -- ---- ------<br>--- ----- --- --- ------ -------- ----- --- ------ ----- --<br>----- ----- ---------- --- --- ------ ------ ---- -- ------<br>------- --- ------ ----- --- ---- ------- -- ---- --- --<br>------- ------,92851.10000000149,92850.30000000075,92353.036,92363.5,92369.706,92853.148,,5,crown
screen,html.Screen,0_2_1_1_6,2021-11-04T13:19:42.357Z,,,,,,,,,,,,,,,,54,,,,,,,,,,,,,,677.152000000744,,response,,,100,,,,,,Space,keypress(Space),,,,,-- --- ---- --- ------ ----- secured ---- -- --- ------- --<br>------- ---------- ------ -- ----- -- ----- -- ---- ------<br>--- ----- --- --- ------ -------- ----- --- ------ ----- --<br>----- ----- ---------- --- --- ------ ------ ---- -- ------<br>------- --- ------ ----- --- ---- ------- -- ---- --- --<br>------- ------,93531.10000000149,93530.30000000075,92836.478,92851.30000000075,92853.148,93536.634,,6,secured
screen,html.Screen,0_2_1_1_7,2021-11-04T13:19:42.837Z,,,,,,,,,,,,,,,,54,,,,,,,,,,,,,,473.56599999924947,,response,,,100,,,,,,Space,keypress(Space),,,,,-- --- ---- --- ------ ----- ------- much -- --- ------- --<br>------- ---------- ------ -- ----- -- ----- -- ---- ------<br>--- ----- --- --- ------ -------- ----- --- ------ ----- --<br>----- ----- ---------- --- --- ------ ------ ---- -- ------<br>------- --- ------ ----- --- ---- ------- -- ---- --- --<br>------- ------,94011,94010.19999999925,93519.964,93531.5,93536.634,94020.152,,7,much
screen,html.Screen,0_2_1_1_8,2021-11-04T13:19:43.309Z,,,,,,,,,,,,,,,,54,,,,,,,,,,,,,,462.0479999992531,,response,,,100,,,,,,Space,keypress(Space),,,,,-- --- ---- --- ------ ----- ------- ---- of --- ------- --<br>------- ---------- ------ -- ----- -- ----- -- ---- ------<br>--- ----- --- --- ------ -------- ----- --- ------ ----- --<br>----- ----- ---------- --- --- ------ ------ ---- -- ------<br>------- --- ------ ----- --- ---- ------- -- ---- --- --<br>------- ------,94482.90000000224,94482.19999999925,94003.481,94011.30000000075,94020.152,94486.881,,8,of
screen,html.Screen,0_2_1_1_9,2021-11-04T13:19:43.805Z,,,,,,,,,,,,,,,,54,,,,,,,,,,,,,,491.318999999261,,response,,,100,,,,,,Space,keypress(Space),,,,,-- --- ---- --- ------ ----- ------- ---- -- its ------- --<br>------- ---------- ------ -- ----- -- ----- -- ---- ------<br>--- ----- --- --- ------ -------- ----- --- ------ ----- --<br>----- ----- ---------- --- --- ------ ------ ---- -- ------<br>------- --- ------ ----- --- ---- ------- -- ---- --- --<br>------- ------,94979,94978.19999999925,94470.211,94483.30000000075,94486.881,94987.001,,9,its
screen,html.Screen,0_2_1_1_10,2021-11-04T13:19:44.277Z,,,,,,,,,,,,,,,,54,,,,,,,,,,,,,,463.1989999992511,,response,,,100,,,,,,Space,keypress(Space),,,,,-- --- ---- --- ------ ----- ------- ---- -- --- revenue --<br>------- ---------- ------ -- ----- -- ----- -- ---- ------<br>--- ----- --- --- ------ -------- ----- --- ------ ----- --<br>----- ----- ---------- --- --- ------ ------ ---- -- ------<br>------- --- ------ ----- --- ---- ------- -- ---- --- --<br>------- ------,95451,95450.19999999925,94970.331,94979.30000000075,94987.001,95453.798,,10,revenue
screen,html.Screen,0_2_1_1_11,2021-11-04T13:19:44.757Z,,,,,,,,,,,,,,,,54,,,,,,,,,,,,,,476.4019999992597,,response,,,100,,,,,,Space,keypress(Space),,,,,-- --- ---- --- ------ ----- ------- ---- -- --- ------- by<br>------- ---------- ------ -- ----- -- ----- -- ---- ------<br>--- ----- --- --- ------ -------- ----- --- ------ ----- --<br>----- ----- ---------- --- --- ------ ------ ---- -- ------<br>------- --- ------ ----- --- ---- ------- -- ---- --- --<br>------- ------,95931,95930.19999999925,95437.128,95451.19999999925,95453.798,95937.296,,11,by
screen,html.Screen,0_2_1_1_12,2021-11-04T13:19:45.213Z,,,,,,,,,,,,,,,,54,,,,,,,,,,,,,,448.804000001488,,response,,,100,,,,,,Space,keypress(Space),,,,,-- --- ---- --- ------ ----- ------- ---- -- --- ------- --<br>issuing ---------- ------ -- ----- -- ----- -- ---- ------<br>--- ----- --- --- ------ -------- ----- --- ------ ----- --<br>----- ----- ---------- --- --- ------ ------ ---- -- ------<br>------- --- ------ ----- --- ---- ------- -- ---- --- --<br>------- ------,96386.90000000224,96386.10000000149,95920.625,95931.19999999925,95937.296,96404.025,,12,issuing
screen,html.Screen,0_2_1_1_13,2021-11-04T13:19:45.829Z,,,,,,,,,,,,,,,,54,,,,,,,,,,,,,,598.0750000014959,,response,,,100,,,,,,Space,keypress(Space),,,,,-- --- ---- --- ------ ----- ------- ---- -- --- ------- --<br>------- government ------ -- ----- -- ----- -- ---- ------<br>--- ----- --- --- ------ -------- ----- --- ------ ----- --<br>----- ----- ---------- --- --- ------ ------ ---- -- ------<br>------- --- ------ ----- --- ---- ------- -- ---- --- --<br>------- ------,97002.90000000224,97002.10000000149,96387.355,96387.19999999925,96404.025,97004.176,,13,government
screen,html.Screen,0_2_1_1_14,2021-11-04T13:19:46.357Z,,,,,,,,,,,,,,,,54,,,,,,,,,,,,,,525.8239999999932,,response,,,100,,,,,,Space,keypress(Space),,,,,-- --- ---- --- ------ ----- ------- ---- -- --- ------- --<br>------- ---------- bonds. -- ----- -- ----- -- ---- ------<br>--- ----- --- --- ------ -------- ----- --- ------ ----- --<br>----- ----- ---------- --- --- ------ ------ ---- -- ------<br>------- --- ------ ----- --- ---- ------- -- ---- --- --<br>------- ------,97530.90000000224,97530,96987.506,97003.10000000149,97004.176,97537.611,,14,bonds.
screen,html.Screen,0_2_1_1_15,2021-11-04T13:19:48.620Z,,,,,,,,,,,,,,,,54,,,,,,,,,,,,,,2256.3889999999956,,response,,,100,,,,,,Space,keypress(Space),,,,,-- --- ---- --- ------ ----- ------- ---- -- --- ------- --<br>------- ---------- ------ In ----- -- ----- -- ---- ------<br>--- ----- --- --- ------ -------- ----- --- ------ ----- --<br>----- ----- ---------- --- --- ------ ------ ---- -- ------<br>------- --- ------ ----- --- ---- ------- -- ---- --- --<br>------- ------,99794.69999999925,99794,97520.941,97531.10000000149,97537.611,99804.975,,15,In
screen,html.Screen,0_2_1_1_16,2021-11-04T13:19:49.068Z,,,,,,,,,,,,,,,,54,,,,,,,,,,,,,,436.82500000073924,,response,,,100,,,,,,Space,keypress(Space),,,,,"-- --- ---- --- ------ ----- ------- ---- -- --- ------- --<br>------- ---------- ------ -- 1727, -- ----- -- ---- ------<br>--- ----- --- --- ------ -------- ----- --- ------ ----- --<br>----- ----- ---------- --- --- ------ ------ ---- -- ------<br>------- --- ------ ----- --- ---- ------- -- ---- --- --<br>------- ------",100242.60000000149,100241.80000000075,99788.304,99794.90000000224,99804.975,100254.953,,16,"1727,"
screen,html.Screen,0_2_1_1_17,2021-11-04T13:19:49.589Z,,,,,,,,,,,,,,,,54,,,,,,,,,,,,,,507.2469999992609,,response,,,100,,,,,,Space,keypress(Space),,,,,-- --- ---- --- ------ ----- ------- ---- -- --- ------- --<br>------- ---------- ------ -- ----- in ----- -- ---- ------<br>--- ----- --- --- ------ -------- ----- --- ------ ----- --<br>----- ----- ---------- --- --- ------ ------ ---- -- ------<br>------- --- ------ ----- --- ---- ------- -- ---- --- --<br>------- ------,100763,100762.19999999925,100238.283,100242.90000000224,100254.953,100771.795,,17,in
screen,html.Screen,0_2_1_1_18,2021-11-04T13:19:50.060Z,,,,,,,,,,,,,,,,54,,,,,,,,,,,,,,462.20500000000175,,response,,,100,,,,,,Space,keypress(Space),,,,,-- --- ---- --- ------ ----- ------- ---- -- --- ------- --<br>------- ---------- ------ -- ----- -- order -- ---- ------<br>--- ----- --- --- ------ -------- ----- --- ------ ----- --<br>----- ----- ---------- --- --- ------ ------ ---- -- ------<br>------- --- ------ ----- --- ---- ------- -- ---- --- --<br>------- ------,101234.80000000075,101234,100755.125,100763.19999999925,100771.795,101238.411,,18,order
screen,html.Screen,0_2_1_1_19,2021-11-04T13:19:50.516Z,,,,,,,,,,,,,,,,54,,,,,,,,,,,,,,451.28899999926216,,response,,,100,,,,,,Space,keypress(Space),,,,,-- --- ---- --- ------ ----- ------- ---- -- --- ------- --<br>------- ---------- ------ -- ----- -- ----- to ---- ------<br>--- ----- --- --- ------ -------- ----- --- ------ ----- --<br>----- ----- ---------- --- --- ------ ------ ---- -- ------<br>------- --- ------ ----- --- ---- ------- -- ---- --- --<br>------- ------,101690.5,101689.69999999925,101221.743,101235,101238.411,101705.42,,19,to
screen,html.Screen,0_2_1_1_20,2021-11-04T13:19:50.932Z,,,,,,,,,,,,,,,,54,,,,,,,,,,,,,,400.3800000007468,,response,,,100,,,,,,Space,keypress(Space),,,,,-- --- ---- --- ------ ----- ------- ---- -- --- ------- --<br>------- ---------- ------ -- ----- -- ----- -- save ------<br>--- ----- --- --- ------ -------- ----- --- ------ ----- --<br>----- ----- ---------- --- --- ------ ------ ---- -- ------<br>------- --- ------ ----- --- ---- ------- -- ---- --- --<br>------- ------,102106.60000000149,102105.80000000075,101688.748,101690.80000000075,101705.42,102122.131,,20,save
screen,html.Screen,0_2_1_1_21,2021-11-04T13:19:51.668Z,,,,,,,,,,,,,,,,54,,,,,,,,,,,,,,719.568999999261,,response,,,100,,,,,,Space,keypress(Space),,,,,"-- --- ---- --- ------ ----- ------- ---- -- --- ------- --<br>------- ---------- ------ -- ----- -- ----- -- ---- money,<br>--- ----- --- --- ------ -------- ----- --- ------ ----- --<br>----- ----- ---------- --- --- ------ ------ ---- -- ------<br>------- --- ------ ----- --- ---- ------- -- ---- --- --<br>------- ------",102842.40000000224,102841.69999999925,102105.461,102106.80000000075,102122.131,102855.619,,21,"money,"
screen,html.Screen,0_2_1_1_22,2021-11-04T13:19:52.204Z,,,,,,,,,,,,,,,,54,,,,,,,,,,,,,,521.9810000014841,,response,,,100,,,,,,Space,keypress(Space),,,,,-- --- ---- --- ------ ----- ------- ---- -- --- ------- --<br>------- ---------- ------ -- ----- -- ----- -- ---- ------<br>the ----- --- --- ------ -------- ----- --- ------ ----- --<br>----- ----- ---------- --- --- ------ ------ ---- -- ------<br>------- --- ------ ----- --- ---- ------- -- ---- --- --<br>------- ------,103378.40000000224,103377.60000000149,102838.949,102842.69999999925,102855.619,103388.917,,22,the
screen,html.Screen,0_2_1_1_23,2021-11-04T13:19:52.652Z,,,,,,,,,,,,,,,,54,,,,,,,,,,,,,,436.68300000148884,,response,,,100,,,,,,Space,keypress(Space),,,,,-- --- ---- --- ------ ----- ------- ---- -- --- ------- --<br>------- ---------- ------ -- ----- -- ----- -- ---- ------<br>--- state --- --- ------ -------- ----- --- ------ ----- --<br>----- ----- ---------- --- --- ------ ------ ---- -- ------<br>------- --- ------ ----- --- ---- ------- -- ---- --- --<br>------- ------,103826.40000000224,103825.60000000149,103372.249,103378.69999999925,103388.917,103839.27,,23,state
screen,html.Screen,0_2_1_1_24,2021-11-04T13:19:53.092Z,,,,,,,,,,,,,,,,54,,,,,,,,,,,,,,426.33000000148604,,response,,,100,,,,,,Space,keypress(Space),,,,,-- --- ---- --- ------ ----- ------- ---- -- --- ------- --<br>------- ---------- ------ -- ----- -- ----- -- ---- ------<br>--- ----- cut --- ------ -------- ----- --- ------ ----- --<br>----- ----- ---------- --- --- ------ ------ ---- -- ------<br>------- --- ------ ----- --- ---- ------- -- ---- --- --<br>------- ------,104266.40000000224,104265.60000000149,103822.599,103826.69999999925,103839.27,104272.659,,24,cut
screen,html.Screen,0_2_1_1_25,2021-11-04T13:19:53.500Z,,,,,,,,,,,,,,,,54,,,,,,,,,,,,,,400.84100000000035,,response,,,100,,,,,,Space,keypress(Space),,,,,-- --- ---- --- ------ ----- ------- ---- -- --- ------- --<br>------- ---------- ------ -- ----- -- ----- -- ---- ------<br>--- ----- --- the ------ -------- ----- --- ------ ----- --<br>----- ----- ---------- --- --- ------ ------ ---- -- ------<br>------- --- ------ ----- --- ---- ------- -- ---- --- --<br>------- ------,104674.30000000075,104673.5,104255.989,104266.60000000149,104272.659,104689.433,,25,the
screen,html.Screen,0_2_1_1_26,2021-11-04T13:19:54.108Z,,,,,,,,,,,,,,,,54,,,,,,,,,,,,,,592.1670000014856,,response,,,100,,,,,,Space,keypress(Space),,,,,-- --- ---- --- ------ ----- ------- ---- -- --- ------- --<br>------- ---------- ------ -- ----- -- ----- -- ---- ------<br>--- ----- --- --- bonds' -------- ----- --- ------ ----- --<br>----- ----- ---------- --- --- ------ ------ ---- -- ------<br>------- --- ------ ----- --- ---- ------- -- ---- --- --<br>------- ------,105282.40000000224,105281.60000000149,104672.763,104674.5,104689.433,105289.576,,26,bonds'
screen,html.Screen,0_2_1_1_27,2021-11-04T13:19:54.676Z,,,,,,,,,,,,,,,,54,,,,,,,,,,,,,,559.9239999999991,,response,,,100,,,,,,Space,keypress(Space),,,,,-- --- ---- --- ------ ----- ------- ---- -- --- ------- --<br>------- ---------- ------ -- ----- -- ----- -- ---- ------<br>--- ----- --- --- ------ interest ----- --- ------ ----- --<br>----- ----- ---------- --- --- ------ ------ ---- -- ------<br>------- --- ------ ----- --- ---- ------- -- ---- --- --<br>------- ------,105850.30000000075,105849.5,105272.906,105282.5,105289.576,105856.388,,27,interest
screen,html.Screen,0_2_1_1_28,2021-11-04T13:19:55.204Z,,,,,,,,,,,,,,,,54,,,,,,,,,,,,,,521.1119999999937,,response,,,100,,,,,,Space,keypress(Space),,,,,-- --- ---- --- ------ ----- ------- ---- -- --- ------- --<br>------- ---------- ------ -- ----- -- ----- -- ---- ------<br>--- ----- --- --- ------ -------- rate. --- ------ ----- --<br>----- ----- ---------- --- --- ------ ------ ---- -- ------<br>------- --- ------ ----- --- ---- ------- -- ---- --- --<br>------- ------,106378.30000000075,106377.5,105839.718,105850.5,105856.388,106389.836,,28,rate.
screen,html.Screen,0_2_1_1_29,2021-11-04T13:19:56.012Z,,,,,,,,,,,,,,,,54,,,,,,,,,,,,,,795.5640000022395,,response,,,100,,,,,,Space,keypress(Space),,,,,-- --- ---- --- ------ ----- ------- ---- -- --- ------- --<br>------- ---------- ------ -- ----- -- ----- -- ---- ------<br>--- ----- --- --- ------ -------- ----- The ------ ----- --<br>----- ----- ---------- --- --- ------ ------ ---- -- ------<br>------- --- ------ ----- --- ---- ------- -- ---- --- --<br>------- ------,107186.30000000075,107185.40000000224,106373.166,106378.5,106389.836,107190.032,,29,The
screen,html.Screen,0_2_1_1_30,2021-11-04T13:19:56.468Z,,,,,,,,,,,,,,,,54,,,,,,,,,,,,,,451.36800000222865,,response,,,100,,,,,,Space,keypress(Space),,,,,-- --- ---- --- ------ ----- ------- ---- -- --- ------- --<br>------- ---------- ------ -- ----- -- ----- -- ---- ------<br>--- ----- --- --- ------ -------- ----- --- market ----- --<br>----- ----- ---------- --- --- ------ ------ ---- -- ------<br>------- --- ------ ----- --- ---- ------- -- ---- --- --<br>------- ------,107642.19999999925,107641.40000000224,107173.362,107186.5,107190.032,107656.828,,30,market
screen,html.Screen,0_2_1_1_31,2021-11-04T13:19:56.876Z,,,,,,,,,,,,,,,,54,,,,,,,,,,,,,,392.472000000751,,response,,,100,,,,,,Space,keypress(Space),,,,,-- --- ---- --- ------ ----- ------- ---- -- --- ------- --<br>------- ---------- ------ -- ----- -- ----- -- ---- ------<br>--- ----- --- --- ------ -------- ----- --- ------ value --<br>----- ----- ---------- --- --- ------ ------ ---- -- ------<br>------- --- ------ ----- --- ---- ------- -- ---- --- --<br>------- ------,108050.10000000149,108049.30000000075,107640.158,107642.5,107656.828,108056.94,,31,value
screen,html.Screen,0_2_1_1_32,2021-11-04T13:19:57.300Z,,,,,,,,,,,,,,,,54,,,,,,,,,,,,,,416.36000000074273,,response,,,100,,,,,,Space,keypress(Space),,,,,-- --- ---- --- ------ ----- ------- ---- -- --- ------- --<br>------- ---------- ------ -- ----- -- ----- -- ---- ------<br>--- ----- --- --- ------ -------- ----- --- ------ ----- of<br>----- ----- ---------- --- --- ------ ------ ---- -- ------<br>------- --- ------ ----- --- ---- ------- -- ---- --- --<br>------- ------,108474.10000000149,108473.30000000075,108040.27,108050.30000000075,108056.94,108490.366,,32,of
screen,html.Screen,0_2_1_1_33,2021-11-04T13:19:57.740Z,,,,,,,,,,,,,,,,54,,,,,,,,,,,,,,423.03400000224065,,response,,,100,,,,,,Space,keypress(Space),,,,,-- --- ---- --- ------ ----- ------- ---- -- --- ------- --<br>------- ---------- ------ -- ----- -- ----- -- ---- ------<br>--- ----- --- --- ------ -------- ----- --- ------ ----- --<br>these ----- ---------- --- --- ------ ------ ---- -- ------<br>------- --- ------ ----- --- ---- ------- -- ---- --- --<br>------- ------,108914.10000000149,108913.40000000224,108473.696,108474.40000000224,108490.366,108923.867,,33,these
screen,html.Screen,0_2_1_1_34,2021-11-04T13:19:58.172Z,,,,,,,,,,,,,,,,54,,,,,,,,,,,,,,421.4330000007467,,response,,,100,,,,,,Space,keypress(Space),,,,,-- --- ---- --- ------ ----- ------- ---- -- --- ------- --<br>------- ---------- ------ -- ----- -- ----- -- ---- ------<br>--- ----- --- --- ------ -------- ----- --- ------ ----- --<br>----- bonds ---------- --- --- ------ ------ ---- -- ------<br>------- --- ------ ----- --- ---- ------- -- ---- --- --<br>------- ------,109346,109345.30000000075,108907.196,108914.40000000224,108923.867,109357.252,,34,bonds
screen,html.Screen,0_2_1_1_35,2021-11-04T13:19:58.628Z,,,,,,,,,,,,,,,,54,,,,,,,,,,,,,,443.9479999992618,,response,,,100,,,,,,Space,keypress(Space),,,,,"-- --- ---- --- ------ ----- ------- ---- -- --- ------- --<br>------- ---------- ------ -- ----- -- ----- -- ---- ------<br>--- ----- --- --- ------ -------- ----- --- ------ ----- --<br>----- ----- plummeted, --- --- ------ ------ ---- -- ------<br>------- --- ------ ----- --- ---- ------- -- ---- --- --<br>------- ------",109802,109801.19999999925,109340.582,109346.30000000075,109357.252,109807.412,,35,"plummeted,"
screen,html.Screen,0_2_1_1_36,2021-11-04T13:19:59.084Z,,,,,,,,,,,,,,,,54,,,,,,,,,,,,,,449.7879999992583,,response,,,100,,,,,,Space,keypress(Space),,,,,-- --- ---- --- ------ ----- ------- ---- -- --- ------- --<br>------- ---------- ------ -- ----- -- ----- -- ---- ------<br>--- ----- --- --- ------ -------- ----- --- ------ ----- --<br>----- ----- ---------- and --- ------ ------ ---- -- ------<br>------- --- ------ ----- --- ---- ------- -- ---- --- --<br>------- ------,110258,110257.19999999925,109790.741,109802.30000000075,109807.412,110274.161,,36,and
screen,html.Screen,0_2_1_1_37,2021-11-04T13:19:59.492Z,,,,,,,,,,,,,,,,54,,,,,,,,,,,,,,391.03899999926216,,response,,,100,,,,,,Space,keypress(Space),,,,,-- --- ---- --- ------ ----- ------- ---- -- --- ------- --<br>------- ---------- ------ -- ----- -- ----- -- ---- ------<br>--- ----- --- --- ------ -------- ----- --- ------ ----- --<br>----- ----- ---------- --- the ------ ------ ---- -- ------<br>------- --- ------ ----- --- ---- ------- -- ---- --- --<br>------- ------,110665.90000000224,110665.19999999925,110257.491,110258.19999999925,110274.161,110674.235,,37,the
screen,html.Screen,0_2_1_1_38,2021-11-04T13:19:59.892Z,,,,,,,,,,,,,,,,54,,,,,,,,,,,,,,391.2649999999994,,response,,,100,,,,,,Space,keypress(Space),,,,,-- --- ---- --- ------ ----- ------- ---- -- --- ------- --<br>------- ---------- ------ -- ----- -- ----- -- ---- ------<br>--- ----- --- --- ------ -------- ----- --- ------ ----- --<br>----- ----- ---------- --- --- market ------ ---- -- ------<br>------- --- ------ ----- --- ---- ------- -- ---- --- --<br>------- ------,111066.30000000075,111065.5,110657.565,110666.19999999925,110674.235,111074.353,,38,market
screen,html.Screen,0_2_1_1_39,2021-11-04T13:20:00.292Z,,,,,,,,,,,,,,,,54,,,,,,,,,,,,,,390.7470000014873,,response,,,100,,,,,,Space,keypress(Space),,,,,-- --- ---- --- ------ ----- ------- ---- -- --- ------- --<br>------- ---------- ------ -- ----- -- ----- -- ---- ------<br>--- ----- --- --- ------ -------- ----- --- ------ ----- --<br>----- ----- ---------- --- --- ------ became ---- -- ------<br>------- --- ------ ----- --- ---- ------- -- ---- --- --<br>------- ------,111465.90000000224,111465.10000000149,111057.683,111066.60000000149,111074.353,111474.427,,39,became
screen,html.Screen,0_2_1_1_40,2021-11-04T13:20:00.692Z,,,,,,,,,,,,,,,,54,,,,,,,,,,,,,,390.57300000000396,,response,,,100,,,,,,Space,keypress(Space),,,,,-- --- ---- --- ------ ----- ------- ---- -- --- ------- --<br>------- ---------- ------ -- ----- -- ----- -- ---- ------<br>--- ----- --- --- ------ -------- ----- --- ------ ----- --<br>----- ----- ---------- --- --- ------ ------ wary -- ------<br>------- --- ------ ----- --- ---- ------- -- ---- --- --<br>------- ------,111865.90000000224,111865,111457.757,111466.10000000149,111474.427,111874.579,,40,wary
screen,html.Screen,0_2_1_1_41,2021-11-04T13:20:01.115Z,,,,,,,,,,,,,,,,54,,,,,,,,,,,,,,414.5210000014922,,response,,,100,,,,,,Space,keypress(Space),,,,,-- --- ---- --- ------ ----- ------- ---- -- --- ------- --<br>------- ---------- ------ -- ----- -- ----- -- ---- ------<br>--- ----- --- --- ------ -------- ----- --- ------ ----- --<br>----- ----- ---------- --- --- ------ ------ ---- of ------<br>------- --- ------ ----- --- ---- ------- -- ---- --- --<br>------- ------,112289.90000000224,112289.10000000149,111857.908,111866.10000000149,111874.579,112291.359,,41,of
screen,html.Screen,0_2_1_1_42,2021-11-04T13:20:01.516Z,,,,,,,,,,,,,,,,54,,,,,,,,,,,,,,397.7410000014934,,response,,,100,,,,,,Space,keypress(Space),,,,,-- --- ---- --- ------ ----- ------- ---- -- --- ------- --<br>------- ---------- ------ -- ----- -- ----- -- ---- ------<br>--- ----- --- --- ------ -------- ----- --- ------ ----- --<br>----- ----- ---------- --- --- ------ ------ ---- -- French<br>------- --- ------ ----- --- ---- ------- -- ---- --- --<br>------- ------,112689.90000000224,112689.10000000149,112274.688,112290.10000000149,112291.359,112691.432,,42,French
screen,html.Screen,0_2_1_1_43,2021-11-04T13:20:01.972Z,,,,,,,,,,,,,,,,54,,,,,,,,,,,,,,453.5679999999993,,response,,,100,,,,,,Space,keypress(Space),,,,,-- --- ---- --- ------ ----- ------- ---- -- --- ------- --<br>------- ---------- ------ -- ----- -- ----- -- ---- ------<br>--- ----- --- --- ------ -------- ----- --- ------ ----- --<br>----- ----- ---------- --- --- ------ ------ ---- -- ------<br>credit. --- ------ ----- --- ---- ------- -- ---- --- --<br>------- ------,113145.90000000224,113145,112674.762,112690.10000000149,112691.432,113158.185,,43,credit.
screen,html.Screen,0_2_1_1_44,2021-11-04T13:20:02.451Z,,,,,,,,,,,,,,,,54,,,,,,,,,,,,,,466.8150000000023,,response,,,100,,,,,,Space,keypress(Space),,,,,-- --- ---- --- ------ ----- ------- ---- -- --- ------- --<br>------- ---------- ------ -- ----- -- ----- -- ---- ------<br>--- ----- --- --- ------ -------- ----- --- ------ ----- --<br>----- ----- ---------- --- --- ------ ------ ---- -- ------<br>------- The ------ ----- --- ---- ------- -- ---- --- --<br>------- ------,113625.80000000075,113625,113141.515,113146.10000000149,113158.185,113641.697,,44,The
screen,html.Screen,0_2_1_1_45,2021-11-04T13:20:03.011Z,,,,,,,,,,,,,,,,54,,,,,,,,,,,,,,543.3029999999999,,response,,,100,,,,,,Space,keypress(Space),,,,,-- --- ---- --- ------ ----- ------- ---- -- --- ------- --<br>------- ---------- ------ -- ----- -- ----- -- ---- ------<br>--- ----- --- --- ------ -------- ----- --- ------ ----- --<br>----- ----- ---------- --- --- ------ ------ ---- -- ------<br>------- --- French ----- --- ---- ------- -- ---- --- --<br>------- ------,114185.80000000075,114185,113625.026,113626,113641.697,114191.63,,45,French
screen,html.Screen,0_2_1_1_46,2021-11-04T13:20:03.435Z,,,,,,,,,,,,,,,,54,,,,,,,,,,,,,,417.2700000022305,,response,,,100,,,,,,Space,keypress(Space),,,,,-- --- ---- --- ------ ----- ------- ---- -- --- ------- --<br>------- ---------- ------ -- ----- -- ----- -- ---- ------<br>--- ----- --- --- ------ -------- ----- --- ------ ----- --<br>----- ----- ---------- --- --- ------ ------ ---- -- ------<br>------- --- ------ state --- ---- ------- -- ---- --- --<br>------- ------,114609.80000000075,114608.90000000224,114174.962,114186,114191.63,114625.347,,46,state
screen,html.Screen,0_2_1_1_47,2021-11-04T13:20:03.843Z,,,,,,,,,,,,,,,,54,,,,,,,,,,,,,,391.5530000022409,,response,,,100,,,,,,Space,keypress(Space),,,,,-- --- ---- --- ------ ----- ------- ---- -- --- ------- --<br>------- ---------- ------ -- ----- -- ----- -- ---- ------<br>--- ----- --- --- ------ -------- ----- --- ------ ----- --<br>----- ----- ---------- --- --- ------ ------ ---- -- ------<br>------- --- ------ ----- was ---- ------- -- ---- --- --<br>------- ------,115017.69999999925,115016.90000000224,114608.675,114610,114625.347,115025.329,,47,was
screen,html.Screen,0_2_1_1_48,2021-11-04T13:20:04.259Z,,,,,,,,,,,,,,,,54,,,,,,,,,,,,,,407.57100000223727,,response,,,100,,,,,,Space,keypress(Space),,,,,-- --- ---- --- ------ ----- ------- ---- -- --- ------- --<br>------- ---------- ------ -- ----- -- ----- -- ---- ------<br>--- ----- --- --- ------ -------- ----- --- ------ ----- --<br>----- ----- ---------- --- --- ------ ------ ---- -- ------<br>------- --- ------ ----- --- left ------- -- ---- --- --<br>------- ------,115433.69999999925,115432.90000000224,115008.659,115018,115025.329,115442.111,,48,left
screen,html.Screen,0_2_1_1_49,2021-11-04T13:20:04.691Z,,,,,,,,,,,,,,,,54,,,,,,,,,,,,,,422.68900000074063,,response,,,100,,,,,,Space,keypress(Space),,,,,-- --- ---- --- ------ ----- ------- ---- -- --- ------- --<br>------- ---------- ------ -- ----- -- ----- -- ---- ------<br>--- ----- --- --- ------ -------- ----- --- ------ ----- --<br>----- ----- ---------- --- --- ------ ------ ---- -- ------<br>------- --- ------ ----- --- ---- without -- ---- --- --<br>------- ------,115865.5,115864.80000000075,115425.441,115433.90000000224,115442.111,115875.456,,49,without
screen,html.Screen,0_2_1_1_50,2021-11-04T13:20:05.099Z,,,,,,,,,,,,,,,,54,,,,,,,,,,,,,,397.4440000022296,,response,,,100,,,,,,Space,keypress(Space),,,,,-- --- ---- --- ------ ----- ------- ---- -- --- ------- --<br>------- ---------- ------ -- ----- -- ----- -- ---- ------<br>--- ----- --- --- ------ -------- ----- --- ------ ----- --<br>----- ----- ---------- --- --- ------ ------ ---- -- ------<br>------- --- ------ ----- --- ---- ------- an ---- --- --<br>------- ------,116273.60000000149,116272.90000000224,115858.787,115865.80000000075,115875.456,116275.689,,50,an
screen,html.Screen,0_2_1_1_51,2021-11-04T13:20:05.539Z,,,,,,,,,,,,,,,,54,,,,,,,,,,,,,,437.2110000022367,,response,,,100,,,,,,Space,keypress(Space),,,,,-- --- ---- --- ------ ----- ------- ---- -- --- ------- --<br>------- ---------- ------ -- ----- -- ----- -- ---- ------<br>--- ----- --- --- ------ -------- ----- --- ------ ----- --<br>----- ----- ---------- --- --- ------ ------ ---- -- ------<br>------- --- ------ ----- --- ---- ------- -- easy --- --<br>------- ------,116713.60000000149,116712.90000000224,116259.018,116273.80000000075,116275.689,116725.653,,51,easy
screen,html.Screen,0_2_1_1_52,2021-11-04T13:20:05.987Z,,,,,,,,,,,,,,,,54,,,,,,,,,,,,,,435.14700000073935,,response,,,100,,,,,,Space,keypress(Space),,,,,-- --- ---- --- ------ ----- ------- ---- -- --- ------- --<br>------- ---------- ------ -- ----- -- ----- -- ---- ------<br>--- ----- --- --- ------ -------- ----- --- ------ ----- --<br>----- ----- ---------- --- --- ------ ------ ---- -- ------<br>------- --- ------ ----- --- ---- ------- -- ---- way --<br>------- ------,117161.60000000149,117160.80000000075,116708.984,116713.80000000075,116725.653,117175.98,,52,way
screen,html.Screen,0_2_1_1_53,2021-11-04T13:20:06.419Z,,,,,,,,,,,,,,,,54,,,,,,,,,,,,,,416.82000000074913,,response,,,100,,,,,,Space,keypress(Space),,,,,-- --- ---- --- ------ ----- ------- ---- -- --- ------- --<br>------- ---------- ------ -- ----- -- ----- -- ---- ------<br>--- ----- --- --- ------ -------- ----- --- ------ ----- --<br>----- ----- ---------- --- --- ------ ------ ---- -- ------<br>------- --- ------ ----- --- ---- ------- -- ---- --- of<br>------- ------,117593.5,117592.80000000075,117159.308,117161.80000000075,117175.98,117609.318,,53,of
screen,html.Screen,0_2_1_1_54,2021-11-04T13:20:06.931Z,,,,,,,,,,,,,,,,54,,,,,,,,,,,,,,495.38199999925564,,response,,,100,,,,,,Space,keypress(Space),,,,,-- --- ---- --- ------ ----- ------- ---- -- --- ------- --<br>------- ---------- ------ -- ----- -- ----- -- ---- ------<br>--- ----- --- --- ------ -------- ----- --- ------ ----- --<br>----- ----- ---------- --- --- ------ ------ ---- -- ------<br>------- --- ------ ----- --- ---- ------- -- ---- --- --<br>raising ------,118105.40000000224,118104.69999999925,117592.648,117593.80000000075,117609.318,118109.366,,54,raising
screen,html.Screen,0_2_1_1_55,2021-11-04T13:20:07.403Z,,,,,,,,,,,,,,,,54,,,,,,,,,,,,,,467.3339999992604,,response,,,100,,,,,,Space,keypress(Space),,,,,-- --- ---- --- ------ ----- ------- ---- -- --- ------- --<br>------- ---------- ------ -- ----- -- ----- -- ---- ------<br>--- ----- --- --- ------ -------- ----- --- ------ ----- --<br>----- ----- ---------- --- --- ------ ------ ---- -- ------<br>------- --- ------ ----- --- ---- ------- -- ---- --- --<br>------- money.,118577.5,118576.69999999925,118092.697,118105.69999999925,118109.366,118592.948,,55,money.
Item 100,flow.Loop,0_2_1_1,2021-11-04T13:20:07.404Z,,,,,,,,,,,,,,,,,,,,,,,,,,,,,,28924.43199999926,,completion,,,,A,,,,,,,,,,silence,,118578,118576.69999999925,89635.598,89636.80000000075,89652.268,118592.948,,,
Question 1,html.Screen,0_2_1_2,2021-11-04T13:20:10.519Z,,,,,,,,,,,,,,,,,,,,,,,,,,,true,TRUE,,3095.352000000741,,response,,,100,A,,,,,TRUE,click #choice-1,,,,silence,,121689.5,121688.30000000075,118576.277,118578.10000000149,118592.948,121693.682,,,
Question 2,html.Screen,0_2_1_3,2021-11-04T13:20:12.847Z,,,,,,,,,,,,,,,,,,,,,,,,,,,true,FALSE,,2322.4180000014894,,response,,,100,A,,,,,FALSE,click #choice-2,,,,silence,,124017.30000000075,124016.10000000149,121677.012,121689.80000000075,121693.682,124027.458,,,
Item 100,flow.Sequence,0_2_1,2021-11-04T13:20:12.847Z,,,,,,,,,,,,,,,,,,,,,,,,,,,,,,44366.230000001495,,completion,,,,,,,,,,,,,,,,124017.60000000149,124016.10000000149,79633.2,79644.90000000224,79649.87,124027.458,,,
End of Practice,html.Page,0_2_2,2021-11-04T13:20:17.520Z,,,,,,,,,,,,,,,,,,,,,,,,,,,,,,4662.142000001491,,form submission,,,,,,,,,,,,,,,,128690,128689.60000000149,124010.792,124017.80000000075,124027.458,128695.389,,,
Practice,flow.Sequence,0_2,2021-11-04T13:20:17.520Z,,,,,,,,,,,,,,,,,,,,,,,,,,,,,,97135.03100000149,,completion,,,,,,,,,,,,,,,,128690.5,128689.60000000149,31537.898,31544.10000000149,31554.569,128695.389,,,
Trap_instruction,html.Page,0_3_0,2021-11-04T13:20:20.840Z,,,,,,,,,,,,,,,,,,,,,,,,,,,,,,3313.8109999992594,,form submission,,,,,,,,,,,,,,,,132009.90000000224,132009.19999999925,128678.718,128690.69999999925,128695.389,132029.068,,,
trap_trial,html.Screen,0_3_1,2021-11-04T13:20:24.214Z,,,,,,,,,,,,,,,,,,,,,,,,,,,true,1,,3354.332000002236,,response,,,,,,,,,1,click #choice-1,,,,,,135384.69999999925,135383.40000000224,131995.732,132010,132029.068,135397.48,,,
end of trap trial,html.Page,0_3_2,2021-11-04T13:20:25.927Z,,,,,,,,,,,,,,,,,,,,,,,,,,,,,,1699.3200000007346,,form submission,,,,,,,,,,,,,,,,137097.30000000075,137096.80000000075,135380.807,135385,135397.48,137097.436,,,
Trap 1,flow.Sequence,0_3,2021-11-04T13:20:25.927Z,,,,,,,,,,,,,,,,,,,,,,,,,,,,,,8401.41100000075,,completion,,,,,,,,,,,,,,,,137097.80000000075,137096.80000000075,128678.718,128690.60000000149,128695.389,137097.436,,,
Standby,html.Page,0_4_0,2021-11-04T13:20:33.914Z,,,,,,,,,,,,,,,,,,,,,,,,,,,,,,8002.1660000000265,,timeout,,,,,,,,,,,,,,,,145084.1000000015,145082.931,137080.766,137098,137097.436,145099.602,,,
Holding screen,html.Screen,0_4_1_0_0,2021-11-04T13:20:40.916Z,,,,,,,,,,,,,,,,,,,,,,,,,,,,,,7001.572999999975,,timeout,,,,,,,,,,,,,,,,152086,152084.505,145082.931,145084.5,145099.602,152101.175,,,
screen,html.Screen,0_4_1_0_1_0,2021-11-04T13:20:42.254Z,,,,,,,,,,,,,,,,51,,,,,,,,,,,,,,1321.7250000022468,,response,,,13,A,,,,,Space,keypress(Space),,,,silence,American -------- --- --- ---- --- --- ------ -- --------<br>---- --------- --- ------- ------------ ---------- ---------<br>--- ---------- ------- ---------- ------- -- -------- ----<br>---- --- ------ ----- ------ -- ---- --- ----- -- - -------<br>-------- -- --- --- -- ----- ----------- ----- -----------<br>---- --- ---------- --- ---- --- -- ----------,153423.90000000224,153422.90000000224,152084.505,152086.5,152101.175,153434.852,,0,American
screen,html.Screen,0_4_1_0_1_1,2021-11-04T13:20:42.949Z,,,,,,,,,,,,,,,,51,,,,,,,,,,,,,,683.6479999999865,,response,,,13,A,,,,,Space,keypress(Space),,,,silence,-------- industry --- --- ---- --- --- ------ -- --------<br>---- --------- --- ------- ------------ ---------- ---------<br>--- ---------- ------- ---------- ------- -- -------- ----<br>---- --- ------ ----- ------ -- ---- --- ----- -- - -------<br>-------- -- --- --- -- ----- ----------- ----- -----------<br>---- --- ---------- --- ---- --- -- ----------,154119.30000000075,154118.5,153418.182,153424.19999999925,153434.852,154134.897,,1,industry
screen,html.Screen,0_4_1_0_1_2,2021-11-04T13:20:43.525Z,,,,,,,,,,,,,,,,51,,,,,,,,,,,,,,559.7030000014929,,response,,,13,A,,,,,Space,keypress(Space),,,,silence,-------- -------- may --- ---- --- --- ------ -- --------<br>---- --------- --- ------- ------------ ---------- ---------<br>--- ---------- ------- ---------- ------- -- -------- ----<br>---- --- ------ ----- ------ -- ---- --- ----- -- - -------<br>-------- -- --- --- -- ----- ----------- ----- -----------<br>---- --- ---------- --- ---- --- -- ----------,154695.30000000075,154694.6000000015,154118.228,154119.6000000015,154134.897,154701.928,,2,may
screen,html.Screen,0_4_1_0_1_3,2021-11-04T13:20:44.085Z,,,,,,,,,,,,,,,,51,,,,,,,,,,,,,,552.4720000022207,,response,,,13,A,,,,,Space,keypress(Space),,,,silence,-------- -------- --- not ---- --- --- ------ -- --------<br>---- --------- --- ------- ------------ ---------- ---------<br>--- ---------- ------- ---------- ------- -- -------- ----<br>---- --- ------ ----- ------ -- ---- --- ----- -- - -------<br>-------- -- --- --- -- ----- ----------- ----- -----------<br>---- --- ---------- --- ---- --- -- ----------,155255.1000000015,155254.40000000224,154685.257,154695.6000000015,154701.928,155268.68,,3,not
screen,html.Screen,0_4_1_0_1_4,2021-11-04T13:20:44.613Z,,,,,,,,,,,,,,,,51,,,,,,,,,,,,,,513.620000000752,,response,,,13,A,,,,,Space,keypress(Space),,,,silence,-------- -------- --- --- know --- --- ------ -- --------<br>---- --------- --- ------- ------------ ---------- ---------<br>--- ---------- ------- ---------- ------- -- -------- ----<br>---- --- ------ ----- ------ -- ---- --- ----- -- - -------<br>-------- -- --- --- -- ----- ----------- ----- -----------<br>---- --- ---------- --- ---- --- -- ----------,155783.19999999925,155782.30000000075,155252.01,155255.5,155268.68,155785.441,,4,know
screen,html.Screen,0_4_1_0_1_5,2021-11-04T13:20:45.205Z,,,,,,,,,,,,,,,,51,,,,,,,,,,,,,,588.8590000007534,,response,,,13,A,,,,,Space,keypress(Space),,,,silence,"-------- -------- --- --- ---- it, --- ------ -- --------<br>---- --------- --- ------- ------------ ---------- ---------<br>--- ---------- ------- ---------- ------- -- -------- ----<br>---- --- ------ ----- ------ -- ---- --- ----- -- - -------<br>-------- -- --- --- -- ----- ----------- ----- -----------<br>---- --- ---------- --- ---- --- -- ----------",156375.1000000015,156374.30000000075,155768.771,155783.40000000224,155785.441,156385.68,,5,"it,"
screen,html.Screen,0_4_1_0_1_6,2021-11-04T13:20:45.733Z,,,,,,,,,,,,,,,,51,,,,,,,,,,,,,,516.620000000752,,response,,,13,A,,,,,Space,keypress(Space),,,,silence,-------- -------- --- --- ---- --- but ------ -- --------<br>---- --------- --- ------- ------------ ---------- ---------<br>--- ---------- ------- ---------- ------- -- -------- ----<br>---- --- ------ ----- ------ -- ---- --- ----- -- - -------<br>-------- -- --- --- -- ----- ----------- ----- -----------<br>---- --- ---------- --- ---- --- -- ----------,156903.1000000015,156902.30000000075,156369.009,156375.30000000075,156385.68,156919.074,,6,but
screen,html.Screen,0_4_1_0_1_7,2021-11-04T13:20:46.317Z,,,,,,,,,,,,,,,,51,,,,,,,,,,,,,,567.2260000007518,,response,,,13,A,,,,,Space,keypress(Space),,,,silence,-------- -------- --- --- ---- --- --- debate -- --------<br>---- --------- --- ------- ------------ ---------- ---------<br>--- ---------- ------- ---------- ------- -- -------- ----<br>---- --- ------ ----- ------ -- ---- --- ----- -- - -------<br>-------- -- --- --- -- ----- ----------- ----- -----------<br>---- --- ---------- --- ---- --- -- ----------,157487.1000000015,157486.30000000075,156902.404,156903.30000000075,156919.074,157502.45,,7,debate
screen,html.Screen,0_4_1_0_1_8,2021-11-04T13:20:46.821Z,,,,,,,,,,,,,,,,51,,,,,,,,,,,,,,487.7499999992433,,response,,,13,A,,,,,Space,keypress(Space),,,,silence,-------- -------- --- --- ---- --- --- ------ in --------<br>---- --------- --- ------- ------------ ---------- ---------<br>--- ---------- ------- ---------- ------- -- -------- ----<br>---- --- ------ ----- ------ -- ---- --- ----- -- - -------<br>-------- -- --- --- -- ----- ----------- ----- -----------<br>---- --- ---------- --- ---- --- -- ----------,157991.1000000015,157990.19999999925,157485.781,157487.30000000075,157502.45,158002.762,,8,in
screen,html.Screen,0_4_1_0_1_9,2021-11-04T13:20:47.349Z,,,,,,,,,,,,,,,,51,,,,,,,,,,,,,,515.437999999267,,response,,,13,A,,,,,Space,keypress(Space),,,,silence,-------- -------- --- --- ---- --- --- ------ -- Congress<br>---- --------- --- ------- ------------ ---------- ---------<br>--- ---------- ------- ---------- ------- -- -------- ----<br>---- --- ------ ----- ------ -- ---- --- ----- -- - -------<br>-------- -- --- --- -- ----- ----------- ----- -----------<br>---- --- ---------- --- ---- --- -- ----------,158518.90000000224,158518.19999999925,157986.091,157991.30000000075,158002.762,158536.049,,9,Congress
screen,html.Screen,0_4_1_0_1_10,2021-11-04T13:20:47.909Z,,,,,,,,,,,,,,,,51,,,,,,,,,,,,,,542.1509999992559,,response,,,13,A,,,,,Space,keypress(Space),,,,silence,-------- -------- --- --- ---- --- --- ------ -- --------<br>over --------- --- ------- ------------ ---------- ---------<br>--- ---------- ------- ---------- ------- -- -------- ----<br>---- --- ------ ----- ------ -- ---- --- ----- -- - -------<br>-------- -- --- --- -- ----- ----------- ----- -----------<br>---- --- ---------- --- ---- --- -- ----------,159079,159078.19999999925,158519.38,158519.30000000075,158536.049,159086.358,,10,over
screen,html.Screen,0_4_1_0_1_11,2021-11-04T13:20:48.477Z,,,,,,,,,,,,,,,,51,,,,,,,,,,,,,,559.6419999999925,,response,,,13,A,,,,,Space,keypress(Space),,,,silence,-------- -------- --- --- ---- --- --- ------ -- --------<br>---- reforming --- ------- ------------ ---------- ---------<br>--- ---------- ------- ---------- ------- -- -------- ----<br>---- --- ------ ----- ------ -- ---- --- ----- -- - -------<br>-------- -- --- --- -- ----- ----------- ----- -----------<br>---- --- ---------- --- ---- --- -- ----------,159646.90000000224,159646,159069.687,159079.19999999925,159086.358,159653.15,,11,reforming
screen,html.Screen,0_4_1_0_1_12,2021-11-04T13:20:48.989Z,,,,,,,,,,,,,,,,51,,,,,,,,,,,,,,504.8500000000058,,response,,,13,A,,,,,Space,keypress(Space),,,,silence,-------- -------- --- --- ---- --- --- ------ -- --------<br>---- --------- the ------- ------------ ---------- ---------<br>--- ---------- ------- ---------- ------- -- -------- ----<br>---- --- ------ ----- ------ -- ---- --- ----- -- - -------<br>-------- -- --- --- -- ----- ----------- ----- -----------<br>---- --- ---------- --- ---- --- -- ----------,160158.80000000075,160158,159636.479,159647,159653.15,160169.885,,12,the
screen,html.Screen,0_4_1_0_1_13,2021-11-04T13:20:49.580Z,,,,,,,,,,,,,,,,51,,,,,,,,,,,,,,580.1149999999907,,response,,,13,A,,,,,Space,keypress(Space),,,,silence,-------- -------- --- --- ---- --- --- ------ -- --------<br>---- --------- --- federal ------------ ---------- ---------<br>--- ---------- ------- ---------- ------- -- -------- ----<br>---- --- ------ ----- ------ -- ---- --- ----- -- - -------<br>-------- -- --- --- -- ----- ----------- ----- -----------<br>---- --- ---------- --- ---- --- -- ----------,160750.80000000075,160750,160153.215,160159.1000000015,160169.885,160753.26,,13,federal
screen,html.Screen,0_4_1_0_1_14,2021-11-04T13:20:50.108Z,,,,,,,,,,,,,,,,51,,,,,,,,,,,,,,524.6400000022259,,response,,,13,A,,,,,Space,keypress(Space),,,,silence,-------- -------- --- --- ---- --- --- ------ -- --------<br>---- --------- --- ------- government's ---------- ---------<br>--- ---------- ------- ---------- ------- -- -------- ----<br>---- --- ------ ----- ------ -- ---- --- ----- -- - -------<br>-------- -- --- --- -- ----- ----------- ----- -----------<br>---- --- ---------- --- ---- --- -- ----------,161278.69999999925,161277.90000000224,160736.591,160751,160753.26,161286.959,,14,government's
screen,html.Screen,0_4_1_0_1_15,2021-11-04T13:20:50.676Z,,,,,,,,,,,,,,,,51,,,,,,,,,,,,,,558.9410000022326,,response,,,13,A,,,,,Space,keypress(Space),,,,silence,-------- -------- --- --- ---- --- --- ------ -- --------<br>---- --------- --- ------- ------------ regulatory ---------<br>--- ---------- ------- ---------- ------- -- -------- ----<br>---- --- ------ ----- ------ -- ---- --- ----- -- - -------<br>-------- -- --- --- -- ----- ----------- ----- -----------<br>---- --- ---------- --- ---- --- -- ----------,161846.69999999925,161845.90000000224,161270.287,161279,161286.959,161853.649,,15,regulatory
screen,html.Screen,0_4_1_0_1_16,2021-11-04T13:20:51.268Z,,,,,,,,,,,,,,,,51,,,,,,,,,,,,,,584.2510000022303,,response,,,13,A,,,,,Space,keypress(Space),,,,silence,-------- -------- --- --- ---- --- --- ------ -- --------<br>---- --------- --- ------- ------------ ---------- apparatus<br>--- ---------- ------- ---------- ------- -- -------- ----<br>---- --- ------ ----- ------ -- ---- --- ----- -- - -------<br>-------- -- --- --- -- ----- ----------- ----- -----------<br>---- --- ---------- --- ---- --- -- ----------,162438.6000000015,162437.90000000224,161836.979,161847,161853.649,162453.849,,16,apparatus
screen,html.Screen,0_4_1_0_1_17,2021-11-04T13:20:51.876Z,,,,,,,,,,,,,,,,51,,,,,,,,,,,,,,592.0510000022477,,response,,,13,A,,,,,Space,keypress(Space),,,,silence,-------- -------- --- --- ---- --- --- ------ -- --------<br>---- --------- --- ------- ------------ ---------- ---------<br>may ---------- ------- ---------- ------- -- -------- ----<br>---- --- ------ ----- ------ -- ---- --- ----- -- - -------<br>-------- -- --- --- -- ----- ----------- ----- -----------<br>---- --- ---------- --- ---- --- -- ----------,163046.69999999925,163045.90000000224,162437.178,162438.90000000224,162453.849,163053.95,,17,may
screen,html.Screen,0_4_1_0_1_18,2021-11-04T13:20:52.429Z,,,,,,,,,,,,,,,,51,,,,,,,,,,,,,,544.2499999992433,,response,,,13,A,,,,,Space,keypress(Space),,,,silence,-------- -------- --- --- ---- --- --- ------ -- --------<br>---- --------- --- ------- ------------ ---------- ---------<br>--- profoundly ------- ---------- ------- -- -------- ----<br>---- --- ------ ----- ------ -- ---- --- ----- -- - -------<br>-------- -- --- --- -- ----- ----------- ----- -----------<br>---- --- ---------- --- ---- --- -- ----------,163599,163598.19999999925,163037.28,163046.90000000224,163053.95,163604.067,,18,profoundly
screen,html.Screen,0_4_1_0_1_19,2021-11-04T13:20:52.964Z,,,,,,,,,,,,,,,,51,,,,,,,,,,,,,,529.733000000735,,response,,,13,A,,,,,Space,keypress(Space),,,,silence,-------- -------- --- --- ---- --- --- ------ -- --------<br>---- --------- --- ------- ------------ ---------- ---------<br>--- ---------- improve ---------- ------- -- -------- ----<br>---- --- ------ ----- ------ -- ---- --- ----- -- - -------<br>-------- -- --- --- -- ----- ----------- ----- -----------<br>---- --- ---------- --- ---- --- -- ----------,164134.6000000015,164133.80000000075,163587.397,163599.19999999925,163604.067,164137.6,,19,improve
screen,html.Screen,0_4_1_0_1_20,2021-11-04T13:20:53.548Z,,,,,,,,,,,,,,,,51,,,,,,,,,,,,,,580.2000000007392,,response,,,13,A,,,,,Space,keypress(Space),,,,silence,-------- -------- --- --- ---- --- --- ------ -- --------<br>---- --------- --- ------- ------------ ---------- ---------<br>--- ---------- ------- companies' ------- -- -------- ----<br>---- --- ------ ----- ------ -- ---- --- ----- -- - -------<br>-------- -- --- --- -- ----- ----------- ----- -----------<br>---- --- ---------- --- ---- --- -- ----------,164718.6000000015,164717.80000000075,164120.929,164134.80000000075,164137.6,164721.001,,20,companies'
screen,html.Screen,0_4_1_0_1_21,2021-11-04T13:20:54.116Z,,,,,,,,,,,,,,,,51,,,,,,,,,,,,,,564.6989999992657,,response,,,13,A,,,,,Space,keypress(Space),,,,silence,-------- -------- --- --- ---- --- --- ------ -- --------<br>---- --------- --- ------- ------------ ---------- ---------<br>--- ---------- ------- ---------- ability -- -------- ----<br>---- --- ------ ----- ------ -- ---- --- ----- -- - -------<br>-------- -- --- --- -- ----- ----------- ----- -----------<br>---- --- ---------- --- ---- --- -- ----------,165286.5,165285.69999999925,164704.331,164718.80000000075,164721.001,165287.719,,21,ability
screen,html.Screen,0_4_1_0_1_22,2021-11-04T13:20:54.604Z,,,,,,,,,,,,,,,,51,,,,,,,,,,,,,,485.98099999924307,,response,,,13,A,,,,,Space,keypress(Space),,,,silence,-------- -------- --- --- ---- --- --- ------ -- --------<br>---- --------- --- ------- ------------ ---------- ---------<br>--- ---------- ------- ---------- ------- to -------- ----<br>---- --- ------ ----- ------ -- ---- --- ----- -- - -------<br>-------- -- --- --- -- ----- ----------- ----- -----------<br>---- --- ---------- --- ---- --- -- ----------,165774.5,165773.69999999925,165271.05,165286.80000000075,165287.719,165787.92,,22,to
screen,html.Screen,0_4_1_0_1_23,2021-11-04T13:20:55.404Z,,,,,,,,,,,,,,,,51,,,,,,,,,,,,,,785.7799999992421,,response,,,13,A,,,,,Space,keypress(Space),,,,silence,-------- -------- --- --- ---- --- --- ------ -- --------<br>---- --------- --- ------- ------------ ---------- ---------<br>--- ---------- ------- ---------- ------- -- survive. ----<br>---- --- ------ ----- ------ -- ---- --- ----- -- - -------<br>-------- -- --- --- -- ----- ----------- ----- -----------<br>---- --- ---------- --- ---- --- -- ----------,166574.40000000224,166573.69999999925,165771.25,165774.69999999925,165787.92,166588.297,,23,survive.
screen,html.Screen,0_4_1_0_1_24,2021-11-04T13:20:55.932Z,,,,,,,,,,,,,,,,51,,,,,,,,,,,,,,513.3030000014987,,response,,,13,A,,,,,Space,keypress(Space),,,,silence,-------- -------- --- --- ---- --- --- ------ -- --------<br>---- --------- --- ------- ------------ ---------- ---------<br>--- ---------- ------- ---------- ------- -- -------- This<br>---- --- ------ ----- ------ -- ---- --- ----- -- - -------<br>-------- -- --- --- -- ----- ----------- ----- -----------<br>---- --- ---------- --- ---- --- -- ----------,167102.40000000224,167101.6000000015,166571.625,166574.6000000015,166588.297,167104.924,,24,This
screen,html.Screen,0_4_1_0_1_25,2021-11-04T13:20:56.476Z,,,,,,,,,,,,,,,,51,,,,,,,,,,,,,,540.5760000000009,,response,,,13,A,,,,,Space,keypress(Space),,,,silence,-------- -------- --- --- ---- --- --- ------ -- --------<br>---- --------- --- ------- ------------ ---------- ---------<br>--- ---------- ------- ---------- ------- -- -------- ----<br>week --- ------ ----- ------ -- ---- --- ----- -- - -------<br>-------- -- --- --- -- ----- ----------- ----- -----------<br>---- --- ---------- --- ---- --- -- ----------,167646.5,167645.5,167088.254,167102.69999999925,167104.924,167655.098,,25,week
screen,html.Screen,0_4_1_0_1_26,2021-11-04T13:20:57.036Z,,,,,,,,,,,,,,,,51,,,,,,,,,,,,,,550.502000001492,,response,,,13,A,,,,,Space,keypress(Space),,,,silence,-------- -------- --- --- ---- --- --- ------ -- --------<br>---- --------- --- ------- ------------ ---------- ---------<br>--- ---------- ------- ---------- ------- -- -------- ----<br>---- the ------ ----- ------ -- ---- --- ----- -- - -------<br>-------- -- --- --- -- ----- ----------- ----- -----------<br>---- --- ---------- --- ---- --- -- ----------,168206.40000000224,168205.6000000015,167638.428,167646.6000000015,167655.098,168221.864,,26,the
screen,html.Screen,0_4_1_0_1_27,2021-11-04T13:20:57.500Z,,,,,,,,,,,,,,,,51,,,,,,,,,,,,,,447.6359999999986,,response,,,13,A,,,,,Space,keypress(Space),,,,silence,-------- -------- --- --- ---- --- --- ------ -- --------<br>---- --------- --- ------- ------------ ---------- ---------<br>--- ---------- ------- ---------- ------- -- -------- ----<br>---- --- Senate ----- ------ -- ---- --- ----- -- - -------<br>-------- -- --- --- -- ----- ----------- ----- -----------<br>---- --- ---------- --- ---- --- -- ----------,168670.30000000075,168669.5,168205.194,168206.6000000015,168221.864,168672.063,,27,Senate
screen,html.Screen,0_4_1_0_1_28,2021-11-04T13:20:57.980Z,,,,,,,,,,,,,,,,51,,,,,,,,,,,,,,477.43700000000536,,response,,,13,A,,,,,Space,keypress(Space),,,,silence,-------- -------- --- --- ---- --- --- ------ -- --------<br>---- --------- --- ------- ------------ ---------- ---------<br>--- ---------- ------- ---------- ------- -- -------- ----<br>---- --- ------ seems ------ -- ---- --- ----- -- - -------<br>-------- -- --- --- -- ----- ----------- ----- -----------<br>---- --- ---------- --- ---- --- -- ----------,169150.30000000075,169149.5,168655.392,168670.5,168672.063,169155.45,,28,seems
screen,html.Screen,0_4_1_0_1_29,2021-11-04T13:20:58.476Z,,,,,,,,,,,,,,,,51,,,,,,,,,,,,,,489.95000000222353,,response,,,13,A,,,,,Space,keypress(Space),,,,silence,-------- -------- --- --- ---- --- --- ------ -- --------<br>---- --------- --- ------- ------------ ---------- ---------<br>--- ---------- ------- ---------- ------- -- -------- ----<br>---- --- ------ ----- poised -- ---- --- ----- -- - -------<br>-------- -- --- --- -- ----- ----------- ----- -----------<br>---- --- ---------- --- ---- --- -- ----------,169646.30000000075,169645.40000000224,169138.78,169150.6000000015,169155.45,169655.488,,29,poised
screen,html.Screen,0_4_1_0_1_30,2021-11-04T13:20:58.940Z,,,,,,,,,,,,,,,,51,,,,,,,,,,,,,,454.0119999999879,,response,,,13,A,,,,,Space,keypress(Space),,,,silence,-------- -------- --- --- ---- --- --- ------ -- --------<br>---- --------- --- ------- ------------ ---------- ---------<br>--- ---------- ------- ---------- ------- -- -------- ----<br>---- --- ------ ----- ------ to ---- --- ----- -- - -------<br>-------- -- --- --- -- ----- ----------- ----- -----------<br>---- --- ---------- --- ---- --- -- ----------,170110.19999999925,170109.5,169638.819,169646.5,169655.488,170122.491,,30,to
screen,html.Screen,0_4_1_0_1_31,2021-11-04T13:20:59.396Z,,,,,,,,,,,,,,,,51,,,,,,,,,,,,,,442.9090000022261,,response,,,13,A,,,,,Space,keypress(Space),,,,silence,-------- -------- --- --- ---- --- --- ------ -- --------<br>---- --------- --- ------- ------------ ---------- ---------<br>--- ---------- ------- ---------- ------- -- -------- ----<br>---- --- ------ ----- ------ -- join --- ----- -- - -------<br>-------- -- --- --- -- ----- ----------- ----- -----------<br>---- --- ---------- --- ---- --- -- ----------,170566.19999999925,170565.40000000224,170105.819,170110.5,170122.491,170572.468,,31,join
screen,html.Screen,0_4_1_0_1_32,2021-11-04T13:20:59.852Z,,,,,,,,,,,,,,,,51,,,,,,,,,,,,,,448.8320000007516,,response,,,13,A,,,,,Space,keypress(Space),,,,silence,-------- -------- --- --- ---- --- --- ------ -- --------<br>---- --------- --- ------- ------------ ---------- ---------<br>--- ---------- ------- ---------- ------- -- -------- ----<br>---- --- ------ ----- ------ -- ---- the ----- -- - -------<br>-------- -- --- --- -- ----- ----------- ----- -----------<br>---- --- ---------- --- ---- --- -- ----------,171022.19999999925,171021.30000000075,170555.798,170566.5,170572.468,171039.269,,32,the
screen,html.Screen,0_4_1_0_1_33,2021-11-04T13:21:00.292Z,,,,,,,,,,,,,,,,51,,,,,,,,,,,,,,422.13100000223494,,response,,,13,A,,,,,Space,keypress(Space),,,,silence,-------- -------- --- --- ---- --- --- ------ -- --------<br>---- --------- --- ------- ------------ ---------- ---------<br>--- ---------- ------- ---------- ------- -- -------- ----<br>---- --- ------ ----- ------ -- ---- --- House -- - -------<br>-------- -- --- --- -- ----- ----------- ----- -----------<br>---- --- ---------- --- ---- --- -- ----------,171462.19999999925,171461.40000000224,171022.599,171022.5,171039.269,171472.711,,33,House
screen,html.Screen,0_4_1_0_1_34,2021-11-04T13:21:00.700Z,,,,,,,,,,,,,,,,51,,,,,,,,,,,,,,396.5890000007348,,response,,,13,A,,,,,Space,keypress(Space),,,,silence,-------- -------- --- --- ---- --- --- ------ -- --------<br>---- --------- --- ------- ------------ ---------- ---------<br>--- ---------- ------- ---------- ------- -- -------- ----<br>---- --- ------ ----- ------ -- ---- --- ----- in - -------<br>-------- -- --- --- -- ----- ----------- ----- -----------<br>---- --- ---------- --- ---- --- -- ----------,171870.1000000015,171869.30000000075,171456.041,171462.40000000224,171472.711,171872.857,,34,in
screen,html.Screen,0_4_1_0_1_35,2021-11-04T13:21:01.092Z,,,,,,,,,,,,,,,,51,,,,,,,,,,,,,,388.443000000756,,response,,,13,A,,,,,Space,keypress(Space),,,,silence,-------- -------- --- --- ---- --- --- ------ -- --------<br>---- --------- --- ------- ------------ ---------- ---------<br>--- ---------- ------- ---------- ------- -- -------- ----<br>---- --- ------ ----- ------ -- ---- --- ----- -- a -------<br>-------- -- --- --- -- ----- ----------- ----- -----------<br>---- --- ---------- --- ---- --- -- ----------,172262.1000000015,172261.30000000075,171856.186,171870.40000000224,171872.857,172272.861,,35,a
screen,html.Screen,0_4_1_0_1_36,2021-11-04T13:21:01.548Z,,,,,,,,,,,,,,,,51,,,,,,,,,,,,,,444.43900000074063,,response,,,13,A,,,,,Space,keypress(Space),,,,silence,-------- -------- --- --- ---- --- --- ------ -- --------<br>---- --------- --- ------- ------------ ---------- ---------<br>--- ---------- ------- ---------- ------- -- -------- ----<br>---- --- ------ ----- ------ -- ---- --- ----- -- - massive<br>-------- -- --- --- -- ----- ----------- ----- -----------<br>---- --- ---------- --- ---- --- -- ----------,172718.1000000015,172717.30000000075,172256.192,172262.40000000224,172272.861,172723.081,,36,massive
screen,html.Screen,0_4_1_0_1_37,2021-11-04T13:21:02.004Z,,,,,,,,,,,,,,,,51,,,,,,,,,,,,,,450.21900000073947,,response,,,13,A,,,,,Space,keypress(Space),,,,silence,-------- -------- --- --- ---- --- --- ------ -- --------<br>---- --------- --- ------- ------------ ---------- ---------<br>--- ---------- ------- ---------- ------- -- -------- ----<br>---- --- ------ ----- ------ -- ---- --- ----- -- - -------<br>overhaul -- --- --- -- ----- ----------- ----- -----------<br>---- --- ---------- --- ---- --- -- ----------,173174.1000000015,173173.30000000075,172706.41,172718.30000000075,172723.081,173189.788,,37,overhaul
screen,html.Screen,0_4_1_0_1_38,2021-11-04T13:21:02.460Z,,,,,,,,,,,,,,,,51,,,,,,,,,,,,,,439.71199999999953,,response,,,13,A,,,,,Space,keypress(Space),,,,silence,-------- -------- --- --- ---- --- --- ------ -- --------<br>---- --------- --- ------- ------------ ---------- ---------<br>--- ---------- ------- ---------- ------- -- -------- ----<br>---- --- ------ ----- ------ -- ---- --- ----- -- - -------<br>-------- of --- --- -- ----- ----------- ----- -----------<br>---- --- ---------- --- ---- --- -- ----------,173630.19999999925,173629.5,173173.118,173174.40000000224,173189.788,173639.904,,38,of
screen,html.Screen,0_4_1_0_1_39,2021-11-04T13:21:02.892Z,,,,,,,,,,,,,,,,51,,,,,,,,,,,,,,421.2959999992454,,response,,,13,A,,,,,Space,keypress(Space),,,,silence,-------- -------- --- --- ---- --- --- ------ -- --------<br>---- --------- --- ------- ------------ ---------- ---------<br>--- ---------- ------- ---------- ------- -- -------- ----<br>---- --- ------ ----- ------ -- ---- --- ----- -- - -------<br>-------- -- the --- -- ----- ----------- ----- -----------<br>---- --- ---------- --- ---- --- -- ----------,174062,174061.19999999925,173623.234,173630.5,173639.904,174073.358,,39,the
screen,html.Screen,0_4_1_0_1_40,2021-11-04T13:21:03.372Z,,,,,,,,,,,,,,,,51,,,,,,,,,,,,,,467.74200000148267,,response,,,13,A,,,,,Space,keypress(Space),,,,silence,-------- -------- --- --- ---- --- --- ------ -- --------<br>---- --------- --- ------- ------------ ---------- ---------<br>--- ---------- ------- ---------- ------- -- -------- ----<br>---- --- ------ ----- ------ -- ---- --- ----- -- - -------<br>-------- -- --- way -- ----- ----------- ----- -----------<br>---- --- ---------- --- ---- --- -- ----------,174542,174541.1000000015,174056.688,174062.19999999925,174073.358,174556.856,,40,way
screen,html.Screen,0_4_1_0_1_41,2021-11-04T13:21:03.836Z,,,,,,,,,,,,,,,,51,,,,,,,,,,,,,,448.24400000149035,,response,,,13,A,,,,,Space,keypress(Space),,,,silence,-------- -------- --- --- ---- --- --- ------ -- --------<br>---- --------- --- ------- ------------ ---------- ---------<br>--- ---------- ------- ---------- ------- -- -------- ----<br>---- --- ------ ----- ------ -- ---- --- ----- -- - -------<br>-------- -- --- --- in ----- ----------- ----- -----------<br>---- --- ---------- --- ---- --- -- ----------,175005.90000000224,175005.1000000015,174540.185,174542.19999999925,174556.856,175023.606,,41,in
screen,html.Screen,0_4_1_0_1_42,2021-11-04T13:21:04.260Z,,,,,,,,,,,,,,,,51,,,,,,,,,,,,,,405.39400000000023,,response,,,13,A,,,,,Space,keypress(Space),,,,silence,-------- -------- --- --- ---- --- --- ------ -- --------<br>---- --------- --- ------- ------------ ---------- ---------<br>--- ---------- ------- ---------- ------- -- -------- ----<br>---- --- ------ ----- ------ -- ---- --- ----- -- - -------<br>-------- -- --- --- -- which ----------- ----- -----------<br>---- --- ---------- --- ---- --- -- ----------,175429.80000000075,175429,175006.936,175006.19999999925,175023.606,175440.365,,42,which
screen,html.Screen,0_4_1_0_1_43,2021-11-04T13:21:04.884Z,,,,,,,,,,,,,,,,51,,,,,,,,,,,,,,612.6350000000093,,response,,,13,A,,,,,Space,keypress(Space),,,,silence,-------- -------- --- --- ---- --- --- ------ -- --------<br>---- --------- --- ------- ------------ ---------- ---------<br>--- ---------- ------- ---------- ------- -- -------- ----<br>---- --- ------ ----- ------ -- ---- --- ----- -- - -------<br>-------- -- --- --- -- ----- bureaucrats ----- -----------<br>---- --- ---------- --- ---- --- -- ----------,176053.80000000075,176053,175423.695,175430.1000000015,175440.365,176057.154,,43,bureaucrats
screen,html.Screen,0_4_1_0_1_44,2021-11-04T13:21:05.388Z,,,,,,,,,,,,,,,,51,,,,,,,,,,,,,,499.84599999999045,,response,,,13,A,,,,,Space,keypress(Space),,,,silence,-------- -------- --- --- ---- --- --- ------ -- --------<br>---- --------- --- ------- ------------ ---------- ---------<br>--- ---------- ------- ---------- ------- -- -------- ----<br>---- --- ------ ----- ------ -- ---- --- ----- -- - -------<br>-------- -- --- --- -- ----- ----------- enact -----------<br>---- --- ---------- --- ---- --- -- ----------,176557.90000000224,176557,176040.484,176054.1000000015,176057.154,176574.032,,44,enact
screen,html.Screen,0_4_1_0_1_45,2021-11-04T13:21:05.907Z,,,,,,,,,,,,,,,,51,,,,,,,,,,,,,,502.9679999999935,,response,,,13,A,,,,,Space,keypress(Space),,,,silence,-------- -------- --- --- ---- --- --- ------ -- --------<br>---- --------- --- ------- ------------ ---------- ---------<br>--- ---------- ------- ---------- ------- -- -------- ----<br>---- --- ------ ----- ------ -- ---- --- ----- -- - -------<br>-------- -- --- --- -- ----- ----------- ----- regulations<br>---- --- ---------- --- ---- --- -- ----------,177077.80000000075,177077,176557.361,176558.19999999925,176574.032,177090.772,,45,regulations
screen,html.Screen,0_4_1_0_1_46,2021-11-04T13:21:06.403Z,,,,,,,,,,,,,,,,51,,,,,,,,,,,,,,482.12800000223797,,response,,,13,A,,,,,Space,keypress(Space),,,,silence,-------- -------- --- --- ---- --- --- ------ -- --------<br>---- --------- --- ------- ------------ ---------- ---------<br>--- ---------- ------- ---------- ------- -- -------- ----<br>---- --- ------ ----- ------ -- ---- --- ----- -- - -------<br>-------- -- --- --- -- ----- ----------- ----- -----------<br>that --- ---------- --- ---- --- -- ----------,177573.69999999925,177572.90000000224,177074.102,177078,177090.772,177590.896,,46,that
screen,html.Screen,0_4_1_0_1_47,2021-11-04T13:21:06.915Z,,,,,,,,,,,,,,,,51,,,,,,,,,,,,,,494.00400000222726,,response,,,13,A,,,,,Space,keypress(Space),,,,silence,-------- -------- --- --- ---- --- --- ------ -- --------<br>---- --------- --- ------- ------------ ---------- ---------<br>--- ---------- ------- ---------- ------- -- -------- ----<br>---- --- ------ ----- ------ -- ---- --- ----- -- - -------<br>-------- -- --- --- -- ----- ----------- ----- -----------<br>---- are ---------- --- ---- --- -- ----------,178085.69999999925,178084.90000000224,177574.226,177575.30000000075,177590.896,178091.024,,47,are
screen,html.Screen,0_4_1_0_1_48,2021-11-04T13:21:07.483Z,,,,,,,,,,,,,,,,51,,,,,,,,,,,,,,561.7760000007402,,response,,,13,A,,,,,Space,keypress(Space),,,,silence,-------- -------- --- --- ---- --- --- ------ -- --------<br>---- --------- --- ------- ------------ ---------- ---------<br>--- ---------- ------- ---------- ------- -- -------- ----<br>---- --- ------ ----- ------ -- ---- --- ----- -- - -------<br>-------- -- --- --- -- ----- ----------- ----- -----------<br>---- --- strangling --- ---- --- -- ----------,178653.6000000015,178652.80000000075,178074.354,178086,178091.024,178657.878,,48,strangling
screen,html.Screen,0_4_1_0_1_49,2021-11-04T13:21:08.011Z,,,,,,,,,,,,,,,,51,,,,,,,,,,,,,,522.9220000007481,,response,,,13,A,,,,,Space,keypress(Space),,,,silence,-------- -------- --- --- ---- --- --- ------ -- --------<br>---- --------- --- ------- ------------ ---------- ---------<br>--- ---------- ------- ---------- ------- -- -------- ----<br>---- --- ------ ----- ------ -- ---- --- ----- -- - -------<br>-------- -- --- --- -- ----- ----------- ----- -----------<br>---- --- ---------- the ---- --- -- ----------,179181.6000000015,179180.80000000075,178641.207,178653.80000000075,178657.878,179191.281,,49,the
screen,html.Screen,0_4_1_0_1_50,2021-11-04T13:21:08.531Z,,,,,,,,,,,,,,,,51,,,,,,,,,,,,,,509.51900000075693,,response,,,13,A,,,,,Space,keypress(Space),,,,silence,-------- -------- --- --- ---- --- --- ------ -- --------<br>---- --------- --- ------- ------------ ---------- ---------<br>--- ---------- ------- ---------- ------- -- -------- ----<br>---- --- ------ ----- ------ -- ---- --- ----- -- - -------<br>-------- -- --- --- -- ----- ----------- ----- -----------<br>---- --- ---------- --- life --- -- ----------,179701.6000000015,179700.80000000075,179174.611,179181.90000000224,179191.281,179708.142,,50,life
