sender,sender_type,sender_id,timestamp,meta,,Blues,Classical,Country,Dance,Electronic,Folk,Gospel,Hip-Hop,Jazz,Latin,Musical/Film,New-age,Pop,Provo_ID,R&B,Rap,Reggae,Religious,Rock,Soul,Swing,Traditional,age,artist_name,correct,correctResponse,distraction,duration,education,ended_on,familiarity,gender,item,list,music_frequency,offensiveness,pleasantness,preference,response,response_action,snippet_file,song_name,song_rating,sound,text,time_commit,time_end,time_render,time_run,time_show,time_switch,url,word,word_ID
Instructions,html.Page,0_0,2021-11-12T11:19:07.461Z,"{""labjs_version"":""20.2.3"",""labjs_build"":{""flavor"":""production"",""commit"":""7ea907d66ca8aeef8054924ca5d82ffbe11e34e5""},""location"":""https://run.pavlovia.org/mvasilev/lab_music_d/"",""userAgent"":""Mozilla/5.0 (Windows NT 6.1; Win64; x64) AppleWebKit/537.36 (KHTML, like Gecko) Chrome/95.0.4638.69 Safari/537.36"",""platform"":""Win32"",""language"":""en-US"",""locale"":""en-US"",""timeZone"":""Europe/London"",""timezoneOffset"":0,""screen_width"":1920,""screen_height"":1080,""scroll_width"":1920,""scroll_height"":959,""window_innerWidth"":1920,""window_innerHeight"":1007,""devicePixelRatio"":1}",,,,,,,,,,,,,,,,,,,,,,,,,,,,,35718.314000047685,,form submission,,,,,,,,,,,,,,,,50754,50752.700000047684,15001.044,15011.299999952316,15034.386,50757.911,{},,
Headphones,html.Page,0_1,2021-11-12T11:19:11.991Z,,,,,,,,,,,,,,,,,,,,,,,,,,,,,,4525.488999976158,,form submission,,,,,,,,,,,,,,,,55283.89999997616,55283.39999997616,50741.188,50754.700000047684,50757.911,55295.245,,,
Holding screen,html.Screen,0_2_0_0,2021-11-12T11:19:21.998Z,,,,,,,,,,,,,,,,,,,,,,,,,,,,,,10002.489999999998,,timeout,,,,,,,,,,,,,,,,65287.299999952316,65281.066,55278.575,55284.700000047684,55295.245,65297.735,,,
screen,html.Screen,0_2_0_1_0,2021-11-12T11:19:23.834Z,,,,,,,,,,,,,,,,53,,,,,,,,,,,,,,1824.4650000476831,,response,,,99,,,,,,Space,keypress(Space),,,,,When -- ----- -- ------ - ------- --- ----------<br>------------- ------ ------ ---- ---- ------- ----- -- ----<br>-------- ------- -- ---------- --- - --- ----- ----- ----<br>---- --- --- ----- --- ---- ---- ------- ----- ---- -------<br>--- --- -- ----- -- --- ---- -- --- ---- -- ------ ------<br>--- ----- -- ----,67123.60000002384,67122.20000004768,65281.066,65287.799999952316,65297.735,67132.027,,0,When
screen,html.Screen,0_2_0_1_1,2021-11-12T11:19:24.809Z,,,,,,,,,,,,,,,,53,,,,,,,,,,,,,,965.6730000476819,,response,,,99,,,,,,Space,keypress(Space),,,,,---- it ----- -- ------ - ------- --- ----------<br>------------- ------ ------ ---- ---- ------- ----- -- ----<br>-------- ------- -- ---------- --- - --- ----- ----- ----<br>---- --- --- ----- --- ---- ---- ------- ----- ---- -------<br>--- --- -- ----- -- --- ---- -- --- ---- -- ------ ------<br>--- ----- -- ----,68098.60000002384,68097.70000004768,67115.355,67124,67132.027,68115.353,,1,it
screen,html.Screen,0_2_0_1_2,2021-11-12T11:19:25.505Z,,,,,,,,,,,,,,,,53,,,,,,,,,,,,,,678.2470000238391,,response,,,99,,,,,,Space,keypress(Space),,,,,---- -- comes -- ------ - ------- --- ----------<br>------------- ------ ------ ---- ---- ------- ----- -- ----<br>-------- ------- -- ---------- --- - --- ----- ----- ----<br>---- --- --- ----- --- ---- ---- ------- ----- ---- -------<br>--- --- -- ----- -- --- ---- -- --- ---- -- ------ ------<br>--- ----- -- ----,68794.5,68793.60000002384,68098.683,68098.89999997616,68115.353,68798.981,,2,comes
screen,html.Screen,0_2_0_1_3,2021-11-12T11:19:26.049Z,,,,,,,,,,,,,,,,53,,,,,,,,,,,,,,538.5190000000002,,response,,,99,,,,,,Space,keypress(Space),,,,,---- -- ----- to ------ - ------- --- ----------<br>------------- ------ ------ ---- ---- ------- ----- -- ----<br>-------- ------- -- ---------- --- - --- ----- ----- ----<br>---- --- --- ----- --- ---- ---- ------- ----- ---- -------<br>--- --- -- ----- -- --- ---- -- --- ---- -- ------ ------<br>--- ----- -- ----,69338.5,69337.5,68782.31,68794.70000004768,68798.981,69349.135,,3,to
screen,html.Screen,0_2_0_1_4,2021-11-12T11:19:26.809Z,,,,,,,,,,,,,,,,53,,,,,,,,,,,,,,748.4650000238471,,response,,,99,,,,,,Space,keypress(Space),,,,,---- -- ----- -- having - ------- --- ----------<br>------------- ------ ------ ---- ---- ------- ----- -- ----<br>-------- ------- -- ---------- --- - --- ----- ----- ----<br>---- --- --- ----- --- ---- ---- ------- ----- ---- -------<br>--- --- -- ----- -- --- ---- -- --- ---- -- ------ ------<br>--- ----- -- ----,70098.70000004768,70097.60000002384,69332.464,69338.89999997616,69349.135,70115.806,,4,having
screen,html.Screen,0_2_0_1_5,2021-11-12T11:19:27.201Z,,,,,,,,,,,,,,,,53,,,,,,,,,,,,,,373.69400000000314,,response,,,99,,,,,,Space,keypress(Space),,,,,---- -- ----- -- ------ a ------- --- ----------<br>------------- ------ ------ ---- ---- ------- ----- -- ----<br>-------- ------- -- ---------- --- - --- ----- ----- ----<br>---- --- --- ----- --- ---- ---- ------- ----- ---- -------<br>--- --- -- ----- -- --- ---- -- --- ---- -- ------ ------<br>--- ----- -- ----,70490.5,70489.5,70099.137,70099,70115.806,70499.469,,5,a
screen,html.Screen,0_2_0_1_6,2021-11-12T11:19:28.033Z,,,,,,,,,,,,,,,,53,,,,,,,,,,,,,,821.9309999761608,,response,,,99,,,,,,Space,keypress(Space),,,,,---- -- ----- -- ------ - lasting --- ----------<br>------------- ------ ------ ---- ---- ------- ----- -- ----<br>-------- ------- -- ---------- --- - --- ----- ----- ----<br>---- --- --- ----- --- ---- ---- ------- ----- ---- -------<br>--- --- -- ----- -- --- ---- -- --- ---- -- ------ ------<br>--- ----- -- ----,71322.5,71321.39999997616,70482.798,70490.89999997616,70499.469,71332.99,,6,lasting
screen,html.Screen,0_2_0_1_7,2021-11-12T11:19:28.569Z,,,,,,,,,,,,,,,,53,,,,,,,,,,,,,,524.5099999999948,,response,,,99,,,,,,Space,keypress(Space),,,,,---- -- ----- -- ------ - ------- and ----------<br>------------- ------ ------ ---- ---- ------- ----- -- ----<br>-------- ------- -- ---------- --- - --- ----- ----- ----<br>---- --- --- ----- --- ---- ---- ------- ----- ---- -------<br>--- --- -- ----- -- --- ---- -- --- ---- -- ------ ------<br>--- ----- -- ----,71858.39999997616,71857.5,71316.319,71322.70000004768,71332.99,71866.492,,7,and
screen,html.Screen,0_2_0_1_8,2021-11-12T11:19:29.121Z,,,,,,,,,,,,,,,,53,,,,,,,,,,,,,,543.0080000000016,,response,,,99,,,,,,Space,keypress(Space),,,,,---- -- ----- -- ------ - ------- --- fulfilling<br>------------- ------ ------ ---- ---- ------- ----- -- ----<br>-------- ------- -- ---------- --- - --- ----- ----- ----<br>---- --- --- ----- --- ---- ---- ------- ----- ---- -------<br>--- --- -- ----- -- --- ---- -- --- ---- -- ------ ------<br>--- ----- -- ----,72410.5,72409.5,71849.821,71858.70000004768,71866.492,72416.548,,8,fulfilling
screen,html.Screen,0_2_0_1_9,2021-11-12T11:19:29.937Z,,,,,,,,,,,,,,,,53,,,,,,,,,,,,,,808.8519999761629,,response,,,99,,,,,,Space,keypress(Space),,,,,"---- -- ----- -- ------ - ------- --- ----------<br>relationship, ------ ------ ---- ---- ------- ----- -- ----<br>-------- ------- -- ---------- --- - --- ----- ----- ----<br>---- --- --- ----- --- ---- ---- ------- ----- ---- -------<br>--- --- -- ----- -- --- ---- -- --- ---- -- ------ ------<br>--- ----- -- ----",73226.29999995232,73225.39999997616,72399.878,72410.89999997616,72416.548,73233.501,,9,"relationship,"
screen,html.Screen,0_2_0_1_10,2021-11-12T11:19:30.593Z,,,,,,,,,,,,,,,,53,,,,,,,,,,,,,,647.7989999523124,,response,,,99,,,,,,Space,keypress(Space),,,,,---- -- ----- -- ------ - ------- --- ----------<br>------------- common ------ ---- ---- ------- ----- -- ----<br>-------- ------- -- ---------- --- - --- ----- ----- ----<br>---- --- --- ----- --- ---- ---- ------- ----- ---- -------<br>--- --- -- ----- -- --- ---- -- --- ---- -- ------ ------<br>--- ----- -- ----,73882.29999995232,73881.29999995232,73216.83,73226.60000002384,73233.501,73883.684,,10,common
screen,html.Screen,0_2_0_1_11,2021-11-12T11:19:31.305Z,,,,,,,,,,,,,,,,53,,,,,,,,,,,,,,709.6159999523225,,response,,,99,,,,,,Space,keypress(Space),,,,,---- -- ----- -- ------ - ------- --- ----------<br>------------- ------ wisdom ---- ---- ------- ----- -- ----<br>-------- ------- -- ---------- --- - --- ----- ----- ----<br>---- --- --- ----- --- ---- ---- ------- ----- ---- -------<br>--- --- -- ----- -- --- ---- -- --- ---- -- ------ ------<br>--- ----- -- ----,74594.29999995232,74593.29999995232,73867.013,73882.5,73883.684,74600.544,,11,wisdom
screen,html.Screen,0_2_0_1_12,2021-11-12T11:19:31.960Z,,,,,,,,,,,,,,,,53,,,,,,,,,,,,,,648.7559999523219,,response,,,99,,,,,,Space,keypress(Space),,,,,---- -- ----- -- ------ - ------- --- ----------<br>------------- ------ ------ says ---- ------- ----- -- ----<br>-------- ------- -- ---------- --- - --- ----- ----- ----<br>---- --- --- ----- --- ---- ---- ------- ----- ---- -------<br>--- --- -- ----- -- --- ---- -- --- ---- -- ------ ------<br>--- ----- -- ----,75250.10000002384,75249.29999995232,74583.873,74594.5,74600.544,75267.335,,12,says
screen,html.Screen,0_2_0_1_13,2021-11-12T11:19:32.577Z,,,,,,,,,,,,,,,,53,,,,,,,,,,,,,,597.9649999523099,,response,,,99,,,,,,Space,keypress(Space),,,,,---- -- ----- -- ------ - ------- --- ----------<br>------------- ------ ------ ---- that ------- ----- -- ----<br>-------- ------- -- ---------- --- - --- ----- ----- ----<br>---- --- --- ----- --- ---- ---- ------- ----- ---- -------<br>--- --- -- ----- -- --- ---- -- --- ---- -- ------ ------<br>--- ----- -- ----,75866.10000002384,75865.29999995232,75250.665,75250.39999997616,75267.335,75867.545,,13,that
screen,html.Screen,0_2_0_1_14,2021-11-12T11:19:33.320Z,,,,,,,,,,,,,,,,53,,,,,,,,,,,,,,741.6550000476855,,response,,,99,,,,,,Space,keypress(Space),,,,,---- -- ----- -- ------ - ------- --- ----------<br>------------- ------ ------ ---- ---- feeling ----- -- ----<br>-------- ------- -- ---------- --- - --- ----- ----- ----<br>---- --- --- ----- --- ---- ---- ------- ----- ---- -------<br>--- --- -- ----- -- --- ---- -- --- ---- -- ------ ------<br>--- ----- -- ----,76610,76609.20000004768,75850.874,75866.5,75867.545,76617.744,,14,feeling
screen,html.Screen,0_2_0_1_15,2021-11-12T11:19:33.824Z,,,,,,,,,,,,,,,,53,,,,,,,,,,,,,,495.45600004767766,,response,,,99,,,,,,Space,keypress(Space),,,,,---- -- ----- -- ------ - ------- --- ----------<br>------------- ------ ------ ---- ---- ------- close -- ----<br>-------- ------- -- ---------- --- - --- ----- ----- ----<br>---- --- --- ----- --- ---- ---- ------- ----- ---- -------<br>--- --- -- ----- -- --- ---- -- --- ---- -- ------ ------<br>--- ----- -- ----,77114,77113.20000004768,76601.073,76610.29999995232,76617.744,77117.876,,15,close
screen,html.Screen,0_2_0_1_16,2021-11-12T11:19:34.257Z,,,,,,,,,,,,,,,,53,,,,,,,,,,,,,,427.62399999999616,,response,,,99,,,,,,Space,keypress(Space),,,,,---- -- ----- -- ------ - ------- --- ----------<br>------------- ------ ------ ---- ---- ------- ----- to ----<br>-------- ------- -- ---------- --- - --- ----- ----- ----<br>---- --- --- ----- --- ---- ---- ------- ----- ---- -------<br>--- --- -- ----- -- --- ---- -- --- ---- -- ------ ------<br>--- ----- -- ----,77546.29999995232,77545.5,77101.205,77114.29999995232,77117.876,77551.338,,16,to
screen,html.Screen,0_2_0_1_17,2021-11-12T11:19:34.912Z,,,,,,,,,,,,,,,,53,,,,,,,,,,,,,,649.8620000476803,,response,,,99,,,,,,Space,keypress(Space),,,,,---- -- ----- -- ------ - ------- --- ----------<br>------------- ------ ------ ---- ---- ------- ----- -- your<br>-------- ------- -- ---------- --- - --- ----- ----- ----<br>---- --- --- ----- --- ---- ---- ------- ----- ---- -------<br>--- --- -- ----- -- --- ---- -- --- ---- -- ------ ------<br>--- ----- -- ----,78201.89999997616,78201.20000004768,77534.667,77546.60000002384,77551.338,78218.182,,17,your
screen,html.Screen,0_2_0_1_18,2021-11-12T11:19:35.496Z,,,,,,,,,,,,,,,,53,,,,,,,,,,,,,,567.1179999523156,,response,,,99,,,,,,Space,keypress(Space),,,,,---- -- ----- -- ------ - ------- --- ----------<br>------------- ------ ------ ---- ---- ------- ----- -- ----<br>romantic ------- -- ---------- --- - --- ----- ----- ----<br>---- --- --- ----- --- ---- ---- ------- ----- ---- -------<br>--- --- -- ----- -- --- ---- -- --- ---- -- ------ ------<br>--- ----- -- ----,78786.10000002384,78785.29999995232,78201.511,78202.20000004768,78218.182,78801.527,,18,romantic
screen,html.Screen,0_2_0_1_19,2021-11-12T11:19:36.104Z,,,,,,,,,,,,,,,,53,,,,,,,,,,,,,,591.57300002384,,response,,,99,,,,,,Space,keypress(Space),,,,,---- -- ----- -- ------ - ------- --- ----------<br>------------- ------ ------ ---- ---- ------- ----- -- ----<br>-------- partner -- ---------- --- - --- ----- ----- ----<br>---- --- --- ----- --- ---- ---- ------- ----- ---- -------<br>--- --- -- ----- -- --- ---- -- --- ---- -- ------ ------<br>--- ----- -- ----,79394,79393.10000002384,78784.858,78786.39999997616,78801.527,79401.849,,19,partner
screen,html.Screen,0_2_0_1_20,2021-11-12T11:19:36.560Z,,,,,,,,,,,,,,,,53,,,,,,,,,,,,,,447.2510000238399,,response,,,99,,,,,,Space,keypress(Space),,,,,---- -- ----- -- ------ - ------- --- ----------<br>------------- ------ ------ ---- ---- ------- ----- -- ----<br>-------- ------- is ---------- --- - --- ----- ----- ----<br>---- --- --- ----- --- ---- ---- ------- ----- ---- -------<br>--- --- -- ----- -- --- ---- -- --- ---- -- ------ ------<br>--- ----- -- ----,79849.79999995232,79849.10000002384,79385.178,79394.20000004768,79401.849,79851.955,,20,is
screen,html.Screen,0_2_0_1_21,2021-11-12T11:19:37.160Z,,,,,,,,,,,,,,,,53,,,,,,,,,,,,,,597.0449999999983,,response,,,99,,,,,,Space,keypress(Space),,,,,---- -- ----- -- ------ - ------- --- ----------<br>------------- ------ ------ ---- ---- ------- ----- -- ----<br>-------- ------- -- paramount. --- - --- ----- ----- ----<br>---- --- --- ----- --- ---- ---- ------- ----- ---- -------<br>--- --- -- ----- -- --- ---- -- --- ---- -- ------ ------<br>--- ----- -- ----,80449.79999995232,80449,79835.284,79850.10000002384,79851.955,80452.064,,21,paramount.
screen,html.Screen,0_2_0_1_22,2021-11-12T11:19:37.744Z,,,,,,,,,,,,,,,,53,,,,,,,,,,,,,,580.8359999761597,,response,,,99,,,,,,Space,keypress(Space),,,,,---- -- ----- -- ------ - ------- --- ----------<br>------------- ------ ------ ---- ---- ------- ----- -- ----<br>-------- ------- -- ---------- But - --- ----- ----- ----<br>---- --- --- ----- --- ---- ---- ------- ----- ---- -------<br>--- --- -- ----- -- --- ---- -- --- ---- -- ------ ------<br>--- ----- -- ----,81033.79999995232,81032.89999997616,80435.394,80450.20000004768,80452.064,81035.618,,22,But
screen,html.Screen,0_2_0_1_23,2021-11-12T11:19:38.480Z,,,,,,,,,,,,,,,,53,,,,,,,,,,,,,,733.3819999999978,,response,,,99,,,,,,Space,keypress(Space),,,,,---- -- ----- -- ------ - ------- --- ----------<br>------------- ------ ------ ---- ---- ------- ----- -- ----<br>-------- ------- -- ---------- --- a --- ----- ----- ----<br>---- --- --- ----- --- ---- ---- ------- ----- ---- -------<br>--- --- -- ----- -- --- ---- -- --- ---- -- ------ ------<br>--- ----- -- ----,81769.79999995232,81769,81018.947,81034,81035.618,81785.719,,23,a
screen,html.Screen,0_2_0_1_24,2021-11-12T11:19:39.248Z,,,,,,,,,,,,,,,,53,,,,,,,,,,,,,,751.2810000000027,,response,,,99,,,,,,Space,keypress(Space),,,,,---- -- ----- -- ------ - ------- --- ----------<br>------------- ------ ------ ---- ---- ------- ----- -- ----<br>-------- ------- -- ---------- --- - new ----- ----- ----<br>---- --- --- ----- --- ---- ---- ------- ----- ---- -------<br>--- --- -- ----- -- --- ---- -- --- ---- -- ------ ------<br>--- ----- -- ----,82537.70000004768,82537,81769.049,81770,81785.719,82552.705,,24,new
screen,html.Screen,0_2_0_1_25,2021-11-12T11:19:39.824Z,,,,,,,,,,,,,,,,53,,,,,,,,,,,,,,560.1949999761564,,response,,,99,,,,,,Space,keypress(Space),,,,,---- -- ----- -- ------ - ------- --- ----------<br>------------- ------ ------ ---- ---- ------- ----- -- ----<br>-------- ------- -- ---------- --- - --- study ----- ----<br>---- --- --- ----- --- ---- ---- ------- ----- ---- -------<br>--- --- -- ----- -- --- ---- -- --- ---- -- ------ ------<br>--- ----- -- ----,83113.79999995232,83112.89999997616,82536.034,82538,82552.705,83119.421,,25,study
screen,html.Screen,0_2_0_1_26,2021-11-12T11:19:40.336Z,,,,,,,,,,,,,,,,53,,,,,,,,,,,,,,505.5789999999979,,response,,,99,,,,,,Space,keypress(Space),,,,,---- -- ----- -- ------ - ------- --- ----------<br>------------- ------ ------ ---- ---- ------- ----- -- ----<br>-------- ------- -- ---------- --- - --- ----- finds ----<br>---- --- --- ----- --- ---- ---- ------- ----- ---- -------<br>--- --- -- ----- -- --- ---- -- --- ---- -- ------ ------<br>--- ----- -- ----,83625.79999995232,83625,83102.751,83114,83119.421,83636.195,,26,finds
screen,html.Screen,0_2_0_1_27,2021-11-12T11:19:40.704Z,,,,,,,,,,,,,,,,53,,,,,,,,,,,,,,356.70499997615116,,response,,,99,,,,,,Space,keypress(Space),,,,,---- -- ----- -- ------ - ------- --- ----------<br>------------- ------ ------ ---- ---- ------- ----- -- ----<br>-------- ------- -- ---------- --- - --- ----- ----- that<br>---- --- --- ----- --- ---- ---- ------- ----- ---- -------<br>--- --- -- ----- -- --- ---- -- --- ---- -- ------ ------<br>--- ----- -- ----,83993.79999995232,83992.89999997616,83619.525,83626,83636.195,84003.022,,27,that
screen,html.Screen,0_2_0_1_28,2021-11-12T11:19:41.376Z,,,,,,,,,,,,,,,,53,,,,,,,,,,,,,,661.8779999761609,,response,,,99,,,,,,Space,keypress(Space),,,,,---- -- ----- -- ------ - ------- --- ----------<br>------------- ------ ------ ---- ---- ------- ----- -- ----<br>-------- ------- -- ---------- --- - --- ----- ----- ----<br>it's --- --- ----- --- ---- ---- ------- ----- ---- -------<br>--- --- -- ----- -- --- ---- -- --- ---- -- ------ ------<br>--- ----- -- ----,84665.70000004768,84664.89999997616,83986.351,83994,84003.022,84669.969,,28,it's
screen,html.Screen,0_2_0_1_29,2021-11-12T11:19:41.800Z,,,,,,,,,,,,,,,,53,,,,,,,,,,,,,,418.9309999761608,,response,,,99,,,,,,Space,keypress(Space),,,,,---- -- ----- -- ------ - ------- --- ----------<br>------------- ------ ------ ---- ---- ------- ----- -- ----<br>-------- ------- -- ---------- --- - --- ----- ----- ----<br>---- not --- ----- --- ---- ---- ------- ----- ---- -------<br>--- --- -- ----- -- --- ---- -- --- ---- -- ------ ------<br>--- ----- -- ----,85089.70000004768,85088.89999997616,84653.297,84665.89999997616,84669.969,85103.379,,29,not
screen,html.Screen,0_2_0_1_30,2021-11-12T11:19:42.264Z,,,,,,,,,,,,,,,,53,,,,,,,,,,,,,,449.5209999761573,,response,,,99,,,,,,Space,keypress(Space),,,,,---- -- ----- -- ------ - ------- --- ----------<br>------------- ------ ------ ---- ---- ------- ----- -- ----<br>-------- ------- -- ---------- --- - --- ----- ----- ----<br>---- --- how ----- --- ---- ---- ------- ----- ---- -------<br>--- --- -- ----- -- --- ---- -- --- ---- -- ------ ------<br>--- ----- -- ----,85553.60000002384,85552.89999997616,85086.708,85089.89999997616,85103.379,85570.119,,30,how
screen,html.Screen,0_2_0_1_31,2021-11-12T11:19:42.712Z,,,,,,,,,,,,,,,,53,,,,,,,,,,,,,,430.68099995231023,,response,,,99,,,,,,Space,keypress(Space),,,,,---- -- ----- -- ------ - ------- --- ----------<br>------------- ------ ------ ---- ---- ------- ----- -- ----<br>-------- ------- -- ---------- --- - --- ----- ----- ----<br>---- --- --- close --- ---- ---- ------- ----- ---- -------<br>--- --- -- ----- -- --- ---- -- --- ---- -- ------ ------<br>--- ----- -- ----,86001.60000002384,86000.79999995232,85553.449,85553.89999997616,85570.119,86003.601,,31,close
screen,html.Screen,0_2_0_1_32,2021-11-12T11:19:43.016Z,,,,,,,,,,,,,,,,53,,,,,,,,,,,,,,301.1989999523212,,response,,,99,,,,,,Space,keypress(Space),,,,,---- -- ----- -- ------ - ------- --- ----------<br>------------- ------ ------ ---- ---- ------- ----- -- ----<br>-------- ------- -- ---------- --- - --- ----- ----- ----<br>---- --- --- ----- you ---- ---- ------- ----- ---- -------<br>--- --- -- ----- -- --- ---- -- --- ---- -- ------ ------<br>--- ----- -- ----,86305.70000004768,86304.79999995232,85986.93,86001.89999997616,86003.601,86320.356,,32,you
screen,html.Screen,0_2_0_1_33,2021-11-12T11:19:43.320Z,,,,,,,,,,,,,,,,53,,,,,,,,,,,,,,288.4439999523165,,response,,,99,,,,,,Space,keypress(Space),,,,,---- -- ----- -- ------ - ------- --- ----------<br>------------- ------ ------ ---- ---- ------- ----- -- ----<br>-------- ------- -- ---------- --- - --- ----- ----- ----<br>---- --- --- ----- --- feel ---- ------- ----- ---- -------<br>--- --- -- ----- -- --- ---- -- --- ---- -- ------ ------<br>--- ----- -- ----,86609.60000002384,86608.79999995232,86303.685,86305.89999997616,86320.356,86620.452,,33,feel
screen,html.Screen,0_2_0_1_34,2021-11-12T11:19:44.240Z,,,,,,,,,,,,,,,,53,,,,,,,,,,,,,,908.3479999523115,,response,,,99,,,,,,Space,keypress(Space),,,,,---- -- ----- -- ------ - ------- --- ----------<br>------------- ------ ------ ---- ---- ------- ----- -- ----<br>-------- ------- -- ---------- --- - --- ----- ----- ----<br>---- --- --- ----- --- ---- that ------- ----- ---- -------<br>--- --- -- ----- -- --- ---- -- --- ---- -- ------ ------<br>--- ----- -- ----,87529.60000002384,87528.79999995232,86603.781,86609.89999997616,86620.452,87537.272,,34,that
screen,html.Screen,0_2_0_1_35,2021-11-12T11:19:44.872Z,,,,,,,,,,,,,,,,53,,,,,,,,,,,,,,623.8280000238447,,response,,,99,,,,,,Space,keypress(Space),,,,,---- -- ----- -- ------ - ------- --- ----------<br>------------- ------ ------ ---- ---- ------- ----- -- ----<br>-------- ------- -- ---------- --- - --- ----- ----- ----<br>---- --- --- ----- --- ---- ---- matters ----- ---- -------<br>--- --- -- ----- -- --- ---- -- --- ---- -- ------ ------<br>--- ----- -- ----,88162.10000002384,88161.10000002384,87520.602,87532.10000002384,87537.272,88170.847,,35,matters
screen,html.Screen,0_2_0_1_36,2021-11-12T11:19:45.600Z,,,,,,,,,,,,,,,,53,,,,,,,,,,,,,,717.8530000476894,,response,,,99,,,,,,Space,keypress(Space),,,,,"---- -- ----- -- ------ - ------- --- ----------<br>------------- ------ ------ ---- ---- ------- ----- -- ----<br>-------- ------- -- ---------- --- - --- ----- ----- ----<br>---- --- --- ----- --- ---- ---- ------- most, ---- -------<br>--- --- -- ----- -- --- ---- -- --- ---- -- ------ ------<br>--- ----- -- ----",88889.79999995232,88888.70000004768,88154.176,88162.39999997616,88170.847,88904.376,,36,"most,"
screen,html.Screen,0_2_0_1_37,2021-11-12T11:19:46.008Z,,,,,,,,,,,,,,,,53,,,,,,,,,,,,,,392.3240000476799,,response,,,99,,,,,,Space,keypress(Space),,,,,---- -- ----- -- ------ - ------- --- ----------<br>------------- ------ ------ ---- ---- ------- ----- -- ----<br>-------- ------- -- ---------- --- - --- ----- ----- ----<br>---- --- --- ----- --- ---- ---- ------- ----- it's -------<br>--- --- -- ----- -- --- ---- -- --- ---- -- ------ ------<br>--- ----- -- ----,89297.39999997616,89296.70000004768,88887.705,88890,88904.376,89304.491,,37,it's
screen,html.Screen,0_2_0_1_38,2021-11-12T11:19:46.512Z,,,,,,,,,,,,,,,,53,,,,,,,,,,,,,,496.2090000476892,,response,,,99,,,,,,Space,keypress(Space),,,,,---- -- ----- -- ------ - ------- --- ----------<br>------------- ------ ------ ---- ---- ------- ----- -- ----<br>-------- ------- -- ---------- --- - --- ----- ----- ----<br>---- --- --- ----- --- ---- ---- ------- ----- ---- whether<br>--- --- -- ----- -- --- ---- -- --- ---- -- ------ ------<br>--- ----- -- ----,89801.5,89800.70000004768,89287.82,89297.70000004768,89304.491,89804.627,,38,whether
screen,html.Screen,0_2_0_1_39,2021-11-12T11:19:47.176Z,,,,,,,,,,,,,,,,53,,,,,,,,,,,,,,659.9730000238487,,response,,,99,,,,,,Space,keypress(Space),,,,,---- -- ----- -- ------ - ------- --- ----------<br>------------- ------ ------ ---- ---- ------- ----- -- ----<br>-------- ------- -- ---------- --- - --- ----- ----- ----<br>---- --- --- ----- --- ---- ---- ------- ----- ---- -------<br>you --- -- ----- -- --- ---- -- --- ---- -- ------ ------<br>--- ----- -- ----,90465.39999997616,90464.60000002384,89787.956,89801.70000004768,89804.627,90471.398,,39,you
screen,html.Screen,0_2_0_1_40,2021-11-12T11:19:47.728Z,,,,,,,,,,,,,,,,53,,,,,,,,,,,,,,545.2020000238408,,response,,,99,,,,,,Space,keypress(Space),,,,,---- -- ----- -- ------ - ------- --- ----------<br>------------- ------ ------ ---- ---- ------- ----- -- ----<br>-------- ------- -- ---------- --- - --- ----- ----- ----<br>---- --- --- ----- --- ---- ---- ------- ----- ---- -------<br>--- are -- ----- -- --- ---- -- --- ---- -- ------ ------<br>--- ----- -- ----,91017.5,91016.60000002384,90454.728,90465.60000002384,90471.398,91021.644,,40,are
screen,html.Screen,0_2_0_1_41,2021-11-12T11:19:48.192Z,,,,,,,,,,,,,,,,53,,,,,,,,,,,,,,458.9560000238416,,response,,,99,,,,,,Space,keypress(Space),,,,,---- -- ----- -- ------ - ------- --- ----------<br>------------- ------ ------ ---- ---- ------- ----- -- ----<br>-------- ------- -- ---------- --- - --- ----- ----- ----<br>---- --- --- ----- --- ---- ---- ------- ----- ---- -------<br>--- --- as ----- -- --- ---- -- --- ---- -- ------ ------<br>--- ----- -- ----,91481.39999997616,91480.60000002384,91004.973,91017.60000002384,91021.644,91488.369,,41,as
screen,html.Screen,0_2_0_1_42,2021-11-12T11:19:48.592Z,,,,,,,,,,,,,,,,53,,,,,,,,,,,,,,392.2310000238358,,response,,,99,,,,,,Space,keypress(Space),,,,,---- -- ----- -- ------ - ------- --- ----------<br>------------- ------ ------ ---- ---- ------- ----- -- ----<br>-------- ------- -- ---------- --- - --- ----- ----- ----<br>---- --- --- ----- --- ---- ---- ------- ----- ---- -------<br>--- --- -- close -- --- ---- -- --- ---- -- ------ ------<br>--- ----- -- ----,91881.39999997616,91880.60000002384,91471.699,91481.70000004768,91488.369,91888.516,,42,close
screen,html.Screen,0_2_0_1_43,2021-11-12T11:19:49.048Z,,,,,,,,,,,,,,,,53,,,,,,,,,,,,,,447.98399999999674,,response,,,99,,,,,,Space,keypress(Space),,,,,---- -- ----- -- ------ - ------- --- ----------<br>------------- ------ ------ ---- ---- ------- ----- -- ----<br>-------- ------- -- ---------- --- - --- ----- ----- ----<br>---- --- --- ----- --- ---- ---- ------- ----- ---- -------<br>--- --- -- ----- as --- ---- -- --- ---- -- ------ ------<br>--- ----- -- ----,92337.29999995232,92336.5,91871.845,91881.60000002384,91888.516,92338.598,,43,as
screen,html.Screen,0_2_0_1_44,2021-11-12T11:19:49.408Z,,,,,,,,,,,,,,,,53,,,,,,,,,,,,,,357.90200000000186,,response,,,99,,,,,,Space,keypress(Space),,,,,---- -- ----- -- ------ - ------- --- ----------<br>------------- ------ ------ ---- ---- ------- ----- -- ----<br>-------- ------- -- ---------- --- - --- ----- ----- ----<br>---- --- --- ----- --- ---- ---- ------- ----- ---- -------<br>--- --- -- ----- -- you ---- -- --- ---- -- ------ ------<br>--- ----- -- ----,92697.39999997616,92696.5,92321.928,92337.70000004768,92338.598,92705.415,,44,you
screen,html.Screen,0_2_0_1_45,2021-11-12T11:19:49.784Z,,,,,,,,,,,,,,,,53,,,,,,,,,,,,,,367.18500002384826,,response,,,99,,,,,,Space,keypress(Space),,,,,---- -- ----- -- ------ - ------- --- ----------<br>------------- ------ ------ ---- ---- ------- ----- -- ----<br>-------- ------- -- ---------- --- - --- ----- ----- ----<br>---- --- --- ----- --- ---- ---- ------- ----- ---- -------<br>--- --- -- ----- -- --- want -- --- ---- -- ------ ------<br>--- ----- -- ----,93073.29999995232,93072.60000002384,92688.744,92697.5,92705.415,93088.847,,45,want
screen,html.Screen,0_2_0_1_46,2021-11-12T11:19:50.176Z,,,,,,,,,,,,,,,,53,,,,,,,,,,,,,,375.6530000000057,,response,,,99,,,,,,Space,keypress(Space),,,,,---- -- ----- -- ------ - ------- --- ----------<br>------------- ------ ------ ---- ---- ------- ----- -- ----<br>-------- ------- -- ---------- --- - --- ----- ----- ----<br>---- --- --- ----- --- ---- ---- ------- ----- ---- -------<br>--- --- -- ----- -- --- ---- to --- ---- -- ------ ------<br>--- ----- -- ----,93465.29999995232,93464.5,93072.176,93073.60000002384,93088.847,93472.238,,46,to
screen,html.Screen,0_2_0_1_47,2021-11-12T11:19:50.520Z,,,,,,,,,,,,,,,,53,,,,,,,,,,,,,,336.1619999761606,,response,,,99,,,,,,Space,keypress(Space),,,,,"---- -- ----- -- ------ - ------- --- ----------<br>------------- ------ ------ ---- ---- ------- ----- -- ----<br>-------- ------- -- ---------- --- - --- ----- ----- ----<br>---- --- --- ----- --- ---- ---- ------- ----- ---- -------<br>--- --- -- ----- -- --- ---- -- be, ---- -- ------ ------<br>--- ----- -- ----",93809.20000004768,93808.39999997616,93455.568,93465.60000002384,93472.238,93822.407,,47,"be,"
screen,html.Screen,0_2_0_1_48,2021-11-12T11:19:50.992Z,,,,,,,,,,,,,,,,53,,,,,,,,,,,,,,458.0929999999935,,response,,,99,,,,,,Space,keypress(Space),,,,,---- -- ----- -- ------ - ------- --- ----------<br>------------- ------ ------ ---- ---- ------- ----- -- ----<br>-------- ------- -- ---------- --- - --- ----- ----- ----<br>---- --- --- ----- --- ---- ---- ------- ----- ---- -------<br>--- --- -- ----- -- --- ---- -- --- even -- ------ ------<br>--- ----- -- ----,94281.29999995232,94280.5,93805.736,93809.39999997616,93822.407,94289.11,,48,even
screen,html.Screen,0_2_0_1_49,2021-11-12T11:19:51.392Z,,,,,,,,,,,,,,,,53,,,,,,,,,,,,,,391.28999997615756,,response,,,99,,,,,,Space,keypress(Space),,,,,---- -- ----- -- ------ - ------- --- ----------<br>------------- ------ ------ ---- ---- ------- ----- -- ----<br>-------- ------- -- ---------- --- - --- ----- ----- ----<br>---- --- --- ----- --- ---- ---- ------- ----- ---- -------<br>--- --- -- ----- -- --- ---- -- --- ---- if ------ ------<br>--- ----- -- ----,94681.20000004768,94680.39999997616,94272.44,94281.5,94289.11,94689.278,,49,if
screen,html.Screen,0_2_0_1_50,2021-11-12T11:19:51.784Z,,,,,,,,,,,,,,,,53,,,,,,,,,,,,,,383.12199997615244,,response,,,99,,,,,,Space,keypress(Space),,,,,---- -- ----- -- ------ - ------- --- ----------<br>------------- ------ ------ ---- ---- ------- ----- -- ----<br>-------- ------- -- ---------- --- - --- ----- ----- ----<br>---- --- --- ----- --- ---- ---- ------- ----- ---- -------<br>--- --- -- ----- -- --- ---- -- --- ---- -- that's ------<br>--- ----- -- ----,95073.20000004768,95072.39999997616,94672.607,94681.5,94689.278,95089.335,,50,that's
screen,html.Screen,0_2_0_1_51,2021-11-12T11:19:52.448Z,,,,,,,,,,,,,,,,53,,,,,,,,,,,,,,647.0649999761517,,response,,,99,,,,,,Space,keypress(Space),,,,,---- -- ----- -- ------ - ------- --- ----------<br>------------- ------ ------ ---- ---- ------- ----- -- ----<br>-------- ------- -- ---------- --- - --- ----- ----- ----<br>---- --- --- ----- --- ---- ---- ------- ----- ---- -------<br>--- --- -- ----- -- --- ---- -- --- ---- -- ------ really<br>--- ----- -- ----,95737.20000004768,95736.39999997616,95072.665,95073.39999997616,95089.335,95739.556,,51,really
screen,html.Screen,0_2_0_1_52,2021-11-12T11:19:52.968Z,,,,,,,,,,,,,,,,53,,,,,,,,,,,,,,516.7439999523194,,response,,,99,,,,,,Space,keypress(Space),,,,,---- -- ----- -- ------ - ------- --- ----------<br>------------- ------ ------ ---- ---- ------- ----- -- ----<br>-------- ------- -- ---------- --- - --- ----- ----- ----<br>---- --- --- ----- --- ---- ---- ------- ----- ---- -------<br>--- --- -- ----- -- --- ---- -- --- ---- -- ------ ------<br>not ----- -- ----,96257.20000004768,96256.29999995232,95722.885,95737.5,95739.556,96273.048,,52,not
screen,html.Screen,0_2_0_1_53,2021-11-12T11:19:53.399Z,,,,,,,,,,,,,,,,53,,,,,,,,,,,,,,415.1520000476885,,response,,,99,,,,,,Space,keypress(Space),,,,,---- -- ----- -- ------ - ------- --- ----------<br>------------- ------ ------ ---- ---- ------- ----- -- ----<br>-------- ------- -- ---------- --- - --- ----- ----- ----<br>---- --- --- ----- --- ---- ---- ------- ----- ---- -------<br>--- --- -- ----- -- --- ---- -- --- ---- -- ------ ------<br>--- close -- ----,96689,96688.20000004768,96256.377,96257.39999997616,96273.048,96706.443,,53,close
screen,html.Screen,0_2_0_1_54,2021-11-12T11:19:53.767Z,,,,,,,,,,,,,,,,53,,,,,,,,,,,,,,349.856999952317,,response,,,99,,,,,,Space,keypress(Space),,,,,---- -- ----- -- ------ - ------- --- ----------<br>------------- ------ ------ ---- ---- ------- ----- -- ----<br>-------- ------- -- ---------- --- - --- ----- ----- ----<br>---- --- --- ----- --- ---- ---- ------- ----- ---- -------<br>--- --- -- ----- -- --- ---- -- --- ---- -- ------ ------<br>--- ----- at ----,97057.10000002384,97056.29999995232,96689.773,96689.29999995232,96706.443,97073.122,,54,at
screen,html.Screen,0_2_0_1_55,2021-11-12T11:19:54.391Z,,,,,,,,,,,,,,,,53,,,,,,,,,,,,,,607.0780000476807,,response,,,99,,,,,,Space,keypress(Space),,,,,---- -- ----- -- ------ - ------- --- ----------<br>------------- ------ ------ ---- ---- ------- ----- -- ----<br>-------- ------- -- ---------- --- - --- ----- ----- ----<br>---- --- --- ----- --- ---- ---- ------- ----- ---- -------<br>--- --- -- ----- -- --- ---- -- --- ---- -- ------ ------<br>--- ----- -- all.,97681,97680.20000004768,97056.453,97057.29999995232,97073.122,97690.141,,55,all.
Item 99,flow.Loop,0_2_0_1,2021-11-12T11:19:54.396Z,,,,,,,,,,,,,,,,,,,,,,,,,,,,,,32382.465000047683,,completion,,,,D,,,,,,,,,,silence,,97685.39999997616,97680.20000004768,65281.066,65287.60000002384,65297.735,97690.141,,,
Question 1,html.Screen,0_2_0_2,2021-11-12T11:20:00.792Z,,,,,,,,,,,,,,,,,,,,,,,,,,,true,FALSE,,6389.758999976155,,response,,,99,D,,,,,FALSE,click #choice-2,,,,silence,,104081.29999995232,104079.89999997616,97673.469,97685.70000004768,97690.141,104091.856,,,
Question 2,html.Screen,0_2_0_3,2021-11-12T11:20:05.759Z,,,,,,,,,,,,,,,,,,,,,,,,,,,true,TRUE,,4955.844000047684,,response,,,99,D,,,,,TRUE,click #choice-1,,,,silence,,109048.89999997616,109047.70000004768,104075.184,104081.70000004768,104091.856,109059.799,,,
Item 99,flow.Sequence,0_2_0,2021-11-12T11:20:05.760Z,,,,,,,,,,,,,,,,,,,,,,,,,,,,,,53752.45500004768,,completion,,,,,,,,,,,,,,,,109049.29999995232,109047.70000004768,55278.575,55284.5,55295.245,109059.799,,,
Holding screen,html.Screen,0_2_1_0,2021-11-12T11:20:15.757Z,,,,,,,,,,,,,,,,,,,,,,,,,,,,,,10002.494000000006,,timeout,,,,,,,,,,,,,,,,119046.79999995232,119045.623,109043.128,109049.70000004768,109059.799,119062.293,,,
screen,html.Screen,0_2_1_1_0,2021-11-12T11:20:16.880Z,,,,,,,,,,,,,,,,54,,,,,,,,,,,,,,1106.0069999523112,,response,,,100,,,,,,Space,keypress(Space),,,,,At --- ---- --- ------ ----- ------- ---- -- --- ------- --<br>------- ---------- ------ -- ----- -- ----- -- ---- ------<br>--- ----- --- --- ------ -------- ----- --- ------ ----- --<br>----- ----- ---------- --- --- ------ ------ ---- -- ------<br>------- --- ------ ----- --- ---- ------- -- ---- --- --<br>------- ------,120169.5,120168.29999995232,119045.623,119047.29999995232,119062.293,120179.527,,0,At
screen,html.Screen,0_2_1_1_1,2021-11-12T11:20:17.809Z,,,,,,,,,,,,,,,,54,,,,,,,,,,,,,,915.7729999523144,,response,,,100,,,,,,Space,keypress(Space),,,,,-- the ---- --- ------ ----- ------- ---- -- --- ------- --<br>------- ---------- ------ -- ----- -- ----- -- ---- ------<br>--- ----- --- --- ------ -------- ----- --- ------ ----- --<br>----- ----- ---------- --- --- ------ ------ ---- -- ------<br>------- --- ------ ----- --- ---- ------- -- ---- --- --<br>------- ------,121096.20000004768,121095.29999995232,120162.855,120169.70000004768,120179.527,121112.955,,1,the
screen,html.Screen,0_2_1_1_2,2021-11-12T11:20:18.449Z,,,,,,,,,,,,,,,,54,,,,,,,,,,,,,,622.3449999523145,,response,,,100,,,,,,Space,keypress(Space),,,,,-- --- time --- ------ ----- ------- ---- -- --- ------- --<br>------- ---------- ------ -- ----- -- ----- -- ---- ------<br>--- ----- --- --- ------ -------- ----- --- ------ ----- --<br>----- ----- ---------- --- --- ------ ------ ---- -- ------<br>------- --- ------ ----- --- ---- ------- -- ---- --- --<br>------- ------,121736.10000002384,121735.29999995232,121096.285,121096.39999997616,121112.955,121746.533,,2,time
screen,html.Screen,0_2_1_1_3,2021-11-12T11:20:19.185Z,,,,,,,,,,,,,,,,54,,,,,,,,,,,,,,724.7669999523205,,response,,,100,,,,,,Space,keypress(Space),,,,,-- --- ---- the ------ ----- ------- ---- -- --- ------- --<br>------- ---------- ------ -- ----- -- ----- -- ---- ------<br>--- ----- --- --- ------ -------- ----- --- ------ ----- --<br>----- ----- ---------- --- --- ------ ------ ---- -- ------<br>------- --- ------ ----- --- ---- ------- -- ---- --- --<br>------- ------,122472,122471.29999995232,121729.862,121736.39999997616,121746.533,122480.067,,3,the
screen,html.Screen,0_2_1_1_4,2021-11-12T11:20:19.745Z,,,,,,,,,,,,,,,,54,,,,,,,,,,,,,,551.1330000476883,,response,,,100,,,,,,Space,keypress(Space),,,,,-- --- ---- --- French ----- ------- ---- -- --- ------- --<br>------- ---------- ------ -- ----- -- ----- -- ---- ------<br>--- ----- --- --- ------ -------- ----- --- ------ ----- --<br>----- ----- ---------- --- --- ------ ------ ---- -- ------<br>------- --- ------ ----- --- ---- ------- -- ---- --- --<br>------- ------,123032,123031.20000004768,122463.396,122472.29999995232,122480.067,123046.889,,4,French
screen,html.Screen,0_2_1_1_5,2021-11-12T11:20:20.425Z,,,,,,,,,,,,,,,,54,,,,,,,,,,,,,,664.2110000238463,,response,,,100,,,,,,Space,keypress(Space),,,,,-- --- ---- --- ------ crown ------- ---- -- --- ------- --<br>------- ---------- ------ -- ----- -- ----- -- ---- ------<br>--- ----- --- --- ------ -------- ----- --- ------ ----- --<br>----- ----- ---------- --- --- ------ ------ ---- -- ------<br>------- --- ------ ----- --- ---- ------- -- ---- --- --<br>------- ------,123711.89999997616,123711.10000002384,123030.218,123032.29999995232,123046.889,123713.741,,5,crown
screen,html.Screen,0_2_1_1_6,2021-11-12T11:20:21.001Z,,,,,,,,,,,,,,,,54,,,,,,,,,,,,,,573.3590000238473,,response,,,100,,,,,,Space,keypress(Space),,,,,-- --- ---- --- ------ ----- secured ---- -- --- ------- --<br>------- ---------- ------ -- ----- -- ----- -- ---- ------<br>--- ----- --- --- ------ -------- ----- --- ------ ----- --<br>----- ----- ---------- --- --- ------ ------ ---- -- ------<br>------- --- ------ ----- --- ---- ------- -- ---- --- --<br>------- ------,124287.79999995232,124287.10000002384,123697.07,123712.10000002384,123713.741,124297.232,,6,secured
screen,html.Screen,0_2_1_1_7,2021-11-12T11:20:21.777Z,,,,,,,,,,,,,,,,54,,,,,,,,,,,,,,765.8680000238382,,response,,,100,,,,,,Space,keypress(Space),,,,,-- --- ---- --- ------ ----- ------- much -- --- ------- --<br>------- ---------- ------ -- ----- -- ----- -- ---- ------<br>--- ----- --- --- ------ -------- ----- --- ------ ----- --<br>----- ----- ---------- --- --- ------ ------ ---- -- ------<br>------- --- ------ ----- --- ---- ------- -- ---- --- --<br>------- ------,125064,125063.10000002384,124280.561,124288.20000004768,124297.232,125080.572,,7,much
screen,html.Screen,0_2_1_1_8,2021-11-12T11:20:22.201Z,,,,,,,,,,,,,,,,54,,,,,,,,,,,,,,406.52800002384174,,response,,,100,,,,,,Space,keypress(Space),,,,,-- --- ---- --- ------ ----- ------- ---- of --- ------- --<br>------- ---------- ------ -- ----- -- ----- -- ---- ------<br>--- ----- --- --- ------ -------- ----- --- ------ ----- --<br>----- ----- ---------- --- --- ------ ------ ---- -- ------<br>------- --- ------ ----- --- ---- ------- -- ---- --- --<br>------- ------,125487.79999995232,125487.10000002384,125063.903,125064.20000004768,125080.572,125497.641,,8,of
screen,html.Screen,0_2_1_1_9,2021-11-12T11:20:22.561Z,,,,,,,,,,,,,,,,54,,,,,,,,,,,,,,349.4590000238386,,response,,,100,,,,,,Space,keypress(Space),,,,,-- --- ---- --- ------ ----- ------- ---- -- its ------- --<br>------- ---------- ------ -- ----- -- ----- -- ---- ------<br>--- ----- --- --- ------ -------- ----- --- ------ ----- --<br>----- ----- ---------- --- --- ------ ------ ---- -- ------<br>------- --- ------ ----- --- ---- ------- -- ---- --- --<br>------- ------,125847.89999997616,125847.10000002384,125480.969,125488.10000002384,125497.641,125864.312,,9,its
screen,html.Screen,0_2_1_1_10,2021-11-12T11:20:23.201Z,,,,,,,,,,,,,,,,54,,,,,,,,,,,,,,622.7880000238365,,response,,,100,,,,,,Space,keypress(Space),,,,,-- --- ---- --- ------ ----- ------- ---- -- --- revenue --<br>------- ---------- ------ -- ----- -- ----- -- ---- ------<br>--- ----- --- --- ------ -------- ----- --- ------ ----- --<br>----- ----- ---------- --- --- ------ ------ ---- -- ------<br>------- --- ------ ----- --- ---- ------- -- ---- --- --<br>------- ------,126488,126487.10000002384,125847.641,125848.20000004768,125864.312,126497.764,,10,revenue
screen,html.Screen,0_2_1_1_11,2021-11-12T11:20:23.809Z,,,,,,,,,,,,,,,,54,,,,,,,,,,,,,,597.3360000238463,,response,,,100,,,,,,Space,keypress(Space),,,,,-- --- ---- --- ------ ----- ------- ---- -- --- ------- by<br>------- ---------- ------ -- ----- -- ----- -- ---- ------<br>--- ----- --- --- ------ -------- ----- --- ------ ----- --<br>----- ----- ---------- --- --- ------ ------ ---- -- ------<br>------- --- ------ ----- --- ---- ------- -- ---- --- --<br>------- ------,127095.79999995232,127095.10000002384,126481.094,126488.10000002384,126497.764,127098.003,,11,by
screen,html.Screen,0_2_1_1_12,2021-11-12T11:20:24.401Z,,,,,,,,,,,,,,,,54,,,,,,,,,,,,,,588.997000000003,,response,,,100,,,,,,Space,keypress(Space),,,,,-- --- ---- --- ------ ----- ------- ---- -- --- ------- --<br>issuing ---------- ------ -- ----- -- ----- -- ---- ------<br>--- ----- --- --- ------ -------- ----- --- ------ ----- --<br>----- ----- ---------- --- --- ------ ------ ---- -- ------<br>------- --- ------ ----- --- ---- ------- -- ---- --- --<br>------- ------,127687.70000004768,127687,127081.332,127096,127098.003,127698.146,,12,issuing
screen,html.Screen,0_2_1_1_13,2021-11-12T11:20:24.977Z,,,,,,,,,,,,,,,,54,,,,,,,,,,,,,,564.8540000000066,,response,,,100,,,,,,Space,keypress(Space),,,,,-- --- ---- --- ------ ----- ------- ---- -- --- ------- --<br>------- government ------ -- ----- -- ----- -- ---- ------<br>--- ----- --- --- ------ -------- ----- --- ------ ----- --<br>----- ----- ---------- --- --- ------ ------ ---- -- ------<br>------- --- ------ ----- --- ---- ------- -- ---- --- --<br>------- ------,128263.70000004768,128263,127681.475,127688,127698.146,128264.912,,13,government
screen,html.Screen,0_2_1_1_14,2021-11-12T11:20:26.097Z,,,,,,,,,,,,,,,,54,,,,,,,,,,,,,,1117.9879999761615,,response,,,100,,,,,,Space,keypress(Space),,,,,-- --- ---- --- ------ ----- ------- ---- -- --- ------- --<br>------- ---------- bonds. -- ----- -- ----- -- ---- ------<br>--- ----- --- --- ------ -------- ----- --- ------ ----- --<br>----- ----- ---------- --- --- ------ ------ ---- -- ------<br>------- --- ------ ----- --- ---- ------- -- ---- --- --<br>------- ------,129383.79999995232,129382.89999997616,128248.242,128264,128264.912,129398.337,,14,bonds.
screen,html.Screen,0_2_1_1_15,2021-11-12T11:20:26.553Z,,,,,,,,,,,,,,,,54,,,,,,,,,,,,,,440.5629999761586,,response,,,100,,,,,,Space,keypress(Space),,,,,-- --- ---- --- ------ ----- ------- ---- -- --- ------- --<br>------- ---------- ------ In ----- -- ----- -- ---- ------<br>--- ----- --- --- ------ -------- ----- --- ------ ----- --<br>----- ----- ---------- --- --- ------ ------ ---- -- ------<br>------- --- ------ ----- --- ---- ------- -- ---- --- --<br>------- ------,129839.70000004768,129838.89999997616,129381.668,129384,129398.337,129848.832,,15,In
screen,html.Screen,0_2_1_1_16,2021-11-12T11:20:27.409Z,,,,,,,,,,,,,,,,54,,,,,,,,,,,,,,846.4679999523214,,response,,,100,,,,,,Space,keypress(Space),,,,,"-- --- ---- --- ------ ----- ------- ---- -- --- ------- --<br>------- ---------- ------ -- 1727, -- ----- -- ---- ------<br>--- ----- --- --- ------ -------- ----- --- ------ ----- --<br>----- ----- ---------- --- --- ------ ------ ---- -- ------<br>------- --- ------ ----- --- ---- ------- -- ---- --- --<br>------- ------",130696.10000002384,130695.29999995232,129832.16,129839.89999997616,129848.832,130698.823,,16,"1727,"
screen,html.Screen,0_2_1_1_17,2021-11-12T11:20:27.961Z,,,,,,,,,,,,,,,,54,,,,,,,,,,,,,,547.8770000476798,,response,,,100,,,,,,Space,keypress(Space),,,,,-- --- ---- --- ------ ----- ------- ---- -- --- ------- --<br>------- ---------- ------ -- ----- in ----- -- ---- ------<br>--- ----- --- --- ------ -------- ----- --- ------ ----- --<br>----- ----- ---------- --- --- ------ ------ ---- -- ------<br>------- --- ------ ----- --- ---- ------- -- ---- --- --<br>------- ------,131247.60000002384,131246.70000004768,130682.153,130696.39999997616,130698.823,131249.201,,17,in
screen,html.Screen,0_2_1_1_18,2021-11-12T11:20:28.585Z,,,,,,,,,,,,,,,,54,,,,,,,,,,,,,,621.5989999523154,,response,,,100,,,,,,Space,keypress(Space),,,,,-- --- ---- --- ------ ----- ------- ---- -- --- ------- --<br>------- ---------- ------ -- ----- -- order -- ---- ------<br>--- ----- --- --- ------ -------- ----- --- ------ ----- --<br>----- ----- ---------- --- --- ------ ------ ---- -- ------<br>------- --- ------ ----- --- ---- ------- -- ---- --- --<br>------- ------,131871.60000002384,131870.79999995232,131232.529,131247.89999997616,131249.201,131882.596,,18,order
screen,html.Screen,0_2_1_1_19,2021-11-12T11:20:28.953Z,,,,,,,,,,,,,,,,54,,,,,,,,,,,,,,356.20399995232583,,response,,,100,,,,,,Space,keypress(Space),,,,,-- --- ---- --- ------ ----- ------- ---- -- --- ------- --<br>------- ---------- ------ -- ----- -- ----- to ---- ------<br>--- ----- --- --- ------ -------- ----- --- ------ ----- --<br>----- ----- ---------- --- --- ------ ------ ---- -- ------<br>------- --- ------ ----- --- ---- ------- -- ---- --- --<br>------- ------,132239.5,132238.79999995232,131865.925,131871.79999995232,131882.596,132249.38,,19,to
screen,html.Screen,0_2_1_1_20,2021-11-12T11:20:29.345Z,,,,,,,,,,,,,,,,54,,,,,,,,,,,,,,381.4199999523116,,response,,,100,,,,,,Space,keypress(Space),,,,,-- --- ---- --- ------ ----- ------- ---- -- --- ------- --<br>------- ---------- ------ -- ----- -- ----- -- save ------<br>--- ----- --- --- ------ -------- ----- --- ------ ----- --<br>----- ----- ---------- --- --- ------ ------ ---- -- ------<br>------- --- ------ ----- --- ---- ------- -- ---- --- --<br>------- ------,132631.60000002384,132630.79999995232,132232.709,132239.70000004768,132249.38,132632.764,,20,save
screen,html.Screen,0_2_1_1_21,2021-11-12T11:20:29.817Z,,,,,,,,,,,,,,,,54,,,,,,,,,,,,,,469.93600004768814,,response,,,100,,,,,,Space,keypress(Space),,,,,"-- --- ---- --- ------ ----- ------- ---- -- --- ------- --<br>------- ---------- ------ -- ----- -- ----- -- ---- money,<br>--- ----- --- --- ------ -------- ----- --- ------ ----- --<br>----- ----- ---------- --- --- ------ ------ ---- -- ------<br>------- --- ------ ----- --- ---- ------- -- ---- --- --<br>------- ------",133103.5,133102.70000004768,132616.094,132631.79999995232,132632.764,133116.283,,21,"money,"
screen,html.Screen,0_2_1_1_22,2021-11-12T11:20:30.337Z,,,,,,,,,,,,,,,,54,,,,,,,,,,,,,,506.4170000476879,,response,,,100,,,,,,Space,keypress(Space),,,,,-- --- ---- --- ------ ----- ------- ---- -- --- ------- --<br>------- ---------- ------ -- ----- -- ----- -- ---- ------<br>the ----- --- --- ------ -------- ----- --- ------ ----- --<br>----- ----- ---------- --- --- ------ ------ ---- -- ------<br>------- --- ------ ----- --- ---- ------- -- ---- --- --<br>------- ------,133623.5,133622.70000004768,133099.612,133103.70000004768,133116.283,133632.877,,22,the
screen,html.Screen,0_2_1_1_23,2021-11-12T11:20:31.241Z,,,,,,,,,,,,,,,,54,,,,,,,,,,,,,,893.823000047676,,response,,,100,,,,,,Space,keypress(Space),,,,,-- --- ---- --- ------ ----- ------- ---- -- --- ------- --<br>------- ---------- ------ -- ----- -- ----- -- ---- ------<br>--- state --- --- ------ -------- ----- --- ------ ----- --<br>----- ----- ---------- --- --- ------ ------ ---- -- ------<br>------- --- ------ ----- --- ---- ------- -- ---- --- --<br>------- ------,134527.70000004768,134526.70000004768,133616.209,133623.79999995232,133632.877,134533.486,,23,state
screen,html.Screen,0_2_1_1_24,2021-11-12T11:20:31.801Z,,,,,,,,,,,,,,,,54,,,,,,,,,,,,,,553.2140000476793,,response,,,100,,,,,,Space,keypress(Space),,,,,-- --- ---- --- ------ ----- ------- ---- -- --- ------- --<br>------- ---------- ------ -- ----- -- ----- -- ---- ------<br>--- ----- cut --- ------ -------- ----- --- ------ ----- --<br>----- ----- ---------- --- --- ------ ------ ---- -- ------<br>------- --- ------ ----- --- ---- ------- -- ---- --- --<br>------- ------,135087.5,135086.70000004768,134516.813,134527.89999997616,134533.486,135100.138,,24,cut
screen,html.Screen,0_2_1_1_25,2021-11-12T11:20:32.281Z,,,,,,,,,,,,,,,,54,,,,,,,,,,,,,,466.56200004767743,,response,,,100,,,,,,Space,keypress(Space),,,,,-- --- ---- --- ------ ----- ------- ---- -- --- ------- --<br>------- ---------- ------ -- ----- -- ----- -- ---- ------<br>--- ----- --- the ------ -------- ----- --- ------ ----- --<br>----- ----- ---------- --- --- ------ ------ ---- -- ------<br>------- --- ------ ----- --- ---- ------- -- ---- --- --<br>------- ------,135567.70000004768,135566.70000004768,135083.467,135087.70000004768,135100.138,135583.454,,25,the
screen,html.Screen,0_2_1_1_26,2021-11-12T11:20:32.825Z,,,,,,,,,,,,,,,,54,,,,,,,,,,,,,,527.146000023844,,response,,,100,,,,,,Space,keypress(Space),,,,,-- --- ---- --- ------ ----- ------- ---- -- --- ------- --<br>------- ---------- ------ -- ----- -- ----- -- ---- ------<br>--- ----- --- --- bonds' -------- ----- --- ------ ----- --<br>----- ----- ---------- --- --- ------ ------ ---- -- ------<br>------- --- ------ ----- --- ---- ------- -- ---- --- --<br>------- ------,136111.39999997616,136110.60000002384,135566.785,135567.89999997616,135583.454,136117.145,,26,bonds'
screen,html.Screen,0_2_1_1_27,2021-11-12T11:20:33.345Z,,,,,,,,,,,,,,,,54,,,,,,,,,,,,,,513.4550000238523,,response,,,100,,,,,,Space,keypress(Space),,,,,-- --- ---- --- ------ ----- ------- ---- -- --- ------- --<br>------- ---------- ------ -- ----- -- ----- -- ---- ------<br>--- ----- --- --- ------ interest ----- --- ------ ----- --<br>----- ----- ---------- --- --- ------ ------ ---- -- ------<br>------- --- ------ ----- --- ---- ------- -- ---- --- --<br>------- ------,136631.5,136630.60000002384,136100.473,136111.70000004768,136117.145,136633.715,,27,interest
screen,html.Screen,0_2_1_1_28,2021-11-12T11:20:33.841Z,,,,,,,,,,,,,,,,54,,,,,,,,,,,,,,492.88500002384535,,response,,,100,,,,,,Space,keypress(Space),,,,,-- --- ---- --- ------ ----- ------- ---- -- --- ------- --<br>------- ---------- ------ -- ----- -- ----- -- ---- ------<br>--- ----- --- --- ------ -------- rate. --- ------ ----- --<br>----- ----- ---------- --- --- ------ ------ ---- -- ------<br>------- --- ------ ----- --- ---- ------- -- ---- --- --<br>------- ------,137127.39999997616,137126.60000002384,136617.046,136631.70000004768,136633.715,137134.071,,28,rate.
screen,html.Screen,0_2_1_1_29,2021-11-12T11:20:34.545Z,,,,,,,,,,,,,,,,54,,,,,,,,,,,,,,696.5290000238456,,response,,,100,,,,,,Space,keypress(Space),,,,,-- --- ---- --- ------ ----- ------- ---- -- --- ------- --<br>------- ---------- ------ -- ----- -- ----- -- ---- ------<br>--- ----- --- --- ------ -------- ----- The ------ ----- --<br>----- ----- ---------- --- --- ------ ------ ---- -- ------<br>------- --- ------ ----- --- ---- ------- -- ---- --- --<br>------- ------,137831.5,137830.60000002384,137117.399,137127.60000002384,137134.071,137834.028,,29,The
screen,html.Screen,0_2_1_1_30,2021-11-12T11:20:35.088Z,,,,,,,,,,,,,,,,54,,,,,,,,,,,,,,540.5720000238507,,response,,,100,,,,,,Space,keypress(Space),,,,,-- --- ---- --- ------ ----- ------- ---- -- --- ------- --<br>------- ---------- ------ -- ----- -- ----- -- ---- ------<br>--- ----- --- --- ------ -------- ----- --- market ----- --<br>----- ----- ---------- --- --- ------ ------ ---- -- ------<br>------- --- ------ ----- --- ---- ------- -- ---- --- --<br>------- ------,138375.39999997616,138374.60000002384,137817.359,137831.70000004768,137834.028,138384.301,,30,market
screen,html.Screen,0_2_1_1_31,2021-11-12T11:20:35.649Z,,,,,,,,,,,,,,,,54,,,,,,,,,,,,,,550.1989999999932,,response,,,100,,,,,,Space,keypress(Space),,,,,-- --- ---- --- ------ ----- ------- ---- -- --- ------- --<br>------- ---------- ------ -- ----- -- ----- -- ---- ------<br>--- ----- --- --- ------ -------- ----- --- ------ value --<br>----- ----- ---------- --- --- ------ ------ ---- -- ------<br>------- --- ------ ----- --- ---- ------- -- ---- --- --<br>------- ------,138935.29999995232,138934.5,138367.63,138375.60000002384,138384.301,138951.188,,31,value
screen,html.Screen,0_2_1_1_32,2021-11-12T11:20:36.016Z,,,,,,,,,,,,,,,,54,,,,,,,,,,,,,,351.31200000000536,,response,,,100,,,,,,Space,keypress(Space),,,,,-- --- ---- --- ------ ----- ------- ---- -- --- ------- --<br>------- ---------- ------ -- ----- -- ----- -- ---- ------<br>--- ----- --- --- ------ -------- ----- --- ------ ----- of<br>----- ----- ---------- --- --- ------ ------ ---- -- ------<br>------- --- ------ ----- --- ---- ------- -- ---- --- --<br>------- ------,139303.20000004768,139302.5,138934.517,138935.60000002384,138951.188,139317.93,,32,of
screen,html.Screen,0_2_1_1_33,2021-11-12T11:20:36.624Z,,,,,,,,,,,,,,,,54,,,,,,,,,,,,,,592.570000000007,,response,,,100,,,,,,Space,keypress(Space),,,,,-- --- ---- --- ------ ----- ------- ---- -- --- ------- --<br>------- ---------- ------ -- ----- -- ----- -- ---- ------<br>--- ----- --- --- ------ -------- ----- --- ------ ----- --<br>these ----- ---------- --- --- ------ ------ ---- -- ------<br>------- --- ------ ----- --- ---- ------- -- ---- --- --<br>------- ------,139911.29999995232,139910.5,139301.259,139303.5,139317.93,139918.091,,33,these
screen,html.Screen,0_2_1_1_34,2021-11-12T11:20:37.136Z,,,,,,,,,,,,,,,,54,,,,,,,,,,,,,,504.4090000000142,,response,,,100,,,,,,Space,keypress(Space),,,,,-- --- ---- --- ------ ----- ------- ---- -- --- ------- --<br>------- ---------- ------ -- ----- -- ----- -- ---- ------<br>--- ----- --- --- ------ -------- ----- --- ------ ----- --<br>----- bonds ---------- --- --- ------ ------ ---- -- ------<br>------- --- ------ ----- --- ---- ------- -- ---- --- --<br>------- ------,140423.20000004768,140422.5,139901.42,139911.60000002384,139918.091,140434.853,,34,bonds
screen,html.Screen,0_2_1_1_35,2021-11-12T11:20:37.897Z,,,,,,,,,,,,,,,,54,,,,,,,,,,,,,,748.0469999761553,,response,,,100,,,,,,Space,keypress(Space),,,,,"-- --- ---- --- ------ ----- ------- ---- -- --- ------- --<br>------- ---------- ------ -- ----- -- ----- -- ---- ------<br>--- ----- --- --- ------ -------- ----- --- ------ ----- --<br>----- ----- plummeted, --- --- ------ ------ ---- -- ------<br>------- --- ------ ----- --- ---- ------- -- ---- --- --<br>------- ------",141183.70000004768,141182.89999997616,140418.183,140423.39999997616,140434.853,141185.093,,35,"plummeted,"
screen,html.Screen,0_2_1_1_36,2021-11-12T11:20:38.304Z,,,,,,,,,,,,,,,,54,,,,,,,,,,,,,,405.30699997616466,,response,,,100,,,,,,Space,keypress(Space),,,,,-- --- ---- --- ------ ----- ------- ---- -- --- ------- --<br>------- ---------- ------ -- ----- -- ----- -- ---- ------<br>--- ----- --- --- ------ -------- ----- --- ------ ----- --<br>----- ----- ---------- and --- ------ ------ ---- -- ------<br>------- --- ------ ----- --- ---- ------- -- ---- --- --<br>------- ------,141591.29999995232,141590.39999997616,141168.422,141184,141185.093,141601.876,,36,and
screen,html.Screen,0_2_1_1_37,2021-11-12T11:20:38.944Z,,,,,,,,,,,,,,,,54,,,,,,,,,,,,,,628.5239999761689,,response,,,100,,,,,,Space,keypress(Space),,,,,-- --- ---- --- ------ ----- ------- ---- -- --- ------- --<br>------- ---------- ------ -- ----- -- ----- -- ---- ------<br>--- ----- --- --- ------ -------- ----- --- ------ ----- --<br>----- ----- ---------- --- the ------ ------ ---- -- ------<br>------- --- ------ ----- --- ---- ------- -- ---- --- --<br>------- ------,142231.10000002384,142230.39999997616,141585.205,141591.5,141601.876,142235.387,,37,the
screen,html.Screen,0_2_1_1_38,2021-11-12T11:20:39.480Z,,,,,,,,,,,,,,,,54,,,,,,,,,,,,,,531.0129999761702,,response,,,100,,,,,,Space,keypress(Space),,,,,-- --- ---- --- ------ ----- ------- ---- -- --- ------- --<br>------- ---------- ------ -- ----- -- ----- -- ---- ------<br>--- ----- --- --- ------ -------- ----- --- ------ ----- --<br>----- ----- ---------- --- --- market ------ ---- -- ------<br>------- --- ------ ----- --- ---- ------- -- ---- --- --<br>------- ------,142767.20000004768,142766.39999997616,142218.716,142231.39999997616,142235.387,142768.818,,38,market
screen,html.Screen,0_2_1_1_39,2021-11-12T11:20:39.904Z,,,,,,,,,,,,,,,,54,,,,,,,,,,,,,,421.58199997615884,,response,,,100,,,,,,Space,keypress(Space),,,,,-- --- ---- --- ------ ----- ------- ---- -- --- ------- --<br>------- ---------- ------ -- ----- -- ----- -- ---- ------<br>--- ----- --- --- ------ -------- ----- --- ------ ----- --<br>----- ----- ---------- --- --- ------ became ---- -- ------<br>------- --- ------ ----- --- ---- ------- -- ---- --- --<br>------- ------,143191.20000004768,143190.39999997616,142752.148,142767.39999997616,142768.818,143202.178,,39,became
screen,html.Screen,0_2_1_1_40,2021-11-12T11:20:40.352Z,,,,,,,,,,,,,,,,54,,,,,,,,,,,,,,436.12199995230185,,response,,,100,,,,,,Space,keypress(Space),,,,,-- --- ---- --- ------ ----- ------- ---- -- --- ------- --<br>------- ---------- ------ -- ----- -- ----- -- ---- ------<br>--- ----- --- --- ------ -------- ----- --- ------ ----- --<br>----- ----- ---------- --- --- ------ ------ wary -- ------<br>------- --- ------ ----- --- ---- ------- -- ---- --- --<br>------- ------,143639.10000002384,143638.29999995232,143185.509,143191.39999997616,143202.178,143652.497,,40,wary
screen,html.Screen,0_2_1_1_41,2021-11-12T11:20:40.768Z,,,,,,,,,,,,,,,,54,,,,,,,,,,,,,,401.9029999761551,,response,,,100,,,,,,Space,keypress(Space),,,,,-- --- ---- --- ------ ----- ------- ---- -- --- ------- --<br>------- ---------- ------ -- ----- -- ----- -- ---- ------<br>--- ----- --- --- ------ -------- ----- --- ------ ----- --<br>----- ----- ---------- --- --- ------ ------ ---- of ------<br>------- --- ------ ----- --- ---- ------- -- ---- --- --<br>------- ------,144055.10000002384,144054.39999997616,143635.825,143639.39999997616,143652.497,144069.214,,41,of
screen,html.Screen,0_2_1_1_42,2021-11-12T11:20:41.216Z,,,,,,,,,,,,,,,,54,,,,,,,,,,,,,,433.08599995230907,,response,,,100,,,,,,Space,keypress(Space),,,,,-- --- ---- --- ------ ----- ------- ---- -- --- ------- --<br>------- ---------- ------ -- ----- -- ----- -- ---- ------<br>--- ----- --- --- ------ -------- ----- --- ------ ----- --<br>----- ----- ---------- --- --- ------ ------ ---- -- French<br>------- --- ------ ----- --- ---- ------- -- ---- --- --<br>------- ------,144503.10000002384,144502.29999995232,144052.543,144055.39999997616,144069.214,144519.339,,42,French
screen,html.Screen,0_2_1_1_43,2021-11-12T11:20:41.776Z,,,,,,,,,,,,,,,,54,,,,,,,,,,,,,,542.8610000476765,,response,,,100,,,,,,Space,keypress(Space),,,,,-- --- ---- --- ------ ----- ------- ---- -- --- ------- --<br>------- ---------- ------ -- ----- -- ----- -- ---- ------<br>--- ----- --- --- ------ -------- ----- --- ------ ----- --<br>----- ----- ---------- --- --- ------ ------ ---- -- ------<br>credit. --- ------ ----- --- ---- ------- -- ---- --- --<br>------- ------,145063,145062.20000004768,144502.668,144503.39999997616,144519.339,145069.44,,43,credit.
screen,html.Screen,0_2_1_1_44,2021-11-12T11:20:42.256Z,,,,,,,,,,,,,,,,54,,,,,,,,,,,,,,472.7600000476814,,response,,,100,,,,,,Space,keypress(Space),,,,,-- --- ---- --- ------ ----- ------- ---- -- --- ------- --<br>------- ---------- ------ -- ----- -- ----- -- ---- ------<br>--- ----- --- --- ------ -------- ----- --- ------ ----- --<br>----- ----- ---------- --- --- ------ ------ ---- -- ------<br>------- The ------ ----- --- ---- ------- -- ---- --- --<br>------- ------,145543,145542.20000004768,145052.77,145063.29999995232,145069.44,145552.943,,44,The
screen,html.Screen,0_2_1_1_45,2021-11-12T11:20:42.712Z,,,,,,,,,,,,,,,,54,,,,,,,,,,,,,,445.2570000476844,,response,,,100,,,,,,Space,keypress(Space),,,,,-- --- ---- --- ------ ----- ------- ---- -- --- ------- --<br>------- ---------- ------ -- ----- -- ----- -- ---- ------<br>--- ----- --- --- ------ -------- ----- --- ------ ----- --<br>----- ----- ---------- --- --- ------ ------ ---- -- ------<br>------- --- French ----- --- ---- ------- -- ---- --- --<br>------- ------,145999,145998.20000004768,145536.272,145543.29999995232,145552.943,146003.061,,45,French
screen,html.Screen,0_2_1_1_46,2021-11-12T11:20:43.376Z,,,,,,,,,,,,,,,,54,,,,,,,,,,,,,,659.1390000476968,,response,,,100,,,,,,Space,keypress(Space),,,,,-- --- ---- --- ------ ----- ------- ---- -- --- ------- --<br>------- ---------- ------ -- ----- -- ----- -- ---- ------<br>--- ----- --- --- ------ -------- ----- --- ------ ----- --<br>----- ----- ---------- --- --- ------ ------ ---- -- ------<br>------- --- ------ state --- ---- ------- -- ---- --- --<br>------- ------,146663,146662.20000004768,145986.39,145999.29999995232,146003.061,146669.91,,46,state
screen,html.Screen,0_2_1_1_47,2021-11-12T11:20:43.800Z,,,,,,,,,,,,,,,,54,,,,,,,,,,,,,,416.19000002383837,,response,,,100,,,,,,Space,keypress(Space),,,,,-- --- ---- --- ------ ----- ------- ---- -- --- ------- --<br>------- ---------- ------ -- ----- -- ----- -- ---- ------<br>--- ----- --- --- ------ -------- ----- --- ------ ----- --<br>----- ----- ---------- --- --- ------ ------ ---- -- ------<br>------- --- ------ ----- was ---- ------- -- ---- --- --<br>------- ------,147087,147086.10000002384,146653.239,146663.29999995232,146669.91,147103.297,,47,was
screen,html.Screen,0_2_1_1_48,2021-11-12T11:20:44.344Z,,,,,,,,,,,,,,,,54,,,,,,,,,,,,,,526.8030000238505,,response,,,100,,,,,,Space,keypress(Space),,,,,-- --- ---- --- ------ ----- ------- ---- -- --- ------- --<br>------- ---------- ------ -- ----- -- ----- -- ---- ------<br>--- ----- --- --- ------ -------- ----- --- ------ ----- --<br>----- ----- ---------- --- --- ------ ------ ---- -- ------<br>------- --- ------ ----- --- left ------- -- ---- --- --<br>------- ------,147630.89999997616,147630.10000002384,147086.627,147087.20000004768,147103.297,147636.851,,48,left
screen,html.Screen,0_2_1_1_49,2021-11-12T11:20:44.824Z,,,,,,,,,,,,,,,,54,,,,,,,,,,,,,,473.24900002384675,,response,,,100,,,,,,Space,keypress(Space),,,,,-- --- ---- --- ------ ----- ------- ---- -- --- ------- --<br>------- ---------- ------ -- ----- -- ----- -- ---- ------<br>--- ----- --- --- ------ -------- ----- --- ------ ----- --<br>----- ----- ---------- --- --- ------ ------ ---- -- ------<br>------- --- ------ ----- --- ---- without -- ---- --- --<br>------- ------,148110.89999997616,148110.10000002384,147620.18,147631.20000004768,147636.851,148120.268,,49,without
screen,html.Screen,0_2_1_1_50,2021-11-12T11:20:45.248Z,,,,,,,,,,,,,,,,54,,,,,,,,,,,,,,413.8320000238309,,response,,,100,,,,,,Space,keypress(Space),,,,,-- --- ---- --- ------ ----- ------- ---- -- --- ------- --<br>------- ---------- ------ -- ----- -- ----- -- ---- ------<br>--- ----- --- --- ------ -------- ----- --- ------ ----- --<br>----- ----- ---------- --- --- ------ ------ ---- -- ------<br>------- --- ------ ----- --- ---- ------- an ---- --- --<br>------- ------,148534.89999997616,148534.10000002384,148103.598,148111.10000002384,148120.268,148537.086,,50,an
screen,html.Screen,0_2_1_1_51,2021-11-12T11:20:45.800Z,,,,,,,,,,,,,,,,54,,,,,,,,,,,,,,548.9139999999898,,response,,,100,,,,,,Space,keypress(Space),,,,,-- --- ---- --- ------ ----- ------- ---- -- --- ------- --<br>------- ---------- ------ -- ----- -- ----- -- ---- ------<br>--- ----- --- --- ------ -------- ----- --- ------ ----- --<br>----- ----- ---------- --- --- ------ ------ ---- -- ------<br>------- --- ------ ----- --- ---- ------- -- easy --- --<br>------- ------,149086.79999995232,149086,148520.415,148535.10000002384,148537.086,149103.844,,51,easy
screen,html.Screen,0_2_1_1_52,2021-11-12T11:20:46.256Z,,,,,,,,,,,,,,,,54,,,,,,,,,,,,,,438.1559999999881,,response,,,100,,,,,,Space,keypress(Space),,,,,-- --- ---- --- ------ ----- ------- ---- -- --- ------- --<br>------- ---------- ------ -- ----- -- ----- -- ---- ------<br>--- ----- --- --- ------ -------- ----- --- ------ ----- --<br>----- ----- ---------- --- --- ------ ------ ---- -- ------<br>------- --- ------ ----- --- ---- ------- -- ---- way --<br>------- ------,149542.89999997616,149542,149087.174,149087,149103.844,149553.953,,52,way
screen,html.Screen,0_2_1_1_53,2021-11-12T11:20:46.800Z,,,,,,,,,,,,,,,,54,,,,,,,,,,,,,,532.3469999523077,,response,,,100,,,,,,Space,keypress(Space),,,,,-- --- ---- --- ------ ----- ------- ---- -- --- ------- --<br>------- ---------- ------ -- ----- -- ----- -- ---- ------<br>--- ----- --- --- ------ -------- ----- --- ------ ----- --<br>----- ----- ---------- --- --- ------ ------ ---- -- ------<br>------- --- ------ ----- --- ---- ------- -- ---- --- of<br>------- ------,150087.10000002384,150086.29999995232,149537.283,149543.10000002384,149553.953,150104.166,,53,of
screen,html.Screen,0_2_1_1_54,2021-11-12T11:20:47.320Z,,,,,,,,,,,,,,,,54,,,,,,,,,,,,,,501.83400000000256,,response,,,100,,,,,,Space,keypress(Space),,,,,-- --- ---- --- ------ ----- ------- ---- -- --- ------- --<br>------- ---------- ------ -- ----- -- ----- -- ---- ------<br>--- ----- --- --- ------ -------- ----- --- ------ ----- --<br>----- ----- ---------- --- --- ------ ------ ---- -- ------<br>------- --- ------ ----- --- ---- ------- -- ---- --- --<br>raising ------,150606.79999995232,150606,150087.495,150087.29999995232,150104.166,150620.964,,54,raising
screen,html.Screen,0_2_1_1_55,2021-11-12T11:20:47.847Z,,,,,,,,,,,,,,,,54,,,,,,,,,,,,,,512.7360000476765,,response,,,100,,,,,,Space,keypress(Space),,,,,-- --- ---- --- ------ ----- ------- ---- -- --- ------- --<br>------- ---------- ------ -- ----- -- ----- -- ---- ------<br>--- ----- --- --- ------ -------- ----- --- ------ ----- --<br>----- ----- ---------- --- --- ------ ------ ---- -- ------<br>------- --- ------ ----- --- ---- ------- -- ---- --- --<br>------- money.,151134,151133.70000004768,150604.293,150607.10000002384,150620.964,151137.773,,55,money.
Item 100,flow.Loop,0_2_1_1,2021-11-12T11:20:47.847Z,,,,,,,,,,,,,,,,,,,,,,,,,,,,,,32071.40700004768,,completion,,,,D,,,,,,,,,,silence,,151134.10000002384,151133.70000004768,119045.623,119047.20000004768,119062.293,151137.773,,,
Question 1,html.Screen,0_2_1_2,2021-11-12T11:20:50.984Z,,,,,,,,,,,,,,,,,,,,,,,,,,,true,TRUE,,3131.927000047697,,response,,,100,D,,,,,TRUE,click #choice-1,,,,silence,,154270.89999997616,154269.70000004768,151121.102,151134.20000004768,151137.773,154271.918,,,
Question 2,html.Screen,0_2_1_3,2021-11-12T11:20:55.127Z,,,,,,,,,,,,,,,,,,,,,,,,,,,true,FALSE,,4141.481999976153,,response,,,100,D,,,,,FALSE,click #choice-2,,,,silence,,158414.29999995232,158413.39999997616,154255.247,154271.10000002384,154271.918,158423.3,,,
Item 100,flow.Sequence,0_2_1,2021-11-12T11:20:55.128Z,,,,,,,,,,,,,,,,,,,,,,,,,,,,,,49353.60099997616,,completion,,,,,,,,,,,,,,,,158414.60000002384,158413.39999997616,109043.128,109049.5,109059.799,158423.3,,,
End of Practice,html.Page,0_2_2,2021-11-12T11:20:58.249Z,,,,,,,,,,,,,,,,,,,,,,,,,,,,,,3111.7000000000116,,form submission,,,,,,,,,,,,,,,,161535.5,161535,158406.625,158414.70000004768,158423.3,161540.384,,,
Practice,flow.Sequence,0_2,2021-11-12T11:20:58.249Z,,,,,,,,,,,,,,,,,,,,,,,,,,,,,,106239.755,,completion,,,,,,,,,,,,,,,,161536,161535,55278.575,55284.39999997616,55295.245,161540.384,,,
Trap_instruction,html.Page,0_3_0,2021-11-12T11:21:06.096Z,,,,,,,,,,,,,,,,,,,,,,,,,,,,,,7842.116000000009,,form submission,,,,,,,,,,,,,,,,169383.10000002384,169382.5,161523.714,161536.39999997616,161540.384,169409.163,,,
trap_trial,html.Screen,0_3_1,2021-11-12T11:21:09.599Z,,,,,,,,,,,,,,,,,,,,,,,,,,,true,1,,3475.7369999761577,,response,,,,,,,,,1,click #choice-1,,,,,,172886,172884.89999997616,169375.823,169383.20000004768,169409.163,172899.346,,,
end of trap trial,html.Page,0_3_2,2021-11-12T11:21:11.488Z,,,,,,,,,,,,,,,,,,,,,,,,,,,,,,1874.9539999523258,,form submission,,,,,,,,,,,,,,,,174774.79999995232,174774.29999995232,172882.728,172886.29999995232,172899.346,174777.399,,,
Trap 1,flow.Sequence,0_3,2021-11-12T11:21:11.488Z,,,,,,,,,,,,,,,,,,,,,,,,,,,,,,13233.915999952325,,completion,,,,,,,,,,,,,,,,174775.29999995232,174774.29999995232,161523.714,161536.29999995232,161540.384,174777.399,,,
Standby,html.Page,0_4_0,2021-11-12T11:21:19.479Z,,,,,,,,,,,,,,,,,,,,,,,,,,,,,,8002.097999999998,,timeout,,,,,,,,,,,,,,,,182764.20000004768,182762.826,174760.728,174775.60000002384,174777.399,182779.497,,,
Holding screen,html.Screen,0_4_1_0_0,2021-11-12T11:21:26.482Z,,,,,,,,,,,,,,,,,,,,,,,,,,,,,,7001.821999999986,,timeout,,,,,,,,,,,,,,,,189766.20000004768,189764.649,182762.826,182764.5,182779.497,189781.319,,,
screen,html.Screen,0_4_1_0_1_0,2021-11-12T11:21:27.905Z,,,,,,,,,,,,,,,,2,,,,,,,,,,,,,,1407.2810000238533,,response,,,1,D,,,,,Space,keypress(Space),,,,silence,Two ---- ------ --- ------- ---------- ------- ----------<br>--- --------- --- ----------- ------- ----- ------- ---<br>--------- ---- -- --- ---- -- --------- -- ---- -------<br>-- --------- ------ --- ----- ------ ---- --- --------- --<br>------ - ---- -- --- ----------- ------- ---- ----- -----<br>--- -------- - ------ ---- -- ----- ---- --- --- -----------<br>-- -------,191189.60000002384,191188.60000002384,189764.649,189766.60000002384,189781.319,191198.511,,0,Two
screen,html.Screen,0_4_1_0_1_1,2021-11-12T11:21:28.592Z,,,,,,,,,,,,,,,,2,,,,,,,,,,,,,,677.7889999523177,,response,,,1,D,,,,,Space,keypress(Space),,,,silence,--- days ------ --- ------- ---------- ------- ----------<br>--- --------- --- ----------- ------- ----- ------- ---<br>--------- ---- -- --- ---- -- --------- -- ---- -------<br>-- --------- ------ --- ----- ------ ---- --- --------- --<br>------ - ---- -- --- ----------- ------- ---- ----- -----<br>--- -------- - ------ ---- -- ----- ---- --- --- -----------<br>-- -------,191877.10000002384,191876.29999995232,191181.84,191189.89999997616,191198.511,191881.743,,1,days
screen,html.Screen,0_4_1_0_1_2,2021-11-12T11:21:29.688Z,,,,,,,,,,,,,,,,2,,,,,,,,,,,,,,1090.3570000238542,,response,,,1,D,,,,,Space,keypress(Space),,,,silence,"--- ---- later, --- ------- ---------- ------- ----------<br>--- --------- --- ----------- ------- ----- ------- ---<br>--------- ---- -- --- ---- -- --------- -- ---- -------<br>-- --------- ------ --- ----- ------ ---- --- --------- --<br>------ - ---- -- --- ----------- ------- ---- ----- -----<br>--- -------- - ------ ---- -- ----- ---- --- --- -----------<br>-- -------",192973,192972.10000002384,191865.074,191877.29999995232,191881.743,192982.202,,2,"later,"
screen,html.Screen,0_4_1_0_1_3,2021-11-12T11:21:30.176Z,,,,,,,,,,,,,,,,2,,,,,,,,,,,,,,477.89800002385164,,response,,,1,D,,,,,Space,keypress(Space),,,,silence,--- ---- ------ the ------- ---------- ------- ----------<br>--- --------- --- ----------- ------- ----- ------- ---<br>--------- ---- -- --- ---- -- --------- -- ---- -------<br>-- --------- ------ --- ----- ------ ---- --- --------- --<br>------ - ---- -- --- ----------- ------- ---- ----- -----<br>--- -------- - ------ ---- -- ----- ---- --- --- -----------<br>-- -------,193460.89999997616,193460.10000002384,192965.532,192973.29999995232,192982.202,193466.005,,3,the
screen,html.Screen,0_4_1_0_1_4,2021-11-12T11:21:30.680Z,,,,,,,,,,,,,,,,2,,,,,,,,,,,,,,497.99499999999534,,response,,,1,D,,,,,Space,keypress(Space),,,,silence,--- ---- ------ --- British ---------- ------- ----------<br>--- --------- --- ----------- ------- ----- ------- ---<br>--------- ---- -- --- ---- -- --------- -- ---- -------<br>-- --------- ------ --- ----- ------ ---- --- --------- --<br>------ - ---- -- --- ----------- ------- ---- ----- -----<br>--- -------- - ------ ---- -- ----- ---- --- --- -----------<br>-- -------,193964.89999997616,193964,193449.332,193461.20000004768,193466.005,193982.58,,4,British
screen,html.Screen,0_4_1_0_1_5,2021-11-12T11:21:31.496Z,,,,,,,,,,,,,,,,2,,,,,,,,,,,,,,797.4200000000128,,response,,,1,D,,,,,Space,keypress(Space),,,,silence,--- ---- ------ --- ------- astronomer ------- ----------<br>--- --------- --- ----------- ------- ----- ------- ---<br>--------- ---- -- --- ---- -- --------- -- ---- -------<br>-- --------- ------ --- ----- ------ ---- --- --------- --<br>------ - ---- -- --- ----------- ------- ---- ----- -----<br>--- -------- - ------ ---- -- ----- ---- --- --- -----------<br>-- -------,194780.89999997616,194780,193965.91,193965.20000004768,193982.58,194782.846,,5,astronomer
screen,html.Screen,0_4_1_0_1_6,2021-11-12T11:21:32.040Z,,,,,,,,,,,,,,,,2,,,,,,,,,,,,,,541.1540000000095,,response,,,1,D,,,,,Space,keypress(Space),,,,silence,--- ---- ------ --- ------- ---------- Richard ----------<br>--- --------- --- ----------- ------- ----- ------- ---<br>--------- ---- -- --- ---- -- --------- -- ---- -------<br>-- --------- ------ --- ----- ------ ---- --- --------- --<br>------ - ---- -- --- ----------- ------- ---- ----- -----<br>--- -------- - ------ ---- -- ----- ---- --- --- -----------<br>-- -------,195324.89999997616,195324,194766.175,194781.20000004768,194782.846,195332.934,,6,Richard
screen,html.Screen,0_4_1_0_1_7,2021-11-12T11:21:32.648Z,,,,,,,,,,,,,,,,2,,,,,,,,,,,,,,599.0659999999916,,response,,,1,D,,,,,Space,keypress(Space),,,,silence,--- ---- ------ --- ------- ---------- ------- Carrington<br>--- --------- --- ----------- ------- ----- ------- ---<br>--------- ---- -- --- ---- -- --------- -- ---- -------<br>-- --------- ------ --- ----- ------ ---- --- --------- --<br>------ - ---- -- --- ----------- ------- ---- ----- -----<br>--- -------- - ------ ---- -- ----- ---- --- --- -----------<br>-- -------,195932.89999997616,195932,195316.264,195325.10000002384,195332.934,195949.819,,7,Carrington
screen,html.Screen,0_4_1_0_1_8,2021-11-12T11:21:33.392Z,,,,,,,,,,,,,,,,2,,,,,,,,,,,,,,726.1810000000114,,response,,,1,D,,,,,Space,keypress(Space),,,,silence,--- ---- ------ --- ------- ---------- ------- ----------<br>was --------- --- ----------- ------- ----- ------- ---<br>--------- ---- -- --- ---- -- --------- -- ---- -------<br>-- --------- ------ --- ----- ------ ---- --- --------- --<br>------ - ---- -- --- ----------- ------- ---- ----- -----<br>--- -------- - ------ ---- -- ----- ---- --- --- -----------<br>-- -------,196676.79999995232,196676,195933.148,195933,195949.819,196683.346,,8,was
screen,html.Screen,0_4_1_0_1_9,2021-11-12T11:21:34.232Z,,,,,,,,,,,,,,,,2,,,,,,,,,,,,,,832.6540000000095,,response,,,1,D,,,,,Space,keypress(Space),,,,silence,--- ---- ------ --- ------- ---------- ------- ----------<br>--- observing --- ----------- ------- ----- ------- ---<br>--------- ---- -- --- ---- -- --------- -- ---- -------<br>-- --------- ------ --- ----- ------ ---- --- --------- --<br>------ - ---- -- --- ----------- ------- ---- ----- -----<br>--- -------- - ------ ---- -- ----- ---- --- --- -----------<br>-- -------,197516.79999995232,197516,196666.675,196677,196683.346,197533.574,,9,observing
screen,html.Screen,0_4_1_0_1_10,2021-11-12T11:21:34.936Z,,,,,,,,,,,,,,,,2,,,,,,,,,,,,,,686.3259999761649,,response,,,1,D,,,,,Space,keypress(Space),,,,silence,--- ---- ------ --- ------- ---------- ------- ----------<br>--- --------- the ----------- ------- ----- ------- ---<br>--------- ---- -- --- ---- -- --------- -- ---- -------<br>-- --------- ------ --- ----- ------ ---- --- --------- --<br>------ - ---- -- --- ----------- ------- ---- ----- -----<br>--- -------- - ------ ---- -- ----- ---- --- --- -----------<br>-- -------,198220.89999997616,198219.89999997616,197516.903,197517,197533.574,198233.698,,10,the
screen,html.Screen,0_4_1_0_1_11,2021-11-12T11:21:35.504Z,,,,,,,,,,,,,,,,2,,,,,,,,,,,,,,554.1019999523123,,response,,,1,D,,,,,Space,keypress(Space),,,,silence,--- ---- ------ --- ------- ---------- ------- ----------<br>--- --------- --- interesting ------- ----- ------- ---<br>--------- ---- -- --- ---- -- --------- -- ---- -------<br>-- --------- ------ --- ----- ------ ---- --- --------- --<br>------ - ---- -- --- ----------- ------- ---- ----- -----<br>--- -------- - ------ ---- -- ----- ---- --- --- -----------<br>-- -------,198788.60000002384,198787.79999995232,198217.028,198221.20000004768,198233.698,198800.409,,11,interesting
screen,html.Screen,0_4_1_0_1_12,2021-11-12T11:21:36.032Z,,,,,,,,,,,,,,,,2,,,,,,,,,,,,,,515.3909999523021,,response,,,1,D,,,,,Space,keypress(Space),,,,silence,--- ---- ------ --- ------- ---------- ------- ----------<br>--- --------- --- ----------- sunspot ----- ------- ---<br>--------- ---- -- --- ---- -- --------- -- ---- -------<br>-- --------- ------ --- ----- ------ ---- --- --------- --<br>------ - ---- -- --- ----------- ------- ---- ----- -----<br>--- -------- - ------ ---- -- ----- ---- --- --- -----------<br>-- -------,199316.60000002384,199315.79999995232,198783.74,198788.89999997616,198800.409,199317.444,,12,sunspot
screen,html.Screen,0_4_1_0_1_13,2021-11-12T11:21:36.584Z,,,,,,,,,,,,,,,,2,,,,,,,,,,,,,,550.4559999761696,,response,,,1,D,,,,,Space,keypress(Space),,,,silence,--- ---- ------ --- ------- ---------- ------- ----------<br>--- --------- --- ----------- ------- group ------- ---<br>--------- ---- -- --- ---- -- --------- -- ---- -------<br>-- --------- ------ --- ----- ------ ---- --- --------- --<br>------ - ---- -- --- ----------- ------- ---- ----- -----<br>--- -------- - ------ ---- -- ----- ---- --- --- -----------<br>-- -------,199868.70000004768,199867.89999997616,199300.772,199316.79999995232,199317.444,199884.207,,13,group
screen,html.Screen,0_4_1_0_1_14,2021-11-12T11:21:37.168Z,,,,,,,,,,,,,,,,2,,,,,,,,,,,,,,567.5929999523214,,response,,,1,D,,,,,Space,keypress(Space),,,,silence,--- ---- ------ --- ------- ---------- ------- ----------<br>--- --------- --- ----------- ------- ----- through ---<br>--------- ---- -- --- ---- -- --------- -- ---- -------<br>-- --------- ------ --- ----- ------ ---- --- --------- --<br>------ - ---- -- --- ----------- ------- ---- ----- -----<br>--- -------- - ------ ---- -- ----- ---- --- --- -----------<br>-- -------,200452.60000002384,200451.79999995232,199867.536,199868.89999997616,199884.207,200467.699,,14,through
screen,html.Screen,0_4_1_0_1_15,2021-11-12T11:21:37.744Z,,,,,,,,,,,,,,,,2,,,,,,,,,,,,,,560.100999952323,,response,,,1,D,,,,,Space,keypress(Space),,,,silence,--- ---- ------ --- ------- ---------- ------- ----------<br>--- --------- --- ----------- ------- ----- ------- his<br>--------- ---- -- --- ---- -- --------- -- ---- -------<br>-- --------- ------ --- ----- ------ ---- --- --------- --<br>------ - ---- -- --- ----------- ------- ---- ----- -----<br>--- -------- - ------ ---- -- ----- ---- --- --- -----------<br>-- -------,201028.60000002384,201027.79999995232,200451.028,200452.89999997616,200467.699,201034.521,,15,his
screen,html.Screen,0_4_1_0_1_16,2021-11-12T11:21:38.424Z,,,,,,,,,,,,,,,,2,,,,,,,,,,,,,,673.6790000476758,,response,,,1,D,,,,,Space,keypress(Space),,,,silence,--- ---- ------ --- ------- ---------- ------- ----------<br>--- --------- --- ----------- ------- ----- ------- ---<br>telescope ---- -- --- ---- -- --------- -- ---- -------<br>-- --------- ------ --- ----- ------ ---- --- --------- --<br>------ - ---- -- --- ----------- ------- ---- ----- -----<br>--- -------- - ------ ---- -- ----- ---- --- --- -----------<br>-- -------,201709,201708.20000004768,201017.85,201028.79999995232,201034.521,201718.04,,16,telescope
screen,html.Screen,0_4_1_0_1_17,2021-11-12T11:21:38.976Z,,,,,,,,,,,,,,,,2,,,,,,,,,,,,,,541.6600000476756,,response,,,1,D,,,,,Space,keypress(Space),,,,silence,--- ---- ------ --- ------- ---------- ------- ----------<br>--- --------- --- ----------- ------- ----- ------- ---<br>--------- when -- --- ---- -- --------- -- ---- -------<br>-- --------- ------ --- ----- ------ ---- --- --------- --<br>------ - ---- -- --- ----------- ------- ---- ----- -----<br>--- -------- - ------ ---- -- ----- ---- --- --- -----------<br>-- -------,202260.60000002384,202259.70000004768,201701.369,201709.29999995232,201718.04,202268.099,,17,when
screen,html.Screen,0_4_1_0_1_18,2021-11-12T11:21:39.480Z,,,,,,,,,,,,,,,,2,,,,,,,,,,,,,,495.6010000476963,,response,,,1,D,,,,,Space,keypress(Space),,,,silence,--- ---- ------ --- ------- ---------- ------- ----------<br>--- --------- --- ----------- ------- ----- ------- ---<br>--------- ---- he --- ---- -- --------- -- ---- -------<br>-- --------- ------ --- ----- ------ ---- --- --------- --<br>------ - ---- -- --- ----------- ------- ---- ----- -----<br>--- -------- - ------ ---- -- ----- ---- --- --- -----------<br>-- -------,202764.60000002384,202763.70000004768,202251.429,202260.79999995232,202268.099,202768.254,,18,he
screen,html.Screen,0_4_1_0_1_19,2021-11-12T11:21:40.016Z,,,,,,,,,,,,,,,,2,,,,,,,,,,,,,,531.54599995233,,response,,,1,D,,,,,Space,keypress(Space),,,,silence,--- ---- ------ --- ------- ---------- ------- ----------<br>--- --------- --- ----------- ------- ----- ------- ---<br>--------- ---- -- saw ---- -- --------- -- ---- -------<br>-- --------- ------ --- ----- ------ ---- --- --------- --<br>------ - ---- -- --- ----------- ------- ---- ----- -----<br>--- -------- - ------ ---- -- ----- ---- --- --- -----------<br>-- -------,203300.60000002384,203299.79999995232,202751.584,202764.79999995232,202768.254,203301.814,,19,saw
screen,html.Screen,0_4_1_0_1_20,2021-11-12T11:21:40.640Z,,,,,,,,,,,,,,,,2,,,,,,,,,,,,,,621.8860000476707,,response,,,1,D,,,,,Space,keypress(Space),,,,silence,--- ---- ------ --- ------- ---------- ------- ----------<br>--- --------- --- ----------- ------- ----- ------- ---<br>--------- ---- -- --- what -- --------- -- ---- -------<br>-- --------- ------ --- ----- ------ ---- --- --------- --<br>------ - ---- -- --- ----------- ------- ---- ----- -----<br>--- -------- - ------ ---- -- ----- ---- --- --- -----------<br>-- -------,203924.5,203923.70000004768,203285.143,203300.79999995232,203301.814,203935.131,,20,what
screen,html.Screen,0_4_1_0_1_21,2021-11-12T11:21:41.104Z,,,,,,,,,,,,,,,,2,,,,,,,,,,,,,,452.56900004768977,,response,,,1,D,,,,,Space,keypress(Space),,,,silence,--- ---- ------ --- ------- ---------- ------- ----------<br>--- --------- --- ----------- ------- ----- ------- ---<br>--------- ---- -- --- ---- he --------- -- ---- -------<br>-- --------- ------ --- ----- ------ ---- --- --------- --<br>------ - ---- -- --- ----------- ------- ---- ----- -----<br>--- -------- - ------ ---- -- ----- ---- --- --- -----------<br>-- -------,204388.39999997616,204387.70000004768,203918.462,203924.79999995232,203935.131,204402.16,,21,he
screen,html.Screen,0_4_1_0_1_22,2021-11-12T11:21:41.680Z,,,,,,,,,,,,,,,,2,,,,,,,,,,,,,,561.5400000476802,,response,,,1,D,,,,,Space,keypress(Space),,,,silence,--- ---- ------ --- ------- ---------- ------- ----------<br>--- --------- --- ----------- ------- ----- ------- ---<br>--------- ---- -- --- ---- -- described -- ---- -------<br>-- --------- ------ --- ----- ------ ---- --- --------- --<br>------ - ---- -- --- ----------- ------- ---- ----- -----<br>--- -------- - ------ ---- -- ----- ---- --- --- -----------<br>-- -------,204964.5,204963.70000004768,204385.488,204388.70000004768,204402.16,204968.862,,22,described
screen,html.Screen,0_4_1_0_1_23,2021-11-12T11:21:42.200Z,,,,,,,,,,,,,,,,2,,,,,,,,,,,,,,514.7380000238481,,response,,,1,D,,,,,Space,keypress(Space),,,,silence,--- ---- ------ --- ------- ---------- ------- ----------<br>--- --------- --- ----------- ------- ----- ------- ---<br>--------- ---- -- --- ---- -- --------- as ---- -------<br>-- --------- ------ --- ----- ------ ---- --- --------- --<br>------ - ---- -- --- ----------- ------- ---- ----- -----<br>--- -------- - ------ ---- -- ----- ---- --- --- -----------<br>-- -------,205484.5,205483.60000002384,204952.192,204964.70000004768,204968.862,205485.706,,23,as
screen,html.Screen,0_4_1_0_1_24,2021-11-12T11:21:42.848Z,,,,,,,,,,,,,,,,2,,,,,,,,,,,,,,645.7939999999944,,response,,,1,D,,,,,Space,keypress(Space),,,,silence,"--- ---- ------ --- ------- ---------- ------- ----------<br>--- --------- --- ----------- ------- ----- ------- ---<br>--------- ---- -- --- ---- -- --------- -- ""two -------<br>-- --------- ------ --- ----- ------ ---- --- --------- --<br>------ - ---- -- --- ----------- ------- ---- ----- -----<br>--- -------- - ------ ---- -- ----- ---- --- --- -----------<br>-- -------",206132.39999997616,206131.5,205469.035,205484.60000002384,205485.706,206135.904,,24,"""two"
screen,html.Screen,0_4_1_0_1_25,2021-11-12T11:21:43.376Z,,,,,,,,,,,,,,,,2,,,,,,,,,,,,,,523.5959999999905,,response,,,1,D,,,,,Space,keypress(Space),,,,silence,--- ---- ------ --- ------- ---------- ------- ----------<br>--- --------- --- ----------- ------- ----- ------- ---<br>--------- ---- -- --- ---- -- --------- -- ---- patches<br>-- --------- ------ --- ----- ------ ---- --- --------- --<br>------ - ---- -- --- ----------- ------- ---- ----- -----<br>--- -------- - ------ ---- -- ----- ---- --- --- -----------<br>-- -------,206660.39999997616,206659.5,206119.233,206132.70000004768,206135.904,206669.298,,25,patches
screen,html.Screen,0_4_1_0_1_26,2021-11-12T11:21:43.896Z,,,,,,,,,,,,,,,,2,,,,,,,,,,,,,,510.2019999999902,,response,,,1,D,,,,,Space,keypress(Space),,,,silence,--- ---- ------ --- ------- ---------- ------- ----------<br>--- --------- --- ----------- ------- ----- ------- ---<br>--------- ---- -- --- ---- -- --------- -- ---- -------<br>of --------- ------ --- ----- ------ ---- --- --------- --<br>------ - ---- -- --- ----------- ------- ---- ----- -----<br>--- -------- - ------ ---- -- ----- ---- --- --- -----------<br>-- -------,207180.29999995232,207179.5,206652.628,206660.60000002384,206669.298,207186.108,,26,of
screen,html.Screen,0_4_1_0_1_27,2021-11-12T11:21:44.727Z,,,,,,,,,,,,,,,,2,,,,,,,,,,,,,,825.0920000476763,,response,,,1,D,,,,,Space,keypress(Space),,,,silence,--- ---- ------ --- ------- ---------- ------- ----------<br>--- --------- --- ----------- ------- ----- ------- ---<br>--------- ---- -- --- ---- -- --------- -- ---- -------<br>-- intensely ------ --- ----- ------ ---- --- --------- --<br>------ - ---- -- --- ----------- ------- ---- ----- -----<br>--- -------- - ------ ---- -- ----- ---- --- --- -----------<br>-- -------,208011.60000002384,208011.20000004768,207169.438,207180.5,207186.108,208019.538,,27,intensely
screen,html.Screen,0_4_1_0_1_28,2021-11-12T11:21:45.400Z,,,,,,,,,,,,,,,,2,,,,,,,,,,,,,,663.8619999761577,,response,,,1,D,,,,,Space,keypress(Space),,,,silence,--- ---- ------ --- ------- ---------- ------- ----------<br>--- --------- --- ----------- ------- ----- ------- ---<br>--------- ---- -- --- ---- -- --------- -- ---- -------<br>-- --------- bright --- ----- ------ ---- --- --------- --<br>------ - ---- -- --- ----------- ------- ---- ----- -----<br>--- -------- - ------ ---- -- ----- ---- --- --- -----------<br>-- -------,208684.29999995232,208683.39999997616,208002.869,208011.70000004768,208019.538,208686.595,,28,bright
screen,html.Screen,0_4_1_0_1_29,2021-11-12T11:21:45.968Z,,,,,,,,,,,,,,,,2,,,,,,,,,,,,,,564.9049999999988,,response,,,1,D,,,,,Space,keypress(Space),,,,silence,--- ---- ------ --- ------- ---------- ------- ----------<br>--- --------- --- ----------- ------- ----- ------- ---<br>--------- ---- -- --- ---- -- --------- -- ---- -------<br>-- --------- ------ and ----- ------ ---- --- --------- --<br>------ - ---- -- --- ----------- ------- ---- ----- -----<br>--- -------- - ------ ---- -- ----- ---- --- --- -----------<br>-- -------,209252.39999997616,209251.5,208669.923,208684.60000002384,208686.595,209269.868,,29,and
screen,html.Screen,0_4_1_0_1_30,2021-11-12T11:21:46.648Z,,,,,,,,,,,,,,,,2,,,,,,,,,,,,,,661.4319999523286,,response,,,1,D,,,,,Space,keypress(Space),,,,silence,--- ---- ------ --- ------- ---------- ------- ----------<br>--- --------- --- ----------- ------- ----- ------- ---<br>--------- ---- -- --- ---- -- --------- -- ---- -------<br>-- --------- ------ --- white ------ ---- --- --------- --<br>------ - ---- -- --- ----------- ------- ---- ----- -----<br>--- -------- - ------ ---- -- ----- ---- --- --- -----------<br>-- -------,209932.20000004768,209931.29999995232,209253.199,209252.70000004768,209269.868,209937.01,,30,white
screen,html.Screen,0_4_1_0_1_31,2021-11-12T11:21:47.248Z,,,,,,,,,,,,,,,,2,,,,,,,,,,,,,,594.289999952307,,response,,,1,D,,,,,Space,keypress(Space),,,,silence,"--- ---- ------ --- ------- ---------- ------- ----------<br>--- --------- --- ----------- ------- ----- ------- ---<br>--------- ---- -- --- ---- -- --------- -- ---- -------<br>-- --------- ------ --- ----- light"" ---- --- --------- --<br>------ - ---- -- --- ----------- ------- ---- ----- -----<br>--- -------- - ------ ---- -- ----- ---- --- --- -----------<br>-- -------",210532.20000004768,210531.29999995232,209920.338,209932.5,209937.01,210536.894,,31,"light"""
screen,html.Screen,0_4_1_0_1_32,2021-11-12T11:21:47.839Z,,,,,,,,,,,,,,,,2,,,,,,,,,,,,,,586.405999952316,,response,,,1,D,,,,,Space,keypress(Space),,,,silence,--- ---- ------ --- ------- ---------- ------- ----------<br>--- --------- --- ----------- ------- ----- ------- ---<br>--------- ---- -- --- ---- -- --------- -- ---- -------<br>-- --------- ------ --- ----- ------ over --- --------- --<br>------ - ---- -- --- ----------- ------- ---- ----- -----<br>--- -------- - ------ ---- -- ----- ---- --- --- -----------<br>-- -------,211124.20000004768,211123.29999995232,210520.225,210532.39999997616,210536.894,211137.293,,32,over
screen,html.Screen,0_4_1_0_1_33,2021-11-12T11:21:48.223Z,,,,,,,,,,,,,,,,2,,,,,,,,,,,,,,370.00699995231116,,response,,,1,D,,,,,Space,keypress(Space),,,,silence,--- ---- ------ --- ------- ---------- ------- ----------<br>--- --------- --- ----------- ------- ----- ------- ---<br>--------- ---- -- --- ---- -- --------- -- ---- -------<br>-- --------- ------ --- ----- ------ ---- the --------- --<br>------ - ---- -- --- ----------- ------- ---- ----- -----<br>--- -------- - ------ ---- -- ----- ---- --- --- -----------<br>-- -------,211508,211507.29999995232,211120.621,211124.29999995232,211137.293,211520.67,,33,the
screen,html.Screen,0_4_1_0_1_34,2021-11-12T11:21:48.784Z,,,,,,,,,,,,,,,,2,,,,,,,,,,,,,,547.0300000476709,,response,,,1,D,,,,,Space,keypress(Space),,,,silence,--- ---- ------ --- ------- ---------- ------- ----------<br>--- --------- --- ----------- ------- ----- ------- ---<br>--------- ---- -- --- ---- -- --------- -- ---- -------<br>-- --------- ------ --- ----- ------ ---- --- sunspots. --<br>------ - ---- -- --- ----------- ------- ---- ----- -----<br>--- -------- - ------ ---- -- ----- ---- --- --- -----------<br>-- -------,212068.5,212067.70000004768,211503.999,211508.29999995232,211520.67,212070.817,,34,sunspots.
screen,html.Screen,0_4_1_0_1_35,2021-11-12T11:21:49.367Z,,,,,,,,,,,,,,,,2,,,,,,,,,,,,,,580.3830000476737,,response,,,1,D,,,,,Space,keypress(Space),,,,silence,--- ---- ------ --- ------- ---------- ------- ----------<br>--- --------- --- ----------- ------- ----- ------- ---<br>--------- ---- -- --- ---- -- --------- -- ---- -------<br>-- --------- ------ --- ----- ------ ---- --- --------- He<br>------ - ---- -- --- ----------- ------- ---- ----- -----<br>--- -------- - ------ ---- -- ----- ---- --- --- -----------<br>-- -------,212652,212651.20000004768,212054.146,212068.79999995232,212070.817,212654.259,,35,He
screen,html.Screen,0_4_1_0_1_36,2021-11-12T11:21:50.007Z,,,,,,,,,,,,,,,,2,,,,,,,,,,,,,,636.9410000476928,,response,,,1,D,,,,,Space,keypress(Space),,,,silence,--- ---- ------ --- ------- ---------- ------- ----------<br>--- --------- --- ----------- ------- ----- ------- ---<br>--------- ---- -- --- ---- -- --------- -- ---- -------<br>-- --------- ------ --- ----- ------ ---- --- --------- --<br>jotted - ---- -- --- ----------- ------- ---- ----- -----<br>--- -------- - ------ ---- -- ----- ---- --- --- -----------<br>-- -------,213292,213291.20000004768,212637.589,212652.29999995232,212654.259,213304.497,,36,jotted
screen,html.Screen,0_4_1_0_1_37,2021-11-12T11:21:50.463Z,,,,,,,,,,,,,,,,2,,,,,,,,,,,,,,442.80299995231326,,response,,,1,D,,,,,Space,keypress(Space),,,,silence,--- ---- ------ --- ------- ---------- ------- ----------<br>--- --------- --- ----------- ------- ----- ------- ---<br>--------- ---- -- --- ---- -- --------- -- ---- -------<br>-- --------- ------ --- ----- ------ ---- --- --------- --<br>------ a ---- -- --- ----------- ------- ---- ----- -----<br>--- -------- - ------ ---- -- ----- ---- --- --- -----------<br>-- -------,213748.10000002384,213747.29999995232,213287.826,213292.29999995232,213304.497,213754.565,,37,a
screen,html.Screen,0_4_1_0_1_38,2021-11-12T11:21:50.959Z,,,,,,,,,,,,,,,,2,,,,,,,,,,,,,,488.6350000476814,,response,,,1,D,,,,,Space,keypress(Space),,,,silence,--- ---- ------ --- ------- ---------- ------- ----------<br>--- --------- --- ----------- ------- ----- ------- ---<br>--------- ---- -- --- ---- -- --------- -- ---- -------<br>-- --------- ------ --- ----- ------ ---- --- --------- --<br>------ - note -- --- ----------- ------- ---- ----- -----<br>--- -------- - ------ ---- -- ----- ---- --- --- -----------<br>-- -------,214244,214243.20000004768,213737.895,213748.39999997616,213754.565,214254.745,,38,note
screen,html.Screen,0_4_1_0_1_39,2021-11-12T11:21:51.375Z,,,,,,,,,,,,,,,,2,,,,,,,,,,,,,,404.4550000476884,,response,,,1,D,,,,,Space,keypress(Space),,,,silence,--- ---- ------ --- ------- ---------- ------- ----------<br>--- --------- --- ----------- ------- ----- ------- ---<br>--------- ---- -- --- ---- -- --------- -- ---- -------<br>-- --------- ------ --- ----- ------ ---- --- --------- --<br>------ - ---- in --- ----------- ------- ---- ----- -----<br>--- -------- - ------ ---- -- ----- ---- --- --- -----------<br>-- -------,214660.10000002384,214659.20000004768,214238.074,214244.29999995232,214254.745,214671.338,,39,in
screen,html.Screen,0_4_1_0_1_40,2021-11-12T11:21:51.743Z,,,,,,,,,,,,,,,,2,,,,,,,,,,,,,,355.8620000476949,,response,,,1,D,,,,,Space,keypress(Space),,,,silence,--- ---- ------ --- ------- ---------- ------- ----------<br>--- --------- --- ----------- ------- ----- ------- ---<br>--------- ---- -- --- ---- -- --------- -- ---- -------<br>-- --------- ------ --- ----- ------ ---- --- --------- --<br>------ - ---- -- his ----------- ------- ---- ----- -----<br>--- -------- - ------ ---- -- ----- ---- --- --- -----------<br>-- -------,215028,215027.20000004768,214654.67,214660.39999997616,214671.338,215038.355,,40,his
screen,html.Screen,0_4_1_0_1_41,2021-11-12T11:21:52.775Z,,,,,,,,,,,,,,,,2,,,,,,,,,,,,,,1020.7450000238314,,response,,,1,D,,,,,Space,keypress(Space),,,,silence,--- ---- ------ --- ------- ---------- ------- ----------<br>--- --------- --- ----------- ------- ----- ------- ---<br>--------- ---- -- --- ---- -- --------- -- ---- -------<br>-- --------- ------ --- ----- ------ ---- --- --------- --<br>------ - ---- -- --- painstaking ------- ---- ----- -----<br>--- -------- - ------ ---- -- ----- ---- --- --- -----------<br>-- -------,216059.89999997616,216059.10000002384,215021.683,215028.20000004768,215038.355,216071.82,,41,painstaking
screen,html.Screen,0_4_1_0_1_42,2021-11-12T11:21:53.455Z,,,,,,,,,,,,,,,,2,,,,,,,,,,,,,,667.3800000476767,,response,,,1,D,,,,,Space,keypress(Space),,,,silence,--- ---- ------ --- ------- ---------- ------- ----------<br>--- --------- --- ----------- ------- ----- ------- ---<br>--------- ---- -- --- ---- -- --------- -- ---- -------<br>-- --------- ------ --- ----- ------ ---- --- --------- --<br>------ - ---- -- --- ----------- record. ---- ----- -----<br>--- -------- - ------ ---- -- ----- ---- --- --- -----------<br>-- -------,216740.10000002384,216739.20000004768,216055.15,216060.20000004768,216071.82,216755.408,,42,record.
screen,html.Screen,0_4_1_0_1_43,2021-11-12T11:21:54.071Z,,,,,,,,,,,,,,,,2,,,,,,,,,,,,,,599.7920000476879,,response,,,1,D,,,,,Space,keypress(Space),,,,silence,--- ---- ------ --- ------- ---------- ------- ----------<br>--- --------- --- ----------- ------- ----- ------- ---<br>--------- ---- -- --- ---- -- --------- -- ---- -------<br>-- --------- ------ --- ----- ------ ---- --- --------- --<br>------ - ---- -- --- ----------- ------- That ----- -----<br>--- -------- - ------ ---- -- ----- ---- --- --- -----------<br>-- -------,217355.89999997616,217355.20000004768,216738.737,216740.29999995232,216755.408,217372.237,,43,That
screen,html.Screen,0_4_1_0_1_44,2021-11-12T11:21:54.639Z,,,,,,,,,,,,,,,,2,,,,,,,,,,,,,,550.8630000238481,,response,,,1,D,,,,,Space,keypress(Space),,,,silence,--- ---- ------ --- ------- ---------- ------- ----------<br>--- --------- --- ----------- ------- ----- ------- ---<br>--------- ---- -- --- ---- -- --------- -- ---- -------<br>-- --------- ------ --- ----- ------ ---- --- --------- --<br>------ - ---- -- --- ----------- ------- ---- night -----<br>--- -------- - ------ ---- -- ----- ---- --- --- -----------<br>-- -------,217923.89999997616,217923.10000002384,217355.566,217356.29999995232,217372.237,217939.057,,44,night
screen,html.Screen,0_4_1_0_1_45,2021-11-12T11:21:55.167Z,,,,,,,,,,,,,,,,2,,,,,,,,,,,,,,512.0430000238412,,response,,,1,D,,,,,Space,keypress(Space),,,,silence,--- ---- ------ --- ------- ---------- ------- ----------<br>--- --------- --- ----------- ------- ----- ------- ---<br>--------- ---- -- --- ---- -- --------- -- ---- -------<br>-- --------- ------ --- ----- ------ ---- --- --------- --<br>------ - ---- -- --- ----------- ------- ---- ----- there<br>--- -------- - ------ ---- -- ----- ---- --- --- -----------<br>-- -------,218451.89999997616,218451.10000002384,217922.386,217924.20000004768,217939.057,218455.772,,45,there
screen,html.Screen,0_4_1_0_1_46,2021-11-12T11:21:55.799Z,,,,,,,,,,,,,,,,2,,,,,,,,,,,,,,627.2280000000028,,response,,,1,D,,,,,Space,keypress(Space),,,,silence,--- ---- ------ --- ------- ---------- ------- ----------<br>--- --------- --- ----------- ------- ----- ------- ---<br>--------- ---- -- --- ---- -- --------- -- ---- -------<br>-- --------- ------ --- ----- ------ ---- --- --------- --<br>------ - ---- -- --- ----------- ------- ---- ----- -----<br>was -------- - ------ ---- -- ----- ---- --- --- -----------<br>-- -------,219083.79999995232,219083,218439.102,218452.20000004768,218455.772,219089.447,,46,was
screen,html.Screen,0_4_1_0_1_47,2021-11-12T11:21:56.415Z,,,,,,,,,,,,,,,,2,,,,,,,,,,,,,,609.4529999761726,,response,,,1,D,,,,,Space,keypress(Space),,,,silence,--- ---- ------ --- ------- ---------- ------- ----------<br>--- --------- --- ----------- ------- ----- ------- ---<br>--------- ---- -- --- ---- -- --------- -- ---- -------<br>-- --------- ------ --- ----- ------ ---- --- --------- --<br>------ - ---- -- --- ----------- ------- ---- ----- -----<br>--- scarcely - ------ ---- -- ----- ---- --- --- -----------<br>-- -------,219699.79999995232,219698.89999997616,219072.775,219084.10000002384,219089.447,219706.151,,47,scarcely
screen,html.Screen,0_4_1_0_1_48,2021-11-12T11:21:56.815Z,,,,,,,,,,,,,,,,2,,,,,,,,,,,,,,392.74899997614557,,response,,,1,D,,,,,Space,keypress(Space),,,,silence,--- ---- ------ --- ------- ---------- ------- ----------<br>--- --------- --- ----------- ------- ----- ------- ---<br>--------- ---- -- --- ---- -- --------- -- ---- -------<br>-- --------- ------ --- ----- ------ ---- --- --------- --<br>------ - ---- -- --- ----------- ------- ---- ----- -----<br>--- -------- a ------ ---- -- ----- ---- --- --- -----------<br>-- -------,220099.79999995232,220098.89999997616,219689.481,219700.10000002384,219706.151,220106.336,,48,a
screen,html.Screen,0_4_1_0_1_49,2021-11-12T11:21:57.503Z,,,,,,,,,,,,,,,,2,,,,,,,,,,,,,,680.6639999999898,,response,,,1,D,,,,,Space,keypress(Space),,,,silence,--- ---- ------ --- ------- ---------- ------- ----------<br>--- --------- --- ----------- ------- ----- ------- ---<br>--------- ---- -- --- ---- -- --------- -- ---- -------<br>-- --------- ------ --- ----- ------ ---- --- --------- --<br>------ - ---- -- --- ----------- ------- ---- ----- -----<br>--- -------- - square ---- -- ----- ---- --- --- -----------<br>-- -------,220787.79999995232,220787,220089.665,220101.29999995232,220106.336,220789.787,,49,square
