sender,sender_type,sender_id,timestamp,meta,,Blues,Classical,Country,Dance,Electronic,Folk,Gospel,Hip-Hop,Jazz,Latin,Musical/Film,New-age,Pop,Provo_ID,R&B,Rap,Reggae,Religious,Rock,Soul,Swing,Traditional,age,artist_name,correct,correctResponse,distraction,duration,education,ended_on,familiarity,gender,item,list,music_frequency,offensiveness,pleasantness,preference,response,response_action,snippet_file,song_name,song_rating,sound,text,time_commit,time_end,time_render,time_run,time_show,time_switch,url,word,word_ID
Instructions,html.Page,0_0,2021-12-03T12:06:25.089Z,"{""labjs_version"":""20.2.3"",""labjs_build"":{""flavor"":""production"",""commit"":""7ea907d66ca8aeef8054924ca5d82ffbe11e34e5""},""location"":""https://run.pavlovia.org/mvasilev/lab_music_f/"",""userAgent"":""Mozilla/5.0 (Windows NT 6.1; Win64; x64) AppleWebKit/537.36 (KHTML, like Gecko) Chrome/96.0.4664.45 Safari/537.36"",""platform"":""Win32"",""language"":""en-US"",""locale"":""en-US"",""timeZone"":""Europe/London"",""timezoneOffset"":0,""screen_width"":1920,""screen_height"":1080,""scroll_width"":1920,""scroll_height"":959,""window_innerWidth"":1920,""window_innerHeight"":1007,""devicePixelRatio"":1}",,,,,,,,,,,,,,,,,,,,,,,,,,,,,13014.107,,form submission,,,,,,,,,,,,,,,,29717.799999952316,29717,16669.563,16681.299999952316,16702.893,29719.745,{},,
Headphones,html.Page,0_1,2021-12-03T12:06:32.482Z,,,,,,,,,,,,,,,,,,,,,,,,,,,,,,7390.554999952317,,form submission,,,,,,,,,,,,,,,,37110.69999998808,37110.299999952316,29703.066,29718.299999952316,29719.745,37118.939,,,
Holding screen,html.Screen,0_2_0_0,2021-12-03T12:06:42.477Z,,,,,,,,,,,,,,,,,,,,,,,,,,,,,,9999.621,,timeout,,,,,,,,,,,,,,,,47106,47101.895,37102.275,37111.09999996424,37118.939,47118.56,,,
screen,html.Screen,0_2_0_1_0,2021-12-03T12:06:44.095Z,,,,,,,,,,,,,,,,53,,,,,,,,,,,,,,1604.4400000000023,,response,,,99,,,,,,Space,keypress(Space),,,,,When -- ----- -- ------ - ------- --- ----------<br>------------- ------ ------ ---- ---- ------- ----- -- ----<br>-------- ------- -- ---------- --- - --- ----- ----- ----<br>---- --- --- ----- --- ---- ---- ------- ----- ---- -------<br>--- --- -- ----- -- --- ---- -- --- ---- -- ------ ------<br>--- ----- -- ----,48724,48723,47101.895,47106.299999952316,47118.56,48735.084,,0,When
screen,html.Screen,0_2_0_1_1,2021-12-03T12:06:45.239Z,,,,,,,,,,,,,,,,53,,,,,,,,,,,,,,1131.6159999880765,,response,,,99,,,,,,Space,keypress(Space),,,,,---- it ----- -- ------ - ------- --- ----------<br>------------- ------ ------ ---- ---- ------- ----- -- ----<br>-------- ------- -- ---------- --- - --- ----- ----- ----<br>---- --- --- ----- --- ---- ---- ------- ----- ---- -------<br>--- --- -- ----- -- --- ---- -- --- ---- -- ------ ------<br>--- ----- -- ----,49867.39999997616,49866.69999998808,48718.419,48724.19999998808,48735.084,49868.53,,1,it
screen,html.Screen,0_2_0_1_2,2021-12-03T12:06:45.807Z,,,,,,,,,,,,,,,,53,,,,,,,,,,,,,,566.1699999880802,,response,,,99,,,,,,Space,keypress(Space),,,,,---- -- comes -- ------ - ------- --- ----------<br>------------- ------ ------ ---- ---- ------- ----- -- ----<br>-------- ------- -- ---------- --- - --- ----- ----- ----<br>---- --- --- ----- --- ---- ---- ------- ----- ---- -------<br>--- --- -- ----- -- --- ---- -- --- ---- -- ------ ------<br>--- ----- -- ----,50435.299999952316,50434.69999998808,49851.864,49867.59999996424,49868.53,50451.795,,2,comes
screen,html.Screen,0_2_0_1_3,2021-12-03T12:06:46.255Z,,,,,,,,,,,,,,,,53,,,,,,,,,,,,,,430.80499996423896,,response,,,99,,,,,,Space,keypress(Space),,,,,---- -- ----- to ------ - ------- --- ----------<br>------------- ------ ------ ---- ---- ------- ----- -- ----<br>-------- ------- -- ---------- --- - --- ----- ----- ----<br>---- --- --- ----- --- ---- ---- ------- ----- ---- -------<br>--- --- -- ----- -- --- ---- -- --- ---- -- ------ ------<br>--- ----- -- ----,50883.299999952316,50882.59999996424,50435.13,50435.39999997616,50451.795,50885.132,,3,to
screen,html.Screen,0_2_0_1_4,2021-12-03T12:06:46.703Z,,,,,,,,,,,,,,,,53,,,,,,,,,,,,,,445.4679999642394,,response,,,99,,,,,,Space,keypress(Space),,,,,---- -- ----- -- having - ------- --- ----------<br>------------- ------ ------ ---- ---- ------- ----- -- ----<br>-------- ------- -- ---------- --- - --- ----- ----- ----<br>---- --- --- ----- --- ---- ---- ------- ----- ---- -------<br>--- --- -- ----- -- --- ---- -- --- ---- -- ------ ------<br>--- ----- -- ----,51331.299999952316,51330.59999996424,50868.467,50883.59999996424,50885.132,51335.079,,4,having
screen,html.Screen,0_2_0_1_5,2021-12-03T12:06:47.079Z,,,,,,,,,,,,,,,,53,,,,,,,,,,,,,,371.5209999642393,,response,,,99,,,,,,Space,keypress(Space),,,,,---- -- ----- -- ------ a ------- --- ----------<br>------------- ------ ------ ---- ---- ------- ----- -- ----<br>-------- ------- -- ---------- --- - --- ----- ----- ----<br>---- --- --- ----- --- ---- ---- ------- ----- ---- -------<br>--- --- -- ----- -- --- ---- -- --- ---- -- ------ ------<br>--- ----- -- ----,51707.299999952316,51706.59999996424,51318.414,51331.5,51335.079,51718.486,,5,a
screen,html.Screen,0_2_0_1_6,2021-12-03T12:06:47.511Z,,,,,,,,,,,,,,,,53,,,,,,,,,,,,,,420.01400000000285,,response,,,99,,,,,,Space,keypress(Space),,,,,---- -- ----- -- ------ - lasting --- ----------<br>------------- ------ ------ ---- ---- ------- ----- -- ----<br>-------- ------- -- ---------- --- - --- ----- ----- ----<br>---- --- --- ----- --- ---- ---- ------- ----- ---- -------<br>--- --- -- ----- -- --- ---- -- --- ---- -- ------ ------<br>--- ----- -- ----,52139.299999952316,52138.5,51701.82,51707.59999996424,51718.486,52151.677,,6,lasting
screen,html.Screen,0_2_0_1_7,2021-12-03T12:06:48.127Z,,,,,,,,,,,,,,,,53,,,,,,,,,,,,,,602.9229999642339,,response,,,99,,,,,,Space,keypress(Space),,,,,---- -- ----- -- ------ - ------- and ----------<br>------------- ------ ------ ---- ---- ------- ----- -- ----<br>-------- ------- -- ---------- --- - --- ----- ----- ----<br>---- --- --- ----- --- ---- ---- ------- ----- ---- -------<br>--- --- -- ----- -- --- ---- -- --- ---- -- ------ ------<br>--- ----- -- ----,52755.299999952316,52754.59999996424,52135.013,52139.5,52151.677,52768.495,,7,and
screen,html.Screen,0_2_0_1_8,2021-12-03T12:06:48.679Z,,,,,,,,,,,,,,,,53,,,,,,,,,,,,,,538.0049999999974,,response,,,99,,,,,,Space,keypress(Space),,,,,---- -- ----- -- ------ - ------- --- fulfilling<br>------------- ------ ------ ---- ---- ------- ----- -- ----<br>-------- ------- -- ---------- --- - --- ----- ----- ----<br>---- --- --- ----- --- ---- ---- ------- ----- ---- -------<br>--- --- -- ----- -- --- ---- -- --- ---- -- ------ ------<br>--- ----- -- ----,53307.299999952316,53306.5,52751.828,52755.5,52768.495,53318.364,,8,fulfilling
screen,html.Screen,0_2_0_1_9,2021-12-03T12:06:49.335Z,,,,,,,,,,,,,,,,53,,,,,,,,,,,,,,644.1359999999986,,response,,,99,,,,,,Space,keypress(Space),,,,,"---- -- ----- -- ------ - ------- --- ----------<br>relationship, ------ ------ ---- ---- ------- ----- -- ----<br>-------- ------- -- ---------- --- - --- ----- ----- ----<br>---- --- --- ----- --- ---- ---- ------- ----- ---- -------<br>--- --- -- ----- -- --- ---- -- --- ---- -- ------ ------<br>--- ----- -- ----",53963.19999998808,53962.5,53301.699,53307.5,53318.364,53968.334,,9,"relationship,"
screen,html.Screen,0_2_0_1_10,2021-12-03T12:06:49.871Z,,,,,,,,,,,,,,,,53,,,,,,,,,,,,,,530.1659999999974,,response,,,99,,,,,,Space,keypress(Space),,,,,---- -- ----- -- ------ - ------- --- ----------<br>------------- common ------ ---- ---- ------- ----- -- ----<br>-------- ------- -- ---------- --- - --- ----- ----- ----<br>---- --- --- ----- --- ---- ---- ------- ----- ---- -------<br>--- --- -- ----- -- --- ---- -- --- ---- -- ------ ------<br>--- ----- -- ----,54499.19999998808,54498.5,53951.669,53963.299999952316,53968.334,54501.654,,10,common
screen,html.Screen,0_2_0_1_11,2021-12-03T12:06:50.358Z,,,,,,,,,,,,,,,,53,,,,,,,,,,,,,,484.7459999761559,,response,,,99,,,,,,Space,keypress(Space),,,,,---- -- ----- -- ------ - ------- --- ----------<br>------------- ------ wisdom ---- ---- ------- ----- -- ----<br>-------- ------- -- ---------- --- - --- ----- ----- ----<br>---- --- --- ----- --- ---- ---- ------- ----- ---- -------<br>--- --- -- ----- -- --- ---- -- --- ---- -- ------ ------<br>--- ----- -- ----,54987.09999996424,54986.39999997616,54484.989,54499.39999997616,54501.654,55001.682,,11,wisdom
screen,html.Screen,0_2_0_1_12,2021-12-03T12:06:50.798Z,,,,,,,,,,,,,,,,53,,,,,,,,,,,,,,424.71799997615744,,response,,,99,,,,,,Space,keypress(Space),,,,,---- -- ----- -- ------ - ------- --- ----------<br>------------- ------ ------ says ---- ------- ----- -- ----<br>-------- ------- -- ---------- --- - --- ----- ----- ----<br>---- --- --- ----- --- ---- ---- ------- ----- ---- -------<br>--- --- -- ----- -- --- ---- -- --- ---- -- ------ ------<br>--- ----- -- ----,55427,55426.39999997616,54985.016,54987.299999952316,55001.682,55434.856,,12,says
screen,html.Screen,0_2_0_1_13,2021-12-03T12:06:51.190Z,,,,,,,,,,,,,,,,53,,,,,,,,,,,,,,383.5439999761584,,response,,,99,,,,,,Space,keypress(Space),,,,,---- -- ----- -- ------ - ------- --- ----------<br>------------- ------ ------ ---- that ------- ----- -- ----<br>-------- ------- -- ---------- --- - --- ----- ----- ----<br>---- --- --- ----- --- ---- ---- ------- ----- ---- -------<br>--- --- -- ----- -- --- ---- -- --- ---- -- ------ ------<br>--- ----- -- ----,55819,55818.39999997616,55418.192,55427.19999998808,55434.856,55835.015,,13,that
screen,html.Screen,0_2_0_1_14,2021-12-03T12:06:51.646Z,,,,,,,,,,,,,,,,53,,,,,,,,,,,,,,439.3849999761587,,response,,,99,,,,,,Space,keypress(Space),,,,,---- -- ----- -- ------ - ------- --- ----------<br>------------- ------ ------ ---- ---- feeling ----- -- ----<br>-------- ------- -- ---------- --- - --- ----- ----- ----<br>---- --- --- ----- --- ---- ---- ------- ----- ---- -------<br>--- --- -- ----- -- --- ---- -- --- ---- -- ------ ------<br>--- ----- -- ----,56275.09999996424,56274.39999997616,55818.348,55819.19999998808,55835.015,56284.973,,14,feeling
screen,html.Screen,0_2_0_1_15,2021-12-03T12:06:52.062Z,,,,,,,,,,,,,,,,53,,,,,,,,,,,,,,405.42699997616,,response,,,99,,,,,,Space,keypress(Space),,,,,---- -- ----- -- ------ - ------- --- ----------<br>------------- ------ ------ ---- ---- ------- close -- ----<br>-------- ------- -- ---------- --- - --- ----- ----- ----<br>---- --- --- ----- --- ---- ---- ------- ----- ---- -------<br>--- --- -- ----- -- --- ---- -- --- ---- -- ------ ------<br>--- ----- -- ----,56691.09999996424,56690.39999997616,56268.307,56275.299999952316,56284.973,56701.585,,15,close
screen,html.Screen,0_2_0_1_16,2021-12-03T12:06:52.438Z,,,,,,,,,,,,,,,,53,,,,,,,,,,,,,,364.814999976159,,response,,,99,,,,,,Space,keypress(Space),,,,,---- -- ----- -- ------ - ------- --- ----------<br>------------- ------ ------ ---- ---- ------- ----- to ----<br>-------- ------- -- ---------- --- - --- ----- ----- ----<br>---- --- --- ----- --- ---- ---- ------- ----- ---- -------<br>--- --- -- ----- -- --- ---- -- --- ---- -- ------ ------<br>--- ----- -- ----,57067,57066.39999997616,56684.92,56691.19999998808,56701.585,57068.271,,16,to
screen,html.Screen,0_2_0_1_17,2021-12-03T12:06:53.006Z,,,,,,,,,,,,,,,,53,,,,,,,,,,,,,,566.0289999523156,,response,,,99,,,,,,Space,keypress(Space),,,,,---- -- ----- -- ------ - ------- --- ----------<br>------------- ------ ------ ---- ---- ------- ----- -- your<br>-------- ------- -- ---------- --- - --- ----- ----- ----<br>---- --- --- ----- --- ---- ---- ------- ----- ---- -------<br>--- --- -- ----- -- --- ---- -- --- ---- -- ------ ------<br>--- ----- -- ----,57635,57634.299999952316,57051.605,57067.09999996424,57068.271,57651.586,,17,your
screen,html.Screen,0_2_0_1_18,2021-12-03T12:06:53.534Z,,,,,,,,,,,,,,,,53,,,,,,,,,,,,,,510.7139999523133,,response,,,99,,,,,,Space,keypress(Space),,,,,---- -- ----- -- ------ - ------- --- ----------<br>------------- ------ ------ ---- ---- ------- ----- -- ----<br>romantic ------- -- ---------- --- - --- ----- ----- ----<br>---- --- --- ----- --- ---- ---- ------- ----- ---- -------<br>--- --- -- ----- -- --- ---- -- --- ---- -- ------ ------<br>--- ----- -- ----,58162.89999997616,58162.299999952316,57634.92,57635.19999998808,57651.586,58168.188,,18,romantic
screen,html.Screen,0_2_0_1_19,2021-12-03T12:06:53.998Z,,,,,,,,,,,,,,,,53,,,,,,,,,,,,,,458.11199995231436,,response,,,99,,,,,,Space,keypress(Space),,,,,---- -- ----- -- ------ - ------- --- ----------<br>------------- ------ ------ ---- ---- ------- ----- -- ----<br>-------- partner -- ---------- --- - --- ----- ----- ----<br>---- --- --- ----- --- ---- ---- ------- ----- ---- -------<br>--- --- -- ----- -- --- ---- -- --- ---- -- ------ ------<br>--- ----- -- ----,58626.89999997616,58626.299999952316,58151.523,58163.09999996424,58168.188,58634.884,,19,partner
screen,html.Screen,0_2_0_1_20,2021-12-03T12:06:54.430Z,,,,,,,,,,,,,,,,53,,,,,,,,,,,,,,423.6160000000018,,response,,,99,,,,,,Space,keypress(Space),,,,,---- -- ----- -- ------ - ------- --- ----------<br>------------- ------ ------ ---- ---- ------- ----- -- ----<br>-------- ------- is ---------- --- - --- ----- ----- ----<br>---- --- --- ----- --- ---- ---- ------- ----- ---- -------<br>--- --- -- ----- -- --- ---- -- --- ---- -- ------ ------<br>--- ----- -- ----,59059.09999996424,59058.5,58618.218,58627.09999996424,58634.884,59068.163,,20,is
screen,html.Screen,0_2_0_1_21,2021-12-03T12:06:55.110Z,,,,,,,,,,,,,,,,53,,,,,,,,,,,,,,670.1369999523158,,response,,,99,,,,,,Space,keypress(Space),,,,,---- -- ----- -- ------ - ------- --- ----------<br>------------- ------ ------ ---- ---- ------- ----- -- ----<br>-------- ------- -- paramount. --- - --- ----- ----- ----<br>---- --- --- ----- --- ---- ---- ------- ----- ---- -------<br>--- --- -- ----- -- --- ---- -- --- ---- -- ------ ------<br>--- ----- -- ----,59738.89999997616,59738.299999952316,59051.498,59059.19999998808,59068.163,59751.361,,21,paramount.
screen,html.Screen,0_2_0_1_22,2021-12-03T12:06:55.552Z,,,,,,,,,,,,,,,,53,,,,,,,,,,,,,,426.8389999880819,,response,,,99,,,,,,Space,keypress(Space),,,,,---- -- ----- -- ------ - ------- --- ----------<br>------------- ------ ------ ---- ---- ------- ----- -- ----<br>-------- ------- -- ---------- But - --- ----- ----- ----<br>---- --- --- ----- --- ---- ---- ------- ----- ---- -------<br>--- --- -- ----- -- --- ---- -- --- ---- -- ------ ------<br>--- ----- -- ----,60178.799999952316,60178.19999998808,59734.697,59739.19999998808,59751.361,60184.849,,22,But
screen,html.Screen,0_2_0_1_23,2021-12-03T12:06:56.000Z,,,,,,,,,,,,,,,,53,,,,,,,,,,,,,,441.3509999880771,,response,,,99,,,,,,Space,keypress(Space),,,,,---- -- ----- -- ------ - ------- --- ----------<br>------------- ------ ------ ---- ---- ------- ----- -- ----<br>-------- ------- -- ---------- --- a --- ----- ----- ----<br>---- --- --- ----- --- ---- ---- ------- ----- ---- -------<br>--- --- -- ----- -- --- ---- -- --- ---- -- ------ ------<br>--- ----- -- ----,60626.89999997616,60626.19999998808,60168.182,60179,60184.849,60634.81,,23,a
screen,html.Screen,0_2_0_1_24,2021-12-03T12:06:56.464Z,,,,,,,,,,,,,,,,53,,,,,,,,,,,,,,455.3899999880814,,response,,,99,,,,,,Space,keypress(Space),,,,,---- -- ----- -- ------ - ------- --- ----------<br>------------- ------ ------ ---- ---- ------- ----- -- ----<br>-------- ------- -- ---------- --- - new ----- ----- ----<br>---- --- --- ----- --- ---- ---- ------- ----- ---- -------<br>--- --- -- ----- -- --- ---- -- --- ---- -- ------ ------<br>--- ----- -- ----,61090.799999952316,61090.19999998808,60618.144,60627,60634.81,61101.386,,24,new
screen,html.Screen,0_2_0_1_25,2021-12-03T12:06:56.848Z,,,,,,,,,,,,,,,,53,,,,,,,,,,,,,,372.9139999523177,,response,,,99,,,,,,Space,keypress(Space),,,,,---- -- ----- -- ------ - ------- --- ----------<br>------------- ------ ------ ---- ---- ------- ----- -- ----<br>-------- ------- -- ---------- --- - --- study ----- ----<br>---- --- --- ----- --- ---- ---- ------- ----- ---- -------<br>--- --- -- ----- -- --- ---- -- --- ---- -- ------ ------<br>--- ----- -- ----,61474.799999952316,61474.299999952316,61084.721,61091,61101.386,61484.833,,25,study
screen,html.Screen,0_2_0_1_26,2021-12-03T12:06:57.271Z,,,,,,,,,,,,,,,,53,,,,,,,,,,,,,,413.2669999642385,,response,,,99,,,,,,Space,keypress(Space),,,,,---- -- ----- -- ------ - ------- --- ----------<br>------------- ------ ------ ---- ---- ------- ----- -- ----<br>-------- ------- -- ---------- --- - --- ----- finds ----<br>---- --- --- ----- --- ---- ---- ------- ----- ---- -------<br>--- --- -- ----- -- --- ---- -- --- ---- -- ------ ------<br>--- ----- -- ----,61898.69999998808,61898.09999996424,61468.166,61475,61484.833,61901.391,,26,finds
screen,html.Screen,0_2_0_1_27,2021-12-03T12:06:57.656Z,,,,,,,,,,,,,,,,53,,,,,,,,,,,,,,380.8089999880758,,response,,,99,,,,,,Space,keypress(Space),,,,,---- -- ----- -- ------ - ------- --- ----------<br>------------- ------ ------ ---- ---- ------- ----- -- ----<br>-------- ------- -- ---------- --- - --- ----- ----- that<br>---- --- --- ----- --- ---- ---- ------- ----- ---- -------<br>--- --- -- ----- -- --- ---- -- --- ---- -- ------ ------<br>--- ----- -- ----,62282.799999952316,62282.19999998808,61884.726,61898.89999997616,61901.391,62284.713,,27,that
screen,html.Screen,0_2_0_1_28,2021-12-03T12:06:58.048Z,,,,,,,,,,,,,,,,53,,,,,,,,,,,,,,389.4869999880757,,response,,,99,,,,,,Space,keypress(Space),,,,,---- -- ----- -- ------ - ------- --- ----------<br>------------- ------ ------ ---- ---- ------- ----- -- ----<br>-------- ------- -- ---------- --- - --- ----- ----- ----<br>it's --- --- ----- --- ---- ---- ------- ----- ---- -------<br>--- --- -- ----- -- --- ---- -- --- ---- -- ------ ------<br>--- ----- -- ----,62674.799999952316,62674.19999998808,62268.048,62283,62284.713,62684.694,,28,it's
screen,html.Screen,0_2_0_1_29,2021-12-03T12:06:58.472Z,,,,,,,,,,,,,,,,53,,,,,,,,,,,,,,413.5059999880759,,response,,,99,,,,,,Space,keypress(Space),,,,,---- -- ----- -- ------ - ------- --- ----------<br>------------- ------ ------ ---- ---- ------- ----- -- ----<br>-------- ------- -- ---------- --- - --- ----- ----- ----<br>---- not --- ----- --- ---- ---- ------- ----- ---- -------<br>--- --- -- ----- -- --- ---- -- --- ---- -- ------ ------<br>--- ----- -- ----,63098.799999952316,63098.19999998808,62668.029,62675,62684.694,63101.393,,29,not
screen,html.Screen,0_2_0_1_30,2021-12-03T12:06:58.847Z,,,,,,,,,,,,,,,,53,,,,,,,,,,,,,,372.7069999642408,,response,,,99,,,,,,Space,keypress(Space),,,,,---- -- ----- -- ------ - ------- --- ----------<br>------------- ------ ------ ---- ---- ------- ----- -- ----<br>-------- ------- -- ---------- --- - --- ----- ----- ----<br>---- --- how ----- --- ---- ---- ------- ----- ---- -------<br>--- --- -- ----- -- --- ---- -- --- ---- -- ------ ------<br>--- ----- -- ----,63474.69999998808,63474.09999996424,63084.727,63099.59999996424,63101.393,63484.67,,30,how
screen,html.Screen,0_2_0_1_31,2021-12-03T12:06:59.263Z,,,,,,,,,,,,,,,,53,,,,,,,,,,,,,,405.42999996423896,,response,,,99,,,,,,Space,keypress(Space),,,,,---- -- ----- -- ------ - ------- --- ----------<br>------------- ------ ------ ---- ---- ------- ----- -- ----<br>-------- ------- -- ---------- --- - --- ----- ----- ----<br>---- --- --- close --- ---- ---- ------- ----- ---- -------<br>--- --- -- ----- -- --- ---- -- --- ---- -- ------ ------<br>--- ----- -- ----,63890.59999996424,63890.09999996424,63468.005,63474.799999952316,63484.67,63901.314,,31,close
screen,html.Screen,0_2_0_1_32,2021-12-03T12:06:59.895Z,,,,,,,,,,,,,,,,53,,,,,,,,,,,,,,620.7859999642387,,response,,,99,,,,,,Space,keypress(Space),,,,,---- -- ----- -- ------ - ------- --- ----------<br>------------- ------ ------ ---- ---- ------- ----- -- ----<br>-------- ------- -- ---------- --- - --- ----- ----- ----<br>---- --- --- ----- you ---- ---- ------- ----- ---- -------<br>--- --- -- ----- -- --- ---- -- --- ---- -- ------ ------<br>--- ----- -- ----,64522.59999996424,64522.09999996424,63884.649,63890.799999952316,63901.314,64534.516,,32,you
screen,html.Screen,0_2_0_1_33,2021-12-03T12:07:00.336Z,,,,,,,,,,,,,,,,53,,,,,,,,,,,,,,427.6839999880758,,response,,,99,,,,,,Space,keypress(Space),,,,,---- -- ----- -- ------ - ------- --- ----------<br>------------- ------ ------ ---- ---- ------- ----- -- ----<br>-------- ------- -- ---------- --- - --- ----- ----- ----<br>---- --- --- ----- --- feel ---- ------- ----- ---- -------<br>--- --- -- ----- -- --- ---- -- --- ---- -- ------ ------<br>--- ----- -- ----,64962.799999952316,64962.19999998808,64517.852,64522.89999997616,64534.516,64968.031,,33,feel
screen,html.Screen,0_2_0_1_34,2021-12-03T12:07:00.775Z,,,,,,,,,,,,,,,,53,,,,,,,,,,,,,,433.9689999999973,,response,,,99,,,,,,Space,keypress(Space),,,,,---- -- ----- -- ------ - ------- --- ----------<br>------------- ------ ------ ---- ---- ------- ----- -- ----<br>-------- ------- -- ---------- --- - --- ----- ----- ----<br>---- --- --- ----- --- ---- that ------- ----- ---- -------<br>--- --- -- ----- -- --- ---- -- --- ---- -- ------ ------<br>--- ----- -- ----,65402.69999998808,65402,64951.364,64963,64968.031,65417.96,,34,that
screen,html.Screen,0_2_0_1_35,2021-12-03T12:07:01.343Z,,,,,,,,,,,,,,,,53,,,,,,,,,,,,,,552.0400000000009,,response,,,99,,,,,,Space,keypress(Space),,,,,---- -- ----- -- ------ - ------- --- ----------<br>------------- ------ ------ ---- ---- ------- ----- -- ----<br>-------- ------- -- ---------- --- - --- ----- ----- ----<br>---- --- --- ----- --- ---- ---- matters ----- ---- -------<br>--- --- -- ----- -- --- ---- -- --- ---- -- ------ ------<br>--- ----- -- ----,65970.79999995232,65970,65401.294,65402.89999997616,65417.96,65984.446,,35,matters
screen,html.Screen,0_2_0_1_36,2021-12-03T12:07:01.847Z,,,,,,,,,,,,,,,,53,,,,,,,,,,,,,,489.5540000000037,,response,,,99,,,,,,Space,keypress(Space),,,,,"---- -- ----- -- ------ - ------- --- ----------<br>------------- ------ ------ ---- ---- ------- ----- -- ----<br>-------- ------- -- ---------- --- - --- ----- ----- ----<br>---- --- --- ----- --- ---- ---- ------- most, ---- -------<br>--- --- -- ----- -- --- ---- -- --- ---- -- ------ ------<br>--- ----- -- ----",66474.59999996424,66474,65967.782,65970.89999997616,65984.446,66484.626,,36,"most,"
screen,html.Screen,0_2_0_1_37,2021-12-03T12:07:02.287Z,,,,,,,,,,,,,,,,53,,,,,,,,,,,,,,429.2739999761543,,response,,,99,,,,,,Space,keypress(Space),,,,,---- -- ----- -- ------ - ------- --- ----------<br>------------- ------ ------ ---- ---- ------- ----- -- ----<br>-------- ------- -- ---------- --- - --- ----- ----- ----<br>---- --- --- ----- --- ---- ---- ------- ----- it's -------<br>--- --- -- ----- -- --- ---- -- --- ---- -- ------ ------<br>--- ----- -- ----,66914.59999996424,66913.89999997616,66467.959,66474.69999998808,66484.626,66917.827,,37,it's
screen,html.Screen,0_2_0_1_38,2021-12-03T12:07:02.775Z,,,,,,,,,,,,,,,,53,,,,,,,,,,,,,,484.1729999999952,,response,,,99,,,,,,Space,keypress(Space),,,,,---- -- ----- -- ------ - ------- --- ----------<br>------------- ------ ------ ---- ---- ------- ----- -- ----<br>-------- ------- -- ---------- --- - --- ----- ----- ----<br>---- --- --- ----- --- ---- ---- ------- ----- ---- whether<br>--- --- -- ----- -- --- ---- -- --- ---- -- ------ ------<br>--- ----- -- ----,67402.59999996424,67402,66901.162,66914.69999998808,66917.827,67417.889,,38,whether
screen,html.Screen,0_2_0_1_39,2021-12-03T12:07:03.231Z,,,,,,,,,,,,,,,,53,,,,,,,,,,,,,,440.01099997616257,,response,,,99,,,,,,Space,keypress(Space),,,,,---- -- ----- -- ------ - ------- --- ----------<br>------------- ------ ------ ---- ---- ------- ----- -- ----<br>-------- ------- -- ---------- --- - --- ----- ----- ----<br>---- --- --- ----- --- ---- ---- ------- ----- ---- -------<br>you --- -- ----- -- --- ---- -- --- ---- -- ------ ------<br>--- ----- -- ----,67858.5,67857.89999997616,67401.223,67402.79999995232,67417.889,67867.877,,39,you
screen,html.Screen,0_2_0_1_40,2021-12-03T12:07:03.647Z,,,,,,,,,,,,,,,,53,,,,,,,,,,,,,,406.022999976165,,response,,,99,,,,,,Space,keypress(Space),,,,,---- -- ----- -- ------ - ------- --- ----------<br>------------- ------ ------ ---- ---- ------- ----- -- ----<br>-------- ------- -- ---------- --- - --- ----- ----- ----<br>---- --- --- ----- --- ---- ---- ------- ----- ---- -------<br>--- are -- ----- -- --- ---- -- --- ---- -- ------ ------<br>--- ----- -- ----,68274.5,68273.89999997616,67851.211,67858.69999998808,67867.877,68284.487,,40,are
screen,html.Screen,0_2_0_1_41,2021-12-03T12:07:04.095Z,,,,,,,,,,,,,,,,53,,,,,,,,,,,,,,437.5130000000063,,response,,,99,,,,,,Space,keypress(Space),,,,,---- -- ----- -- ------ - ------- --- ----------<br>------------- ------ ------ ---- ---- ------- ----- -- ----<br>-------- ------- -- ---------- --- - --- ----- ----- ----<br>---- --- --- ----- --- ---- ---- ------- ----- ---- -------<br>--- --- as ----- -- --- ---- -- --- ---- -- ------ ------<br>--- ----- -- ----,68722.59999996424,68722,68267.822,68274.69999998808,68284.487,68734.467,,41,as
screen,html.Screen,0_2_0_1_42,2021-12-03T12:07:04.535Z,,,,,,,,,,,,,,,,53,,,,,,,,,,,,,,427.632999964233,,response,,,99,,,,,,Space,keypress(Space),,,,,---- -- ----- -- ------ - ------- --- ----------<br>------------- ------ ------ ---- ---- ------- ----- -- ----<br>-------- ------- -- ---------- --- - --- ----- ----- ----<br>---- --- --- ----- --- ---- ---- ------- ----- ---- -------<br>--- --- -- close -- --- ---- -- --- ---- -- ------ ------<br>--- ----- -- ----,69162.69999998808,69162.09999996424,68717.802,68722.79999995232,68734.467,69167.822,,42,close
screen,html.Screen,0_2_0_1_43,2021-12-03T12:07:05.007Z,,,,,,,,,,,,,,,,53,,,,,,,,,,,,,,466.077999976158,,response,,,99,,,,,,Space,keypress(Space),,,,,---- -- ----- -- ------ - ------- --- ----------<br>------------- ------ ------ ---- ---- ------- ----- -- ----<br>-------- ------- -- ---------- --- - --- ----- ----- ----<br>---- --- --- ----- --- ---- ---- ------- ----- ---- -------<br>--- --- -- ----- as --- ---- -- --- ---- -- ------ ------<br>--- ----- -- ----,69634.39999997616,69633.89999997616,69151.156,69162.89999997616,69167.822,69651.008,,43,as
screen,html.Screen,0_2_0_1_44,2021-12-03T12:07:05.447Z,,,,,,,,,,,,,,,,53,,,,,,,,,,,,,,422.79199995231465,,response,,,99,,,,,,Space,keypress(Space),,,,,---- -- ----- -- ------ - ------- --- ----------<br>------------- ------ ------ ---- ---- ------- ----- -- ----<br>-------- ------- -- ---------- --- - --- ----- ----- ----<br>---- --- --- ----- --- ---- ---- ------- ----- ---- -------<br>--- --- -- ----- -- you ---- -- --- ---- -- ------ ------<br>--- ----- -- ----,70074.39999997616,70073.79999995232,69634.344,69634.69999998808,69651.008,70084.479,,44,you
screen,html.Screen,0_2_0_1_45,2021-12-03T12:07:05.919Z,,,,,,,,,,,,,,,,53,,,,,,,,,,,,,,461.32099995230965,,response,,,99,,,,,,Space,keypress(Space),,,,,---- -- ----- -- ------ - ------- --- ----------<br>------------- ------ ------ ---- ---- ------- ----- -- ----<br>-------- ------- -- ---------- --- - --- ----- ----- ----<br>---- --- --- ----- --- ---- ---- ------- ----- ---- -------<br>--- --- -- ----- -- --- want -- --- ---- -- ------ ------<br>--- ----- -- ----,70546.39999997616,70545.79999995232,70067.812,70074.59999996424,70084.479,70551.066,,45,want
screen,html.Screen,0_2_0_1_46,2021-12-03T12:07:06.327Z,,,,,,,,,,,,,,,,53,,,,,,,,,,,,,,402.7339999523101,,response,,,99,,,,,,Space,keypress(Space),,,,,---- -- ----- -- ------ - ------- --- ----------<br>------------- ------ ------ ---- ---- ------- ----- -- ----<br>-------- ------- -- ---------- --- - --- ----- ----- ----<br>---- --- --- ----- --- ---- ---- ------- ----- ---- -------<br>--- --- -- ----- -- --- ---- to --- ---- -- ------ ------<br>--- ----- -- ----,70954.29999995232,70953.79999995232,70534.401,70546.59999996424,70551.066,70967.755,,46,to
screen,html.Screen,0_2_0_1_47,2021-12-03T12:07:06.863Z,,,,,,,,,,,,,,,,53,,,,,,,,,,,,,,522.0449999523116,,response,,,99,,,,,,Space,keypress(Space),,,,,"---- -- ----- -- ------ - ------- --- ----------<br>------------- ------ ------ ---- ---- ------- ----- -- ----<br>-------- ------- -- ---------- --- - --- ----- ----- ----<br>---- --- --- ----- --- ---- ---- ------- ----- ---- -------<br>--- --- -- ----- -- --- ---- -- be, ---- -- ------ ------<br>--- ----- -- ----",71490.39999997616,71489.79999995232,70951.089,70954.59999996424,70967.755,71501.008,,47,"be,"
screen,html.Screen,0_2_0_1_48,2021-12-03T12:07:07.383Z,,,,,,,,,,,,,,,,53,,,,,,,,,,,,,,508.79199995231465,,response,,,99,,,,,,Space,keypress(Space),,,,,---- -- ----- -- ------ - ------- --- ----------<br>------------- ------ ------ ---- ---- ------- ----- -- ----<br>-------- ------- -- ---------- --- - --- ----- ----- ----<br>---- --- --- ----- --- ---- ---- ------- ----- ---- -------<br>--- --- -- ----- -- --- ---- -- --- even -- ------ ------<br>--- ----- -- ----,72010.39999997616,72009.79999995232,71484.343,71490.59999996424,71501.008,72017.722,,48,even
screen,html.Screen,0_2_0_1_49,2021-12-03T12:07:07.791Z,,,,,,,,,,,,,,,,53,,,,,,,,,,,,,,400.077999952322,,response,,,99,,,,,,Space,keypress(Space),,,,,---- -- ----- -- ------ - ------- --- ----------<br>------------- ------ ------ ---- ---- ------- ----- -- ----<br>-------- ------- -- ---------- --- - --- ----- ----- ----<br>---- --- --- ----- --- ---- ---- ------- ----- ---- -------<br>--- --- -- ----- -- --- ---- -- --- ---- if ------ ------<br>--- ----- -- ----,72418.29999995232,72417.79999995232,72001.056,72010.59999996424,72017.722,72434.373,,49,if
screen,html.Screen,0_2_0_1_50,2021-12-03T12:07:08.231Z,,,,,,,,,,,,,,,,53,,,,,,,,,,,,,,423.4269999523094,,response,,,99,,,,,,Space,keypress(Space),,,,,---- -- ----- -- ------ - ------- --- ----------<br>------------- ------ ------ ---- ---- ------- ----- -- ----<br>-------- ------- -- ---------- --- - --- ----- ----- ----<br>---- --- --- ----- --- ---- ---- ------- ----- ---- -------<br>--- --- -- ----- -- --- ---- -- --- ---- -- that's ------<br>--- ----- -- ----,72858.29999995232,72857.79999995232,72417.707,72418.59999996424,72434.373,72867.65,,50,that's
screen,html.Screen,0_2_0_1_51,2021-12-03T12:07:08.599Z,,,,,,,,,,,,,,,,53,,,,,,,,,,,,,,358.1499999523221,,response,,,99,,,,,,Space,keypress(Space),,,,,---- -- ----- -- ------ - ------- --- ----------<br>------------- ------ ------ ---- ---- ------- ----- -- ----<br>-------- ------- -- ---------- --- - --- ----- ----- ----<br>---- --- --- ----- --- ---- ---- ------- ----- ---- -------<br>--- --- -- ----- -- --- ---- -- --- ---- -- ------ really<br>--- ----- -- ----,73226.39999997616,73225.79999995232,72850.985,72858.59999996424,72867.65,73234.309,,51,really
screen,html.Screen,0_2_0_1_52,2021-12-03T12:07:09.055Z,,,,,,,,,,,,,,,,53,,,,,,,,,,,,,,447.49099995232245,,response,,,99,,,,,,Space,keypress(Space),,,,,---- -- ----- -- ------ - ------- --- ----------<br>------------- ------ ------ ---- ---- ------- ----- -- ----<br>-------- ------- -- ---------- --- - --- ----- ----- ----<br>---- --- --- ----- --- ---- ---- ------- ----- ---- -------<br>--- --- -- ----- -- --- ---- -- --- ---- -- ------ ------<br>not ----- -- ----,73682.5,73681.79999995232,73217.644,73226.59999996424,73234.309,73684.285,,52,not
screen,html.Screen,0_2_0_1_53,2021-12-03T12:07:09.455Z,,,,,,,,,,,,,,,,53,,,,,,,,,,,,,,397.4149999880756,,response,,,99,,,,,,Space,keypress(Space),,,,,---- -- ----- -- ------ - ------- --- ----------<br>------------- ------ ------ ---- ---- ------- ----- -- ----<br>-------- ------- -- ---------- --- - --- ----- ----- ----<br>---- --- --- ----- --- ---- ---- ------- ----- ---- -------<br>--- --- -- ----- -- --- ---- -- --- ---- -- ------ ------<br>--- close -- ----,74082.19999998808,74081.69999998808,73667.62,73682.59999996424,73684.285,74084.204,,53,close
screen,html.Screen,0_2_0_1_54,2021-12-03T12:07:09.799Z,,,,,,,,,,,,,,,,53,,,,,,,,,,,,,,341.49599998808117,,response,,,99,,,,,,Space,keypress(Space),,,,,---- -- ----- -- ------ - ------- --- ----------<br>------------- ------ ------ ---- ---- ------- ----- -- ----<br>-------- ------- -- ---------- --- - --- ----- ----- ----<br>---- --- --- ----- --- ---- ---- ------- ----- ---- -------<br>--- --- -- ----- -- --- ---- -- --- ---- -- ------ ------<br>--- ----- at ----,74426.19999998808,74425.69999998808,74067.54,74082.39999997616,74084.204,74434.243,,54,at
screen,html.Screen,0_2_0_1_55,2021-12-03T12:07:10.479Z,,,,,,,,,,,,,,,,53,,,,,,,,,,,,,,671.4569999880769,,response,,,99,,,,,,Space,keypress(Space),,,,,---- -- ----- -- ------ - ------- --- ----------<br>------------- ------ ------ ---- ---- ------- ----- -- ----<br>-------- ------- -- ---------- --- - --- ----- ----- ----<br>---- --- --- ----- --- ---- ---- ------- ----- ---- -------<br>--- --- -- ----- -- --- ---- -- --- ---- -- ------ ------<br>--- ----- -- all.,75106.29999995232,75105.69999998808,74417.578,74426.5,74434.243,75117.525,,55,all.
Item 99,flow.Loop,0_2_0_1,2021-12-03T12:07:10.482Z,,,,,,,,,,,,,,,,,,,,,,,,,,,,,,27987.13999998808,,completion,,,,F,,,,,,,,,,silence,,75109.19999998808,75105.69999998808,47101.895,47106.299999952316,47118.56,75117.525,,,
Question 1,html.Screen,0_2_0_2,2021-12-03T12:07:17.093Z,,,,,,,,,,,,,,,,,,,,,,,,,,,true,FALSE,,6601.674999988085,,response,,,99,F,,,,,FALSE,click #choice-2,,,,silence,,81720.19999998808,81719.19999998808,75100.86,75109.39999997616,75117.525,81734.031,,,
Question 2,html.Screen,0_2_0_3,2021-12-03T12:07:22.672Z,,,,,,,,,,,,,,,,,,,,,,,,,,,true,TRUE,,5563.968999999997,,response,,,99,F,,,,,TRUE,click #choice-1,,,,silence,,87298.79999995232,87298,81717.364,81720.39999997616,81734.031,87300.429,,,
Item 99,flow.Sequence,0_2_0,2021-12-03T12:07:22.672Z,,,,,,,,,,,,,,,,,,,,,,,,,,,,,,50179.061,,completion,,,,,,,,,,,,,,,,87299.09999996424,87298,37102.275,37111,37118.939,87300.429,,,
Holding screen,html.Screen,0_2_1_0,2021-12-03T12:07:32.657Z,,,,,,,,,,,,,,,,,,,,,,,,,,,,,,9999.596999999994,,timeout,,,,,,,,,,,,,,,,97284.69999998808,97283.361,87283.764,87299.39999997616,87300.429,97300.026,,,
screen,html.Screen,0_2_1_1_0,2021-12-03T12:07:33.519Z,,,,,,,,,,,,,,,,54,,,,,,,,,,,,,,845.173999988081,,response,,,100,,,,,,Space,keypress(Space),,,,,At --- ---- --- ------ ----- ------- ---- -- --- ------- --<br>------- ---------- ------ -- ----- -- ----- -- ---- ------<br>--- ----- --- --- ------ -------- ----- --- ------ ----- --<br>----- ----- ---------- --- --- ------ ------ ---- -- ------<br>------- --- ------ ----- --- ---- ------- -- ---- --- --<br>------- ------,98145.89999997616,98145.19999998808,97283.361,97285,97300.026,98150.007,,0,At
screen,html.Screen,0_2_1_1_1,2021-12-03T12:07:34.022Z,,,,,,,,,,,,,,,,54,,,,,,,,,,,,,,498.89299997616035,,response,,,100,,,,,,Space,keypress(Space),,,,,-- the ---- --- ------ ----- ------- ---- -- --- ------- --<br>------- ---------- ------ -- ----- -- ----- -- ---- ------<br>--- ----- --- --- ------ -------- ----- --- ------ ----- --<br>----- ----- ---------- --- --- ------ ------ ---- -- ------<br>------- --- ------ ----- --- ---- ------- -- ---- --- --<br>------- ------,98649.39999997616,98648.89999997616,98133.342,98146.09999996424,98150.007,98666.73,,1,the
screen,html.Screen,0_2_1_1_2,2021-12-03T12:07:34.534Z,,,,,,,,,,,,,,,,54,,,,,,,,,,,,,,494.06999995232036,,response,,,100,,,,,,Space,keypress(Space),,,,,-- --- time --- ------ ----- ------- ---- -- --- ------- --<br>------- ---------- ------ -- ----- -- ----- -- ---- ------<br>--- ----- --- --- ------ -------- ----- --- ------ ----- --<br>----- ----- ---------- --- --- ------ ------ ---- -- ------<br>------- --- ------ ----- --- ---- ------- -- ---- --- --<br>------- ------,99161.39999997616,99160.79999995232,98650.064,98649.59999996424,98666.73,99166.667,,2,time
screen,html.Screen,0_2_1_1_3,2021-12-03T12:07:34.966Z,,,,,,,,,,,,,,,,54,,,,,,,,,,,,,,426.132999952315,,response,,,100,,,,,,Space,keypress(Space),,,,,-- --- ---- the ------ ----- ------- ---- -- --- ------- --<br>------- ---------- ------ -- ----- -- ----- -- ---- ------<br>--- ----- --- --- ------ -------- ----- --- ------ ----- --<br>----- ----- ---------- --- --- ------ ------ ---- -- ------<br>------- --- ------ ----- --- ---- ------- -- ---- --- --<br>------- ------,99593.39999997616,99592.79999995232,99150.002,99161.5,99166.667,99599.985,,3,the
screen,html.Screen,0_2_1_1_4,2021-12-03T12:07:35.462Z,,,,,,,,,,,,,,,,54,,,,,,,,,,,,,,488.7149999880785,,response,,,100,,,,,,Space,keypress(Space),,,,,-- --- ---- --- French ----- ------- ---- -- --- ------- --<br>------- ---------- ------ -- ----- -- ----- -- ---- ------<br>--- ----- --- --- ------ -------- ----- --- ------ ----- --<br>----- ----- ---------- --- --- ------ ------ ---- -- ------<br>------- --- ------ ----- --- ---- ------- -- ---- --- --<br>------- ------,100089.39999997616,100088.69999998808,99583.32,99593.5,99599.985,100100.003,,4,French
screen,html.Screen,0_2_1_1_5,2021-12-03T12:07:35.942Z,,,,,,,,,,,,,,,,54,,,,,,,,,,,,,,468.6969999880821,,response,,,100,,,,,,Space,keypress(Space),,,,,-- --- ---- --- ------ crown ------- ---- -- --- ------- --<br>------- ---------- ------ -- ----- -- ----- -- ---- ------<br>--- ----- --- --- ------ -------- ----- --- ------ ----- --<br>----- ----- ---------- --- --- ------ ------ ---- -- ------<br>------- --- ------ ----- --- ---- ------- -- ---- --- --<br>------- ------,100569.29999995232,100568.69999998808,100083.337,100089.59999996424,100100.003,100583.26,,5,crown
screen,html.Screen,0_2_1_1_6,2021-12-03T12:07:36.438Z,,,,,,,,,,,,,,,,54,,,,,,,,,,,,,,481.33999996424245,,response,,,100,,,,,,Space,keypress(Space),,,,,-- --- ---- --- ------ ----- secured ---- -- --- ------- --<br>------- ---------- ------ -- ----- -- ----- -- ---- ------<br>--- ----- --- --- ------ -------- ----- --- ------ ----- --<br>----- ----- ---------- --- --- ------ ------ ---- -- ------<br>------- --- ------ ----- --- ---- ------- -- ---- --- --<br>------- ------,101065.19999998808,101064.59999996424,100566.595,100569.39999997616,100583.26,101066.565,,6,secured
screen,html.Screen,0_2_1_1_7,2021-12-03T12:07:37.078Z,,,,,,,,,,,,,,,,54,,,,,,,,,,,,,,638.234999952314,,response,,,100,,,,,,Space,keypress(Space),,,,,-- --- ---- --- ------ ----- ------- much -- --- ------- --<br>------- ---------- ------ -- ----- -- ----- -- ---- ------<br>--- ----- --- --- ------ -------- ----- --- ------ ----- --<br>----- ----- ---------- --- --- ------ ------ ---- -- ------<br>------- --- ------ ----- --- ---- ------- -- ---- --- --<br>------- ------,101705.39999997616,101704.79999995232,101049.9,101065.39999997616,101066.565,101716.595,,7,much
screen,html.Screen,0_2_1_1_8,2021-12-03T12:07:37.478Z,,,,,,,,,,,,,,,,54,,,,,,,,,,,,,,388.00499996423605,,response,,,100,,,,,,Space,keypress(Space),,,,,-- --- ---- --- ------ ----- ------- ---- of --- ------- --<br>------- ---------- ------ -- ----- -- ----- -- ---- ------<br>--- ----- --- --- ------ -------- ----- --- ------ ----- --<br>----- ----- ---------- --- --- ------ ------ ---- -- ------<br>------- --- ------ ----- --- ---- ------- -- ---- --- --<br>------- ------,102105.09999996424,102104.59999996424,101699.929,101705.59999996424,101716.595,102116.562,,8,of
screen,html.Screen,0_2_1_1_9,2021-12-03T12:07:37.894Z,,,,,,,,,,,,,,,,54,,,,,,,,,,,,,,404.03799996423186,,response,,,100,,,,,,Space,keypress(Space),,,,,-- --- ---- --- ------ ----- ------- ---- -- its ------- --<br>------- ---------- ------ -- ----- -- ----- -- ---- ------<br>--- ----- --- --- ------ -------- ----- --- ------ ----- --<br>----- ----- ---------- --- --- ------ ------ ---- -- ------<br>------- --- ------ ----- --- ---- ------- -- ---- --- --<br>------- ------,102521.19999998808,102520.59999996424,102099.897,102105.29999995232,102116.562,102533.216,,9,its
screen,html.Screen,0_2_1_1_10,2021-12-03T12:07:38.606Z,,,,,,,,,,,,,,,,54,,,,,,,,,,,,,,699.4839999880787,,response,,,100,,,,,,Space,keypress(Space),,,,,-- --- ---- --- ------ ----- ------- ---- -- --- revenue --<br>------- ---------- ------ -- ----- -- ----- -- ---- ------<br>--- ----- --- --- ------ -------- ----- --- ------ ----- --<br>----- ----- ---------- --- --- ------ ------ ---- -- ------<br>------- --- ------ ----- --- ---- ------- -- ---- --- --<br>------- ------,103233.29999995232,103232.69999998808,102516.551,102521.39999997616,102533.216,103249.837,,10,revenue
screen,html.Screen,0_2_1_1_11,2021-12-03T12:07:39.086Z,,,,,,,,,,,,,,,,54,,,,,,,,,,,,,,462.7629999642377,,response,,,100,,,,,,Space,keypress(Space),,,,,-- --- ---- --- ------ ----- ------- ---- -- --- ------- by<br>------- ---------- ------ -- ----- -- ----- -- ---- ------<br>--- ----- --- --- ------ -------- ----- --- ------ ----- --<br>----- ----- ---------- --- --- ------ ------ ---- -- ------<br>------- --- ------ ----- --- ---- ------- -- ---- --- --<br>------- ------,103713.19999998808,103712.59999996424,103233.172,103233.39999997616,103249.837,103716.54,,11,by
screen,html.Screen,0_2_1_1_12,2021-12-03T12:07:39.558Z,,,,,,,,,,,,,,,,54,,,,,,,,,,,,,,468.0599999642436,,response,,,100,,,,,,Space,keypress(Space),,,,,-- --- ---- --- ------ ----- ------- ---- -- --- ------- --<br>issuing ---------- ------ -- ----- -- ----- -- ---- ------<br>--- ----- --- --- ------ -------- ----- --- ------ ----- --<br>----- ----- ---------- --- --- ------ ------ ---- -- ------<br>------- --- ------ ----- --- ---- ------- -- ---- --- --<br>------- ------,104185.09999996424,104184.59999996424,103699.874,103713.39999997616,103716.54,104199.818,,12,issuing
screen,html.Screen,0_2_1_1_13,2021-12-03T12:07:40.142Z,,,,,,,,,,,,,,,,54,,,,,,,,,,,,,,568.7819999642379,,response,,,100,,,,,,Space,keypress(Space),,,,,-- --- ---- --- ------ ----- ------- ---- -- --- ------- --<br>------- government ------ -- ----- -- ----- -- ---- ------<br>--- ----- --- --- ------ -------- ----- --- ------ ----- --<br>----- ----- ---------- --- --- ------ ------ ---- -- ------<br>------- --- ------ ----- --- ---- ------- -- ---- --- --<br>------- ------,104769.19999998808,104768.59999996424,104183.153,104185.29999995232,104199.818,104783.121,,13,government
screen,html.Screen,0_2_1_1_14,2021-12-03T12:07:40.766Z,,,,,,,,,,,,,,,,54,,,,,,,,,,,,,,609.478999964238,,response,,,100,,,,,,Space,keypress(Space),,,,,-- --- ---- --- ------ ----- ------- ---- -- --- ------- --<br>------- ---------- bonds. -- ----- -- ----- -- ---- ------<br>--- ----- --- --- ------ -------- ----- --- ------ ----- --<br>----- ----- ---------- --- --- ------ ------ ---- -- ------<br>------- --- ------ ----- --- ---- ------- -- ---- --- --<br>------- ------,105393.09999996424,105392.59999996424,104766.456,104769.39999997616,104783.121,105399.814,,14,bonds.
screen,html.Screen,0_2_1_1_15,2021-12-03T12:07:41.558Z,,,,,,,,,,,,,,,,54,,,,,,,,,,,,,,784.7859999642387,,response,,,100,,,,,,Space,keypress(Space),,,,,-- --- ---- --- ------ ----- ------- ---- -- --- ------- --<br>------- ---------- ------ In ----- -- ----- -- ---- ------<br>--- ----- --- --- ------ -------- ----- --- ------ ----- --<br>----- ----- ---------- --- --- ------ ------ ---- -- ------<br>------- --- ------ ----- --- ---- ------- -- ---- --- --<br>------- ------,106185.19999998808,106184.59999996424,105383.148,105393.39999997616,105399.814,106199.613,,15,In
screen,html.Screen,0_2_1_1_16,2021-12-03T12:07:42.814Z,,,,,,,,,,,,,,,,54,,,,,,,,,,,,,,1240.9869999642397,,response,,,100,,,,,,Space,keypress(Space),,,,,"-- --- ---- --- ------ ----- ------- ---- -- --- ------- --<br>------- ---------- ------ -- 1727, -- ----- -- ---- ------<br>--- ----- --- --- ------ -------- ----- --- ------ ----- --<br>----- ----- ---------- --- --- ------ ------ ---- -- ------<br>------- --- ------ ----- --- ---- ------- -- ---- --- --<br>------- ------",107441.19999998808,107440.59999996424,106182.949,106185.29999995232,106199.613,107449.765,,16,"1727,"
screen,html.Screen,0_2_1_1_17,2021-12-03T12:07:43.622Z,,,,,,,,,,,,,,,,54,,,,,,,,,,,,,,798.9349999880797,,response,,,100,,,,,,Space,keypress(Space),,,,,-- --- ---- --- ------ ----- ------- ---- -- --- ------- --<br>------- ---------- ------ -- ----- in ----- -- ---- ------<br>--- ----- --- --- ------ -------- ----- --- ------ ----- --<br>----- ----- ---------- --- --- ------ ------ ---- -- ------<br>------- --- ------ ----- --- ---- ------- -- ---- --- --<br>------- ------,108249.29999995232,108248.69999998808,107433.099,107441.29999995232,107449.765,108266.304,,17,in
screen,html.Screen,0_2_1_1_18,2021-12-03T12:07:44.126Z,,,,,,,,,,,,,,,,54,,,,,,,,,,,,,,486.1959999999963,,response,,,100,,,,,,Space,keypress(Space),,,,,-- --- ---- --- ------ ----- ------- ---- -- --- ------- --<br>------- ---------- ------ -- ----- -- order -- ---- ------<br>--- ----- --- --- ------ -------- ----- --- ------ ----- --<br>----- ----- ---------- --- --- ------ ------ ---- -- ------<br>------- --- ------ ----- --- ---- ------- -- ---- --- --<br>------- ------,108753,108752.5,108249.639,108249.5,108266.304,108766.313,,18,order
screen,html.Screen,0_2_1_1_19,2021-12-03T12:07:44.526Z,,,,,,,,,,,,,,,,54,,,,,,,,,,,,,,386.0869999761635,,response,,,100,,,,,,Space,keypress(Space),,,,,-- --- ---- --- ------ ----- ------- ---- -- --- ------- --<br>------- ---------- ------ -- ----- -- ----- to ---- ------<br>--- ----- --- --- ------ -------- ----- --- ------ ----- --<br>----- ----- ---------- --- --- ------ ------ ---- -- ------<br>------- --- ------ ----- --- ---- ------- -- ---- --- --<br>------- ------,109153,109152.39999997616,108749.648,108753.19999998808,108766.313,109166.302,,19,to
screen,html.Screen,0_2_1_1_20,2021-12-03T12:07:44.926Z,,,,,,,,,,,,,,,,54,,,,,,,,,,,,,,386.0979999761621,,response,,,100,,,,,,Space,keypress(Space),,,,,-- --- ---- --- ------ ----- ------- ---- -- --- ------- --<br>------- ---------- ------ -- ----- -- ----- -- save ------<br>--- ----- --- --- ------ -------- ----- --- ------ ----- --<br>----- ----- ---------- --- --- ------ ------ ---- -- ------<br>------- --- ------ ----- --- ---- ------- -- ---- --- --<br>------- ------,109553,109552.39999997616,109149.637,109153.09999996424,109166.302,109566.288,,20,save
screen,html.Screen,0_2_1_1_21,2021-12-03T12:07:45.606Z,,,,,,,,,,,,,,,,54,,,,,,,,,,,,,,666.0119999523158,,response,,,100,,,,,,Space,keypress(Space),,,,,"-- --- ---- --- ------ ----- ------- ---- -- --- ------- --<br>------- ---------- ------ -- ----- -- ----- -- ---- money,<br>--- ----- --- --- ------ -------- ----- --- ------ ----- --<br>----- ----- ---------- --- --- ------ ------ ---- -- ------<br>------- --- ------ ----- --- ---- ------- -- ---- --- --<br>------- ------",110233,110232.29999995232,109549.623,109553.09999996424,109566.288,110249.575,,21,"money,"
screen,html.Screen,0_2_1_1_22,2021-12-03T12:07:46.134Z,,,,,,,,,,,,,,,,54,,,,,,,,,,,,,,510.82499997616105,,response,,,100,,,,,,Space,keypress(Space),,,,,-- --- ---- --- ------ ----- ------- ---- -- --- ------- --<br>------- ---------- ------ -- ----- -- ----- -- ---- ------<br>the ----- --- --- ------ -------- ----- --- ------ ----- --<br>----- ----- ---------- --- --- ------ ------ ---- -- ------<br>------- --- ------ ----- --- ---- ------- -- ---- --- --<br>------- ------,110760.89999997616,110760.39999997616,110232.91,110233.09999996424,110249.575,110766.275,,22,the
screen,html.Screen,0_2_1_1_23,2021-12-03T12:07:46.726Z,,,,,,,,,,,,,,,,54,,,,,,,,,,,,,,586.0249999523221,,response,,,100,,,,,,Space,keypress(Space),,,,,-- --- ---- --- ------ ----- ------- ---- -- --- ------- --<br>------- ---------- ------ -- ----- -- ----- -- ---- ------<br>--- state --- --- ------ -------- ----- --- ------ ----- --<br>----- ----- ---------- --- --- ------ ------ ---- -- ------<br>------- --- ------ ----- --- ---- ------- -- ---- --- --<br>------- ------,111352.89999997616,111352.29999995232,110749.609,110761.19999998808,110766.275,111366.256,,23,state
screen,html.Screen,0_2_1_1_24,2021-12-03T12:07:47.374Z,,,,,,,,,,,,,,,,54,,,,,,,,,,,,,,634.1439999761642,,response,,,100,,,,,,Space,keypress(Space),,,,,-- --- ---- --- ------ ----- ------- ---- -- --- ------- --<br>------- ---------- ------ -- ----- -- ----- -- ---- ------<br>--- ----- cut --- ------ -------- ----- --- ------ ----- --<br>----- ----- ---------- --- --- ------ ------ ---- -- ------<br>------- --- ------ ----- --- ---- ------- -- ---- --- --<br>------- ------,112000.89999997616,112000.39999997616,111349.59,111353.09999996424,111366.256,112016.133,,24,cut
screen,html.Screen,0_2_1_1_25,2021-12-03T12:07:47.902Z,,,,,,,,,,,,,,,,54,,,,,,,,,,,,,,512.1669999523147,,response,,,100,,,,,,Space,keypress(Space),,,,,-- --- ---- --- ------ ----- ------- ---- -- --- ------- --<br>------- ---------- ------ -- ----- -- ----- -- ---- ------<br>--- ----- --- the ------ -------- ----- --- ------ ----- --<br>----- ----- ---------- --- --- ------ ------ ---- -- ------<br>------- --- ------ ----- --- ---- ------- -- ---- --- --<br>------- ------,112528.89999997616,112528.29999995232,111999.468,112001.09999996424,112016.133,112532.808,,25,the
screen,html.Screen,0_2_1_1_26,2021-12-03T12:07:48.670Z,,,,,,,,,,,,,,,,54,,,,,,,,,,,,,,763.3919999880745,,response,,,100,,,,,,Space,keypress(Space),,,,,-- --- ---- --- ------ ----- ------- ---- -- --- ------- --<br>------- ---------- ------ -- ----- -- ----- -- ---- ------<br>--- ----- --- --- bonds' -------- ----- --- ------ ----- --<br>----- ----- ---------- --- --- ------ ------ ---- -- ------<br>------- --- ------ ----- --- ---- ------- -- ---- --- --<br>------- ------,113296.79999995232,113296.19999998808,112516.143,112529.09999996424,112532.808,113299.494,,26,bonds'
screen,html.Screen,0_2_1_1_27,2021-12-03T12:07:49.310Z,,,,,,,,,,,,,,,,54,,,,,,,,,,,,,,636.8059999523102,,response,,,100,,,,,,Space,keypress(Space),,,,,-- --- ---- --- ------ ----- ------- ---- -- --- ------- --<br>------- ---------- ------ -- ----- -- ----- -- ---- ------<br>--- ----- --- --- ------ interest ----- --- ------ ----- --<br>----- ----- ---------- --- --- ------ ------ ---- -- ------<br>------- --- ------ ----- --- ---- ------- -- ---- --- --<br>------- ------,113936.89999997616,113936.29999995232,113282.828,113297,113299.494,113949.521,,27,interest
screen,html.Screen,0_2_1_1_28,2021-12-03T12:07:49.878Z,,,,,,,,,,,,,,,,54,,,,,,,,,,,,,,554.7789999523229,,response,,,100,,,,,,Space,keypress(Space),,,,,-- --- ---- --- ------ ----- ------- ---- -- --- ------- --<br>------- ---------- ------ -- ----- -- ----- -- ---- ------<br>--- ----- --- --- ------ -------- rate. --- ------ ----- --<br>----- ----- ---------- --- --- ------ ------ ---- -- ------<br>------- --- ------ ----- --- ---- ------- -- ---- --- --<br>------- ------,114504.79999995232,114504.29999995232,113932.855,113937.09999996424,113949.521,114516.059,,28,rate.
screen,html.Screen,0_2_1_1_29,2021-12-03T12:07:50.414Z,,,,,,,,,,,,,,,,54,,,,,,,,,,,,,,524.1409999880852,,response,,,100,,,,,,Space,keypress(Space),,,,,-- --- ---- --- ------ ----- ------- ---- -- --- ------- --<br>------- ---------- ------ -- ----- -- ----- -- ---- ------<br>--- ----- --- --- ------ -------- ----- The ------ ----- --<br>----- ----- ---------- --- --- ------ ------ ---- -- ------<br>------- --- ------ ----- --- ---- ------- -- ---- --- --<br>------- ------,115040.89999997616,115040.19999998808,114499.394,114505,114516.059,115049.459,,29,The
screen,html.Screen,0_2_1_1_30,2021-12-03T12:07:50.966Z,,,,,,,,,,,,,,,,54,,,,,,,,,,,,,,542.7409999880765,,response,,,100,,,,,,Space,keypress(Space),,,,,-- --- ---- --- ------ ----- ------- ---- -- --- ------- --<br>------- ---------- ------ -- ----- -- ----- -- ---- ------<br>--- ----- --- --- ------ -------- ----- --- market ----- --<br>----- ----- ---------- --- --- ------ ------ ---- -- ------<br>------- --- ------ ----- --- ---- ------- -- ---- --- --<br>------- ------,115592.89999997616,115592.19999998808,115032.793,115041,115049.459,115599.389,,30,market
screen,html.Screen,0_2_1_1_31,2021-12-03T12:07:51.405Z,,,,,,,,,,,,,,,,54,,,,,,,,,,,,,,432.71099996424164,,response,,,100,,,,,,Space,keypress(Space),,,,,-- --- ---- --- ------ ----- ------- ---- -- --- ------- --<br>------- ---------- ------ -- ----- -- ----- -- ---- ------<br>--- ----- --- --- ------ -------- ----- --- ------ value --<br>----- ----- ---------- --- --- ------ ------ ---- -- ------<br>------- --- ------ ----- --- ---- ------- -- ---- --- --<br>------- ------,116032.69999998808,116032.09999996424,115582.724,115593.19999998808,115599.389,116049.339,,31,value
screen,html.Screen,0_2_1_1_32,2021-12-03T12:07:51.893Z,,,,,,,,,,,,,,,,54,,,,,,,,,,,,,,470.86099998807185,,response,,,100,,,,,,Space,keypress(Space),,,,,-- --- ---- --- ------ ----- ------- ---- -- --- ------- --<br>------- ---------- ------ -- ----- -- ----- -- ---- ------<br>--- ----- --- --- ------ -------- ----- --- ------ ----- of<br>----- ----- ---------- --- --- ------ ------ ---- -- ------<br>------- --- ------ ----- --- ---- ------- -- ---- --- --<br>------- ------,116520.69999998808,116520.19999998808,116032.674,116033,116049.339,116532.636,,32,of
screen,html.Screen,0_2_1_1_33,2021-12-03T12:07:52.421Z,,,,,,,,,,,,,,,,54,,,,,,,,,,,,,,515.4639999642386,,response,,,100,,,,,,Space,keypress(Space),,,,,-- --- ---- --- ------ ----- ------- ---- -- --- ------- --<br>------- ---------- ------ -- ----- -- ----- -- ---- ------<br>--- ----- --- --- ------ -------- ----- --- ------ ----- --<br>these ----- ---------- --- --- ------ ------ ---- -- ------<br>------- --- ------ ----- --- ---- ------- -- ---- --- --<br>------- ------,117048.69999998808,117048.09999996424,116515.971,116520.89999997616,116532.636,117049.407,,33,these
screen,html.Screen,0_2_1_1_34,2021-12-03T12:07:52.877Z,,,,,,,,,,,,,,,,54,,,,,,,,,,,,,,454.6929999642307,,response,,,100,,,,,,Space,keypress(Space),,,,,-- --- ---- --- ------ ----- ------- ---- -- --- ------- --<br>------- ---------- ------ -- ----- -- ----- -- ---- ------<br>--- ----- --- --- ------ -------- ----- --- ------ ----- --<br>----- bonds ---------- --- --- ------ ------ ---- -- ------<br>------- --- ------ ----- --- ---- ------- -- ---- --- --<br>------- ------,117504.69999998808,117504.09999996424,117032.74,117048.79999995232,117049.407,117515.991,,34,bonds
screen,html.Screen,0_2_1_1_35,2021-12-03T12:07:53.702Z,,,,,,,,,,,,,,,,54,,,,,,,,,,,,,,812.3089999523218,,response,,,100,,,,,,Space,keypress(Space),,,,,"-- --- ---- --- ------ ----- ------- ---- -- --- ------- --<br>------- ---------- ------ -- ----- -- ----- -- ---- ------<br>--- ----- --- --- ------ -------- ----- --- ------ ----- --<br>----- ----- plummeted, --- --- ------ ------ ---- -- ------<br>------- --- ------ ----- --- ---- ------- -- ---- --- --<br>------- ------",118328.89999997616,118328.29999995232,117499.326,117504.89999997616,117515.991,118332.505,,35,"plummeted,"
screen,html.Screen,0_2_1_1_36,2021-12-03T12:07:54.141Z,,,,,,,,,,,,,,,,54,,,,,,,,,,,,,,435.49499999999534,,response,,,100,,,,,,Space,keypress(Space),,,,,-- --- ---- --- ------ ----- ------- ---- -- --- ------- --<br>------- ---------- ------ -- ----- -- ----- -- ---- ------<br>--- ----- --- --- ------ -------- ----- --- ------ ----- --<br>----- ----- ---------- and --- ------ ------ ---- -- ------<br>------- --- ------ ----- --- ---- ------- -- ---- --- --<br>------- ------,118768.69999998808,118768,118315.841,118329,118332.505,118782.675,,36,and
screen,html.Screen,0_2_1_1_37,2021-12-03T12:07:54.629Z,,,,,,,,,,,,,,,,54,,,,,,,,,,,,,,473.4249999642343,,response,,,100,,,,,,Space,keypress(Space),,,,,-- --- ---- --- ------ ----- ------- ---- -- --- ------- --<br>------- ---------- ------ -- ----- -- ----- -- ---- ------<br>--- ----- --- --- ------ -------- ----- --- ------ ----- --<br>----- ----- ---------- --- the ------ ------ ---- -- ------<br>------- --- ------ ----- --- ---- ------- -- ---- --- --<br>------- ------,119256.69999998808,119256.09999996424,118766.009,118768.79999995232,118782.675,119265.962,,37,the
screen,html.Screen,0_2_1_1_38,2021-12-03T12:07:55.253Z,,,,,,,,,,,,,,,,54,,,,,,,,,,,,,,614.0380000000005,,response,,,100,,,,,,Space,keypress(Space),,,,,-- --- ---- --- ------ ----- ------- ---- -- --- ------- --<br>------- ---------- ------ -- ----- -- ----- -- ---- ------<br>--- ----- --- --- ------ -------- ----- --- ------ ----- --<br>----- ----- ---------- --- --- market ------ ---- -- ------<br>------- --- ------ ----- --- ---- ------- -- ---- --- --<br>------- ------,119880.59999996424,119880,119249.296,119256.79999995232,119265.962,119882.56,,38,market
screen,html.Screen,0_2_1_1_39,2021-12-03T12:07:55.887Z,,,,,,,,,,,,,,,,54,,,,,,,,,,,,,,629.4400000000023,,response,,,100,,,,,,Space,keypress(Space),,,,,-- --- ---- --- ------ ----- ------- ---- -- --- ------- --<br>------- ---------- ------ -- ----- -- ----- -- ---- ------<br>--- ----- --- --- ------ -------- ----- --- ------ ----- --<br>----- ----- ---------- --- --- ------ became ---- -- ------<br>------- --- ------ ----- --- ---- ------- -- ---- --- --<br>------- ------,120512.69999998808,120512,119865.895,119880.79999995232,119882.56,120515.862,,39,became
screen,html.Screen,0_2_1_1_40,2021-12-03T12:07:56.535Z,,,,,,,,,,,,,,,,54,,,,,,,,,,,,,,644.0379999761644,,response,,,100,,,,,,Space,keypress(Space),,,,,-- --- ---- --- ------ ----- ------- ---- -- --- ------- --<br>------- ---------- ------ -- ----- -- ----- -- ---- ------<br>--- ----- --- --- ------ -------- ----- --- ------ ----- --<br>----- ----- ---------- --- --- ------ ------ wary -- ------<br>------- --- ------ ----- --- ---- ------- -- ---- --- --<br>------- ------,121160.5,121159.89999997616,120499.197,120512.79999995232,120515.862,121165.808,,40,wary
screen,html.Screen,0_2_1_1_41,2021-12-03T12:07:56.967Z,,,,,,,,,,,,,,,,54,,,,,,,,,,,,,,426.19199999999546,,response,,,100,,,,,,Space,keypress(Space),,,,,-- --- ---- --- ------ ----- ------- ---- -- --- ------- --<br>------- ---------- ------ -- ----- -- ----- -- ---- ------<br>--- ----- --- --- ------ -------- ----- --- ------ ----- --<br>----- ----- ---------- --- --- ------ ------ ---- of ------<br>------- --- ------ ----- --- ---- ------- -- ---- --- --<br>------- ------,121592.59999996424,121592,121149.143,121160.69999998808,121165.808,121599.219,,41,of
screen,html.Screen,0_2_1_1_42,2021-12-03T12:07:57.487Z,,,,,,,,,,,,,,,,54,,,,,,,,,,,,,,512.6809999761608,,response,,,100,,,,,,Space,keypress(Space),,,,,-- --- ---- --- ------ ----- ------- ---- -- --- ------- --<br>------- ---------- ------ -- ----- -- ----- -- ---- ------<br>--- ----- --- --- ------ -------- ----- --- ------ ----- --<br>----- ----- ---------- --- --- ------ ------ ---- -- French<br>------- --- ------ ----- --- ---- ------- -- ---- --- --<br>------- ------,122112.39999997616,122111.89999997616,121582.553,121592.79999995232,121599.219,122115.816,,42,French
screen,html.Screen,0_2_1_1_43,2021-12-03T12:07:58.167Z,,,,,,,,,,,,,,,,54,,,,,,,,,,,,,,676.1839999999938,,response,,,100,,,,,,Space,keypress(Space),,,,,-- --- ---- --- ------ ----- ------- ---- -- --- ------- --<br>------- ---------- ------ -- ----- -- ----- -- ---- ------<br>--- ----- --- --- ------ -------- ----- --- ------ ----- --<br>----- ----- ---------- --- --- ------ ------ ---- -- ------<br>credit. --- ------ ----- --- ---- ------- -- ---- --- --<br>------- ------,122792.69999998808,122792,122099.151,122112.59999996424,122115.816,122799.09,,43,credit.
screen,html.Screen,0_2_1_1_44,2021-12-03T12:07:58.599Z,,,,,,,,,,,,,,,,54,,,,,,,,,,,,,,424.80999997616163,,response,,,100,,,,,,Space,keypress(Space),,,,,-- --- ---- --- ------ ----- ------- ---- -- --- ------- --<br>------- ---------- ------ -- ----- -- ----- -- ---- ------<br>--- ----- --- --- ------ -------- ----- --- ------ ----- --<br>----- ----- ---------- --- --- ------ ------ ---- -- ------<br>------- The ------ ----- --- ---- ------- -- ---- --- --<br>------- ------,123224.5,123223.89999997616,122782.425,122792.79999995232,122799.09,123232.492,,44,The
screen,html.Screen,0_2_1_1_45,2021-12-03T12:07:59.047Z,,,,,,,,,,,,,,,,54,,,,,,,,,,,,,,439.3079999523179,,response,,,100,,,,,,Space,keypress(Space),,,,,-- --- ---- --- ------ ----- ------- ---- -- --- ------- --<br>------- ---------- ------ -- ----- -- ----- -- ---- ------<br>--- ----- --- --- ------ -------- ----- --- ------ ----- --<br>----- ----- ---------- --- --- ------ ------ ---- -- ------<br>------- --- French ----- --- ---- ------- -- ---- --- --<br>------- ------,123672.5,123671.79999995232,123215.826,123224.59999996424,123232.492,123682.426,,45,French
screen,html.Screen,0_2_1_1_46,2021-12-03T12:07:59.567Z,,,,,,,,,,,,,,,,54,,,,,,,,,,,,,,509.37399995230953,,response,,,100,,,,,,Space,keypress(Space),,,,,-- --- ---- --- ------ ----- ------- ---- -- --- ------- --<br>------- ---------- ------ -- ----- -- ----- -- ---- ------<br>--- ----- --- --- ------ -------- ----- --- ------ ----- --<br>----- ----- ---------- --- --- ------ ------ ---- -- ------<br>------- --- ------ state --- ---- ------- -- ---- --- --<br>------- ------,124192.39999997616,124191.79999995232,123665.761,123672.59999996424,123682.426,124199.128,,46,state
screen,html.Screen,0_2_1_1_47,2021-12-03T12:08:00.039Z,,,,,,,,,,,,,,,,54,,,,,,,,,,,,,,464.77199997616117,,response,,,100,,,,,,Space,keypress(Space),,,,,-- --- ---- --- ------ ----- ------- ---- -- --- ------- --<br>------- ---------- ------ -- ----- -- ----- -- ---- ------<br>--- ----- --- --- ------ -------- ----- --- ------ ----- --<br>----- ----- ---------- --- --- ------ ------ ---- -- ------<br>------- --- ------ ----- was ---- ------- -- ---- --- --<br>------- ------,124664.5,124663.89999997616,124182.462,124192.59999996424,124199.128,124665.734,,47,was
screen,html.Screen,0_2_1_1_48,2021-12-03T12:08:00.511Z,,,,,,,,,,,,,,,,54,,,,,,,,,,,,,,470.06599995231954,,response,,,100,,,,,,Space,keypress(Space),,,,,-- --- ---- --- ------ ----- ------- ---- -- --- ------- --<br>------- ---------- ------ -- ----- -- ----- -- ---- ------<br>--- ----- --- --- ------ -------- ----- --- ------ ----- --<br>----- ----- ---------- --- --- ------ ------ ---- -- ------<br>------- --- ------ ----- --- left ------- -- ---- --- --<br>------- ------,125136.5,125135.79999995232,124649.069,124664.59999996424,124665.734,125148.965,,48,left
screen,html.Screen,0_2_1_1_49,2021-12-03T12:08:01.047Z,,,,,,,,,,,,,,,,54,,,,,,,,,,,,,,522.9349999761616,,response,,,100,,,,,,Space,keypress(Space),,,,,-- --- ---- --- ------ ----- ------- ---- -- --- ------- --<br>------- ---------- ------ -- ----- -- ----- -- ---- ------<br>--- ----- --- --- ------ -------- ----- --- ------ ----- --<br>----- ----- ---------- --- --- ------ ------ ---- -- ------<br>------- --- ------ ----- --- ---- without -- ---- --- --<br>------- ------,125672.5,125671.89999997616,125132.301,125136.59999996424,125148.965,125682.406,,49,without
screen,html.Screen,0_2_1_1_50,2021-12-03T12:08:01.431Z,,,,,,,,,,,,,,,,54,,,,,,,,,,,,,,373.3939999523136,,response,,,100,,,,,,Space,keypress(Space),,,,,-- --- ---- --- ------ ----- ------- ---- -- --- ------- --<br>------- ---------- ------ -- ----- -- ----- -- ---- ------<br>--- ----- --- --- ------ -------- ----- --- ------ ----- --<br>----- ----- ---------- --- --- ------ ------ ---- -- ------<br>------- --- ------ ----- --- ---- ------- an ---- --- --<br>------- ------,126056.29999995232,126055.79999995232,125665.74,125672.59999996424,125682.406,126065.636,,50,an
screen,html.Screen,0_2_1_1_51,2021-12-03T12:08:01.887Z,,,,,,,,,,,,,,,,54,,,,,,,,,,,,,,446.1639999523177,,response,,,100,,,,,,Space,keypress(Space),,,,,-- --- ---- --- ------ ----- ------- ---- -- --- ------- --<br>------- ---------- ------ -- ----- -- ----- -- ---- ------<br>--- ----- --- --- ------ -------- ----- --- ------ ----- --<br>----- ----- ---------- --- --- ------ ------ ---- -- ------<br>------- --- ------ ----- --- ---- ------- -- easy --- --<br>------- ------,126512.39999997616,126511.79999995232,126048.971,126056.39999997616,126065.636,126515.697,,51,easy
screen,html.Screen,0_2_1_1_52,2021-12-03T12:08:02.295Z,,,,,,,,,,,,,,,,54,,,,,,,,,,,,,,404.10299995231617,,response,,,100,,,,,,Space,keypress(Space),,,,,-- --- ---- --- ------ ----- ------- ---- -- --- ------- --<br>------- ---------- ------ -- ----- -- ----- -- ---- ------<br>--- ----- --- --- ------ -------- ----- --- ------ ----- --<br>----- ----- ---------- --- --- ------ ------ ---- -- ------<br>------- --- ------ ----- --- ---- ------- -- ---- way --<br>------- ------,126920.29999995232,126919.79999995232,126499.031,126512.59999996424,126515.697,126932.294,,52,way
screen,html.Screen,0_2_1_1_53,2021-12-03T12:08:02.743Z,,,,,,,,,,,,,,,,54,,,,,,,,,,,,,,435.40599998808466,,response,,,100,,,,,,Space,keypress(Space),,,,,-- --- ---- --- ------ ----- ------- ---- -- --- ------- --<br>------- ---------- ------ -- ----- -- ----- -- ---- ------<br>--- ----- --- --- ------ -------- ----- --- ------ ----- --<br>----- ----- ---------- --- --- ------ ------ ---- -- ------<br>------- --- ------ ----- --- ---- ------- -- ---- --- of<br>------- ------,127368.39999997616,127367.69999998808,126915.629,126920.5,126932.294,127382.263,,53,of
screen,html.Screen,0_2_1_1_54,2021-12-03T12:08:03.223Z,,,,,,,,,,,,,,,,54,,,,,,,,,,,,,,465.4369999880728,,response,,,100,,,,,,Space,keypress(Space),,,,,-- --- ---- --- ------ ----- ------- ---- -- --- ------- --<br>------- ---------- ------ -- ----- -- ----- -- ---- ------<br>--- ----- --- --- ------ -------- ----- --- ------ ----- --<br>----- ----- ---------- --- --- ------ ------ ---- -- ------<br>------- --- ------ ----- --- ---- ------- -- ---- --- --<br>raising ------,127848.29999995232,127847.69999998808,127365.598,127368.59999996424,127382.263,127865.657,,54,raising
screen,html.Screen,0_2_1_1_55,2021-12-03T12:08:03.743Z,,,,,,,,,,,,,,,,54,,,,,,,,,,,,,,502.2429999761516,,response,,,100,,,,,,Space,keypress(Space),,,,,-- --- ---- --- ------ ----- ------- ---- -- --- ------- --<br>------- ---------- ------ -- ----- -- ----- -- ---- ------<br>--- ----- --- --- ------ -------- ----- --- ------ ----- --<br>----- ----- ---------- --- --- ------ ------ ---- -- ------<br>------- --- ------ ----- --- ---- ------- -- ---- --- --<br>------- money.,128368.5,128367.89999997616,127848.991,127848.5,127865.657,128382.25,,55,money.
Item 100,flow.Loop,0_2_1_1,2021-12-03T12:08:03.743Z,,,,,,,,,,,,,,,,,,,,,,,,,,,,,,31067.87399997616,,completion,,,,F,,,,,,,,,,silence,,128368.79999995232,128367.89999997616,97283.361,97284.89999997616,97300.026,128382.25,,,
Question 1,html.Screen,0_2_1_2,2021-12-03T12:08:06.764Z,,,,,,,,,,,,,,,,,,,,,,,,,,,true,TRUE,,3006.949999988079,,response,,,100,F,,,,,TRUE,click #choice-1,,,,silence,,131390.09999996424,131389.19999998808,128365.585,128368.89999997616,128382.25,131398.832,,,
Question 2,html.Screen,0_2_1_3,2021-12-03T12:08:09.136Z,,,,,,,,,,,,,,,,,,,,,,,,,,,true,FALSE,,2361.867999988084,,response,,,100,F,,,,,FALSE,click #choice-2,,,,silence,,133761.59999996424,133760.69999998808,131382.166,131390.19999998808,131398.832,133765.623,,,
Item 100,flow.Sequence,0_2_1,2021-12-03T12:08:09.136Z,,,,,,,,,,,,,,,,,,,,,,,,,,,,,,46460.270999988075,,completion,,,,,,,,,,,,,,,,133761.79999995232,133760.69999998808,87283.764,87299.29999995232,87300.429,133765.623,,,
End of Practice,html.Page,0_2_2,2021-12-03T12:08:10.709Z,,,,,,,,,,,,,,,,,,,,,,,,,,,,,,1568.7769999761658,,form submission,,,,,,,,,,,,,,,,135334.89999997616,135334.39999997616,133748.95,133762,133765.623,135348.653,,,
Practice,flow.Sequence,0_2,2021-12-03T12:08:10.710Z,,,,,,,,,,,,,,,,,,,,,,,,,,,,,,98215.46099997616,,completion,,,,,,,,,,,,,,,,135335.19999998808,135334.39999997616,37102.275,37111,37118.939,135348.653,,,
Trap_instruction,html.Page,0_3_0,2021-12-03T12:08:14.511Z,,,,,,,,,,,,,,,,,,,,,,,,,,,,,,3788.046999988088,,form submission,,,,,,,,,,,,,,,,139137.09999996424,139136.69999998808,135331.988,135335.5,135348.653,139147.985,,,
trap_trial,html.Screen,0_3_1,2021-12-03T12:08:18.434Z,,,,,,,,,,,,,,,,,,,,,,,,,,,true,1,,3910.414999976172,,response,,,,,,,,,1,click #choice-1,,,,,,143059.29999995232,143058.39999997616,139131.322,139137.29999995232,139147.985,143064.797,,,
end of trap trial,html.Page,0_3_2,2021-12-03T12:08:21.121Z,,,,,,,,,,,,,,,,,,,,,,,,,,,,,,2681.302999964246,,form submission,,,,,,,,,,,,,,,,145746.5,145746.09999996424,143048.132,143059.5,143064.797,145748.487,,,
Trap 1,flow.Sequence,0_3,2021-12-03T12:08:21.121Z,,,,,,,,,,,,,,,,,,,,,,,,,,,,,,10397.446999964246,,completion,,,,,,,,,,,,,,,,145746.79999995232,145746.09999996424,135331.988,135335.39999997616,135348.653,145748.487,,,
Standby,html.Page,0_4_0,2021-12-03T12:08:29.107Z,,,,,,,,,,,,,,,,,,,,,,,,,,,,,,7998.989000000001,,timeout,,,,,,,,,,,,,,,,153732.29999995232,153730.811,145731.819,145747,145748.487,153747.476,,,
Holding screen,html.Screen,0_4_1_0_0,2021-12-03T12:08:36.107Z,,,,,,,,,,,,,,,,,,,,,,,,,,,,,,7000.201000000001,,timeout,,,,,,,,,,,,,,,,160732.5,160731.012,153730.811,153732.69999998808,153747.476,160747.677,,,
screen,html.Screen,0_4_1_0_1_0,2021-12-03T12:08:37.726Z,,,,,,,,,,,,,,,,15,,,,,,,,,,,,,,1603.1229999523202,,response,,,7,F,,,,,Space,keypress(Space),,,,instrumental,Greg --------- ---------- - --- ------- -- --- ------------<br>----- -- -------- ------- ---- ------ - -------- ---- -----<br>--- ------- ---- -- --- -------- --- - ----- ------ ---- --<br>-------- --- -------- -------- --- -------- ---- -- ----- -<br>-------- ---- --- ---------- --------- -- ------- ------ -<br>--------- ----- -----,162351.59999996424,162350.79999995232,160731.012,160732.79999995232,160747.677,162364.244,,0,Greg
screen,html.Screen,0_4_1_0_1_1,2021-12-03T12:08:38.405Z,,,,,,,,,,,,,,,,15,,,,,,,,,,,,,,666.255999999994,,response,,,7,F,,,,,Space,keypress(Space),,,,instrumental,"---- Anderson, ---------- - --- ------- -- --- ------------<br>----- -- -------- ------- ---- ------ - -------- ---- -----<br>--- ------- ---- -- --- -------- --- - ----- ------ ---- --<br>-------- --- -------- -------- --- -------- ---- -- ----- -<br>-------- ---- --- ---------- --------- -- ------- ------ -<br>--------- ----- -----",163031,163030.5,162347.579,162351.79999995232,162364.244,163047.601,,1,"Anderson,"
screen,html.Screen,0_4_1_0_1_2,2021-12-03T12:08:38.941Z,,,,,,,,,,,,,,,,15,,,,,,,,,,,,,,518.798999976163,,response,,,7,F,,,,,Space,keypress(Space),,,,instrumental,---- --------- considered - --- ------- -- --- ------------<br>----- -- -------- ------- ---- ------ - -------- ---- -----<br>--- ------- ---- -- --- -------- --- - ----- ------ ---- --<br>-------- --- -------- -------- --- -------- ---- -- ----- -<br>-------- ---- --- ---------- --------- -- ------- ------ -<br>--------- ----- -----,163567,163566.39999997616,163030.936,163031.09999996424,163047.601,163580.923,,2,considered
screen,html.Screen,0_4_1_0_1_3,2021-12-03T12:08:39.317Z,,,,,,,,,,,,,,,,15,,,,,,,,,,,,,,361.47699997614836,,response,,,7,F,,,,,Space,keypress(Space),,,,instrumental,---- --------- ---------- a --- ------- -- --- ------------<br>----- -- -------- ------- ---- ------ - -------- ---- -----<br>--- ------- ---- -- --- -------- --- - ----- ------ ---- --<br>-------- --- -------- -------- --- -------- ---- -- ----- -<br>-------- ---- --- ---------- --------- -- ------- ------ -<br>--------- ----- -----,163942.89999997616,163942.39999997616,163564.258,163567.09999996424,163580.923,163947.544,,3,a
screen,html.Screen,0_4_1_0_1_4,2021-12-03T12:08:39.717Z,,,,,,,,,,,,,,,,15,,,,,,,,,,,,,,394.7559999523219,,response,,,7,F,,,,,Space,keypress(Space),,,,instrumental,---- --------- ---------- - key ------- -- --- ------------<br>----- -- -------- ------- ---- ------ - -------- ---- -----<br>--- ------- ---- -- --- -------- --- - ----- ------ ---- --<br>-------- --- -------- -------- --- -------- ---- -- ----- -<br>-------- ---- --- ---------- --------- -- ------- ------ -<br>--------- ----- -----,164343,164342.29999995232,163930.879,163943.09999996424,163947.544,164347.617,,4,key
screen,html.Screen,0_4_1_0_1_5,2021-12-03T12:08:40.165Z,,,,,,,,,,,,,,,,15,,,,,,,,,,,,,,442.7829999761598,,response,,,7,F,,,,,Space,keypress(Space),,,,instrumental,---- --------- ---------- - --- witness -- --- ------------<br>----- -- -------- ------- ---- ------ - -------- ---- -----<br>--- ------- ---- -- --- -------- --- - ----- ------ ---- --<br>-------- --- -------- -------- --- -------- ---- -- ----- -<br>-------- ---- --- ---------- --------- -- ------- ------ -<br>--------- ----- -----,164790.89999997616,164790.39999997616,164330.951,164343.09999996424,164347.617,164797.485,,5,witness
screen,html.Screen,0_4_1_0_1_6,2021-12-03T12:08:40.645Z,,,,,,,,,,,,,,,,15,,,,,,,,,,,,,,472.9149999761721,,response,,,7,F,,,,,Space,keypress(Space),,,,instrumental,---- --------- ---------- - --- ------- by --- ------------<br>----- -- -------- ------- ---- ------ - -------- ---- -----<br>--- ------- ---- -- --- -------- --- - ----- ------ ---- --<br>-------- --- -------- -------- --- -------- ---- -- ----- -<br>-------- ---- --- ---------- --------- -- ------- ------ -<br>--------- ----- -----,165271,165270.39999997616,164780.821,164791.09999996424,164797.485,165280.973,,6,by
screen,html.Screen,0_4_1_0_1_7,2021-12-03T12:08:41.093Z,,,,,,,,,,,,,,,,15,,,,,,,,,,,,,,437.42699997616,,response,,,7,F,,,,,Space,keypress(Space),,,,instrumental,---- --------- ---------- - --- ------- -- the ------------<br>----- -- -------- ------- ---- ------ - -------- ---- -----<br>--- ------- ---- -- --- -------- --- - ----- ------ ---- --<br>-------- --- -------- -------- --- -------- ---- -- ----- -<br>-------- ---- --- ---------- --------- -- ------- ------ -<br>--------- ----- -----,165719.09999996424,165718.39999997616,165264.306,165271.19999998808,165280.973,165730.844,,7,the
screen,html.Screen,0_4_1_0_1_8,2021-12-03T12:08:41.813Z,,,,,,,,,,,,,,,,15,,,,,,,,,,,,,,707.4559999523044,,response,,,7,F,,,,,Space,keypress(Space),,,,instrumental,"---- --------- ---------- - --- ------- -- --- prosecution,<br>----- -- -------- ------- ---- ------ - -------- ---- -----<br>--- ------- ---- -- --- -------- --- - ----- ------ ---- --<br>-------- --- -------- -------- --- -------- ---- -- ----- -<br>-------- ---- --- ---------- --------- -- ------- ------ -<br>--------- ----- -----",166439,166438.29999995232,165714.179,165719.39999997616,165730.844,166447.551,,8,"prosecution,"
screen,html.Screen,0_4_1_0_1_9,2021-12-03T12:08:42.541Z,,,,,,,,,,,,,,,,15,,,,,,,,,,,,,,718.7489999523095,,response,,,7,F,,,,,Space,keypress(Space),,,,instrumental,---- --------- ---------- - --- ------- -- --- ------------<br>vowed -- -------- ------- ---- ------ - -------- ---- -----<br>--- ------- ---- -- --- -------- --- - ----- ------ ---- --<br>-------- --- -------- -------- --- -------- ---- -- ----- -<br>-------- ---- --- ---------- --------- -- ------- ------ -<br>--------- ----- -----,167166.89999997616,167166.29999995232,166430.885,166439.09999996424,166447.551,167180.68,,9,vowed
screen,html.Screen,0_4_1_0_1_10,2021-12-03T12:08:43.037Z,,,,,,,,,,,,,,,,15,,,,,,,,,,,,,,481.61999995232327,,response,,,7,F,,,,,Space,keypress(Space),,,,instrumental,---- --------- ---------- - --- ------- -- --- ------------<br>----- he -------- ------- ---- ------ - -------- ---- -----<br>--- ------- ---- -- --- -------- --- - ----- ------ ---- --<br>-------- --- -------- -------- --- -------- ---- -- ----- -<br>-------- ---- --- ---------- --------- -- ------- ------ -<br>--------- ----- -----,167662.79999995232,167662.29999995232,167164.016,167167.19999998808,167180.68,167664.148,,10,he
screen,html.Screen,0_4_1_0_1_11,2021-12-03T12:08:43.573Z,,,,,,,,,,,,,,,,15,,,,,,,,,,,,,,534.1519999523298,,response,,,7,F,,,,,Space,keypress(Space),,,,instrumental,---- --------- ---------- - --- ------- -- --- ------------<br>----- -- wouldn't ------- ---- ------ - -------- ---- -----<br>--- ------- ---- -- --- -------- --- - ----- ------ ---- --<br>-------- --- -------- -------- --- -------- ---- -- ----- -<br>-------- ---- --- ---------- --------- -- ------- ------ -<br>--------- ----- -----,168198.79999995232,168198.29999995232,167647.482,167663,167664.148,168214.082,,11,wouldn't
screen,html.Screen,0_4_1_0_1_12,2021-12-03T12:08:44.005Z,,,,,,,,,,,,,,,,15,,,,,,,,,,,,,,416.1179999880842,,response,,,7,F,,,,,Space,keypress(Space),,,,instrumental,---- --------- ---------- - --- ------- -- --- ------------<br>----- -- -------- testify ---- ------ - -------- ---- -----<br>--- ------- ---- -- --- -------- --- - ----- ------ ---- --<br>-------- --- -------- -------- --- -------- ---- -- ----- -<br>-------- ---- --- ---------- --------- -- ------- ------ -<br>--------- ----- -----,168630.79999995232,168630.19999998808,168197.417,168198.89999997616,168214.082,168647.405,,12,testify
screen,html.Screen,0_4_1_0_1_13,2021-12-03T12:08:44.373Z,,,,,,,,,,,,,,,,15,,,,,,,,,,,,,,350.79499998808024,,response,,,7,F,,,,,Space,keypress(Space),,,,instrumental,---- --------- ---------- - --- ------- -- --- ------------<br>----- -- -------- ------- when ------ - -------- ---- -----<br>--- ------- ---- -- --- -------- --- - ----- ------ ---- --<br>-------- --- -------- -------- --- -------- ---- -- ----- -<br>-------- ---- --- ---------- --------- -- ------- ------ -<br>--------- ----- -----,168998.79999995232,168998.19999998808,168630.74,168631,168647.405,169014.123,,13,when
screen,html.Screen,0_4_1_0_1_14,2021-12-03T12:08:44.853Z,,,,,,,,,,,,,,,,15,,,,,,,,,,,,,,464.07699998808675,,response,,,7,F,,,,,Space,keypress(Space),,,,instrumental,---- --------- ---------- - --- ------- -- --- ------------<br>----- -- -------- ------- ---- served - -------- ---- -----<br>--- ------- ---- -- --- -------- --- - ----- ------ ---- --<br>-------- --- -------- -------- --- -------- ---- -- ----- -<br>-------- ---- --- ---------- --------- -- ------- ------ -<br>--------- ----- -----,169478.89999997616,169478.19999998808,168997.457,168998.89999997616,169014.123,169480.63,,14,served
screen,html.Screen,0_4_1_0_1_15,2021-12-03T12:08:45.229Z,,,,,,,,,,,,,,,,15,,,,,,,,,,,,,,373.5699999880744,,response,,,7,F,,,,,Space,keypress(Space),,,,instrumental,---- --------- ---------- - --- ------- -- --- ------------<br>----- -- -------- ------- ---- ------ a -------- ---- -----<br>--- ------- ---- -- --- -------- --- - ----- ------ ---- --<br>-------- --- -------- -------- --- -------- ---- -- ----- -<br>-------- ---- --- ---------- --------- -- ------- ------ -<br>--------- ----- -----,169854.69999998808,169854.19999998808,169463.966,169479.09999996424,169480.63,169864.137,,15,a
screen,html.Screen,0_4_1_0_1_16,2021-12-03T12:08:46.597Z,,,,,,,,,,,,,,,,15,,,,,,,,,,,,,,1358.0629999880912,,response,,,7,F,,,,,Space,keypress(Space),,,,instrumental,---- --------- ---------- - --- ------- -- --- ------------<br>----- -- -------- ------- ---- ------ - subpoena ---- -----<br>--- ------- ---- -- --- -------- --- - ----- ------ ---- --<br>-------- --- -------- -------- --- -------- ---- -- ----- -<br>-------- ---- --- ---------- --------- -- ------- ------ -<br>--------- ----- -----,171222.69999998808,171222.19999998808,169847.47,169855,169864.137,171230.711,,16,subpoena
screen,html.Screen,0_4_1_0_1_17,2021-12-03T12:08:47.029Z,,,,,,,,,,,,,,,,15,,,,,,,,,,,,,,423.4889999880688,,response,,,7,F,,,,,Space,keypress(Space),,,,instrumental,---- --------- ---------- - --- ------- -- --- ------------<br>----- -- -------- ------- ---- ------ - -------- last -----<br>--- ------- ---- -- --- -------- --- - ----- ------ ---- --<br>-------- --- -------- -------- --- -------- ---- -- ----- -<br>-------- ---- --- ---------- --------- -- ------- ------ -<br>--------- ----- -----,171654.79999995232,171654.19999998808,171214.045,171222.89999997616,171230.711,171663.913,,17,last
screen,html.Screen,0_4_1_0_1_18,2021-12-03T12:08:47.581Z,,,,,,,,,,,,,,,,15,,,,,,,,,,,,,,542.1869999642367,,response,,,7,F,,,,,Space,keypress(Space),,,,instrumental,---- --------- ---------- - --- ------- -- --- ------------<br>----- -- -------- ------- ---- ------ - -------- ---- week.<br>--- ------- ---- -- --- -------- --- - ----- ------ ---- --<br>-------- --- -------- -------- --- -------- ---- -- ----- -<br>-------- ---- --- ---------- --------- -- ------- ------ -<br>--------- ----- -----,172206.69999998808,172206.09999996424,171647.248,171655,171663.913,172213.941,,18,week.
screen,html.Screen,0_4_1_0_1_19,2021-12-03T12:08:48.325Z,,,,,,,,,,,,,,,,15,,,,,,,,,,,,,,736.3589999523247,,response,,,7,F,,,,,Space,keypress(Space),,,,instrumental,---- --------- ---------- - --- ------- -- --- ------------<br>----- -- -------- ------- ---- ------ - -------- ---- -----<br>His ------- ---- -- --- -------- --- - ----- ------ ---- --<br>-------- --- -------- -------- --- -------- ---- -- ----- -<br>-------- ---- --- ---------- --------- -- ------- ------ -<br>--------- ----- -----,172950.89999997616,172950.29999995232,172197.276,172206.89999997616,172213.941,172963.882,,19,His
screen,html.Screen,0_4_1_0_1_20,2021-12-03T12:08:48.941Z,,,,,,,,,,,,,,,,15,,,,,,,,,,,,,,602.2179999642249,,response,,,7,F,,,,,Space,keypress(Space),,,,instrumental,---- --------- ---------- - --- ------- -- --- ------------<br>----- -- -------- ------- ---- ------ - -------- ---- -----<br>--- lawyers ---- -- --- -------- --- - ----- ------ ---- --<br>-------- --- -------- -------- --- -------- ---- -- ----- -<br>-------- ---- --- ---------- --------- -- ------- ------ -<br>--------- ----- -----,173566.69999998808,173566.09999996424,172947.217,172951.09999996424,172963.882,173580.487,,20,lawyers
screen,html.Screen,0_4_1_0_1_21,2021-12-03T12:08:49.437Z,,,,,,,,,,,,,,,,15,,,,,,,,,,,,,,481.5130000000063,,response,,,7,F,,,,,Space,keypress(Space),,,,instrumental,---- --------- ---------- - --- ------- -- --- ------------<br>----- -- -------- ------- ---- ------ - -------- ---- -----<br>--- ------- said -- --- -------- --- - ----- ------ ---- --<br>-------- --- -------- -------- --- -------- ---- -- ----- -<br>-------- ---- --- ---------- --------- -- ------- ------ -<br>--------- ----- -----,174062.59999996424,174062,173563.822,173566.89999997616,173580.487,174063.833,,21,said
screen,html.Screen,0_4_1_0_1_22,2021-12-03T12:08:49.853Z,,,,,,,,,,,,,,,,15,,,,,,,,,,,,,,414.16699999998673,,response,,,7,F,,,,,Space,keypress(Space),,,,instrumental,---- --------- ---------- - --- ------- -- --- ------------<br>----- -- -------- ------- ---- ------ - -------- ---- -----<br>--- ------- ---- he --- -------- --- - ----- ------ ---- --<br>-------- --- -------- -------- --- -------- ---- -- ----- -<br>-------- ---- --- ---------- --------- -- ------- ------ -<br>--------- ----- -----,174478.59999996424,174478,174047.168,174062.69999998808,174063.833,174480.615,,22,he
screen,html.Screen,0_4_1_0_1_23,2021-12-03T12:08:50.253Z,,,,,,,,,,,,,,,,15,,,,,,,,,,,,,,397.3850000000093,,response,,,7,F,,,,,Space,keypress(Space),,,,instrumental,---- --------- ---------- - --- ------- -- --- ------------<br>----- -- -------- ------- ---- ------ - -------- ---- -----<br>--- ------- ---- -- was -------- --- - ----- ------ ---- --<br>-------- --- -------- -------- --- -------- ---- -- ----- -<br>-------- ---- --- ---------- --------- -- ------- ------ -<br>--------- ----- -----,174878.59999996424,174878,174463.948,174478.69999998808,174480.615,174880.447,,23,was
screen,html.Screen,0_4_1_0_1_24,2021-12-03T12:08:50.797Z,,,,,,,,,,,,,,,,15,,,,,,,,,,,,,,541.5530000000144,,response,,,7,F,,,,,Space,keypress(Space),,,,instrumental,---- --------- ---------- - --- ------- -- --- ------------<br>----- -- -------- ------- ---- ------ - -------- ---- -----<br>--- ------- ---- -- --- prepared --- - ----- ------ ---- --<br>-------- --- -------- -------- --- -------- ---- -- ----- -<br>-------- ---- --- ---------- --------- -- ------- ------ -<br>--------- ----- -----,175422.59999996424,175422,174863.783,174878.69999998808,174880.447,175430.541,,24,prepared
screen,html.Screen,0_4_1_0_1_25,2021-12-03T12:08:51.245Z,,,,,,,,,,,,,,,,15,,,,,,,,,,,,,,439.45900000000256,,response,,,7,F,,,,,Space,keypress(Space),,,,instrumental,---- --------- ---------- - --- ------- -- --- ------------<br>----- -- -------- ------- ---- ------ - -------- ---- -----<br>--- ------- ---- -- --- -------- for - ----- ------ ---- --<br>-------- --- -------- -------- --- -------- ---- -- ----- -<br>-------- ---- --- ---------- --------- -- ------- ------ -<br>--------- ----- -----,175870.59999996424,175870,175413.875,175422.79999995232,175430.541,175880.475,,25,for
screen,html.Screen,0_4_1_0_1_26,2021-12-03T12:08:51.621Z,,,,,,,,,,,,,,,,15,,,,,,,,,,,,,,365.5249999999942,,response,,,7,F,,,,,Space,keypress(Space),,,,instrumental,---- --------- ---------- - --- ------- -- --- ------------<br>----- -- -------- ------- ---- ------ - -------- ---- -----<br>--- ------- ---- -- --- -------- --- a ----- ------ ---- --<br>-------- --- -------- -------- --- -------- ---- -- ----- -<br>-------- ---- --- ---------- --------- -- ------- ------ -<br>--------- ----- -----,176246.59999996424,176246,175863.81,175870.79999995232,175880.475,176247.187,,26,a
screen,html.Screen,0_4_1_0_1_27,2021-12-03T12:08:52.077Z,,,,,,,,,,,,,,,,15,,,,,,,,,,,,,,454.7129999761528,,response,,,7,F,,,,,Space,keypress(Space),,,,instrumental,---- --------- ---------- - --- ------- -- --- ------------<br>----- -- -------- ------- ---- ------ - -------- ---- -----<br>--- ------- ---- -- --- -------- --- - third ------ ---- --<br>-------- --- -------- -------- --- -------- ---- -- ----- -<br>-------- ---- --- ---------- --------- -- ------- ------ -<br>--------- ----- -----,176702.59999996424,176701.89999997616,176230.521,176246.69999998808,176247.187,176713.793,,27,third
screen,html.Screen,0_4_1_0_1_28,2021-12-03T12:08:52.565Z,,,,,,,,,,,,,,,,15,,,,,,,,,,,,,,476.106999976153,,response,,,7,F,,,,,Space,keypress(Space),,,,instrumental,---- --------- ---------- - --- ------- -- --- ------------<br>----- -- -------- ------- ---- ------ - -------- ---- -----<br>--- ------- ---- -- --- -------- --- - ----- prison ---- --<br>-------- --- -------- -------- --- -------- ---- -- ----- -<br>-------- ---- --- ---------- --------- -- ------- ------ -<br>--------- ----- -----,177190.5,177189.89999997616,176697.128,176702.69999998808,176713.793,177197.086,,28,prison
screen,html.Screen,0_4_1_0_1_29,2021-12-03T12:08:53.061Z,,,,,,,,,,,,,,,,15,,,,,,,,,,,,,,488.8139999761479,,response,,,7,F,,,,,Space,keypress(Space),,,,instrumental,---- --------- ---------- - --- ------- -- --- ------------<br>----- -- -------- ------- ---- ------ - -------- ---- -----<br>--- ------- ---- -- --- -------- --- - ----- ------ stay --<br>-------- --- -------- -------- --- -------- ---- -- ----- -<br>-------- ---- --- ---------- --------- -- ------- ------ -<br>--------- ----- -----,177686.59999996424,177685.89999997616,177180.421,177190.79999995232,177197.086,177697.073,,29,stay
screen,html.Screen,0_4_1_0_1_30,2021-12-03T12:08:53.493Z,,,,,,,,,,,,,,,,15,,,,,,,,,,,,,,420.7269999523123,,response,,,7,F,,,,,Space,keypress(Space),,,,instrumental,---- --------- ---------- - --- ------- -- --- ------------<br>----- -- -------- ------- ---- ------ - -------- ---- -----<br>--- ------- ---- -- --- -------- --- - ----- ------ ---- to<br>-------- --- -------- -------- --- -------- ---- -- ----- -<br>-------- ---- --- ---------- --------- -- ------- ------ -<br>--------- ----- -----,178118.39999997616,178117.79999995232,177680.408,177686.79999995232,177697.073,178130.391,,30,to
screen,html.Screen,0_4_1_0_1_31,2021-12-03T12:08:53.941Z,,,,,,,,,,,,,,,,15,,,,,,,,,,,,,,435.5089999761549,,response,,,7,F,,,,,Space,keypress(Space),,,,instrumental,---- --------- ---------- - --- ------- -- --- ------------<br>----- -- -------- ------- ---- ------ - -------- ---- -----<br>--- ------- ---- -- --- -------- --- - ----- ------ ---- --<br>maintain --- -------- -------- --- -------- ---- -- ----- -<br>-------- ---- --- ---------- --------- -- ------- ------ -<br>--------- ----- -----,178566.39999997616,178565.89999997616,178113.726,178118.59999996424,178130.391,178580.354,,31,maintain
screen,html.Screen,0_4_1_0_1_32,2021-12-03T12:08:54.349Z,,,,,,,,,,,,,,,,15,,,,,,,,,,,,,,393.4459999523242,,response,,,7,F,,,,,Space,keypress(Space),,,,instrumental,---- --------- ---------- - --- ------- -- --- ------------<br>----- -- -------- ------- ---- ------ - -------- ---- -----<br>--- ------- ---- -- --- -------- --- - ----- ------ ---- --<br>-------- his -------- -------- --- -------- ---- -- ----- -<br>-------- ---- --- ---------- --------- -- ------- ------ -<br>--------- ----- -----,178974.39999997616,178973.79999995232,178563.689,178566.59999996424,178580.354,178980.403,,32,his
screen,html.Screen,0_4_1_0_1_33,2021-12-03T12:08:55.085Z,,,,,,,,,,,,,,,,15,,,,,,,,,,,,,,729.3969999523251,,response,,,7,F,,,,,Space,keypress(Space),,,,instrumental,---- --------- ---------- - --- ------- -- --- ------------<br>----- -- -------- ------- ---- ------ - -------- ---- -----<br>--- ------- ---- -- --- -------- --- - ----- ------ ---- --<br>-------- --- silence. -------- --- -------- ---- -- ----- -<br>-------- ---- --- ---------- --------- -- ------- ------ -<br>--------- ----- -----,179710.39999997616,179709.79999995232,178963.737,178974.5,178980.403,179713.651,,33,silence.
screen,html.Screen,0_4_1_0_1_34,2021-12-03T12:08:55.709Z,,,,,,,,,,,,,,,,15,,,,,,,,,,,,,,620.1489999523037,,response,,,7,F,,,,,Space,keypress(Space),,,,instrumental,---- --------- ---------- - --- ------- -- --- ------------<br>----- -- -------- ------- ---- ------ - -------- ---- -----<br>--- ------- ---- -- --- -------- --- - ----- ------ ---- --<br>-------- --- -------- Anderson --- -------- ---- -- ----- -<br>-------- ---- --- ---------- --------- -- ------- ------ -<br>--------- ----- -----,180334.39999997616,180333.79999995232,179696.986,179710.59999996424,179713.651,180346.936,,34,Anderson
screen,html.Screen,0_4_1_0_1_35,2021-12-03T12:08:56.119Z,,,,,,,,,,,,,,,,15,,,,,,,,,,,,,,394.8639999523293,,response,,,7,F,,,,,Space,keypress(Space),,,,instrumental,---- --------- ---------- - --- ------- -- --- ------------<br>----- -- -------- ------- ---- ------ - -------- ---- -----<br>--- ------- ---- -- --- -------- --- - ----- ------ ---- --<br>-------- --- -------- -------- was -------- ---- -- ----- -<br>-------- ---- --- ---------- --------- -- ------- ------ -<br>--------- ----- -----,180742.39999997616,180741.79999995232,180330.271,180334.5,180346.936,180747.014,,35,was
screen,html.Screen,0_4_1_0_1_36,2021-12-03T12:08:56.695Z,,,,,,,,,,,,,,,,15,,,,,,,,,,,,,,570.7859999523207,,response,,,7,F,,,,,Space,keypress(Space),,,,instrumental,---- --------- ---------- - --- ------- -- --- ------------<br>----- -- -------- ------- ---- ------ - -------- ---- -----<br>--- ------- ---- -- --- -------- --- - ----- ------ ---- --<br>-------- --- -------- -------- --- released ---- -- ----- -<br>-------- ---- --- ---------- --------- -- ------- ------ -<br>--------- ----- -----,181318.29999995232,181317.79999995232,180730.348,180742.5,180747.014,181330.248,,36,released
screen,html.Screen,0_4_1_0_1_37,2021-12-03T12:08:57.103Z,,,,,,,,,,,,,,,,15,,,,,,,,,,,,,,395.55199995232397,,response,,,7,F,,,,,Space,keypress(Space),,,,instrumental,---- --------- ---------- - --- ------- -- --- ------------<br>----- -- -------- ------- ---- ------ - -------- ---- -----<br>--- ------- ---- -- --- -------- --- - ----- ------ ---- --<br>-------- --- -------- -------- --- -------- July -- ----- -<br>-------- ---- --- ---------- --------- -- ------- ------ -<br>--------- ----- -----,181726.39999997616,181725.79999995232,181313.583,181318.5,181330.248,181730.309,,37,July
screen,html.Screen,0_4_1_0_1_38,2021-12-03T12:08:57.615Z,,,,,,,,,,,,,,,,15,,,,,,,,,,,,,,507.3909999880707,,response,,,7,F,,,,,Space,keypress(Space),,,,instrumental,---- --------- ---------- - --- ------- -- --- ------------<br>----- -- -------- ------- ---- ------ - -------- ---- -----<br>--- ------- ---- -- --- -------- --- - ----- ------ ---- --<br>-------- --- -------- -------- --- -------- ---- 20 ----- -<br>-------- ---- --- ---------- --------- -- ------- ------ -<br>--------- ----- -----,182238.39999997616,182237.69999998808,181713.643,181726.59999996424,181730.309,182246.902,,38,20
screen,html.Screen,0_4_1_0_1_39,2021-12-03T12:08:58.576Z,,,,,,,,,,,,,,,,15,,,,,,,,,,,,,,951.0979999999981,,response,,,7,F,,,,,Space,keypress(Space),,,,instrumental,---- --------- ---------- - --- ------- -- --- ------------<br>----- -- -------- ------- ---- ------ - -------- ---- -----<br>--- ------- ---- -- --- -------- --- - ----- ------ ---- --<br>-------- --- -------- -------- --- -------- ---- -- after -<br>-------- ---- --- ---------- --------- -- ------- ------ -<br>--------- ----- -----,183198.59999996424,183198,182230.237,182238.5,182246.902,183213.596,,39,after
screen,html.Screen,0_4_1_0_1_40,2021-12-03T12:08:59.703Z,,,,,,,,,,,,,,,,15,,,,,,,,,,,,,,1112.1039999880886,,response,,,7,F,,,,,Space,keypress(Space),,,,instrumental,---- --------- ---------- - --- ------- -- --- ------------<br>----- -- -------- ------- ---- ------ - -------- ---- -----<br>--- ------- ---- -- --- -------- --- - ----- ------ ---- --<br>-------- --- -------- -------- --- -------- ---- -- ----- a<br>-------- ---- --- ---------- --------- -- ------- ------ -<br>--------- ----- -----,184326.29999995232,184325.69999998808,183196.93,183198.79999995232,183213.596,184330.095,,40,a
screen,html.Screen,0_4_1_0_1_41,2021-12-03T12:09:00.327Z,,,,,,,,,,,,,,,,15,,,,,,,,,,,,,,619.504999964236,,response,,,7,F,,,,,Space,keypress(Space),,,,instrumental,---- --------- ---------- - --- ------- -- --- ------------<br>----- -- -------- ------- ---- ------ - -------- ---- -----<br>--- ------- ---- -- --- -------- --- - ----- ------ ---- --<br>-------- --- -------- -------- --- -------- ---- -- ----- -<br>two-week ---- --- ---------- --------- -- ------- ------ -<br>--------- ----- -----,184950.19999998808,184949.59999996424,184313.43,184326.5,184330.095,184963.524,,41,two-week
screen,html.Screen,0_4_1_0_1_42,2021-12-03T12:09:00.959Z,,,,,,,,,,,,,,,,15,,,,,,,,,,,,,,618.0759999642323,,response,,,7,F,,,,,Space,keypress(Space),,,,instrumental,---- --------- ---------- - --- ------- -- --- ------------<br>----- -- -------- ------- ---- ------ - -------- ---- -----<br>--- ------- ---- -- --- -------- --- - ----- ------ ---- --<br>-------- --- -------- -------- --- -------- ---- -- ----- -<br>-------- stay --- ---------- --------- -- ------- ------ -<br>--------- ----- -----,185582.19999998808,185581.59999996424,184946.858,184950.39999997616,184963.524,185596.738,,42,stay
screen,html.Screen,0_4_1_0_1_43,2021-12-03T12:09:01.535Z,,,,,,,,,,,,,,,,15,,,,,,,,,,,,,,560.8619999642251,,response,,,7,F,,,,,Space,keypress(Space),,,,instrumental,---- --------- ---------- - --- ------- -- --- ------------<br>----- -- -------- ------- ---- ------ - -------- ---- -----<br>--- ------- ---- -- --- -------- --- - ----- ------ ---- --<br>-------- --- -------- -------- --- -------- ---- -- ----- -<br>-------- ---- for ---------- --------- -- ------- ------ -<br>--------- ----- -----,186158.09999996424,186157.59999996424,185580.073,185582.39999997616,185596.738,186163.502,,43,for
screen,html.Screen,0_4_1_0_1_44,2021-12-03T12:09:02.215Z,,,,,,,,,,,,,,,,15,,,,,,,,,,,,,,674.0979999642295,,response,,,7,F,,,,,Space,keypress(Space),,,,instrumental,---- --------- ---------- - --- ------- -- --- ------------<br>----- -- -------- ------- ---- ------ - -------- ---- -----<br>--- ------- ---- -- --- -------- --- - ----- ------ ---- --<br>-------- --- -------- -------- --- -------- ---- -- ----- -<br>-------- ---- --- previously --------- -- ------- ------ -<br>--------- ----- -----,186838.29999995232,186837.59999996424,186146.836,186158.29999995232,186163.502,186846.713,,44,previously
screen,html.Screen,0_4_1_0_1_45,2021-12-03T12:09:02.783Z,,,,,,,,,,,,,,,,15,,,,,,,,,,,,,,558.8869999642484,,response,,,7,F,,,,,Space,keypress(Space),,,,instrumental,---- --------- ---------- - --- ------- -- --- ------------<br>----- -- -------- ------- ---- ------ - -------- ---- -----<br>--- ------- ---- -- --- -------- --- - ----- ------ ---- --<br>-------- --- -------- -------- --- -------- ---- -- ----- -<br>-------- ---- --- ---------- declining -- ------- ------ -<br>--------- ----- -----,187406.09999996424,187405.59999996424,186830.048,186838.39999997616,186846.713,187413.371,,45,declining
screen,html.Screen,0_4_1_0_1_46,2021-12-03T12:09:03.359Z,,,,,,,,,,,,,,,,15,,,,,,,,,,,,,,568.1289999999863,,response,,,7,F,,,,,Space,keypress(Space),,,,instrumental,---- --------- ---------- - --- ------- -- --- ------------<br>----- -- -------- ------- ---- ------ - -------- ---- -----<br>--- ------- ---- -- --- -------- --- - ----- ------ ---- --<br>-------- --- -------- -------- --- -------- ---- -- ----- -<br>-------- ---- --- ---------- --------- to ------- ------ -<br>--------- ----- -----,187982.09999996424,187981.5,187396.706,187406.29999995232,187413.371,187996.681,,46,to
screen,html.Screen,0_4_1_0_1_47,2021-12-03T12:09:03.975Z,,,,,,,,,,,,,,,,15,,,,,,,,,,,,,,600.9189999642258,,response,,,7,F,,,,,Space,keypress(Space),,,,instrumental,---- --------- ---------- - --- ------- -- --- ------------<br>----- -- -------- ------- ---- ------ - -------- ---- -----<br>--- ------- ---- -- --- -------- --- - ----- ------ ---- --<br>-------- --- -------- -------- --- -------- ---- -- ----- -<br>-------- ---- --- ---------- --------- -- testify ------ -<br>--------- ----- -----,188598.19999998808,188597.59999996424,187980.016,187982.29999995232,187996.681,188613.397,,47,testify
screen,html.Screen,0_4_1_0_1_48,2021-12-03T12:09:04.455Z,,,,,,,,,,,,,,,,15,,,,,,,,,,,,,,464.00299997616094,,response,,,7,F,,,,,Space,keypress(Space),,,,instrumental,---- --------- ---------- - --- ------- -- --- ------------<br>----- -- -------- ------- ---- ------ - -------- ---- -----<br>--- ------- ---- -- --- -------- --- - ----- ------ ---- --<br>-------- --- -------- -------- --- -------- ---- -- ----- -<br>-------- ---- --- ---------- --------- -- ------- before -<br>--------- ----- -----,189078,189077.39999997616,188596.731,188598.29999995232,188613.397,189079.977,,48,before
screen,html.Screen,0_4_1_0_1_49,2021-12-03T12:09:04.895Z,,,,,,,,,,,,,,,,15,,,,,,,,,,,,,,437.42299997614464,,response,,,7,F,,,,,Space,keypress(Space),,,,instrumental,---- --------- ---------- - --- ------- -- --- ------------<br>----- -- -------- ------- ---- ------ - -------- ---- -----<br>--- ------- ---- -- --- -------- --- - ----- ------ ---- --<br>-------- --- -------- -------- --- -------- ---- -- ----- -<br>-------- ---- --- ---------- --------- -- ------- ------ a<br>--------- ----- -----,189518,189517.39999997616,189063.312,189078.19999998808,189079.977,189529.882,,49,a
screen,html.Screen,0_4_1_0_1_50,2021-12-03T12:09:05.511Z,,,,,,,,,,,,,,,,15,,,,,,,,,,,,,,603.5179999761458,,response,,,7,F,,,,,Space,keypress(Space),,,,instrumental,---- --------- ---------- - --- ------- -- --- ------------<br>----- -- -------- ------- ---- ------ - -------- ---- -----<br>--- ------- ---- -- --- -------- --- - ----- ------ ---- --<br>-------- --- -------- -------- --- -------- ---- -- ----- -<br>-------- ---- --- ---------- --------- -- ------- ------ -<br>different ----- -----,190134,190133.39999997616,189513.218,189518.29999995232,189529.882,190146.684,,50,different
screen,html.Screen,0_4_1_0_1_51,2021-12-03T12:09:06.063Z,,,,,,,,,,,,,,,,15,,,,,,,,,,,,,,538.8159999999916,,response,,,7,F,,,,,Space,keypress(Space),,,,instrumental,---- --------- ---------- - --- ------- -- --- ------------<br>----- -- -------- ------- ---- ------ - -------- ---- -----<br>--- ------- ---- -- --- -------- --- - ----- ------ ---- --<br>-------- --- -------- -------- --- -------- ---- -- ----- -<br>-------- ---- --- ---------- --------- -- ------- ------ -<br>--------- grand -----,190686,190685.5,190130.017,190134.19999998808,190146.684,190696.584,,51,grand
