sender,sender_type,sender_id,timestamp,meta,,Blues,Classical,Country,Dance,Electronic,Folk,Gospel,Hip-Hop,Jazz,Latin,Musical/Film,New-age,Pop,Provo_ID,R&B,Rap,Reggae,Religious,Rock,Soul,Swing,Traditional,age,artist_name,correct,correctResponse,distraction,duration,education,ended_on,familiarity,gender,item,list,music_frequency,offensiveness,pleasantness,preference,response,response_action,snippet_file,song_name,song_rating,sound,text,time_commit,time_end,time_render,time_run,time_show,time_switch,url,word,word_ID
Instructions,html.Page,0_0,2021-12-13T14:27:27.670Z,"{""labjs_version"":""20.2.3"",""labjs_build"":{""flavor"":""production"",""commit"":""7ea907d66ca8aeef8054924ca5d82ffbe11e34e5""},""location"":""https://run.pavlovia.org/mvasilev/lab_music_f/"",""userAgent"":""Mozilla/5.0 (Windows NT 6.1; Win64; x64) AppleWebKit/537.36 (KHTML, like Gecko) Chrome/96.0.4664.93 Safari/537.36"",""platform"":""Win32"",""language"":""en-US"",""locale"":""en-US"",""timeZone"":""Europe/London"",""timezoneOffset"":0,""screen_width"":1920,""screen_height"":1080,""scroll_width"":1920,""scroll_height"":959,""window_innerWidth"":1920,""window_innerHeight"":1007,""devicePixelRatio"":1}",,,,,,,,,,,,,,,,,,,,,,,,,,,,,20324.28200000894,,form submission,,,,,,,,,,,,,,,,32979,32978.10000000894,12620.488,12635.10000000894,12653.818,32981.485,{},,
Headphones,html.Page,0_1,2021-12-13T14:27:33.851Z,,,,,,,,,,,,,,,,,,,,,,,,,,,,,,6177.91500000596,,form submission,,,,,,,,,,,,,,,,39159.80000001192,39159.40000000596,32964.807,32979.5,32981.485,39169.592,,,
Holding screen,html.Screen,0_2_0_0,2021-12-13T14:27:43.847Z,,,,,,,,,,,,,,,,,,,,,,,,,,,,,,9999.496000000006,,timeout,,,,,,,,,,,,,,,,49156,49152.423,39152.927,39160.20000000298,39169.592,49169.088,,,
screen,html.Screen,0_2_0_1_0,2021-12-13T14:27:44.863Z,,,,,,,,,,,,,,,,53,,,,,,,,,,,,,,1002.1120000029769,,response,,,99,,,,,,Space,keypress(Space),,,,,When -- ----- -- ------ - ------- --- ----------<br>------------- ------ ------ ---- ---- ------- ----- -- ----<br>-------- ------- -- ---------- --- - --- ----- ----- ----<br>---- --- --- ----- --- ---- ---- ------- ----- ---- -------<br>--- --- -- ----- -- --- ---- -- --- ---- -- ------ ------<br>--- ----- -- ----,50172.30000001192,50171.20000000298,49152.423,49156.30000001192,49169.088,50185.707,,0,When
screen,html.Screen,0_2_0_1_1,2021-12-13T14:27:45.622Z,,,,,,,,,,,,,,,,53,,,,,,,,,,,,,,745.0930000119188,,response,,,99,,,,,,Space,keypress(Space),,,,,---- it ----- -- ------ - ------- --- ----------<br>------------- ------ ------ ---- ---- ------- ----- -- ----<br>-------- ------- -- ---------- --- - --- ----- ----- ----<br>---- --- --- ----- --- ---- ---- ------- ----- ---- -------<br>--- --- -- ----- -- --- ---- -- --- ---- -- ------ ------<br>--- ----- -- ----,50931.5,50930.80000001192,50169.042,50172.60000000894,50185.707,50935.684,,1,it
screen,html.Screen,0_2_0_1_2,2021-12-13T14:27:46.214Z,,,,,,,,,,,,,,,,53,,,,,,,,,,,,,,587.1160000119198,,response,,,99,,,,,,Space,keypress(Space),,,,,---- -- comes -- ------ - ------- --- ----------<br>------------- ------ ------ ---- ---- ------- ----- -- ----<br>-------- ------- -- ---------- --- - --- ----- ----- ----<br>---- --- --- ----- --- ---- ---- ------- ----- ---- -------<br>--- --- -- ----- -- --- ---- -- --- ---- -- ------ ------<br>--- ----- -- ----,51523.5,51522.80000001192,50919.019,50931.60000000894,50935.684,51535.666,,2,comes
screen,html.Screen,0_2_0_1_3,2021-12-13T14:27:46.678Z,,,,,,,,,,,,,,,,53,,,,,,,,,,,,,,451.234000005963,,response,,,99,,,,,,Space,keypress(Space),,,,,---- -- ----- to ------ - ------- --- ----------<br>------------- ------ ------ ---- ---- ------- ----- -- ----<br>-------- ------- -- ---------- --- - --- ----- ----- ----<br>---- --- --- ----- --- ---- ---- ------- ----- ---- -------<br>--- --- -- ----- -- --- ---- -- --- ---- -- ------ ------<br>--- ----- -- ----,51987.60000000894,51986.90000000596,51519.001,51523.70000000298,51535.666,52002.287,,3,to
screen,html.Screen,0_2_0_1_4,2021-12-13T14:27:47.174Z,,,,,,,,,,,,,,,,53,,,,,,,,,,,,,,480.4130000029836,,response,,,99,,,,,,Space,keypress(Space),,,,,---- -- ----- -- having - ------- --- ----------<br>------------- ------ ------ ---- ---- ------- ----- -- ----<br>-------- ------- -- ---------- --- - --- ----- ----- ----<br>---- --- --- ----- --- ---- ---- ------- ----- ---- -------<br>--- --- -- ----- -- --- ---- -- --- ---- -- ------ ------<br>--- ----- -- ----,52483.60000000894,52482.70000000298,51985.622,51987.90000000596,52002.287,52485.677,,4,having
screen,html.Screen,0_2_0_1_5,2021-12-13T14:27:48.230Z,,,,,,,,,,,,,,,,53,,,,,,,,,,,,,,1053.023000002977,,response,,,99,,,,,,Space,keypress(Space),,,,,---- -- ----- -- ------ a ------- --- ----------<br>------------- ------ ------ ---- ---- ------- ----- -- ----<br>-------- ------- -- ---------- --- - --- ----- ----- ----<br>---- --- --- ----- --- ---- ---- ------- ----- ---- -------<br>--- --- -- ----- -- --- ---- -- --- ---- -- ------ ------<br>--- ----- -- ----,53539.40000000596,53538.70000000298,52469.011,52483.80000001192,52485.677,53552.199,,5,a
screen,html.Screen,0_2_0_1_6,2021-12-13T14:27:49.030Z,,,,,,,,,,,,,,,,53,,,,,,,,,,,,,,786.4010000089402,,response,,,99,,,,,,Space,keypress(Space),,,,,---- -- ----- -- ------ - lasting --- ----------<br>------------- ------ ------ ---- ---- ------- ----- -- ----<br>-------- ------- -- ---------- --- - --- ----- ----- ----<br>---- --- --- ----- --- ---- ---- ------- ----- ---- -------<br>--- --- -- ----- -- --- ---- -- --- ---- -- ------ ------<br>--- ----- -- ----,54339.30000001192,54338.60000000894,53535.534,53539.60000000894,53552.199,54352.178,,6,lasting
screen,html.Screen,0_2_0_1_7,2021-12-13T14:27:49.630Z,,,,,,,,,,,,,,,,53,,,,,,,,,,,,,,586.3220000000001,,response,,,99,,,,,,Space,keypress(Space),,,,,---- -- ----- -- ------ - ------- and ----------<br>------------- ------ ------ ---- ---- ------- ----- -- ----<br>-------- ------- -- ---------- --- - --- ----- ----- ----<br>---- --- --- ----- --- ---- ---- ------- ----- ---- -------<br>--- --- -- ----- -- --- ---- -- --- ---- -- ------ ------<br>--- ----- -- ----,54939.30000001192,54938.5,54335.513,54339.60000000894,54352.178,54952.153,,7,and
screen,html.Screen,0_2_0_1_8,2021-12-13T14:27:50.174Z,,,,,,,,,,,,,,,,53,,,,,,,,,,,,,,530.4470000089423,,response,,,99,,,,,,Space,keypress(Space),,,,,---- -- ----- -- ------ - ------- --- fulfilling<br>------------- ------ ------ ---- ---- ------- ----- -- ----<br>-------- ------- -- ---------- --- - --- ----- ----- ----<br>---- --- --- ----- --- ---- ---- ------- ----- ---- -------<br>--- --- -- ----- -- --- ---- -- --- ---- -- ------ ------<br>--- ----- -- ----,55483.40000000596,55482.60000000894,54935.488,54939.40000000596,54952.153,55485.447,,8,fulfilling
screen,html.Screen,0_2_0_1_9,2021-12-13T14:27:51.030Z,,,,,,,,,,,,,,,,53,,,,,,,,,,,,,,853.0529999999999,,response,,,99,,,,,,Space,keypress(Space),,,,,"---- -- ----- -- ------ - ------- --- ----------<br>relationship, ------ ------ ---- ---- ------- ----- -- ----<br>-------- ------- -- ---------- --- - --- ----- ----- ----<br>---- --- --- ----- --- ---- ---- ------- ----- ---- -------<br>--- --- -- ----- -- --- ---- -- --- ---- -- ------ ------<br>--- ----- -- ----",56339.30000001192,56338.5,55468.782,55483.60000000894,55485.447,56351.953,,9,"relationship,"
screen,html.Screen,0_2_0_1_10,2021-12-13T14:27:51.622Z,,,,,,,,,,,,,,,,53,,,,,,,,,,,,,,578.5469999999987,,response,,,99,,,,,,Space,keypress(Space),,,,,---- -- ----- -- ------ - ------- --- ----------<br>------------- common ------ ---- ---- ------- ----- -- ----<br>-------- ------- -- ---------- --- - --- ----- ----- ----<br>---- --- --- ----- --- ---- ---- ------- ----- ---- -------<br>--- --- -- ----- -- --- ---- -- --- ---- -- ------ ------<br>--- ----- -- ----,56931.20000000298,56930.5,56335.289,56339.40000000596,56351.953,56935.509,,10,common
screen,html.Screen,0_2_0_1_11,2021-12-13T14:27:52.134Z,,,,,,,,,,,,,,,,53,,,,,,,,,,,,,,506.9910000000018,,response,,,99,,,,,,Space,keypress(Space),,,,,---- -- ----- -- ------ - ------- --- ----------<br>------------- ------ wisdom ---- ---- ------- ----- -- ----<br>-------- ------- -- ---------- --- - --- ----- ----- ----<br>---- --- --- ----- --- ---- ---- ------- ----- ---- -------<br>--- --- -- ----- -- --- ---- -- --- ---- -- ------ ------<br>--- ----- -- ----,57443.30000001192,57442.5,56918.842,56931.40000000596,56935.509,57452.019,,11,wisdom
screen,html.Screen,0_2_0_1_12,2021-12-13T14:27:52.630Z,,,,,,,,,,,,,,,,53,,,,,,,,,,,,,,486.38100000596023,,response,,,99,,,,,,Space,keypress(Space),,,,,---- -- ----- -- ------ - ------- --- ----------<br>------------- ------ ------ says ---- ------- ----- -- ----<br>-------- ------- -- ---------- --- - --- ----- ----- ----<br>---- --- --- ----- --- ---- ---- ------- ----- ---- -------<br>--- --- -- ----- -- --- ---- -- --- ---- -- ------ ------<br>--- ----- -- ----,57939.10000000894,57938.40000000596,57435.354,57443.5,57452.019,57952.066,,12,says
screen,html.Screen,0_2_0_1_13,2021-12-13T14:27:53.550Z,,,,,,,,,,,,,,,,53,,,,,,,,,,,,,,906.3340000059616,,response,,,99,,,,,,Space,keypress(Space),,,,,---- -- ----- -- ------ - ------- --- ----------<br>------------- ------ ------ ---- that ------- ----- -- ----<br>-------- ------- -- ---------- --- - --- ----- ----- ----<br>---- --- --- ----- --- ---- ---- ------- ----- ---- -------<br>--- --- -- ----- -- --- ---- -- --- ---- -- ------ ------<br>--- ----- -- ----,58859.10000000894,58858.40000000596,57935.4,57939.20000000298,57952.066,58868.531,,13,that
screen,html.Screen,0_2_0_1_14,2021-12-13T14:27:54.134Z,,,,,,,,,,,,,,,,53,,,,,,,,,,,,,,573.8690000059578,,response,,,99,,,,,,Space,keypress(Space),,,,,---- -- ----- -- ------ - ------- --- ----------<br>------------- ------ ------ ---- ---- feeling ----- -- ----<br>-------- ------- -- ---------- --- - --- ----- ----- ----<br>---- --- --- ----- --- ---- ---- ------- ----- ---- -------<br>--- --- -- ----- -- --- ---- -- --- ---- -- ------ ------<br>--- ----- -- ----,59443.10000000894,59442.40000000596,58851.867,58859.30000001192,58868.531,59452.002,,14,feeling
screen,html.Screen,0_2_0_1_15,2021-12-13T14:27:54.630Z,,,,,,,,,,,,,,,,53,,,,,,,,,,,,,,486.2980000119205,,response,,,99,,,,,,Space,keypress(Space),,,,,---- -- ----- -- ------ - ------- --- ----------<br>------------- ------ ------ ---- ---- ------- close -- ----<br>-------- ------- -- ---------- --- - --- ----- ----- ----<br>---- --- --- ----- --- ---- ---- ------- ----- ---- -------<br>--- --- -- ----- -- --- ---- -- --- ---- -- ------ ------<br>--- ----- -- ----,59939,59938.30000001192,59435.336,59443.30000001192,59452.002,59951.834,,15,close
screen,html.Screen,0_2_0_1_16,2021-12-13T14:27:55.033Z,,,,,,,,,,,,,,,,53,,,,,,,,,,,,,,386.66599999999744,,response,,,99,,,,,,Space,keypress(Space),,,,,---- -- ----- -- ------ - ------- --- ----------<br>------------- ------ ------ ---- ---- ------- ----- to ----<br>-------- ------- -- ---------- --- - --- ----- ----- ----<br>---- --- --- ----- --- ---- ---- ------- ----- ---- -------<br>--- --- -- ----- -- --- ---- -- --- ---- -- ------ ------<br>--- ----- -- ----,60339.10000000894,60338.5,59935.17,59939.20000000298,59951.834,60351.968,,16,to
screen,html.Screen,0_2_0_1_17,2021-12-13T14:27:55.649Z,,,,,,,,,,,,,,,,53,,,,,,,,,,,,,,602.3320000119202,,response,,,99,,,,,,Space,keypress(Space),,,,,---- -- ----- -- ------ - ------- --- ----------<br>------------- ------ ------ ---- ---- ------- ----- -- your<br>-------- ------- -- ---------- --- - --- ----- ----- ----<br>---- --- --- ----- --- ---- ---- ------- ----- ---- -------<br>--- --- -- ----- -- --- ---- -- --- ---- -- ------ ------<br>--- ----- -- ----,60954.90000000596,60954.30000001192,60335.302,60339.30000001192,60351.968,60968.533,,17,your
screen,html.Screen,0_2_0_1_18,2021-12-13T14:27:56.801Z,,,,,,,,,,,,,,,,53,,,,,,,,,,,,,,1137.7670000119178,,response,,,99,,,,,,Space,keypress(Space),,,,,---- -- ----- -- ------ - ------- --- ----------<br>------------- ------ ------ ---- ---- ------- ----- -- ----<br>romantic ------- -- ---------- --- - --- ----- ----- ----<br>---- --- --- ----- --- ---- ---- ------- ----- ---- -------<br>--- --- -- ----- -- --- ---- -- --- ---- -- ------ ------<br>--- ----- -- ----,62106.90000000596,62106.30000001192,60951.868,60955.10000000894,60968.533,62118.323,,18,romantic
screen,html.Screen,0_2_0_1_19,2021-12-13T14:27:57.401Z,,,,,,,,,,,,,,,,53,,,,,,,,,,,,,,587.9770000119242,,response,,,99,,,,,,Space,keypress(Space),,,,,---- -- ----- -- ------ - ------- --- ----------<br>------------- ------ ------ ---- ---- ------- ----- -- ----<br>-------- partner -- ---------- --- - --- ----- ----- ----<br>---- --- --- ----- --- ---- ---- ------- ----- ---- -------<br>--- --- -- ----- -- --- ---- -- --- ---- -- ------ ------<br>--- ----- -- ----,62706.90000000596,62706.30000001192,62101.659,62107.10000000894,62118.323,62718.506,,19,partner
screen,html.Screen,0_2_0_1_20,2021-12-13T14:27:57.953Z,,,,,,,,,,,,,,,,53,,,,,,,,,,,,,,539.5940000089395,,response,,,99,,,,,,Space,keypress(Space),,,,,---- -- ----- -- ------ - ------- --- ----------<br>------------- ------ ------ ---- ---- ------- ----- -- ----<br>-------- ------- is ---------- --- - --- ----- ----- ----<br>---- --- --- ----- --- ---- ---- ------- ----- ---- -------<br>--- --- -- ----- -- --- ---- -- --- ---- -- ------ ------<br>--- ----- -- ----,63258.80000001192,63258.10000000894,62701.84,62707,62718.506,63268.443,,20,is
screen,html.Screen,0_2_0_1_21,2021-12-13T14:27:59.057Z,,,,,,,,,,,,,,,,53,,,,,,,,,,,,,,1093.757000002981,,response,,,99,,,,,,Space,keypress(Space),,,,,---- -- ----- -- ------ - ------- --- ----------<br>------------- ------ ------ ---- ---- ------- ----- -- ----<br>-------- ------- -- paramount. --- - --- ----- ----- ----<br>---- --- --- ----- --- ---- ---- ------- ----- ---- -------<br>--- --- -- ----- -- --- ---- -- --- ---- -- ------ ------<br>--- ----- -- ----,64362.80000001192,64362.20000000298,63251.778,63258.90000000596,63268.443,64368.351,,21,paramount.
screen,html.Screen,0_2_0_1_22,2021-12-13T14:27:59.592Z,,,,,,,,,,,,,,,,53,,,,,,,,,,,,,,529.6489999999976,,response,,,99,,,,,,Space,keypress(Space),,,,,---- -- ----- -- ------ - ------- --- ----------<br>------------- ------ ------ ---- ---- ------- ----- -- ----<br>-------- ------- -- ---------- But - --- ----- ----- ----<br>---- --- --- ----- --- ---- ---- ------- ----- ---- -------<br>--- --- -- ----- -- --- ---- -- --- ---- -- ------ ------<br>--- ----- -- ----,64898.60000000894,64898,64351.686,64363.20000000298,64368.351,64901.674,,22,But
screen,html.Screen,0_2_0_1_23,2021-12-13T14:28:00.224Z,,,,,,,,,,,,,,,,53,,,,,,,,,,,,,,628.4260000089416,,response,,,99,,,,,,Space,keypress(Space),,,,,---- -- ----- -- ------ - ------- --- ----------<br>------------- ------ ------ ---- ---- ------- ----- -- ----<br>-------- ------- -- ---------- --- a --- ----- ----- ----<br>---- --- --- ----- --- ---- ---- ------- ----- ---- -------<br>--- --- -- ----- -- --- ---- -- --- ---- -- ------ ------<br>--- ----- -- ----,65530.70000000298,65530.10000000894,64885.009,64898.90000000596,64901.674,65534.974,,23,a
screen,html.Screen,0_2_0_1_24,2021-12-13T14:28:00.704Z,,,,,,,,,,,,,,,,53,,,,,,,,,,,,,,475.025999999998,,response,,,99,,,,,,Space,keypress(Space),,,,,---- -- ----- -- ------ - ------- --- ----------<br>------------- ------ ------ ---- ---- ------- ----- -- ----<br>-------- ------- -- ---------- --- - new ----- ----- ----<br>---- --- --- ----- --- ---- ---- ------- ----- ---- -------<br>--- --- -- ----- -- --- ---- -- --- ---- -- ------ ------<br>--- ----- -- ----,66010.70000000298,66010,65518.309,65530.90000000596,65534.974,66018.262,,24,new
screen,html.Screen,0_2_0_1_25,2021-12-13T14:28:01.136Z,,,,,,,,,,,,,,,,53,,,,,,,,,,,,,,423.73799999999756,,response,,,99,,,,,,Space,keypress(Space),,,,,---- -- ----- -- ------ - ------- --- ----------<br>------------- ------ ------ ---- ---- ------- ----- -- ----<br>-------- ------- -- ---------- --- - --- study ----- ----<br>---- --- --- ----- --- ---- ---- ------- ----- ---- -------<br>--- --- -- ----- -- --- ---- -- --- ---- -- ------ ------<br>--- ----- -- ----,66442.60000000894,66442,66001.597,66011,66018.262,66451.653,,25,study
screen,html.Screen,0_2_0_1_26,2021-12-13T14:28:01.560Z,,,,,,,,,,,,,,,,53,,,,,,,,,,,,,,414.3469999999943,,response,,,99,,,,,,Space,keypress(Space),,,,,---- -- ----- -- ------ - ------- --- ----------<br>------------- ------ ------ ---- ---- ------- ----- -- ----<br>-------- ------- -- ---------- --- - --- ----- finds ----<br>---- --- --- ----- --- ---- ---- ------- ----- ---- -------<br>--- --- -- ----- -- --- ---- -- --- ---- -- ------ ------<br>--- ----- -- ----,66866.5,66866,66434.987,66442.80000001192,66451.653,66868.254,,26,finds
screen,html.Screen,0_2_0_1_27,2021-12-13T14:28:01.944Z,,,,,,,,,,,,,,,,53,,,,,,,,,,,,,,381.64600000595965,,response,,,99,,,,,,Space,keypress(Space),,,,,---- -- ----- -- ------ - ------- --- ----------<br>------------- ------ ------ ---- ---- ------- ----- -- ----<br>-------- ------- -- ---------- --- - --- ----- ----- that<br>---- --- --- ----- --- ---- ---- ------- ----- ---- -------<br>--- --- -- ----- -- --- ---- -- --- ---- -- ------ ------<br>--- ----- -- ----,67250.60000000894,67249.90000000596,66851.589,66866.70000000298,66868.254,67251.583,,27,that
screen,html.Screen,0_2_0_1_28,2021-12-13T14:28:02.440Z,,,,,,,,,,,,,,,,53,,,,,,,,,,,,,,494.4170000000013,,response,,,99,,,,,,Space,keypress(Space),,,,,---- -- ----- -- ------ - ------- --- ----------<br>------------- ------ ------ ---- ---- ------- ----- -- ----<br>-------- ------- -- ---------- --- - --- ----- ----- ----<br>it's --- --- ----- --- ---- ---- ------- ----- ---- -------<br>--- --- -- ----- -- --- ---- -- --- ---- -- ------ ------<br>--- ----- -- ----,67746.60000000894,67746,67234.918,67250.70000000298,67251.583,67751.542,,28,it's
screen,html.Screen,0_2_0_1_29,2021-12-13T14:28:02.944Z,,,,,,,,,,,,,,,,53,,,,,,,,,,,,,,498.3580000059592,,response,,,99,,,,,,Space,keypress(Space),,,,,---- -- ----- -- ------ - ------- --- ----------<br>------------- ------ ------ ---- ---- ------- ----- -- ----<br>-------- ------- -- ---------- --- - --- ----- ----- ----<br>---- not --- ----- --- ---- ---- ------- ----- ---- -------<br>--- --- -- ----- -- --- ---- -- --- ---- -- ------ ------<br>--- ----- -- ----,68250.5,68249.90000000596,67734.877,67746.70000000298,67751.542,68251.513,,29,not
screen,html.Screen,0_2_0_1_30,2021-12-13T14:28:03.432Z,,,,,,,,,,,,,,,,53,,,,,,,,,,,,,,486.3870000059542,,response,,,99,,,,,,Space,keypress(Space),,,,,---- -- ----- -- ------ - ------- --- ----------<br>------------- ------ ------ ---- ---- ------- ----- -- ----<br>-------- ------- -- ---------- --- - --- ----- ----- ----<br>---- --- how ----- --- ---- ---- ------- ----- ---- -------<br>--- --- -- ----- -- --- ---- -- --- ---- -- ------ ------<br>--- ----- -- ----,68738.5,68737.90000000596,68234.848,68250.80000001192,68251.513,68751.502,,30,how
screen,html.Screen,0_2_0_1_31,2021-12-13T14:28:03.960Z,,,,,,,,,,,,,,,,53,,,,,,,,,,,,,,514.2980000119278,,response,,,99,,,,,,Space,keypress(Space),,,,,---- -- ----- -- ------ - ------- --- ----------<br>------------- ------ ------ ---- ---- ------- ----- -- ----<br>-------- ------- -- ---------- --- - --- ----- ----- ----<br>---- --- --- close --- ---- ---- ------- ----- ---- -------<br>--- --- -- ----- -- --- ---- -- --- ---- -- ------ ------<br>--- ----- -- ----,69266.40000000596,69265.80000001192,68734.837,68738.70000000298,68751.502,69268.128,,31,close
screen,html.Screen,0_2_0_1_32,2021-12-13T14:28:04.352Z,,,,,,,,,,,,,,,,53,,,,,,,,,,,,,,389.67200001192396,,response,,,99,,,,,,Space,keypress(Space),,,,,---- -- ----- -- ------ - ------- --- ----------<br>------------- ------ ------ ---- ---- ------- ----- -- ----<br>-------- ------- -- ---------- --- - --- ----- ----- ----<br>---- --- --- ----- you ---- ---- ------- ----- ---- -------<br>--- --- -- ----- -- --- ---- -- --- ---- -- ------ ------<br>--- ----- -- ----,69658.5,69657.80000001192,69251.463,69266.60000000894,69268.128,69668.114,,32,you
screen,html.Screen,0_2_0_1_33,2021-12-13T14:28:04.728Z,,,,,,,,,,,,,,,,53,,,,,,,,,,,,,,365.68600001191953,,response,,,99,,,,,,Space,keypress(Space),,,,,---- -- ----- -- ------ - ------- --- ----------<br>------------- ------ ------ ---- ---- ------- ----- -- ----<br>-------- ------- -- ---------- --- - --- ----- ----- ----<br>---- --- --- ----- --- feel ---- ------- ----- ---- -------<br>--- --- -- ----- -- --- ---- -- --- ---- -- ------ ------<br>--- ----- -- ----,70034.40000000596,70033.80000001192,69651.449,69658.60000000894,69668.114,70051.408,,33,feel
screen,html.Screen,0_2_0_1_34,2021-12-13T14:28:05.120Z,,,,,,,,,,,,,,,,53,,,,,,,,,,,,,,374.5920000000042,,response,,,99,,,,,,Space,keypress(Space),,,,,---- -- ----- -- ------ - ------- --- ----------<br>------------- ------ ------ ---- ---- ------- ----- -- ----<br>-------- ------- -- ---------- --- - --- ----- ----- ----<br>---- --- --- ----- --- ---- that ------- ----- ---- -------<br>--- --- -- ----- -- --- ---- -- --- ---- -- ------ ------<br>--- ----- -- ----,70426.70000000298,70426,70034.743,70034.60000000894,70051.408,70434.79,,34,that
screen,html.Screen,0_2_0_1_35,2021-12-13T14:28:05.848Z,,,,,,,,,,,,,,,,53,,,,,,,,,,,,,,719.0100000119273,,response,,,99,,,,,,Space,keypress(Space),,,,,---- -- ----- -- ------ - ------- --- ----------<br>------------- ------ ------ ---- ---- ------- ----- -- ----<br>-------- ------- -- ---------- --- - --- ----- ----- ----<br>---- --- --- ----- --- ---- ---- matters ----- ---- -------<br>--- --- -- ----- -- --- ---- -- --- ---- -- ------ ------<br>--- ----- -- ----,71154.30000001192,71153.80000001192,70418.124,70426.80000001192,70434.79,71167.94,,35,matters
screen,html.Screen,0_2_0_1_36,2021-12-13T14:28:06.296Z,,,,,,,,,,,,,,,,53,,,,,,,,,,,,,,433.96000000595814,,response,,,99,,,,,,Space,keypress(Space),,,,,"---- -- ----- -- ------ - ------- --- ----------<br>------------- ------ ------ ---- ---- ------- ----- -- ----<br>-------- ------- -- ---------- --- - --- ----- ----- ----<br>---- --- --- ----- --- ---- ---- ------- most, ---- -------<br>--- --- -- ----- -- --- ---- -- --- ---- -- ------ ------<br>--- ----- -- ----",71602.5,71601.90000000596,71151.276,71154.60000000894,71167.94,71617.9,,36,"most,"
screen,html.Screen,0_2_0_1_37,2021-12-13T14:28:06.888Z,,,,,,,,,,,,,,,,53,,,,,,,,,,,,,,575.800000002986,,response,,,99,,,,,,Space,keypress(Space),,,,,---- -- ----- -- ------ - ------- --- ----------<br>------------- ------ ------ ---- ---- ------- ----- -- ----<br>-------- ------- -- ---------- --- - --- ----- ----- ----<br>---- --- --- ----- --- ---- ---- ------- ----- it's -------<br>--- --- -- ----- -- --- ---- -- --- ---- -- ------ ------<br>--- ----- -- ----,72194.30000001192,72193.70000000298,71601.236,71602.70000000298,71617.9,72201.382,,37,it's
screen,html.Screen,0_2_0_1_38,2021-12-13T14:28:07.416Z,,,,,,,,,,,,,,,,53,,,,,,,,,,,,,,520.3180000029824,,response,,,99,,,,,,Space,keypress(Space),,,,,---- -- ----- -- ------ - ------- --- ----------<br>------------- ------ ------ ---- ---- ------- ----- -- ----<br>-------- ------- -- ---------- --- - --- ----- ----- ----<br>---- --- --- ----- --- ---- ---- ------- ----- ---- whether<br>--- --- -- ----- -- --- ---- -- --- ---- -- ------ ------<br>--- ----- -- ----,72722.40000000596,72721.70000000298,72184.716,72194.5,72201.382,72734.624,,38,whether
screen,html.Screen,0_2_0_1_39,2021-12-13T14:28:07.848Z,,,,,,,,,,,,,,,,53,,,,,,,,,,,,,,419.0760000029841,,response,,,99,,,,,,Space,keypress(Space),,,,,---- -- ----- -- ------ - ------- --- ----------<br>------------- ------ ------ ---- ---- ------- ----- -- ----<br>-------- ------- -- ---------- --- - --- ----- ----- ----<br>---- --- --- ----- --- ---- ---- ------- ----- ---- -------<br>you --- -- ----- -- --- ---- -- --- ---- -- ------ ------<br>--- ----- -- ----,73154.30000001192,73153.70000000298,72717.959,72722.70000000298,72734.624,73167.955,,39,you
screen,html.Screen,0_2_0_1_40,2021-12-13T14:28:08.240Z,,,,,,,,,,,,,,,,53,,,,,,,,,,,,,,377.8450000119192,,response,,,99,,,,,,Space,keypress(Space),,,,,---- -- ----- -- ------ - ------- --- ----------<br>------------- ------ ------ ---- ---- ------- ----- -- ----<br>-------- ------- -- ---------- --- - --- ----- ----- ----<br>---- --- --- ----- --- ---- ---- ------- ----- ---- -------<br>--- are -- ----- -- --- ---- -- --- ---- -- ------ ------<br>--- ----- -- ----,73546.40000000596,73545.80000001192,73151.29,73154.40000000596,73167.955,73551.263,,40,are
screen,html.Screen,0_2_0_1_41,2021-12-13T14:28:08.952Z,,,,,,,,,,,,,,,,53,,,,,,,,,,,,,,706.3370000089344,,response,,,99,,,,,,Space,keypress(Space),,,,,---- -- ----- -- ------ - ------- --- ----------<br>------------- ------ ------ ---- ---- ------- ----- -- ----<br>-------- ------- -- ---------- --- - --- ----- ----- ----<br>---- --- --- ----- --- ---- ---- ------- ----- ---- -------<br>--- --- as ----- -- --- ---- -- --- ---- -- ------ ------<br>--- ----- -- ----,74258.20000000298,74257.60000000894,73534.598,73546.5,73551.263,74267.875,,41,as
screen,html.Screen,0_2_0_1_42,2021-12-13T14:28:09.920Z,,,,,,,,,,,,,,,,53,,,,,,,,,,,,,,957.625,,response,,,99,,,,,,Space,keypress(Space),,,,,---- -- ----- -- ------ - ------- --- ----------<br>------------- ------ ------ ---- ---- ------- ----- -- ----<br>-------- ------- -- ---------- --- - --- ----- ----- ----<br>---- --- --- ----- --- ---- ---- ------- ----- ---- -------<br>--- --- -- close -- --- ---- -- --- ---- -- ------ ------<br>--- ----- -- ----,75226.20000000298,75225.5,74251.21,74258.30000001192,74267.875,75234.475,,42,close
screen,html.Screen,0_2_0_1_43,2021-12-13T14:28:10.280Z,,,,,,,,,,,,,,,,53,,,,,,,,,,,,,,351.0249999999942,,response,,,99,,,,,,Space,keypress(Space),,,,,---- -- ----- -- ------ - ------- --- ----------<br>------------- ------ ------ ---- ---- ------- ----- -- ----<br>-------- ------- -- ---------- --- - --- ----- ----- ----<br>---- --- --- ----- --- ---- ---- ------- ----- ---- -------<br>--- --- -- ----- as --- ---- -- --- ---- -- ------ ------<br>--- ----- -- ----,75586.10000000894,75585.5,75217.81,75226.30000001192,75234.475,75601.12,,43,as
screen,html.Screen,0_2_0_1_44,2021-12-13T14:28:10.712Z,,,,,,,,,,,,,,,,53,,,,,,,,,,,,,,416.38000000000466,,response,,,99,,,,,,Space,keypress(Space),,,,,---- -- ----- -- ------ - ------- --- ----------<br>------------- ------ ------ ---- ---- ------- ----- -- ----<br>-------- ------- -- ---------- --- - --- ----- ----- ----<br>---- --- --- ----- --- ---- ---- ------- ----- ---- -------<br>--- --- -- ----- -- you ---- -- --- ---- -- ------ ------<br>--- ----- -- ----,76018.20000000298,76017.5,75584.455,75586.30000001192,75601.12,76034.479,,44,you
screen,html.Screen,0_2_0_1_45,2021-12-13T14:28:11.176Z,,,,,,,,,,,,,,,,53,,,,,,,,,,,,,,447.12100000893406,,response,,,99,,,,,,Space,keypress(Space),,,,,---- -- ----- -- ------ - ------- --- ----------<br>------------- ------ ------ ---- ---- ------- ----- -- ----<br>-------- ------- -- ---------- --- - --- ----- ----- ----<br>---- --- --- ----- --- ---- ---- ------- ----- ---- -------<br>--- --- -- ----- -- --- want -- --- ---- -- ------ ------<br>--- ----- -- ----,76482.20000000298,76481.60000000894,76017.814,76018.30000001192,76034.479,76484.444,,45,want
screen,html.Screen,0_2_0_1_46,2021-12-13T14:28:11.544Z,,,,,,,,,,,,,,,,53,,,,,,,,,,,,,,364.9560000059573,,response,,,99,,,,,,Space,keypress(Space),,,,,---- -- ----- -- ------ - ------- --- ----------<br>------------- ------ ------ ---- ---- ------- ----- -- ----<br>-------- ------- -- ---------- --- - --- ----- ----- ----<br>---- --- --- ----- --- ---- ---- ------- ----- ---- -------<br>--- --- -- ----- -- --- ---- to --- ---- -- ------ ------<br>--- ----- -- ----,76850.10000000894,76849.40000000596,76467.779,76482.40000000596,76484.444,76851.108,,46,to
screen,html.Screen,0_2_0_1_47,2021-12-13T14:28:11.896Z,,,,,,,,,,,,,,,,53,,,,,,,,,,,,,,350.3920000000071,,response,,,99,,,,,,Space,keypress(Space),,,,,"---- -- ----- -- ------ - ------- --- ----------<br>------------- ------ ------ ---- ---- ------- ----- -- ----<br>-------- ------- -- ---------- --- - --- ----- ----- ----<br>---- --- --- ----- --- ---- ---- ------- ----- ---- -------<br>--- --- -- ----- -- --- ---- -- be, ---- -- ------ ------<br>--- ----- -- ----",77202.10000000894,77201.5,76834.443,76850.30000001192,76851.108,77217.747,,47,"be,"
screen,html.Screen,0_2_0_1_48,2021-12-13T14:28:12.232Z,,,,,,,,,,,,,,,,53,,,,,,,,,,,,,,319.752999999997,,response,,,99,,,,,,Space,keypress(Space),,,,,---- -- ----- -- ------ - ------- --- ----------<br>------------- ------ ------ ---- ---- ------- ----- -- ----<br>-------- ------- -- ---------- --- - --- ----- ----- ----<br>---- --- --- ----- --- ---- ---- ------- ----- ---- -------<br>--- --- -- ----- -- --- ---- -- --- even -- ------ ------<br>--- ----- -- ----,77538.10000000894,77537.5,77201.082,77202.20000000298,77217.747,77551.065,,48,even
screen,html.Screen,0_2_0_1_49,2021-12-13T14:28:12.536Z,,,,,,,,,,,,,,,,53,,,,,,,,,,,,,,290.33500000595814,,response,,,99,,,,,,Space,keypress(Space),,,,,---- -- ----- -- ------ - ------- --- ----------<br>------------- ------ ------ ---- ---- ------- ----- -- ----<br>-------- ------- -- ---------- --- - --- ----- ----- ----<br>---- --- --- ----- --- ---- ---- ------- ----- ---- -------<br>--- --- -- ----- -- --- ---- -- --- ---- if ------ ------<br>--- ----- -- ----,77842,77841.40000000596,77534.4,77538.30000001192,77551.065,77851.105,,49,if
screen,html.Screen,0_2_0_1_50,2021-12-13T14:28:12.928Z,,,,,,,,,,,,,,,,53,,,,,,,,,,,,,,382.29500000596454,,response,,,99,,,,,,Space,keypress(Space),,,,,---- -- ----- -- ------ - ------- --- ----------<br>------------- ------ ------ ---- ---- ------- ----- -- ----<br>-------- ------- -- ---------- --- - --- ----- ----- ----<br>---- --- --- ----- --- ---- ---- ------- ----- ---- -------<br>--- --- -- ----- -- --- ---- -- --- ---- -- that's ------<br>--- ----- -- ----,78234.10000000894,78233.40000000596,77834.439,77842.20000000298,77851.105,78250.998,,50,that's
screen,html.Screen,0_2_0_1_51,2021-12-13T14:28:13.448Z,,,,,,,,,,,,,,,,53,,,,,,,,,,,,,,502.30200001191406,,response,,,99,,,,,,Space,keypress(Space),,,,,---- -- ----- -- ------ - ------- --- ----------<br>------------- ------ ------ ---- ---- ------- ----- -- ----<br>-------- ------- -- ---------- --- - --- ----- ----- ----<br>---- --- --- ----- --- ---- ---- ------- ----- ---- -------<br>--- --- -- ----- -- --- ---- -- --- ---- -- ------ really<br>--- ----- -- ----,78753.90000000596,78753.30000001192,78234.334,78234.20000000298,78250.998,78767.662,,51,really
screen,html.Screen,0_2_0_1_52,2021-12-13T14:28:13.864Z,,,,,,,,,,,,,,,,53,,,,,,,,,,,,,,401.6380000119243,,response,,,99,,,,,,Space,keypress(Space),,,,,---- -- ----- -- ------ - ------- --- ----------<br>------------- ------ ------ ---- ---- ------- ----- -- ----<br>-------- ------- -- ---------- --- - --- ----- ----- ----<br>---- --- --- ----- --- ---- ---- ------- ----- ---- -------<br>--- --- -- ----- -- --- ---- -- --- ---- -- ------ ------<br>not ----- -- ----,79170,79169.30000001192,78750.997,78754,78767.662,79184.159,,52,not
screen,html.Screen,0_2_0_1_53,2021-12-13T14:28:14.288Z,,,,,,,,,,,,,,,,53,,,,,,,,,,,,,,409.2410000059608,,response,,,99,,,,,,Space,keypress(Space),,,,,---- -- ----- -- ------ - ------- --- ----------<br>------------- ------ ------ ---- ---- ------- ----- -- ----<br>-------- ------- -- ---------- --- - --- ----- ----- ----<br>---- --- --- ----- --- ---- ---- ------- ----- ---- -------<br>--- --- -- ----- -- --- ---- -- --- ---- -- ------ ------<br>--- close -- ----,79594.10000000894,79593.40000000596,79167.496,79170.20000000298,79184.159,79601.001,,53,close
screen,html.Screen,0_2_0_1_54,2021-12-13T14:28:14.856Z,,,,,,,,,,,,,,,,53,,,,,,,,,,,,,,560.2990000119171,,response,,,99,,,,,,Space,keypress(Space),,,,,---- -- ----- -- ------ - ------- --- ----------<br>------------- ------ ------ ---- ---- ------- ----- -- ----<br>-------- ------- -- ---------- --- - --- ----- ----- ----<br>---- --- --- ----- --- ---- ---- ------- ----- ---- -------<br>--- --- -- ----- -- --- ---- -- --- ---- -- ------ ------<br>--- ----- at ----,80161.90000000596,80161.30000001192,79584.335,79594.20000000298,79601.001,80167.652,,54,at
screen,html.Screen,0_2_0_1_55,2021-12-13T14:28:15.632Z,,,,,,,,,,,,,,,,53,,,,,,,,,,,,,,769.8479999999981,,response,,,99,,,,,,Space,keypress(Space),,,,,---- -- ----- -- ------ - ------- --- ----------<br>------------- ------ ------ ---- ---- ------- ----- -- ----<br>-------- ------- -- ---------- --- - --- ----- ----- ----<br>---- --- --- ----- --- ---- ---- ------- ----- ---- -------<br>--- --- -- ----- -- --- ---- -- --- ---- -- ------ ------<br>--- ----- -- all.,80938.20000000298,80937.5,80150.986,80162,80167.652,80950.773,,55,all.
Item 99,flow.Loop,0_2_0_1,2021-12-13T14:28:15.635Z,,,,,,,,,,,,,,,,,,,,,,,,,,,,,,31768.411999999997,,completion,,,,F,,,,,,,,,,silence,,80941,80937.5,49152.423,49156.20000000298,49169.088,80950.773,,,
Question 1,html.Screen,0_2_0_2,2021-12-13T14:28:22.314Z,,,,,,,,,,,,,,,,,,,,,,,,,,,false,FALSE,,6668.627000005959,,response,,,99,F,,,,,TRUE,click #choice-1,,,,silence,,87620.40000000596,87619.40000000596,80934.109,80941.20000000298,80950.773,87633.867,,,
Question 2,html.Screen,0_2_0_3,2021-12-13T14:28:31.491Z,,,,,,,,,,,,,,,,,,,,,,,,,,,true,TRUE,,9162.933000011923,,response,,,99,F,,,,,TRUE,click #choice-1,,,,silence,,96797.5,96796.80000001192,87617.202,87620.60000000894,87633.867,96800.021,,,
Item 99,flow.Sequence,0_2_0,2021-12-13T14:28:31.492Z,,,,,,,,,,,,,,,,,,,,,,,,,,,,,,57627.208000011924,,completion,,,,,,,,,,,,,,,,96797.80000001192,96796.80000001192,39152.927,39160.10000000894,39169.592,96800.021,,,
Holding screen,html.Screen,0_2_1_0,2021-12-13T14:28:41.478Z,,,,,,,,,,,,,,,,,,,,,,,,,,,,,,9999.58200000001,,timeout,,,,,,,,,,,,,,,,106784.30000001192,106782.938,96783.357,96798.10000000894,96800.021,106799.603,,,
screen,html.Screen,0_2_1_1_0,2021-12-13T14:28:42.335Z,,,,,,,,,,,,,,,,54,,,,,,,,,,,,,,840.6970000119181,,response,,,100,,,,,,Space,keypress(Space),,,,,At --- ---- --- ------ ----- ------- ---- -- --- ------- --<br>------- ---------- ------ -- ----- -- ----- -- ---- ------<br>--- ----- --- --- ------ -------- ----- --- ------ ----- --<br>----- ----- ---------- --- --- ------ ------ ---- -- ------<br>------- --- ------ ----- --- ---- ------- -- ---- --- --<br>------- ------,107641,107640.30000001192,106782.938,106784.5,106799.603,107649.547,,0,At
screen,html.Screen,0_2_1_1_1,2021-12-13T14:28:43.110Z,,,,,,,,,,,,,,,,54,,,,,,,,,,,,,,766.4529999999941,,response,,,100,,,,,,Space,keypress(Space),,,,,-- the ---- --- ------ ----- ------- ---- -- --- ------- --<br>------- ---------- ------ -- ----- -- ----- -- ---- ------<br>--- ----- --- --- ------ -------- ----- --- ------ ----- --<br>----- ----- ---------- --- --- ------ ------ ---- -- ------<br>------- --- ------ ----- --- ---- ------- -- ---- --- --<br>------- ------,108416.70000000298,108416,107632.882,107641.20000000298,107649.547,108432.849,,1,the
screen,html.Screen,0_2_1_1_2,2021-12-13T14:28:43.567Z,,,,,,,,,,,,,,,,54,,,,,,,,,,,,,,439.0510000059585,,response,,,100,,,,,,Space,keypress(Space),,,,,-- --- time --- ------ ----- ------- ---- -- --- ------- --<br>------- ---------- ------ -- ----- -- ----- -- ---- ------<br>--- ----- --- --- ------ -------- ----- --- ------ ----- --<br>----- ----- ---------- --- --- ------ ------ ---- -- ------<br>------- --- ------ ----- --- ---- ------- -- ---- --- --<br>------- ------,108873.30000001192,108871.90000000596,108416.184,108416.90000000596,108432.849,108882.843,,2,time
screen,html.Screen,0_2_1_1_3,2021-12-13T14:28:43.934Z,,,,,,,,,,,,,,,,54,,,,,,,,,,,,,,357.057000005967,,response,,,100,,,,,,Space,keypress(Space),,,,,-- --- ---- the ------ ----- ------- ---- -- --- ------- --<br>------- ---------- ------ -- ----- -- ----- -- ---- ------<br>--- ----- --- --- ------ -------- ----- --- ------ ----- --<br>----- ----- ---------- --- --- ------ ------ ---- -- ------<br>------- --- ------ ----- --- ---- ------- -- ---- --- --<br>------- ------,109240.40000000596,109239.90000000596,108866.178,108873.40000000596,108882.843,109249.515,,3,the
screen,html.Screen,0_2_1_1_4,2021-12-13T14:28:44.294Z,,,,,,,,,,,,,,,,54,,,,,,,,,,,,,,350.38500000596105,,response,,,100,,,,,,Space,keypress(Space),,,,,-- --- ---- --- French ----- ------- ---- -- --- ------- --<br>------- ---------- ------ -- ----- -- ----- -- ---- ------<br>--- ----- --- --- ------ -------- ----- --- ------ ----- --<br>----- ----- ---------- --- --- ------ ------ ---- -- ------<br>------- --- ------ ----- --- ---- ------- -- ---- --- --<br>------- ------,109600.60000000894,109599.90000000596,109232.85,109240.60000000894,109249.515,109616.158,,4,French
screen,html.Screen,0_2_1_1_5,2021-12-13T14:28:44.686Z,,,,,,,,,,,,,,,,54,,,,,,,,,,,,,,375.6420000119251,,response,,,100,,,,,,Space,keypress(Space),,,,,-- --- ---- --- ------ crown ------- ---- -- --- ------- --<br>------- ---------- ------ -- ----- -- ----- -- ---- ------<br>--- ----- --- --- ------ -------- ----- --- ------ ----- --<br>----- ----- ---------- --- --- ------ ------ ---- -- ------<br>------- --- ------ ----- --- ---- ------- -- ---- --- --<br>------- ------,109992.5,109991.80000001192,109599.493,109600.70000000298,109616.158,109999.458,,5,crown
screen,html.Screen,0_2_1_1_6,2021-12-13T14:28:45.102Z,,,,,,,,,,,,,,,,54,,,,,,,,,,,,,,408.44200000596175,,response,,,100,,,,,,Space,keypress(Space),,,,,-- --- ---- --- ------ ----- secured ---- -- --- ------- --<br>------- ---------- ------ -- ----- -- ----- -- ---- ------<br>--- ----- --- --- ------ -------- ----- --- ------ ----- --<br>----- ----- ---------- --- --- ------ ------ ---- -- ------<br>------- --- ------ ----- --- ---- ------- -- ---- --- --<br>------- ------,110408.40000000596,110407.90000000596,109982.793,109992.60000000894,109999.458,110416.152,,6,secured
screen,html.Screen,0_2_1_1_7,2021-12-13T14:28:45.558Z,,,,,,,,,,,,,,,,54,,,,,,,,,,,,,,447.64800001191907,,response,,,100,,,,,,Space,keypress(Space),,,,,-- --- ---- --- ------ ----- ------- much -- --- ------- --<br>------- ---------- ------ -- ----- -- ----- -- ---- ------<br>--- ----- --- --- ------ -------- ----- --- ------ ----- --<br>----- ----- ---------- --- --- ------ ------ ---- -- ------<br>------- --- ------ ----- --- ---- ------- -- ---- --- --<br>------- ------,110864.40000000596,110863.80000001192,110399.486,110408.70000000298,110416.152,110866.043,,7,much
screen,html.Screen,0_2_1_1_8,2021-12-13T14:28:45.942Z,,,,,,,,,,,,,,,,54,,,,,,,,,,,,,,381.7570000119158,,response,,,100,,,,,,Space,keypress(Space),,,,,-- --- ---- --- ------ ----- ------- ---- of --- ------- --<br>------- ---------- ------ -- ----- -- ----- -- ---- ------<br>--- ----- --- --- ------ -------- ----- --- ------ ----- --<br>----- ----- ---------- --- --- ------ ------ ---- -- ------<br>------- --- ------ ----- --- ---- ------- -- ---- --- --<br>------- ------,111248.30000001192,111247.80000001192,110849.379,110864.5,110866.043,111249.433,,8,of
screen,html.Screen,0_2_1_1_9,2021-12-13T14:28:46.366Z,,,,,,,,,,,,,,,,54,,,,,,,,,,,,,,422.4670000059559,,response,,,100,,,,,,Space,keypress(Space),,,,,-- --- ---- --- ------ ----- ------- ---- -- its ------- --<br>------- ---------- ------ -- ----- -- ----- -- ---- ------<br>--- ----- --- --- ------ -------- ----- --- ------ ----- --<br>----- ----- ---------- --- --- ------ ------ ---- -- ------<br>------- --- ------ ----- --- ---- ------- -- ---- --- --<br>------- ------,111672.40000000596,111671.90000000596,111232.767,111248.60000000894,111249.433,111682.72,,9,its
screen,html.Screen,0_2_1_1_10,2021-12-13T14:28:46.862Z,,,,,,,,,,,,,,,,54,,,,,,,,,,,,,,484.98000000297907,,response,,,100,,,,,,Space,keypress(Space),,,,,-- --- ---- --- ------ ----- ------- ---- -- --- revenue --<br>------- ---------- ------ -- ----- -- ----- -- ---- ------<br>--- ----- --- --- ------ -------- ----- --- ------ ----- --<br>----- ----- ---------- --- --- ------ ------ ---- -- ------<br>------- --- ------ ----- --- ---- ------- -- ---- --- --<br>------- ------,112168.40000000596,112167.70000000298,111666.055,111672.60000000894,111682.72,112182.601,,10,revenue
screen,html.Screen,0_2_1_1_11,2021-12-13T14:28:47.318Z,,,,,,,,,,,,,,,,54,,,,,,,,,,,,,,441.1990000119258,,response,,,100,,,,,,Space,keypress(Space),,,,,-- --- ---- --- ------ ----- ------- ---- -- --- ------- by<br>------- ---------- ------ -- ----- -- ----- -- ---- ------<br>--- ----- --- --- ------ -------- ----- --- ------ ----- --<br>----- ----- ---------- --- --- ------ ------ ---- -- ------<br>------- --- ------ ----- --- ---- ------- -- ---- --- --<br>------- ------,112624.40000000596,112623.80000001192,112165.937,112168.5,112182.601,112632.699,,11,by
screen,html.Screen,0_2_1_1_12,2021-12-13T14:28:47.750Z,,,,,,,,,,,,,,,,54,,,,,,,,,,,,,,423.001000002987,,response,,,100,,,,,,Space,keypress(Space),,,,,-- --- ---- --- ------ ----- ------- ---- -- --- ------- --<br>issuing ---------- ------ -- ----- -- ----- -- ---- ------<br>--- ----- --- --- ------ -------- ----- --- ------ ----- --<br>----- ----- ---------- --- --- ------ ------ ---- -- ------<br>------- --- ------ ----- --- ---- ------- -- ---- --- --<br>------- ------,113056.30000001192,113055.70000000298,112616.033,112624.60000000894,112632.699,113065.981,,12,issuing
screen,html.Screen,0_2_1_1_13,2021-12-13T14:28:48.110Z,,,,,,,,,,,,,,,,54,,,,,,,,,,,,,,349.71900000298047,,response,,,100,,,,,,Space,keypress(Space),,,,,-- --- ---- --- ------ ----- ------- ---- -- --- ------- --<br>------- government ------ -- ----- -- ----- -- ---- ------<br>--- ----- --- --- ------ -------- ----- --- ------ ----- --<br>----- ----- ---------- --- --- ------ ------ ---- -- ------<br>------- --- ------ ----- --- ---- ------- -- ---- --- --<br>------- ------,113416.40000000596,113415.70000000298,113049.316,113056.60000000894,113065.981,113432.575,,13,government
screen,html.Screen,0_2_1_1_14,2021-12-13T14:28:49.030Z,,,,,,,,,,,,,,,,54,,,,,,,,,,,,,,903.1250000029831,,response,,,100,,,,,,Space,keypress(Space),,,,,-- --- ---- --- ------ ----- ------- ---- -- --- ------- --<br>------- ---------- bonds. -- ----- -- ----- -- ---- ------<br>--- ----- --- --- ------ -------- ----- --- ------ ----- --<br>----- ----- ---------- --- --- ------ ------ ---- -- ------<br>------- --- ------ ----- --- ---- ------- -- ---- --- --<br>------- ------,114336.30000001192,114335.70000000298,113415.911,113416.70000000298,113432.575,114349.29,,14,bonds.
screen,html.Screen,0_2_1_1_15,2021-12-13T14:28:49.518Z,,,,,,,,,,,,,,,,54,,,,,,,,,,,,,,474.3100000089471,,response,,,100,,,,,,Space,keypress(Space),,,,,-- --- ---- --- ------ ----- ------- ---- -- --- ------- --<br>------- ---------- ------ In ----- -- ----- -- ---- ------<br>--- ----- --- --- ------ -------- ----- --- ------ ----- --<br>----- ----- ---------- --- --- ------ ------ ---- -- ------<br>------- --- ------ ----- --- ---- ------- -- ---- --- --<br>------- ------,114824.20000000298,114823.60000000894,114332.624,114336.5,114349.29,114832.569,,15,In
screen,html.Screen,0_2_1_1_16,2021-12-13T14:28:50.630Z,,,,,,,,,,,,,,,,54,,,,,,,,,,,,,,1103.0310000089376,,response,,,100,,,,,,Space,keypress(Space),,,,,"-- --- ---- --- ------ ----- ------- ---- -- --- ------- --<br>------- ---------- ------ -- 1727, -- ----- -- ---- ------<br>--- ----- --- --- ------ -------- ----- --- ------ ----- --<br>----- ----- ---------- --- --- ------ ------ ---- -- ------<br>------- --- ------ ----- --- ---- ------- -- ---- --- --<br>------- ------",115936.20000000298,115935.60000000894,114815.904,114824.40000000596,114832.569,115949.137,,16,"1727,"
screen,html.Screen,0_2_1_1_17,2021-12-13T14:28:51.158Z,,,,,,,,,,,,,,,,54,,,,,,,,,,,,,,514.4630000089383,,response,,,100,,,,,,Space,keypress(Space),,,,,-- --- ---- --- ------ ----- ------- ---- -- --- ------- --<br>------- ---------- ------ -- ----- in ----- -- ---- ------<br>--- ----- --- --- ------ -------- ----- --- ------ ----- --<br>----- ----- ---------- --- --- ------ ------ ---- -- ------<br>------- --- ------ ----- --- ---- ------- -- ---- --- --<br>------- ------,116464.20000000298,116463.60000000894,115932.472,115936.40000000596,115949.137,116465.799,,17,in
screen,html.Screen,0_2_1_1_18,2021-12-13T14:28:51.694Z,,,,,,,,,,,,,,,,54,,,,,,,,,,,,,,533.7010000000009,,response,,,100,,,,,,Space,keypress(Space),,,,,-- --- ---- --- ------ ----- ------- ---- -- --- ------- --<br>------- ---------- ------ -- ----- -- order -- ---- ------<br>--- ----- --- --- ------ -------- ----- --- ------ ----- --<br>----- ----- ---------- --- --- ------ ------ ---- -- ------<br>------- --- ------ ----- --- ---- ------- -- ---- --- --<br>------- ------,117000.20000000298,116999.5,116449.134,116464.40000000596,116465.799,117015.775,,18,order
screen,html.Screen,0_2_1_1_19,2021-12-13T14:28:52.102Z,,,,,,,,,,,,,,,,54,,,,,,,,,,,,,,391.7250000000058,,response,,,100,,,,,,Space,keypress(Space),,,,,-- --- ---- --- ------ ----- ------- ---- -- --- ------- --<br>------- ---------- ------ -- ----- -- ----- to ---- ------<br>--- ----- --- --- ------ -------- ----- --- ------ ----- --<br>----- ----- ---------- --- --- ------ ------ ---- -- ------<br>------- --- ------ ----- --- ---- ------- -- ---- --- --<br>------- ------,117408.10000000894,117407.5,116999.11,117000.40000000596,117015.775,117415.698,,19,to
screen,html.Screen,0_2_1_1_20,2021-12-13T14:28:52.702Z,,,,,,,,,,,,,,,,54,,,,,,,,,,,,,,591.9020000089367,,response,,,100,,,,,,Space,keypress(Space),,,,,-- --- ---- --- ------ ----- ------- ---- -- --- ------- --<br>------- ---------- ------ -- ----- -- ----- -- save ------<br>--- ----- --- --- ------ -------- ----- --- ------ ----- --<br>----- ----- ---------- --- --- ------ ------ ---- -- ------<br>------- --- ------ ----- --- ---- ------- -- ---- --- --<br>------- ------,118008.30000001192,118007.60000000894,117399.034,117408.30000001192,117415.698,118015.783,,20,save
screen,html.Screen,0_2_1_1_21,2021-12-13T14:28:53.038Z,,,,,,,,,,,,,,,,54,,,,,,,,,,,,,,327.7170000000042,,response,,,100,,,,,,Space,keypress(Space),,,,,"-- --- ---- --- ------ ----- ------- ---- -- --- ------- --<br>------- ---------- ------ -- ----- -- ----- -- ---- money,<br>--- ----- --- --- ------ -------- ----- --- ------ ----- --<br>----- ----- ---------- --- --- ------ ------ ---- -- ------<br>------- --- ------ ----- --- ---- ------- -- ---- --- --<br>------- ------",118344.10000000894,118343.5,117999.117,118008.5,118015.783,118349.054,,21,"money,"
screen,html.Screen,0_2_1_1_22,2021-12-13T14:28:53.454Z,,,,,,,,,,,,,,,,54,,,,,,,,,,,,,,410.34600000595674,,response,,,100,,,,,,Space,keypress(Space),,,,,-- --- ---- --- ------ ----- ------- ---- -- --- ------- --<br>------- ---------- ------ -- ----- -- ----- -- ---- ------<br>the ----- --- --- ------ -------- ----- --- ------ ----- --<br>----- ----- ---------- --- --- ------ ------ ---- -- ------<br>------- --- ------ ----- --- ---- ------- -- ---- --- --<br>------- ------,118760,118759.40000000596,118332.389,118344.20000000298,118349.054,118765.7,,22,the
screen,html.Screen,0_2_1_1_23,2021-12-13T14:28:53.846Z,,,,,,,,,,,,,,,,54,,,,,,,,,,,,,,385.7000000059634,,response,,,100,,,,,,Space,keypress(Space),,,,,-- --- ---- --- ------ ----- ------- ---- -- --- ------- --<br>------- ---------- ------ -- ----- -- ----- -- ---- ------<br>--- state --- --- ------ -------- ----- --- ------ ----- --<br>----- ----- ---------- --- --- ------ ------ ---- -- ------<br>------- --- ------ ----- --- ---- ------- -- ---- --- --<br>------- ------,119151.90000000596,119151.40000000596,118749.035,118760.20000000298,118765.7,119165.678,,23,state
screen,html.Screen,0_2_1_1_24,2021-12-13T14:28:54.326Z,,,,,,,,,,,,,,,,54,,,,,,,,,,,,,,465.7220000059606,,response,,,100,,,,,,Space,keypress(Space),,,,,-- --- ---- --- ------ ----- ------- ---- -- --- ------- --<br>------- ---------- ------ -- ----- -- ----- -- ---- ------<br>--- ----- cut --- ------ -------- ----- --- ------ ----- --<br>----- ----- ---------- --- --- ------ ------ ---- -- ------<br>------- --- ------ ----- --- ---- ------- -- ---- --- --<br>------- ------,119632,119631.40000000596,119149.013,119152.10000000894,119165.678,119648.993,,24,cut
screen,html.Screen,0_2_1_1_25,2021-12-13T14:28:54.750Z,,,,,,,,,,,,,,,,54,,,,,,,,,,,,,,406.3070000119187,,response,,,100,,,,,,Space,keypress(Space),,,,,-- --- ---- --- ------ ----- ------- ---- -- --- ------- --<br>------- ---------- ------ -- ----- -- ----- -- ---- ------<br>--- ----- --- the ------ -------- ----- --- ------ ----- --<br>----- ----- ---------- --- --- ------ ------ ---- -- ------<br>------- --- ------ ----- --- ---- ------- -- ---- --- --<br>------- ------,120056,120055.30000001192,119632.328,119632.20000000298,119648.993,120065.633,,25,the
screen,html.Screen,0_2_1_1_26,2021-12-13T14:28:55.152Z,,,,,,,,,,,,,,,,54,,,,,,,,,,,,,,389.6670000119193,,response,,,100,,,,,,Space,keypress(Space),,,,,-- --- ---- --- ------ ----- ------- ---- -- --- ------- --<br>------- ---------- ------ -- ----- -- ----- -- ---- ------<br>--- ----- --- --- bonds' -------- ----- --- ------ ----- --<br>----- ----- ---------- --- --- ------ ------ ---- -- ------<br>------- --- ------ ----- --- ---- ------- -- ---- --- --<br>------- ------,120456,120455.30000001192,120048.968,120056.10000000894,120065.633,120465.52,,26,bonds'
screen,html.Screen,0_2_1_1_27,2021-12-13T14:28:55.616Z,,,,,,,,,,,,,,,,54,,,,,,,,,,,,,,453.78000001191685,,response,,,100,,,,,,Space,keypress(Space),,,,,-- --- ---- --- ------ ----- ------- ---- -- --- ------- --<br>------- ---------- ------ -- ----- -- ----- -- ---- ------<br>--- ----- --- --- ------ interest ----- --- ------ ----- --<br>----- ----- ---------- --- --- ------ ------ ---- -- ------<br>------- --- ------ ----- --- ---- ------- -- ---- --- --<br>------- ------,120919.90000000596,120919.30000001192,120448.856,120456.20000000298,120465.52,120932.345,,27,interest
screen,html.Screen,0_2_1_1_28,2021-12-13T14:28:56.032Z,,,,,,,,,,,,,,,,54,,,,,,,,,,,,,,402.85500000297907,,response,,,100,,,,,,Space,keypress(Space),,,,,-- --- ---- --- ------ ----- ------- ---- -- --- ------- --<br>------- ---------- ------ -- ----- -- ----- -- ---- ------<br>--- ----- --- --- ------ -------- rate. --- ------ ----- --<br>----- ----- ---------- --- --- ------ ------ ---- -- ------<br>------- --- ------ ----- --- ---- ------- -- ---- --- --<br>------- ------,121335.90000000596,121335.20000000298,120915.678,120920.10000000894,120932.345,121348.835,,28,rate.
screen,html.Screen,0_2_1_1_29,2021-12-13T14:28:56.512Z,,,,,,,,,,,,,,,,54,,,,,,,,,,,,,,466.4650000119145,,response,,,100,,,,,,Space,keypress(Space),,,,,-- --- ---- --- ------ ----- ------- ---- -- --- ------- --<br>------- ---------- ------ -- ----- -- ----- -- ---- ------<br>--- ----- --- --- ------ -------- ----- The ------ ----- --<br>----- ----- ---------- --- --- ------ ------ ---- -- ------<br>------- --- ------ ----- --- ---- ------- -- ---- --- --<br>------- ------,121815.90000000596,121815.30000001192,121332.171,121336,121348.835,121832.265,,29,The
screen,html.Screen,0_2_1_1_30,2021-12-13T14:28:56.920Z,,,,,,,,,,,,,,,,54,,,,,,,,,,,,,,390.9350000029808,,response,,,100,,,,,,Space,keypress(Space),,,,,-- --- ---- --- ------ ----- ------- ---- -- --- ------- --<br>------- ---------- ------ -- ----- -- ----- -- ---- ------<br>--- ----- --- --- ------ -------- ----- --- market ----- --<br>----- ----- ---------- --- --- ------ ------ ---- -- ------<br>------- --- ------ ----- --- ---- ------- -- ---- --- --<br>------- ------,122223.90000000596,122223.20000000298,121815.599,121816.10000000894,121832.265,122232.199,,30,market
screen,html.Screen,0_2_1_1_31,2021-12-13T14:28:57.320Z,,,,,,,,,,,,,,,,54,,,,,,,,,,,,,,391.001000002987,,response,,,100,,,,,,Space,keypress(Space),,,,,-- --- ---- --- ------ ----- ------- ---- -- --- ------- --<br>------- ---------- ------ -- ----- -- ----- -- ---- ------<br>--- ----- --- --- ------ -------- ----- --- ------ value --<br>----- ----- ---------- --- --- ------ ------ ---- -- ------<br>------- --- ------ ----- --- ---- ------- -- ---- --- --<br>------- ------,122623.90000000596,122623.20000000298,122215.534,122224.10000000894,122232.199,122632.161,,31,value
screen,html.Screen,0_2_1_1_32,2021-12-13T14:28:57.736Z,,,,,,,,,,,,,,,,54,,,,,,,,,,,,,,407.03900000298745,,response,,,100,,,,,,Space,keypress(Space),,,,,-- --- ---- --- ------ ----- ------- ---- -- --- ------- --<br>------- ---------- ------ -- ----- -- ----- -- ---- ------<br>--- ----- --- --- ------ -------- ----- --- ------ ----- of<br>----- ----- ---------- --- --- ------ ------ ---- -- ------<br>------- --- ------ ----- --- ---- ------- -- ---- --- --<br>------- ------,123039.80000001192,123039.20000000298,122615.496,122624.10000000894,122632.161,123048.825,,32,of
screen,html.Screen,0_2_1_1_33,2021-12-13T14:28:58.152Z,,,,,,,,,,,,,,,,54,,,,,,,,,,,,,,406.37500000298314,,response,,,100,,,,,,Space,keypress(Space),,,,,-- --- ---- --- ------ ----- ------- ---- -- --- ------- --<br>------- ---------- ------ -- ----- -- ----- -- ---- ------<br>--- ----- --- --- ------ -------- ----- --- ------ ----- --<br>these ----- ---------- --- --- ------ ------ ---- -- ------<br>------- --- ------ ----- --- ---- ------- -- ---- --- --<br>------- ------,123455.90000000596,123455.20000000298,123032.16,123039.90000000596,123048.825,123465.471,,33,these
screen,html.Screen,0_2_1_1_34,2021-12-13T14:28:58.528Z,,,,,,,,,,,,,,,,54,,,,,,,,,,,,,,365.8290000119159,,response,,,100,,,,,,Space,keypress(Space),,,,,-- --- ---- --- ------ ----- ------- ---- -- --- ------- --<br>------- ---------- ------ -- ----- -- ----- -- ---- ------<br>--- ----- --- --- ------ -------- ----- --- ------ ----- --<br>----- bonds ---------- --- --- ------ ------ ---- -- ------<br>------- --- ------ ----- --- ---- ------- -- ---- --- --<br>------- ------,123831.90000000596,123831.30000001192,123448.806,123456,123465.471,123848.787,,34,bonds
screen,html.Screen,0_2_1_1_35,2021-12-13T14:28:58.896Z,,,,,,,,,,,,,,,,54,,,,,,,,,,,,,,350.4130000029836,,response,,,100,,,,,,Space,keypress(Space),,,,,"-- --- ---- --- ------ ----- ------- ---- -- --- ------- --<br>------- ---------- ------ -- ----- -- ----- -- ---- ------<br>--- ----- --- --- ------ -------- ----- --- ------ ----- --<br>----- ----- plummeted, --- --- ------ ------ ---- -- ------<br>------- --- ------ ----- --- ---- ------- -- ---- --- --<br>------- ------",124199.90000000596,124199.20000000298,123832.122,123832,123848.787,124215.448,,35,"plummeted,"
screen,html.Screen,0_2_1_1_36,2021-12-13T14:28:59.368Z,,,,,,,,,,,,,,,,54,,,,,,,,,,,,,,455.7520000029763,,response,,,100,,,,,,Space,keypress(Space),,,,,-- --- ---- --- ------ ----- ------- ---- -- --- ------- --<br>------- ---------- ------ -- ----- -- ----- -- ---- ------<br>--- ----- --- --- ------ -------- ----- --- ------ ----- --<br>----- ----- ---------- and --- ------ ------ ---- -- ------<br>------- --- ------ ----- --- ---- ------- -- ---- --- --<br>------- ------,124671.80000001192,124671.20000000298,124198.783,124200,124215.448,124682.077,,36,and
screen,html.Screen,0_2_1_1_37,2021-12-13T14:28:59.696Z,,,,,,,,,,,,,,,,54,,,,,,,,,,,,,,317.12300000297546,,response,,,100,,,,,,Space,keypress(Space),,,,,-- --- ---- --- ------ ----- ------- ---- -- --- ------- --<br>------- ---------- ------ -- ----- -- ----- -- ---- ------<br>--- ----- --- --- ------ -------- ----- --- ------ ----- --<br>----- ----- ---------- --- the ------ ------ ---- -- ------<br>------- --- ------ ----- --- ---- ------- -- ---- --- --<br>------- ------,124999.80000001192,124999.20000000298,124665.412,124671.90000000596,124682.077,125015.413,,37,the
screen,html.Screen,0_2_1_1_38,2021-12-13T14:29:00.128Z,,,,,,,,,,,,,,,,54,,,,,,,,,,,,,,415.68700000894023,,response,,,100,,,,,,Space,keypress(Space),,,,,-- --- ---- --- ------ ----- ------- ---- -- --- ------- --<br>------- ---------- ------ -- ----- -- ----- -- ---- ------<br>--- ----- --- --- ------ -------- ----- --- ------ ----- --<br>----- ----- ---------- --- --- market ------ ---- -- ------<br>------- --- ------ ----- --- ---- ------- -- ---- --- --<br>------- ------,125431.70000000298,125431.10000000894,124998.748,125000,125015.413,125448.707,,38,market
screen,html.Screen,0_2_1_1_39,2021-12-13T14:29:00.512Z,,,,,,,,,,,,,,,,54,,,,,,,,,,,,,,366.2930000000051,,response,,,100,,,,,,Space,keypress(Space),,,,,-- --- ---- --- ------ ----- ------- ---- -- --- ------- --<br>------- ---------- ------ -- ----- -- ----- -- ---- ------<br>--- ----- --- --- ------ -------- ----- --- ------ ----- --<br>----- ----- ---------- --- --- ------ became ---- -- ------<br>------- --- ------ ----- --- ---- ------- -- ---- --- --<br>------- ------,125815.70000000298,125815,125432.042,125432,125448.707,125832.035,,39,became
screen,html.Screen,0_2_1_1_40,2021-12-13T14:29:00.856Z,,,,,,,,,,,,,,,,54,,,,,,,,,,,,,,326.9649999999965,,response,,,100,,,,,,Space,keypress(Space),,,,,-- --- ---- --- ------ ----- ------- ---- -- --- ------- --<br>------- ---------- ------ -- ----- -- ----- -- ---- ------<br>--- ----- --- --- ------ -------- ----- --- ------ ----- --<br>----- ----- ---------- --- --- ------ ------ wary -- ------<br>------- --- ------ ----- --- ---- ------- -- ---- --- --<br>------- ------,126159.60000000894,126159,125815.37,125815.80000001192,125832.035,126165.344,,40,wary
screen,html.Screen,0_2_1_1_41,2021-12-13T14:29:01.216Z,,,,,,,,,,,,,,,,54,,,,,,,,,,,,,,353.7560000089434,,response,,,100,,,,,,Space,keypress(Space),,,,,-- --- ---- --- ------ ----- ------- ---- -- --- ------- --<br>------- ---------- ------ -- ----- -- ----- -- ---- ------<br>--- ----- --- --- ------ -------- ----- --- ------ ----- --<br>----- ----- ---------- --- --- ------ ------ ---- of ------<br>------- --- ------ ----- --- ---- ------- -- ---- --- --<br>------- ------,126519.80000001192,126519.10000000894,126148.679,126159.80000001192,126165.344,126531.986,,41,of
screen,html.Screen,0_2_1_1_42,2021-12-13T14:29:01.656Z,,,,,,,,,,,,,,,,54,,,,,,,,,,,,,,427.0139999999956,,response,,,100,,,,,,Space,keypress(Space),,,,,-- --- ---- --- ------ ----- ------- ---- -- --- ------- --<br>------- ---------- ------ -- ----- -- ----- -- ---- ------<br>--- ----- --- --- ------ -------- ----- --- ------ ----- --<br>----- ----- ---------- --- --- ------ ------ ---- -- French<br>------- --- ------ ----- --- ---- ------- -- ---- --- --<br>------- ------,126959.60000000894,126959,126515.321,126519.90000000596,126531.986,126965.289,,42,French
screen,html.Screen,0_2_1_1_43,2021-12-13T14:29:02.048Z,,,,,,,,,,,,,,,,54,,,,,,,,,,,,,,385.7109999999957,,response,,,100,,,,,,Space,keypress(Space),,,,,-- --- ---- --- ------ ----- ------- ---- -- --- ------- --<br>------- ---------- ------ -- ----- -- ----- -- ---- ------<br>--- ----- --- --- ------ -------- ----- --- ------ ----- --<br>----- ----- ---------- --- --- ------ ------ ---- -- ------<br>credit. --- ------ ----- --- ---- ------- -- ---- --- --<br>------- ------,127351.60000000894,127351,126948.624,126959.70000000298,126965.289,127365.288,,43,credit.
screen,html.Screen,0_2_1_1_44,2021-12-13T14:29:02.464Z,,,,,,,,,,,,,,,,54,,,,,,,,,,,,,,401.61200000596,,response,,,100,,,,,,Space,keypress(Space),,,,,-- --- ---- --- ------ ----- ------- ---- -- --- ------- --<br>------- ---------- ------ -- ----- -- ----- -- ---- ------<br>--- ----- --- --- ------ -------- ----- --- ------ ----- --<br>----- ----- ---------- --- --- ------ ------ ---- -- ------<br>------- The ------ ----- --- ---- ------- -- ---- --- --<br>------- ------,127767.60000000894,127766.90000000596,127348.623,127351.70000000298,127365.288,127781.922,,44,The
screen,html.Screen,0_2_1_1_45,2021-12-13T14:29:02.904Z,,,,,,,,,,,,,,,,54,,,,,,,,,,,,,,425.17800000893476,,response,,,100,,,,,,Space,keypress(Space),,,,,-- --- ---- --- ------ ----- ------- ---- -- --- ------- --<br>------- ---------- ------ -- ----- -- ----- -- ---- ------<br>--- ----- --- --- ------ -------- ----- --- ------ ----- --<br>----- ----- ---------- --- --- ------ ------ ---- -- ------<br>------- --- French ----- --- ---- ------- -- ---- --- --<br>------- ------,128207.80000001192,128207.10000000894,127765.257,127767.70000000298,127781.922,128215.232,,45,French
screen,html.Screen,0_2_1_1_46,2021-12-13T14:29:03.336Z,,,,,,,,,,,,,,,,54,,,,,,,,,,,,,,423.7679999999964,,response,,,100,,,,,,Space,keypress(Space),,,,,-- --- ---- --- ------ ----- ------- ---- -- --- ------- --<br>------- ---------- ------ -- ----- -- ----- -- ---- ------<br>--- ----- --- --- ------ -------- ----- --- ------ ----- --<br>----- ----- ---------- --- --- ------ ------ ---- -- ------<br>------- --- ------ state --- ---- ------- -- ---- --- --<br>------- ------,128639.60000000894,128639,128198.567,128208,128215.232,128648.554,,46,state
screen,html.Screen,0_2_1_1_47,2021-12-13T14:29:03.776Z,,,,,,,,,,,,,,,,54,,,,,,,,,,,,,,430.34600000595674,,response,,,100,,,,,,Space,keypress(Space),,,,,-- --- ---- --- ------ ----- ------- ---- -- --- ------- --<br>------- ---------- ------ -- ----- -- ----- -- ---- ------<br>--- ----- --- --- ------ -------- ----- --- ------ ----- --<br>----- ----- ---------- --- --- ------ ------ ---- -- ------<br>------- --- ------ ----- was ---- ------- -- ---- --- --<br>------- ------,129079.60000000894,129078.90000000596,128631.889,128639.80000001192,128648.554,129081.868,,47,was
screen,html.Screen,0_2_1_1_48,2021-12-13T14:29:04.248Z,,,,,,,,,,,,,,,,54,,,,,,,,,,,,,,469.03200000595825,,response,,,100,,,,,,Space,keypress(Space),,,,,-- --- ---- --- ------ ----- ------- ---- -- --- ------- --<br>------- ---------- ------ -- ----- -- ----- -- ---- ------<br>--- ----- --- --- ------ -------- ----- --- ------ ----- --<br>----- ----- ---------- --- --- ------ ------ ---- -- ------<br>------- --- ------ ----- --- left ------- -- ---- --- --<br>------- ------,129551.5,129550.90000000596,129065.203,129079.70000000298,129081.868,129565.167,,48,left
screen,html.Screen,0_2_1_1_49,2021-12-13T14:29:04.720Z,,,,,,,,,,,,,,,,54,,,,,,,,,,,,,,457.7330000059592,,response,,,100,,,,,,Space,keypress(Space),,,,,-- --- ---- --- ------ ----- ------- ---- -- --- ------- --<br>------- ---------- ------ -- ----- -- ----- -- ---- ------<br>--- ----- --- --- ------ -------- ----- --- ------ ----- --<br>----- ----- ---------- --- --- ------ ------ ---- -- ------<br>------- --- ------ ----- --- ---- without -- ---- --- --<br>------- ------,130023.40000000596,130022.90000000596,129548.502,129551.70000000298,129565.167,130031.812,,49,without
screen,html.Screen,0_2_1_1_50,2021-12-13T14:29:05.200Z,,,,,,,,,,,,,,,,54,,,,,,,,,,,,,,470.9880000119156,,response,,,100,,,,,,Space,keypress(Space),,,,,-- --- ---- --- ------ ----- ------- ---- -- --- ------- --<br>------- ---------- ------ -- ----- -- ----- -- ---- ------<br>--- ----- --- --- ------ -------- ----- --- ------ ----- --<br>----- ----- ---------- --- --- ------ ------ ---- -- ------<br>------- --- ------ ----- --- ---- ------- an ---- --- --<br>------- ------,130503.5,130502.80000001192,130015.147,130023.60000000894,130031.812,130515.116,,50,an
screen,html.Screen,0_2_1_1_51,2021-12-13T14:29:05.712Z,,,,,,,,,,,,,,,,54,,,,,,,,,,,,,,499.6840000119264,,response,,,100,,,,,,Space,keypress(Space),,,,,-- --- ---- --- ------ ----- ------- ---- -- --- ------- --<br>------- ---------- ------ -- ----- -- ----- -- ---- ------<br>--- ----- --- --- ------ -------- ----- --- ------ ----- --<br>----- ----- ---------- --- --- ------ ------ ---- -- ------<br>------- --- ------ ----- --- ---- ------- -- easy --- --<br>------- ------,131015.40000000596,131014.80000001192,130498.451,130503.60000000894,130515.116,131031.769,,51,easy
screen,html.Screen,0_2_1_1_52,2021-12-13T14:29:06.160Z,,,,,,,,,,,,,,,,54,,,,,,,,,,,,,,431.0310000119207,,response,,,100,,,,,,Space,keypress(Space),,,,,-- --- ---- --- ------ ----- ------- ---- -- --- ------- --<br>------- ---------- ------ -- ----- -- ----- -- ---- ------<br>--- ----- --- --- ------ -------- ----- --- ------ ----- --<br>----- ----- ---------- --- --- ------ ------ ---- -- ------<br>------- --- ------ ----- --- ---- ------- -- ---- way --<br>------- ------,131463.5,131462.80000001192,131015.104,131015.5,131031.769,131465.07,,52,way
screen,html.Screen,0_2_1_1_53,2021-12-13T14:29:06.640Z,,,,,,,,,,,,,,,,54,,,,,,,,,,,,,,477.63000000297325,,response,,,100,,,,,,Space,keypress(Space),,,,,-- --- ---- --- ------ ----- ------- ---- -- --- ------- --<br>------- ---------- ------ -- ----- -- ----- -- ---- ------<br>--- ----- --- --- ------ -------- ----- --- ------ ----- --<br>----- ----- ---------- --- --- ------ ------ ---- -- ------<br>------- --- ------ ----- --- ---- ------- -- ---- --- of<br>------- ------,131943.5,131942.70000000298,131448.405,131463.60000000894,131465.07,131948.379,,53,of
screen,html.Screen,0_2_1_1_54,2021-12-13T14:29:07.152Z,,,,,,,,,,,,,,,,54,,,,,,,,,,,,,,506.32100000299397,,response,,,100,,,,,,Space,keypress(Space),,,,,-- --- ---- --- ------ ----- ------- ---- -- --- ------- --<br>------- ---------- ------ -- ----- -- ----- -- ---- ------<br>--- ----- --- --- ------ -------- ----- --- ------ ----- --<br>----- ----- ---------- --- --- ------ ------ ---- -- ------<br>------- --- ------ ----- --- ---- ------- -- ---- --- --<br>raising ------,132455.40000000596,132454.70000000298,131931.714,131943.60000000894,131948.379,132465.019,,54,raising
screen,html.Screen,0_2_1_1_55,2021-12-13T14:29:08.144Z,,,,,,,,,,,,,,,,54,,,,,,,,,,,,,,981.7810000119207,,response,,,100,,,,,,Space,keypress(Space),,,,,-- --- ---- --- ------ ----- ------- ---- -- --- ------- --<br>------- ---------- ------ -- ----- -- ----- -- ---- ------<br>--- ----- --- --- ------ -------- ----- --- ------ ----- --<br>----- ----- ---------- --- --- ------ ------ ---- -- ------<br>------- --- ------ ----- --- ---- ------- -- ---- --- --<br>------- money.,133447.40000000596,133446.80000001192,132448.354,132455.60000000894,132465.019,133464.942,,55,money.
Item 100,flow.Loop,0_2_1_1,2021-12-13T14:29:08.144Z,,,,,,,,,,,,,,,,,,,,,,,,,,,,,,26647.197000011918,,completion,,,,F,,,,,,,,,,silence,,133447.70000000298,133446.80000001192,106782.938,106784.40000000596,106799.603,133464.942,,,
Question 1,html.Screen,0_2_1_2,2021-12-13T14:29:12.672Z,,,,,,,,,,,,,,,,,,,,,,,,,,,true,TRUE,,4509.95800000595,,response,,,100,F,,,,,TRUE,click #choice-1,,,,silence,,137975.80000001192,137974.90000000596,133448.277,133447.80000001192,133464.942,137981.367,,,
Question 2,html.Screen,0_2_1_3,2021-12-13T14:29:15.247Z,,,,,,,,,,,,,,,,,,,,,,,,,,,true,FALSE,,2568.6330000000016,,response,,,100,F,,,,,FALSE,click #choice-2,,,,silence,,140550.80000001192,140550,137964.702,137976,137981.367,140564.624,,,
Item 100,flow.Sequence,0_2_1,2021-12-13T14:29:15.247Z,,,,,,,,,,,,,,,,,,,,,,,,,,,,,,43749.97900000001,,completion,,,,,,,,,,,,,,,,140551.10000000894,140550,96783.357,96798,96800.021,140564.624,,,
End of Practice,html.Page,0_2_2,2021-12-13T14:29:23.090Z,,,,,,,,,,,,,,,,,,,,,,,,,,,,,,7828.47600000893,,form submission,,,,,,,,,,,,,,,,148393.5,148393.10000000894,140547.959,140551.30000001192,140564.624,148397.463,,,
Practice,flow.Sequence,0_2,2021-12-13T14:29:23.090Z,,,,,,,,,,,,,,,,,,,,,,,,,,,,,,109223.50800000894,,completion,,,,,,,,,,,,,,,,148393.70000000298,148393.10000000894,39152.927,39160,39169.592,148397.463,,,
Trap_instruction,html.Page,0_3_0,2021-12-13T14:29:32.998Z,,,,,,,,,,,,,,,,,,,,,,,,,,,,,,9904.237000002991,,form submission,,,,,,,,,,,,,,,,158302,158301.70000000298,148380.798,148394,148397.463,158313.252,,,
trap_trial,html.Screen,0_3_1,2021-12-13T14:29:36.145Z,,,,,,,,,,,,,,,,,,,,,,,,,,,true,1,,3134.4480000029725,,response,,,,,,,,,1,click #choice-1,,,,,,161448.70000000298,161447.70000000298,158296.587,158302.30000001192,158313.252,161464.913,,,
end of trap trial,html.Page,0_3_2,2021-12-13T14:29:38.462Z,,,,,,,,,,,,,,,,,,,,,,,,,,,,,,2300.1870000089402,,form submission,,,,,,,,,,,,,,,,163765.40000000596,163765.10000000894,161448.24,161448.90000000596,161464.913,163780.165,,,
Trap 1,flow.Sequence,0_3,2021-12-13T14:29:38.462Z,,,,,,,,,,,,,,,,,,,,,,,,,,,,,,15367.637000008952,,completion,,,,,,,,,,,,,,,,163765.80000001192,163765.10000000894,148380.798,148393.90000000596,148397.463,163780.165,,,
Standby,html.Page,0_4_0,2021-12-13T14:29:46.461Z,,,,,,,,,,,,,,,,,,,,,,,,,,,,,,7999.180999999982,,timeout,,,,,,,,,,,,,,,,171764.30000001192,171762.681,163763.5,163766,163780.165,171779.346,,,
Holding screen,html.Screen,0_4_1_0_0,2021-12-13T14:29:53.460Z,,,,,,,,,,,,,,,,,,,,,,,,,,,,,,7000.023000000016,,timeout,,,,,,,,,,,,,,,,178763.30000001192,178762.704,171762.681,171764.5,171779.346,178779.369,,,
screen,html.Screen,0_4_1_0_1_0,2021-12-13T14:29:54.390Z,,,,,,,,,,,,,,,,48,,,,,,,,,,,,,,913.4310000119149,,response,,,10,F,,,,,Space,keypress(Space),,,,instrumental,As -- --- ------ ------- --------- ----------- --------<br>--------- -------- --- ------- -- ------- ---- -- ------<br>-- --- -------- -------- ---------- ---- ---- ---- ------<br>-- --------- -- ---- -- --- -- --- ------- -- - -----<br>---------- -- -- -- ---- ----- -- ------ -- --- ------<br>-------,179693.5,179692.80000001192,178762.704,178763.60000000894,178779.369,179695.996,,0,As
screen,html.Screen,0_4_1_0_1_1,2021-12-13T14:29:54.877Z,,,,,,,,,,,,,,,,48,,,,,,,,,,,,,,484.4040000059467,,response,,,10,F,,,,,Space,keypress(Space),,,,instrumental,-- in --- ------ ------- --------- ----------- --------<br>--------- -------- --- ------- -- ------- ---- -- ------<br>-- --- -------- -------- ---------- ---- ---- ---- ------<br>-- --------- -- ---- -- --- -- --- ------- -- - -----<br>---------- -- -- -- ---- ----- -- ------ -- --- ------<br>-------,180181.10000000894,180180.40000000596,179679.331,179693.70000000298,179695.996,180195.89,,1,in
screen,html.Screen,0_4_1_0_1_2,2021-12-13T14:29:55.240Z,,,,,,,,,,,,,,,,48,,,,,,,,,,,,,,344.5100000059465,,response,,,10,F,,,,,Space,keypress(Space),,,,instrumental,-- -- the ------ ------- --------- ----------- --------<br>--------- -------- --- ------- -- ------- ---- -- ------<br>-- --- -------- -------- ---------- ---- ---- ---- ------<br>-- --------- -- ---- -- --- -- --- ------- -- - -----<br>---------- -- -- -- ---- ----- -- ------ -- --- ------<br>-------,180541.10000000894,180540.40000000596,180179.226,180181.20000000298,180195.89,180546.023,,2,the
screen,html.Screen,0_4_1_0_1_3,2021-12-13T14:29:55.680Z,,,,,,,,,,,,,,,,48,,,,,,,,,,,,,,434.27700001193443,,response,,,10,F,,,,,Space,keypress(Space),,,,instrumental,-- -- --- United ------- --------- ----------- --------<br>--------- -------- --- ------- -- ------- ---- -- ------<br>-- --- -------- -------- ---------- ---- ---- ---- ------<br>-- --------- -- ---- -- --- -- --- ------- -- - -----<br>---------- -- -- -- ---- ----- -- ------ -- --- ------<br>-------,180980.90000000596,180980.30000001192,180529.357,180541.30000001192,180546.023,180995.964,,3,United
screen,html.Screen,0_4_1_0_1_4,2021-12-13T14:29:56.024Z,,,,,,,,,,,,,,,,48,,,,,,,,,,,,,,328.3360000119137,,response,,,10,F,,,,,Space,keypress(Space),,,,instrumental,"-- -- --- ------ States, --------- ----------- --------<br>--------- -------- --- ------- -- ------- ---- -- ------<br>-- --- -------- -------- ---------- ---- ---- ---- ------<br>-- --------- -- ---- -- --- -- --- ------- -- - -----<br>---------- -- -- -- ---- ----- -- ------ -- --- ------<br>-------",181324.90000000596,181324.30000001192,180979.299,180981.10000000894,180995.964,181329.203,,4,"States,"
screen,html.Screen,0_4_1_0_1_5,2021-12-13T14:29:56.440Z,,,,,,,,,,,,,,,,48,,,,,,,,,,,,,,411.0970000119123,,response,,,10,F,,,,,Space,keypress(Space),,,,instrumental,-- -- --- ------ ------- Colombian ----------- --------<br>--------- -------- --- ------- -- ------- ---- -- ------<br>-- --- -------- -------- ---------- ---- ---- ---- ------<br>-- --------- -- ---- -- --- -- --- ------- -- - -----<br>---------- -- -- -- ---- ----- -- ------ -- --- ------<br>-------,181740.80000001192,181740.30000001192,181312.539,181325.10000000894,181329.203,181745.973,,5,Colombian
screen,html.Screen,0_4_1_0_1_6,2021-12-13T14:29:56.832Z,,,,,,,,,,,,,,,,48,,,,,,,,,,,,,,386.2270000029821,,response,,,10,F,,,,,Space,keypress(Space),,,,instrumental,-- -- --- ------ ------- --------- legislation --------<br>--------- -------- --- ------- -- ------- ---- -- ------<br>-- --- -------- -------- ---------- ---- ---- ---- ------<br>-- --------- -- ---- -- --- -- --- ------- -- - -----<br>---------- -- -- -- ---- ----- -- ------ -- --- ------<br>-------,182132.90000000596,182132.20000000298,181729.307,181741.10000000894,181745.973,182145.894,,6,legislation
screen,html.Screen,0_4_1_0_1_7,2021-12-13T14:29:57.496Z,,,,,,,,,,,,,,,,48,,,,,,,,,,,,,,650.5060000059602,,response,,,10,F,,,,,Space,keypress(Space),,,,instrumental,-- -- --- ------ ------- --------- ----------- requires<br>--------- -------- --- ------- -- ------- ---- -- ------<br>-- --- -------- -------- ---------- ---- ---- ---- ------<br>-- --------- -- ---- -- --- -- --- ------- -- - -----<br>---------- -- -- -- ---- ----- -- ------ -- --- ------<br>-------,182797,182796.40000000596,182129.229,182133.10000000894,182145.894,182812.538,,7,requires
screen,html.Screen,0_4_1_0_1_8,2021-12-13T14:29:58.344Z,,,,,,,,,,,,,,,,48,,,,,,,,,,,,,,831.7620000119205,,response,,,10,F,,,,,Space,keypress(Space),,,,instrumental,-- -- --- ------ ------- --------- ----------- --------<br>travelers -------- --- ------- -- ------- ---- -- ------<br>-- --- -------- -------- ---------- ---- ---- ---- ------<br>-- --------- -- ---- -- --- -- --- ------- -- - -----<br>---------- -- -- -- ---- ----- -- ------ -- --- ------<br>-------,183644.90000000596,183644.30000001192,182795.873,182797.10000000894,182812.538,183645.822,,8,travelers
screen,html.Screen,0_4_1_0_1_9,2021-12-13T14:29:58.823Z,,,,,,,,,,,,,,,,48,,,,,,,,,,,,,,478.27800000895513,,response,,,10,F,,,,,Space,keypress(Space),,,,instrumental,-- -- --- ------ ------- --------- ----------- --------<br>--------- entering --- ------- -- ------- ---- -- ------<br>-- --- -------- -------- ---------- ---- ---- ---- ------<br>-- --------- -- ---- -- --- -- --- ------- -- - -----<br>---------- -- -- -- ---- ----- -- ------ -- --- ------<br>-------,184124.70000000298,184124.10000000894,183629.157,183645.10000000894,183645.822,184129.107,,9,entering
screen,html.Screen,0_4_1_0_1_10,2021-12-13T14:29:59.319Z,,,,,,,,,,,,,,,,48,,,,,,,,,,,,,,491.0930000029912,,response,,,10,F,,,,,Space,keypress(Space),,,,instrumental,-- -- --- ------ ------- --------- ----------- --------<br>--------- -------- the ------- -- ------- ---- -- ------<br>-- --- -------- -------- ---------- ---- ---- ---- ------<br>-- --------- -- ---- -- --- -- --- ------- -- - -----<br>---------- -- -- -- ---- ----- -- ------ -- --- ------<br>-------,184620.80000001192,184620.20000000298,184112.442,184124.90000000596,184129.107,184629.117,,10,the
screen,html.Screen,0_4_1_0_1_11,2021-12-13T14:29:59.863Z,,,,,,,,,,,,,,,,48,,,,,,,,,,,,,,535.0830000029819,,response,,,10,F,,,,,Space,keypress(Space),,,,instrumental,-- -- --- ------ ------- --------- ----------- --------<br>--------- -------- --- country -- ------- ---- -- ------<br>-- --- -------- -------- ---------- ---- ---- ---- ------<br>-- --------- -- ---- -- --- -- --- ------- -- - -----<br>---------- -- -- -- ---- ----- -- ------ -- --- ------<br>-------,185164.80000001192,185164.20000000298,184612.452,184621,184629.117,185179.062,,11,country
screen,html.Screen,0_4_1_0_1_12,2021-12-13T14:30:00.303Z,,,,,,,,,,,,,,,,48,,,,,,,,,,,,,,425.03800000893534,,response,,,10,F,,,,,Space,keypress(Space),,,,instrumental,-- -- --- ------ ------- --------- ----------- --------<br>--------- -------- --- ------- to ------- ---- -- ------<br>-- --- -------- -------- ---------- ---- ---- ---- ------<br>-- --------- -- ---- -- --- -- --- ------- -- - -----<br>---------- -- -- -- ---- ----- -- ------ -- --- ------<br>-------,185604.80000001192,185604.10000000894,185162.397,185164.90000000596,185179.062,185612.442,,12,to
screen,html.Screen,0_4_1_0_1_13,2021-12-13T14:30:00.840Z,,,,,,,,,,,,,,,,48,,,,,,,,,,,,,,527.7580000029702,,response,,,10,F,,,,,Space,keypress(Space),,,,instrumental,-- -- --- ------ ------- --------- ----------- --------<br>--------- -------- --- ------- -- declare ---- -- ------<br>-- --- -------- -------- ---------- ---- ---- ---- ------<br>-- --------- -- ---- -- --- -- --- ------- -- - -----<br>---------- -- -- -- ---- ----- -- ------ -- --- ------<br>-------,186140.90000000596,186140.20000000298,185595.776,185605,185612.442,186145.713,,13,declare
screen,html.Screen,0_4_1_0_1_14,2021-12-13T14:30:01.271Z,,,,,,,,,,,,,,,,48,,,,,,,,,,,,,,426.3870000089519,,response,,,10,F,,,,,Space,keypress(Space),,,,instrumental,-- -- --- ------ ------- --------- ----------- --------<br>--------- -------- --- ------- -- ------- cash -- ------<br>-- --- -------- -------- ---------- ---- ---- ---- ------<br>-- --------- -- ---- -- --- -- --- ------- -- - -----<br>---------- -- -- -- ---- ----- -- ------ -- --- ------<br>-------,186572.80000001192,186572.10000000894,186129.048,186141.10000000894,186145.713,186579.029,,14,cash
screen,html.Screen,0_4_1_0_1_15,2021-12-13T14:30:01.647Z,,,,,,,,,,,,,,,,48,,,,,,,,,,,,,,369.07100000893115,,response,,,10,F,,,,,Space,keypress(Space),,,,instrumental,-- -- --- ------ ------- --------- ----------- --------<br>--------- -------- --- ------- -- ------- ---- in ------<br>-- --- -------- -------- ---------- ---- ---- ---- ------<br>-- --------- -- ---- -- --- -- --- ------- -- - -----<br>---------- -- -- -- ---- ----- -- ------ -- --- ------<br>-------,186948.60000000894,186948.10000000894,186562.364,186573,186579.029,186962.339,,15,in
screen,html.Screen,0_4_1_0_1_16,2021-12-13T14:30:02.039Z,,,,,,,,,,,,,,,,48,,,,,,,,,,,,,,377.7610000089335,,response,,,10,F,,,,,Space,keypress(Space),,,,instrumental,-- -- --- ------ ------- --------- ----------- --------<br>--------- -------- --- ------- -- ------- ---- -- excess<br>-- --- -------- -------- ---------- ---- ---- ---- ------<br>-- --------- -- ---- -- --- -- --- ------- -- - -----<br>---------- -- -- -- ---- ----- -- ------ -- --- ------<br>-------,187340.70000000298,187340.10000000894,186945.674,186948.80000001192,186962.339,187345.668,,16,excess
screen,html.Screen,0_4_1_0_1_17,2021-12-13T14:30:02.623Z,,,,,,,,,,,,,,,,48,,,,,,,,,,,,,,578.3319999999949,,response,,,10,F,,,,,Space,keypress(Space),,,,instrumental,-- -- --- ------ ------- --------- ----------- --------<br>--------- -------- --- ------- -- ------- ---- -- ------<br>of --- -------- -------- ---------- ---- ---- ---- ------<br>-- --------- -- ---- -- --- -- --- ------- -- - -----<br>---------- -- -- -- ---- ----- -- ------ -- --- ------<br>-------,187924.70000000298,187924,187329.003,187340.90000000596,187345.668,187928.952,,17,of
screen,html.Screen,0_4_1_0_1_18,2021-12-13T14:30:02.999Z,,,,,,,,,,,,,,,,48,,,,,,,,,,,,,,371.0480000000098,,response,,,10,F,,,,,Space,keypress(Space),,,,instrumental,-- -- --- ------ ------- --------- ----------- --------<br>--------- -------- --- ------- -- ------- ---- -- ------<br>-- ten -------- -------- ---------- ---- ---- ---- ------<br>-- --------- -- ---- -- --- -- --- ------- -- - -----<br>---------- -- -- -- ---- ----- -- ------ -- --- ------<br>-------,188300.60000000894,188300,187912.287,187924.80000001192,187928.952,188312.272,,18,ten
screen,html.Screen,0_4_1_0_1_19,2021-12-13T14:30:03.479Z,,,,,,,,,,,,,,,,48,,,,,,,,,,,,,,467.62800000596326,,response,,,10,F,,,,,Space,keypress(Space),,,,instrumental,-- -- --- ------ ------- --------- ----------- --------<br>--------- -------- --- ------- -- ------- ---- -- ------<br>-- --- thousand -------- ---------- ---- ---- ---- ------<br>-- --------- -- ---- -- --- -- --- ------- -- - -----<br>---------- -- -- -- ---- ----- -- ------ -- --- ------<br>-------,188780.60000000894,188779.90000000596,188295.607,188300.70000000298,188312.272,188795.56,,19,thousand
screen,html.Screen,0_4_1_0_1_20,2021-12-13T14:30:03.879Z,,,,,,,,,,,,,,,,48,,,,,,,,,,,,,,384.3400000059628,,response,,,10,F,,,,,Space,keypress(Space),,,,instrumental,-- -- --- ------ ------- --------- ----------- --------<br>--------- -------- --- ------- -- ------- ---- -- ------<br>-- --- -------- dollars. ---------- ---- ---- ---- ------<br>-- --------- -- ---- -- --- -- --- ------- -- - -----<br>---------- -- -- -- ---- ----- -- ------ -- --- ------<br>-------,189180.60000000894,189179.90000000596,188778.895,188780.70000000298,188795.56,189195.598,,20,dollars.
screen,html.Screen,0_4_1_0_1_21,2021-12-13T14:30:04.423Z,,,,,,,,,,,,,,,,48,,,,,,,,,,,,,,528.6020000029821,,response,,,10,F,,,,,Space,keypress(Space),,,,instrumental,-- -- --- ------ ------- --------- ----------- --------<br>--------- -------- --- ------- -- ------- ---- -- ------<br>-- --- -------- -------- Concealing ---- ---- ---- ------<br>-- --------- -- ---- -- --- -- --- ------- -- - -----<br>---------- -- -- -- ---- ----- -- ------ -- --- ------<br>-------,189724.80000001192,189724.20000000298,189178.932,189180.70000000298,189195.598,189728.772,,21,Concealing
screen,html.Screen,0_4_1_0_1_22,2021-12-13T14:30:04.863Z,,,,,,,,,,,,,,,,48,,,,,,,,,,,,,,435.12800000596326,,response,,,10,F,,,,,Space,keypress(Space),,,,instrumental,-- -- --- ------ ------- --------- ----------- --------<br>--------- -------- --- ------- -- ------- ---- -- ------<br>-- --- -------- -------- ---------- more ---- ---- ------<br>-- --------- -- ---- -- --- -- --- ------- -- - -----<br>---------- -- -- -- ---- ----- -- ------ -- --- ------<br>-------,190164.5,190163.90000000596,189712.108,189725,189728.772,190178.866,,22,more
screen,html.Screen,0_4_1_0_1_23,2021-12-13T14:30:05.271Z,,,,,,,,,,,,,,,,48,,,,,,,,,,,,,,393.0340000059514,,response,,,10,F,,,,,Space,keypress(Space),,,,instrumental,-- -- --- ------ ------- --------- ----------- --------<br>--------- -------- --- ------- -- ------- ---- -- ------<br>-- --- -------- -------- ---------- ---- than ---- ------<br>-- --------- -- ---- -- --- -- --- ------- -- - -----<br>---------- -- -- -- ---- ----- -- ------ -- --- ------<br>-------,190572.60000000894,190571.90000000596,190162.2,190164.60000000894,190178.866,190578.82,,23,than
screen,html.Screen,0_4_1_0_1_24,2021-12-13T14:30:05.607Z,,,,,,,,,,,,,,,,48,,,,,,,,,,,,,,329.0800000059535,,response,,,10,F,,,,,Space,keypress(Space),,,,instrumental,-- -- --- ------ ------- --------- ----------- --------<br>--------- -------- --- ------- -- ------- ---- -- ------<br>-- --- -------- -------- ---------- ---- ---- that ------<br>-- --------- -- ---- -- --- -- --- ------- -- - -----<br>---------- -- -- -- ---- ----- -- ------ -- --- ------<br>-------,190908.5,190907.90000000596,190562.155,190572.70000000298,190578.82,190912.193,,24,that
screen,html.Screen,0_4_1_0_1_25,2021-12-13T14:30:06.047Z,,,,,,,,,,,,,,,,48,,,,,,,,,,,,,,435.70700000596116,,response,,,10,F,,,,,Space,keypress(Space),,,,instrumental,-- -- --- ------ ------- --------- ----------- --------<br>--------- -------- --- ------- -- ------- ---- -- ------<br>-- --- -------- -------- ---------- ---- ---- ---- amount<br>-- --------- -- ---- -- --- -- --- ------- -- - -----<br>---------- -- -- -- ---- ----- -- ------ -- --- ------<br>-------,191348.5,191347.90000000596,190895.527,190908.70000000298,190912.193,191362.068,,25,amount
screen,html.Screen,0_4_1_0_1_26,2021-12-13T14:30:06.487Z,,,,,,,,,,,,,,,,48,,,,,,,,,,,,,,425.7320000119216,,response,,,10,F,,,,,Space,keypress(Space),,,,instrumental,-- -- --- ------ ------- --------- ----------- --------<br>--------- -------- --- ------- -- ------- ---- -- ------<br>-- --- -------- -------- ---------- ---- ---- ---- ------<br>to --------- -- ---- -- --- -- --- ------- -- - -----<br>---------- -- -- -- ---- ----- -- ------ -- --- ------<br>-------,191788.40000000596,191787.80000001192,191345.404,191348.70000000298,191362.068,191795.431,,26,to
screen,html.Screen,0_4_1_0_1_27,2021-12-13T14:30:06.855Z,,,,,,,,,,,,,,,,48,,,,,,,,,,,,,,360.3690000119095,,response,,,10,F,,,,,Space,keypress(Space),,,,instrumental,-- -- --- ------ ------- --------- ----------- --------<br>--------- -------- --- ------- -- ------- ---- -- ------<br>-- --- -------- -------- ---------- ---- ---- ---- ------<br>-- transport -- ---- -- --- -- --- ------- -- - -----<br>---------- -- -- -- ---- ----- -- ------ -- --- ------<br>-------,192156.30000001192,192155.80000001192,191778.766,191788.60000000894,191795.431,192162.07,,27,transport
screen,html.Screen,0_4_1_0_1_28,2021-12-13T14:30:07.367Z,,,,,,,,,,,,,,,,48,,,,,,,,,,,,,,505.8300000059535,,response,,,10,F,,,,,Space,keypress(Space),,,,instrumental,-- -- --- ------ ------- --------- ----------- --------<br>--------- -------- --- ------- -- ------- ---- -- ------<br>-- --- -------- -------- ---------- ---- ---- ---- ------<br>-- --------- it ---- -- --- -- --- ------- -- - -----<br>---------- -- -- -- ---- ----- -- ------ -- --- ------<br>-------,192668.40000000596,192667.90000000596,192145.405,192156.60000000894,192162.07,192678.703,,28,it
screen,html.Screen,0_4_1_0_1_29,2021-12-13T14:30:07.751Z,,,,,,,,,,,,,,,,48,,,,,,,,,,,,,,373.0970000119123,,response,,,10,F,,,,,Space,keypress(Space),,,,instrumental,-- -- --- ------ ------- --------- ----------- --------<br>--------- -------- --- ------- -- ------- ---- -- ------<br>-- --- -------- -------- ---------- ---- ---- ---- ------<br>-- --------- -- into -- --- -- --- ------- -- - -----<br>---------- -- -- -- ---- ----- -- ------ -- --- ------<br>-------,193052.30000001192,193051.80000001192,192662.038,192668.60000000894,192678.703,193062.038,,29,into
screen,html.Screen,0_4_1_0_1_30,2021-12-13T14:30:08.119Z,,,,,,,,,,,,,,,,48,,,,,,,,,,,,,,357.76200001192046,,response,,,10,F,,,,,Space,keypress(Space),,,,instrumental,-- -- --- ------ ------- --------- ----------- --------<br>--------- -------- --- ------- -- ------- ---- -- ------<br>-- --- -------- -------- ---------- ---- ---- ---- ------<br>-- --------- -- ---- or --- -- --- ------- -- - -----<br>---------- -- -- -- ---- ----- -- ------ -- --- ------<br>-------,193420.40000000596,193419.80000001192,193045.373,193052.5,193062.038,193428.69,,30,or
screen,html.Screen,0_4_1_0_1_31,2021-12-13T14:30:08.519Z,,,,,,,,,,,,,,,,48,,,,,,,,,,,,,,391.0100000029779,,response,,,10,F,,,,,Space,keypress(Space),,,,instrumental,-- -- --- ------ ------- --------- ----------- --------<br>--------- -------- --- ------- -- ------- ---- -- ------<br>-- --- -------- -------- ---------- ---- ---- ---- ------<br>-- --------- -- ---- -- out -- --- ------- -- - -----<br>---------- -- -- -- ---- ----- -- ------ -- --- ------<br>-------,193820.30000001192,193819.70000000298,193412.025,193420.60000000894,193428.69,193828.707,,31,out
screen,html.Screen,0_4_1_0_1_32,2021-12-13T14:30:08.967Z,,,,,,,,,,,,,,,,48,,,,,,,,,,,,,,438.99300000298535,,response,,,10,F,,,,,Space,keypress(Space),,,,instrumental,-- -- --- ------ ------- --------- ----------- --------<br>--------- -------- --- ------- -- ------- ---- -- ------<br>-- --- -------- -------- ---------- ---- ---- ---- ------<br>-- --------- -- ---- -- --- of --- ------- -- - -----<br>---------- -- -- -- ---- ----- -- ------ -- --- ------<br>-------,194268.30000001192,194267.70000000298,193812.041,193820.5,193828.707,194278.591,,32,of
screen,html.Screen,0_4_1_0_1_33,2021-12-13T14:30:09.392Z,,,,,,,,,,,,,,,,48,,,,,,,,,,,,,,413.10900000299443,,response,,,10,F,,,,,Space,keypress(Space),,,,instrumental,-- -- --- ------ ------- --------- ----------- --------<br>--------- -------- --- ------- -- ------- ---- -- ------<br>-- --- -------- -------- ---------- ---- ---- ---- ------<br>-- --------- -- ---- -- --- -- the ------- -- - -----<br>---------- -- -- -- ---- ----- -- ------ -- --- ------<br>-------,194693.10000000894,194691.70000000298,194261.927,194268.5,194278.591,194695.273,,33,the
screen,html.Screen,0_4_1_0_1_34,2021-12-13T14:30:09.703Z,,,,,,,,,,,,,,,,48,,,,,,,,,,,,,,308.42700000299374,,response,,,10,F,,,,,Space,keypress(Space),,,,instrumental,-- -- --- ------ ------- --------- ----------- --------<br>--------- -------- --- ------- -- ------- ---- -- ------<br>-- --- -------- -------- ---------- ---- ---- ---- ------<br>-- --------- -- ---- -- --- -- --- country -- - -----<br>---------- -- -- -- ---- ----- -- ------ -- --- ------<br>-------,195004.30000001192,195003.70000000298,194678.608,194693.30000001192,194695.273,195011.878,,34,country
screen,html.Screen,0_4_1_0_1_35,2021-12-13T14:30:10.055Z,,,,,,,,,,,,,,,,48,,,,,,,,,,,,,,343.82200000298326,,response,,,10,F,,,,,Space,keypress(Space),,,,instrumental,-- -- --- ------ ------- --------- ----------- --------<br>--------- -------- --- ------- -- ------- ---- -- ------<br>-- --- -------- -------- ---------- ---- ---- ---- ------<br>-- --------- -- ---- -- --- -- --- ------- is - -----<br>---------- -- -- -- ---- ----- -- ------ -- --- ------<br>-------,195356.40000000596,195355.70000000298,194995.214,195004.40000000596,195011.878,195361.953,,35,is
screen,html.Screen,0_4_1_0_1_36,2021-12-13T14:30:10.431Z,,,,,,,,,,,,,,,,48,,,,,,,,,,,,,,369.6470000089321,,response,,,10,F,,,,,Space,keypress(Space),,,,instrumental,-- -- --- ------ ------- --------- ----------- --------<br>--------- -------- --- ------- -- ------- ---- -- ------<br>-- --- -------- -------- ---------- ---- ---- ---- ------<br>-- --------- -- ---- -- --- -- --- ------- -- a -----<br>---------- -- -- -- ---- ----- -- ------ -- --- ------<br>-------,195732.20000000298,195731.60000000894,195345.287,195356.5,195361.953,195745.268,,36,a
screen,html.Screen,0_4_1_0_1_37,2021-12-13T14:30:10.863Z,,,,,,,,,,,,,,,,48,,,,,,,,,,,,,,418.33200000892975,,response,,,10,F,,,,,Space,keypress(Space),,,,instrumental,-- -- --- ------ ------- --------- ----------- --------<br>--------- -------- --- ------- -- ------- ---- -- ------<br>-- --- -------- -------- ---------- ---- ---- ---- ------<br>-- --------- -- ---- -- --- -- --- ------- -- - crime<br>---------- -- -- -- ---- ----- -- ------ -- --- ------<br>-------,196164.20000000298,196163.60000000894,195728.602,195732.40000000596,195745.268,196178.496,,37,crime
screen,html.Screen,0_4_1_0_1_38,2021-12-13T14:30:11.319Z,,,,,,,,,,,,,,,,48,,,,,,,,,,,,,,441.10400000892696,,response,,,10,F,,,,,Space,keypress(Space),,,,instrumental,-- -- --- ------ ------- --------- ----------- --------<br>--------- -------- --- ------- -- ------- ---- -- ------<br>-- --- -------- -------- ---------- ---- ---- ---- ------<br>-- --------- -- ---- -- --- -- --- ------- -- - -----<br>punishable -- -- -- ---- ----- -- ------ -- --- ------<br>-------,196620.30000001192,196619.60000000894,196161.832,196164.30000001192,196178.496,196628.51,,38,punishable
screen,html.Screen,0_4_1_0_1_39,2021-12-13T14:30:11.695Z,,,,,,,,,,,,,,,,48,,,,,,,,,,,,,,366.9899999999907,,response,,,10,F,,,,,Space,keypress(Space),,,,instrumental,-- -- --- ------ ------- --------- ----------- --------<br>--------- -------- --- ------- -- ------- ---- -- ------<br>-- --- -------- -------- ---------- ---- ---- ---- ------<br>-- --------- -- ---- -- --- -- --- ------- -- - -----<br>---------- by -- -- ---- ----- -- ------ -- --- ------<br>-------,196996.20000000298,196995.5,196611.845,196620.5,196628.51,197011.884,,39,by
screen,html.Screen,0_4_1_0_1_40,2021-12-13T14:30:12.015Z,,,,,,,,,,,,,,,,48,,,,,,,,,,,,,,303.7160000089498,,response,,,10,F,,,,,Space,keypress(Space),,,,instrumental,-- -- --- ------ ------- --------- ----------- --------<br>--------- -------- --- ------- -- ------- ---- -- ------<br>-- --- -------- -------- ---------- ---- ---- ---- ------<br>-- --------- -- ---- -- --- -- --- ------- -- - -----<br>---------- -- up -- ---- ----- -- ------ -- --- ------<br>-------,197316.30000001192,197315.60000000894,196995.218,196996.40000000596,197011.884,197328.455,,40,up
screen,html.Screen,0_4_1_0_1_41,2021-12-13T14:30:12.351Z,,,,,,,,,,,,,,,,48,,,,,,,,,,,,,,323.0450000000128,,response,,,10,F,,,,,Space,keypress(Space),,,,instrumental,-- -- --- ------ ------- --------- ----------- --------<br>--------- -------- --- ------- -- ------- ---- -- ------<br>-- --- -------- -------- ---------- ---- ---- ---- ------<br>-- --------- -- ---- -- --- -- --- ------- -- - -----<br>---------- -- -- to ---- ----- -- ------ -- --- ------<br>-------,197652.20000000298,197651.5,197311.791,197316.5,197328.455,197661.82,,41,to
screen,html.Screen,0_4_1_0_1_42,2021-12-13T14:30:12.759Z,,,,,,,,,,,,,,,,48,,,,,,,,,,,,,,397.679999999993,,response,,,10,F,,,,,Space,keypress(Space),,,,instrumental,-- -- --- ------ ------- --------- ----------- --------<br>--------- -------- --- ------- -- ------- ---- -- ------<br>-- --- -------- -------- ---------- ---- ---- ---- ------<br>-- --------- -- ---- -- --- -- --- ------- -- - -----<br>---------- -- -- -- five ----- -- ------ -- --- ------<br>-------,198060.10000000894,198059.5,197645.154,197652.40000000596,197661.82,198061.746,,42,five
screen,html.Screen,0_4_1_0_1_43,2021-12-13T14:30:13.087Z,,,,,,,,,,,,,,,,48,,,,,,,,,,,,,,325.75399999998626,,response,,,10,F,,,,,Space,keypress(Space),,,,instrumental,-- -- --- ------ ------- --------- ----------- --------<br>--------- -------- --- ------- -- ------- ---- -- ------<br>-- --- -------- -------- ---------- ---- ---- ---- ------<br>-- --------- -- ---- -- --- -- --- ------- -- - -----<br>---------- -- -- -- ---- years -- ------ -- --- ------<br>-------,198388.10000000894,198387.5,198045.082,198060.30000001192,198061.746,198395.155,,43,years
screen,html.Screen,0_4_1_0_1_44,2021-12-13T14:30:13.407Z,,,,,,,,,,,,,,,,48,,,,,,,,,,,,,,312.24500000596163,,response,,,10,F,,,,,Space,keypress(Space),,,,instrumental,-- -- --- ------ ------- --------- ----------- --------<br>--------- -------- --- ------- -- ------- ---- -- ------<br>-- --- -------- -------- ---------- ---- ---- ---- ------<br>-- --------- -- ---- -- --- -- --- ------- -- - -----<br>---------- -- -- -- ---- ----- in ------ -- --- ------<br>-------,198708.10000000894,198707.40000000596,198378.489,198388.30000001192,198395.155,198711.721,,44,in
screen,html.Screen,0_4_1_0_1_45,2021-12-13T14:30:13.767Z,,,,,,,,,,,,,,,,48,,,,,,,,,,,,,,355.77900000000955,,response,,,10,F,,,,,Space,keypress(Space),,,,instrumental,-- -- --- ------ ------- --------- ----------- --------<br>--------- -------- --- ------- -- ------- ---- -- ------<br>-- --- -------- -------- ---------- ---- ---- ---- ------<br>-- --------- -- ---- -- --- -- --- ------- -- - -----<br>---------- -- -- -- ---- ----- -- prison -- --- ------<br>-------,199068,199067.5,198695.057,198708.20000000298,198711.721,199078.404,,45,prison
screen,html.Screen,0_4_1_0_1_46,2021-12-13T14:30:14.135Z,,,,,,,,,,,,,,,,48,,,,,,,,,,,,,,357.09599999999045,,response,,,10,F,,,,,Space,keypress(Space),,,,instrumental,-- -- --- ------ ------- --------- ----------- --------<br>--------- -------- --- ------- -- ------- ---- -- ------<br>-- --- -------- -------- ---------- ---- ---- ---- ------<br>-- --------- -- ---- -- --- -- --- ------- -- - -----<br>---------- -- -- -- ---- ----- -- ------ in --- ------<br>-------,199436.20000000298,199435.5,199061.739,199068.20000000298,199078.404,199444.996,,46,in
screen,html.Screen,0_4_1_0_1_47,2021-12-13T14:30:14.503Z,,,,,,,,,,,,,,,,48,,,,,,,,,,,,,,358.50399999998626,,response,,,10,F,,,,,Space,keypress(Space),,,,instrumental,-- -- --- ------ ------- --------- ----------- --------<br>--------- -------- --- ------- -- ------- ---- -- ------<br>-- --- -------- -------- ---------- ---- ---- ---- ------<br>-- --------- -- ---- -- --- -- --- ------- -- - -----<br>---------- -- -- -- ---- ----- -- ------ -- the ------<br>-------,199804.10000000894,199803.5,199428.332,199436.30000001192,199444.996,199811.737,,47,the
screen,html.Screen,0_4_1_0_1_48,2021-12-13T14:30:14.943Z,,,,,,,,,,,,,,,,48,,,,,,,,,,,,,,431.66300000596675,,response,,,10,F,,,,,Space,keypress(Space),,,,instrumental,-- -- --- ------ ------- --------- ----------- --------<br>--------- -------- --- ------- -- ------- ---- -- ------<br>-- --- -------- -------- ---------- ---- ---- ---- ------<br>-- --------- -- ---- -- --- -- --- ------- -- - -----<br>---------- -- -- -- ---- ----- -- ------ -- --- United<br>-------,200244,200243.40000000596,199795.071,199804.30000001192,199811.737,200245.056,,48,United
screen,html.Screen,0_4_1_0_1_49,2021-12-13T14:30:15.855Z,,,,,,,,,,,,,,,,48,,,,,,,,,,,,,,910.344000005949,,response,,,10,F,,,,,Space,keypress(Space),,,,instrumental,-- -- --- ------ ------- --------- ----------- --------<br>--------- -------- --- ------- -- ------- ---- -- ------<br>-- --- -------- -------- ---------- ---- ---- ---- ------<br>-- --------- -- ---- -- --- -- --- ------- -- - -----<br>---------- -- -- -- ---- ----- -- ------ -- --- ------<br>States.,201156.10000000894,201155.40000000596,200228.39,200244.10000000894,200245.056,201161.596,,49,States.
Item 10,flow.Loop,0_4_1_0_1,2021-12-13T14:30:15.855Z,,,,,,,,,,,,,,,,,,,,,,,,,,,,,,22376.031000005954,,completion,,,,,,,,,,,,,,,,201156.5,201155.40000000596,178762.704,178763.5,178779.369,201161.596,,,
Question 1,html.Screen,0_4_1_0_2,2021-12-13T14:30:25.469Z,,,,,,,,,,,,,,,,,,,,,,,,,,,true,TRUE,,9607.60400000299,,response,,,10,F,,,,,TRUE,click #choice-1,,,,instrumental,,210770,210769.20000000298,201144.931,201156.80000001192,201161.596,210777.815,,,
Question 2,html.Screen,0_4_1_0_3,2021-12-13T14:30:30.685Z,,,,,,,,,,,,,,,,,,,,,,,,,,,true,TRUE,,5207.385000002978,,response,,,10,F,,,,,TRUE,click #choice-1,,,,instrumental,,215986.10000000894,215985.20000000298,210761.15,210770.10000000894,210777.815,215994.234,,,
Item 10,flow.Sequence,0_4_1_0,2021-12-13T14:30:30.685Z,,,,,,,,,,,,,,,,,,,,,,,,,,,,,,44205.85400000299,,completion,,,,,,,,,,,,,,,,215986.30000001192,215985.20000000298,171762.681,171764.40000000596,171779.346,215994.234,,,
Holding screen,html.Screen,0_4_1_1_0,2021-12-13T14:30:37.677Z,,,,,,,,,,,,,,,,,,,,,,,,,,,,,,6999.594000000012,,timeout,,,,,,,,,,,,,,,,222977.90000000596,222977.163,215977.569,215986.5,215994.234,222993.828,,,
screen,html.Screen,0_4_1_1_1_0,2021-12-13T14:30:38.558Z,,,,,,,,,,,,,,,,15,,,,,,,,,,,,,,864.7720000089321,,response,,,7,F,,,,,Space,keypress(Space),,,,instrumental,Greg --------- ---------- - --- ------- -- --- ------------<br>----- -- -------- ------- ---- ------ - -------- ---- -----<br>--- ------- ---- -- --- -------- --- - ----- ------ ---- --<br>-------- --- -------- -------- --- -------- ---- -- ----- -<br>-------- ---- --- ---------- --------- -- ------- ------ -<br>--------- ----- -----,223859.40000000596,223858.60000000894,222977.163,222978.20000000298,222993.828,223860.551,,0,Greg
screen,html.Screen,0_4_1_1_1_1,2021-12-13T14:30:39.246Z,,,,,,,,,,,,,,,,15,,,,,,,,,,,,,,685.7490000119142,,response,,,7,F,,,,,Space,keypress(Space),,,,instrumental,"---- Anderson, ---------- - --- ------- -- --- ------------<br>----- -- -------- ------- ---- ------ - -------- ---- -----<br>--- ------- ---- -- --- -------- --- - ----- ------ ---- --<br>-------- --- -------- -------- --- -------- ---- -- ----- -<br>-------- ---- --- ---------- --------- -- ------- ------ -<br>--------- ----- -----",224546.90000000596,224546.30000001192,223843.885,223859.5,223860.551,224560.434,,1,"Anderson,"
screen,html.Screen,0_4_1_1_1_2,2021-12-13T14:30:39.701Z,,,,,,,,,,,,,,,,15,,,,,,,,,,,,,,441.76600000297185,,response,,,7,F,,,,,Space,keypress(Space),,,,instrumental,---- --------- considered - --- ------- -- --- ------------<br>----- -- -------- ------- ---- ------ - -------- ---- -----<br>--- ------- ---- -- --- -------- --- - ----- ------ ---- --<br>-------- --- -------- -------- --- -------- ---- -- ----- -<br>-------- ---- --- ---------- --------- -- ------- ------ -<br>--------- ----- -----,225002.80000001192,225002.20000000298,224543.769,224547.10000000894,224560.434,225010.466,,2,considered
