sender,sender_type,sender_id,timestamp,meta,,Blues,Classical,Country,Dance,Electronic,Folk,Gospel,Hip-Hop,Jazz,Latin,Musical/Film,New-age,Pop,Provo_ID,R&B,Rap,Reggae,Religious,Rock,Soul,Swing,Traditional,age,artist_name,correct,correctResponse,distraction,duration,education,ended_on,familiarity,gender,item,list,music_frequency,offensiveness,pleasantness,preference,response,response_action,snippet_file,song_name,song_rating,sound,text,time_commit,time_end,time_render,time_run,time_show,time_switch,url,word,word_ID
Instructions,html.Page,0_0,2021-12-02T14:45:04.672Z,"{""labjs_version"":""20.2.3"",""labjs_build"":{""flavor"":""production"",""commit"":""7ea907d66ca8aeef8054924ca5d82ffbe11e34e5""},""location"":""https://run.pavlovia.org/mvasilev/lab_music_b/"",""userAgent"":""Mozilla/5.0 (Windows NT 6.1; Win64; x64) AppleWebKit/537.36 (KHTML, like Gecko) Chrome/96.0.4664.45 Safari/537.36"",""platform"":""Win32"",""language"":""en-US"",""locale"":""en-US"",""timeZone"":""Europe/London"",""timezoneOffset"":0,""screen_width"":1920,""screen_height"":1080,""scroll_width"":1920,""scroll_height"":959,""window_innerWidth"":1920,""window_innerHeight"":1007,""devicePixelRatio"":1}",,,,,,,,,,,,,,,,,,,,,,,,,,,,,3173.4379999880794,,form submission,,,,,,,,,,,,,,,,10856.5,10855.699999988079,7648.932,7661,7682.262,10865.777,{},,
Headphones,html.Page,0_1,2021-12-02T14:45:06.470Z,,,,,,,,,,,,,,,,,,,,,,,,,,,,,,1787.8229999642372,,form submission,,,,,,,,,,,,,,,,12654,12653.599999964237,10849.109,10856.899999976158,10865.777,12666.106,,,
Holding screen,html.Screen,0_2_0_0,2021-12-02T14:45:16.468Z,,,,,,,,,,,,,,,,,,,,,,,,,,,,,,9999.089,,timeout,,,,,,,,,,,,,,,,22652.099999964237,22648.53,12649.425,12654.300000011921,12666.106,22665.195,,,
screen,html.Screen,0_2_0_1_0,2021-12-02T14:45:17.354Z,,,,,,,,,,,,,,,,53,,,,,,,,,,,,,,871.9049999642375,,response,,,99,,,,,,Space,keypress(Space),,,,,When -- ----- -- ------ - ------- --- ----------<br>------------- ------ ------ ---- ---- ------- ----- -- ----<br>-------- ------- -- ---------- --- - --- ----- ----- ----<br>---- --- --- ----- --- ---- ---- ------- ----- ---- -------<br>--- --- -- ----- -- --- ---- -- --- ---- -- ------ ------<br>--- ----- -- ----,23538.19999998808,23537.099999964237,22648.53,22652.5,22665.195,23548.58,,0,When
screen,html.Screen,0_2_0_1_1,2021-12-02T14:45:17.761Z,,,,,,,,,,,,,,,,53,,,,,,,,,,,,,,396.2200000119192,,response,,,99,,,,,,Space,keypress(Space),,,,,---- it ----- -- ------ - ------- --- ----------<br>------------- ------ ------ ---- ---- ------- ----- -- ----<br>-------- ------- -- ---------- --- - --- ----- ----- ----<br>---- --- --- ----- --- ---- ---- ------- ----- ---- -------<br>--- --- -- ----- -- --- ---- -- --- ---- -- ------ ------<br>--- ----- -- ----,23945.399999976158,23944.80000001192,23531.914,23538.5,23548.58,23948.574,,1,it
screen,html.Screen,0_2_0_1_2,2021-12-02T14:45:18.161Z,,,,,,,,,,,,,,,,53,,,,,,,,,,,,,,396.2260000119204,,response,,,99,,,,,,Space,keypress(Space),,,,,---- -- comes -- ------ - ------- --- ----------<br>------------- ------ ------ ---- ---- ------- ----- -- ----<br>-------- ------- -- ---------- --- - --- ----- ----- ----<br>---- --- --- ----- --- ---- ---- ------- ----- ---- -------<br>--- --- -- ----- -- --- ---- -- --- ---- -- ------ ------<br>--- ----- -- ----,24345.5,24344.80000001192,23931.908,23945.599999964237,23948.574,24348.494,,2,comes
screen,html.Screen,0_2_0_1_3,2021-12-02T14:45:18.553Z,,,,,,,,,,,,,,,,53,,,,,,,,,,,,,,388.30600001192215,,response,,,99,,,,,,Space,keypress(Space),,,,,---- -- ----- to ------ - ------- --- ----------<br>------------- ------ ------ ---- ---- ------- ----- -- ----<br>-------- ------- -- ---------- --- - --- ----- ----- ----<br>---- --- --- ----- --- ---- ---- ------- ----- ---- -------<br>--- --- -- ----- -- --- ---- -- --- ---- -- ------ ------<br>--- ----- -- ----,24737.399999976158,24736.80000001192,24331.829,24345.599999964237,24348.494,24748.52,,3,to
screen,html.Screen,0_2_0_1_4,2021-12-02T14:45:18.929Z,,,,,,,,,,,,,,,,53,,,,,,,,,,,,,,364.17999998807863,,response,,,99,,,,,,Space,keypress(Space),,,,,---- -- ----- -- having - ------- --- ----------<br>------------- ------ ------ ---- ---- ------- ----- -- ----<br>-------- ------- -- ---------- --- - --- ----- ----- ----<br>---- --- --- ----- --- ---- ---- ------- ----- ---- -------<br>--- --- -- ----- -- --- ---- -- --- ---- -- ------ ------<br>--- ----- -- ----,25113.5,25112.69999998808,24731.854,24737.69999998808,24748.52,25115.193,,4,having
screen,html.Screen,0_2_0_1_5,2021-12-02T14:45:19.305Z,,,,,,,,,,,,,,,,53,,,,,,,,,,,,,,373.6070000119216,,response,,,99,,,,,,Space,keypress(Space),,,,,---- -- ----- -- ------ a ------- --- ----------<br>------------- ------ ------ ---- ---- ------- ----- -- ----<br>-------- ------- -- ---------- --- - --- ----- ----- ----<br>---- --- --- ----- --- ---- ---- ------- ----- ---- -------<br>--- --- -- ----- -- --- ---- -- --- ---- -- ------ ------<br>--- ----- -- ----,25489.5,25488.80000001192,25098.527,25113.80000001192,25115.193,25498.397,,5,a
screen,html.Screen,0_2_0_1_6,2021-12-02T14:45:19.713Z,,,,,,,,,,,,,,,,53,,,,,,,,,,,,,,398.3029999880782,,response,,,99,,,,,,Space,keypress(Space),,,,,---- -- ----- -- ------ - lasting --- ----------<br>------------- ------ ------ ---- ---- ------- ----- -- ----<br>-------- ------- -- ---------- --- - --- ----- ----- ----<br>---- --- --- ----- --- ---- ---- ------- ----- ---- -------<br>--- --- -- ----- -- --- ---- -- --- ---- -- ------ ------<br>--- ----- -- ----,25897.399999976158,25896.69999998808,25481.733,25489.80000001192,25498.397,25898.489,,6,lasting
screen,html.Screen,0_2_0_1_7,2021-12-02T14:45:20.169Z,,,,,,,,,,,,,,,,53,,,,,,,,,,,,,,454.2109999880777,,response,,,99,,,,,,Space,keypress(Space),,,,,---- -- ----- -- ------ - ------- and ----------<br>------------- ------ ------ ---- ---- ------- ----- -- ----<br>-------- ------- -- ---------- --- - --- ----- ----- ----<br>---- --- --- ----- --- ---- ---- ------- ----- ---- -------<br>--- --- -- ----- -- --- ---- -- --- ---- -- ------ ------<br>--- ----- -- ----,26353.399999976158,26352.69999998808,25881.823,25897.599999964237,25898.489,26365.087,,7,and
screen,html.Screen,0_2_0_1_8,2021-12-02T14:45:20.609Z,,,,,,,,,,,,,,,,53,,,,,,,,,,,,,,427.61299998807954,,response,,,99,,,,,,Space,keypress(Space),,,,,---- -- ----- -- ------ - ------- --- fulfilling<br>------------- ------ ------ ---- ---- ------- ----- -- ----<br>-------- ------- -- ---------- --- - --- ----- ----- ----<br>---- --- --- ----- --- ---- ---- ------- ----- ---- -------<br>--- --- -- ----- -- --- ---- -- --- ---- -- ------ ------<br>--- ----- -- ----,26793.399999976158,26792.69999998808,26348.422,26353.599999964237,26365.087,26798.403,,8,fulfilling
screen,html.Screen,0_2_0_1_9,2021-12-02T14:45:21.033Z,,,,,,,,,,,,,,,,53,,,,,,,,,,,,,,418.29699998808064,,response,,,99,,,,,,Space,keypress(Space),,,,,"---- -- ----- -- ------ - ------- --- ----------<br>relationship, ------ ------ ---- ---- ------- ----- -- ----<br>-------- ------- -- ---------- --- - --- ----- ----- ----<br>---- --- --- ----- --- ---- ---- ------- ----- ---- -------<br>--- --- -- ----- -- --- ---- -- --- ---- -- ------ ------<br>--- ----- -- ----",27217.399999976158,27216.69999998808,26781.738,26793.69999998808,26798.403,27231.764,,9,"relationship,"
screen,html.Screen,0_2_0_1_10,2021-12-02T14:45:21.529Z,,,,,,,,,,,,,,,,53,,,,,,,,,,,,,,480.835999964238,,response,,,99,,,,,,Space,keypress(Space),,,,,---- -- ----- -- ------ - ------- --- ----------<br>------------- common ------ ---- ---- ------- ----- -- ----<br>-------- ------- -- ---------- --- - --- ----- ----- ----<br>---- --- --- ----- --- ---- ---- ------- ----- ---- -------<br>--- --- -- ----- -- --- ---- -- --- ---- -- ------ ------<br>--- ----- -- ----,27713.30000001192,27712.599999964237,27215.098,27217.599999964237,27231.764,27715.027,,10,common
screen,html.Screen,0_2_0_1_11,2021-12-02T14:45:21.985Z,,,,,,,,,,,,,,,,53,,,,,,,,,,,,,,453.67299998808085,,response,,,99,,,,,,Space,keypress(Space),,,,,---- -- ----- -- ------ - ------- --- ----------<br>------------- ------ wisdom ---- ---- ------- ----- -- ----<br>-------- ------- -- ---------- --- - --- ----- ----- ----<br>---- --- --- ----- --- ---- ---- ------- ----- ---- -------<br>--- --- -- ----- -- --- ---- -- --- ---- -- ------ ------<br>--- ----- -- ----,28169.5,28168.69999998808,27698.362,27713.599999964237,27715.027,28181.727,,11,wisdom
screen,html.Screen,0_2_0_1_12,2021-12-02T14:45:22.537Z,,,,,,,,,,,,,,,,53,,,,,,,,,,,,,,538.8729999642383,,response,,,99,,,,,,Space,keypress(Space),,,,,---- -- ----- -- ------ - ------- --- ----------<br>------------- ------ ------ says ---- ------- ----- -- ----<br>-------- ------- -- ---------- --- - --- ----- ----- ----<br>---- --- --- ----- --- ---- ---- ------- ----- ---- -------<br>--- --- -- ----- -- --- ---- -- --- ---- -- ------ ------<br>--- ----- -- ----,28721.19999998808,28720.599999964237,28165.061,28169.69999998808,28181.727,28731.665,,12,says
screen,html.Screen,0_2_0_1_13,2021-12-02T14:45:22.977Z,,,,,,,,,,,,,,,,53,,,,,,,,,,,,,,428.93499996423634,,response,,,99,,,,,,Space,keypress(Space),,,,,---- -- ----- -- ------ - ------- --- ----------<br>------------- ------ ------ ---- that ------- ----- -- ----<br>-------- ------- -- ---------- --- - --- ----- ----- ----<br>---- --- --- ----- --- ---- ---- ------- ----- ---- -------<br>--- --- -- ----- -- --- ---- -- --- ---- -- ------ ------<br>--- ----- -- ----,29161.30000001192,29160.599999964237,28715,28721.399999976158,28731.665,29165.045,,13,that
screen,html.Screen,0_2_0_1_14,2021-12-02T14:45:23.465Z,,,,,,,,,,,,,,,,53,,,,,,,,,,,,,,483.45500000000175,,response,,,99,,,,,,Space,keypress(Space),,,,,---- -- ----- -- ------ - ------- --- ----------<br>------------- ------ ------ ---- ---- feeling ----- -- ----<br>-------- ------- -- ---------- --- - --- ----- ----- ----<br>---- --- --- ----- --- ---- ---- ------- ----- ---- -------<br>--- --- -- ----- -- --- ---- -- --- ---- -- ------ ------<br>--- ----- -- ----,29649.19999998808,29648.5,29148.379,29161.399999976158,29165.045,29664.954,,14,feeling
screen,html.Screen,0_2_0_1_15,2021-12-02T14:45:23.905Z,,,,,,,,,,,,,,,,53,,,,,,,,,,,,,,423.64599996423567,,response,,,99,,,,,,Space,keypress(Space),,,,,---- -- ----- -- ------ - ------- --- ----------<br>------------- ------ ------ ---- ---- ------- close -- ----<br>-------- ------- -- ---------- --- - --- ----- ----- ----<br>---- --- --- ----- --- ---- ---- ------- ----- ---- -------<br>--- --- -- ----- -- --- ---- -- --- ---- -- ------ ------<br>--- ----- -- ----,30089.19999998808,30088.599999964237,29648.289,29649.399999976158,29664.954,30098.288,,15,close
screen,html.Screen,0_2_0_1_16,2021-12-02T14:45:24.313Z,,,,,,,,,,,,,,,,53,,,,,,,,,,,,,,398.21199999999953,,response,,,99,,,,,,Space,keypress(Space),,,,,---- -- ----- -- ------ - ------- --- ----------<br>------------- ------ ------ ---- ---- ------- ----- to ----<br>-------- ------- -- ---------- --- - --- ----- ----- ----<br>---- --- --- ----- --- ---- ---- ------- ----- ---- -------<br>--- --- -- ----- -- --- ---- -- --- ---- -- ------ ------<br>--- ----- -- ----,30497.19999998808,30496.5,30081.623,30089.399999976158,30098.288,30498.315,,16,to
screen,html.Screen,0_2_0_1_17,2021-12-02T14:45:24.801Z,,,,,,,,,,,,,,,,53,,,,,,,,,,,,,,486.1850000000013,,response,,,99,,,,,,Space,keypress(Space),,,,,---- -- ----- -- ------ - ------- --- ----------<br>------------- ------ ------ ---- ---- ------- ----- -- your<br>-------- ------- -- ---------- --- - --- ----- ----- ----<br>---- --- --- ----- --- ---- ---- ------- ----- ---- -------<br>--- --- -- ----- -- --- ---- -- --- ---- -- ------ ------<br>--- ----- -- ----,30985.099999964237,30984.5,30481.649,30497.30000001192,30498.315,30998.165,,17,your
screen,html.Screen,0_2_0_1_18,2021-12-02T14:45:25.289Z,,,,,,,,,,,,,,,,53,,,,,,,,,,,,,,474.3349999999991,,response,,,99,,,,,,Space,keypress(Space),,,,,---- -- ----- -- ------ - ------- --- ----------<br>------------- ------ ------ ---- ---- ------- ----- -- ----<br>romantic ------- -- ---------- --- - --- ----- ----- ----<br>---- --- --- ----- --- ---- ---- ------- ----- ---- -------<br>--- --- -- ----- -- --- ---- -- --- ---- -- ------ ------<br>--- ----- -- ----,31473.099999964237,31472.5,30981.501,30985.30000001192,30998.165,31481.535,,18,romantic
screen,html.Screen,0_2_0_1_19,2021-12-02T14:45:25.769Z,,,,,,,,,,,,,,,,53,,,,,,,,,,,,,,471.06499996423736,,response,,,99,,,,,,Space,keypress(Space),,,,,---- -- ----- -- ------ - ------- --- ----------<br>------------- ------ ------ ---- ---- ------- ----- -- ----<br>-------- partner -- ---------- --- - --- ----- ----- ----<br>---- --- --- ----- --- ---- ---- ------- ----- ---- -------<br>--- --- -- ----- -- --- ---- -- --- ---- -- ------ ------<br>--- ----- -- ----,31953.19999998808,31952.599999964237,31464.87,31473.30000001192,31481.535,31964.953,,19,partner
screen,html.Screen,0_2_0_1_20,2021-12-02T14:45:26.217Z,,,,,,,,,,,,,,,,53,,,,,,,,,,,,,,435.54699999999866,,response,,,99,,,,,,Space,keypress(Space),,,,,---- -- ----- -- ------ - ------- --- ----------<br>------------- ------ ------ ---- ---- ------- ----- -- ----<br>-------- ------- is ---------- --- - --- ----- ----- ----<br>---- --- --- ----- --- ---- ---- ------- ----- ---- -------<br>--- --- -- ----- -- --- ---- -- --- ---- -- ------ ------<br>--- ----- -- ----,32401.099999964237,32400.5,31948.286,31953.30000001192,31964.953,32414.905,,20,is
screen,html.Screen,0_2_0_1_21,2021-12-02T14:45:26.769Z,,,,,,,,,,,,,,,,53,,,,,,,,,,,,,,537.6949999642384,,response,,,99,,,,,,Space,keypress(Space),,,,,---- -- ----- -- ------ - ------- --- ----------<br>------------- ------ ------ ---- ---- ------- ----- -- ----<br>-------- ------- -- paramount. --- - --- ----- ----- ----<br>---- --- --- ----- --- ---- ---- ------- ----- ---- -------<br>--- --- -- ----- -- --- ---- -- --- ---- -- ------ ------<br>--- ----- -- ----,32953.19999998808,32952.59999996424,32398.239,32401.19999998808,32414.905,32964.841,,21,paramount.
screen,html.Screen,0_2_0_1_22,2021-12-02T14:45:27.321Z,,,,,,,,,,,,,,,,53,,,,,,,,,,,,,,539.6589999999997,,response,,,99,,,,,,Space,keypress(Space),,,,,---- -- ----- -- ------ - ------- --- ----------<br>------------- ------ ------ ---- ---- ------- ----- -- ----<br>-------- ------- -- ---------- But - --- ----- ----- ----<br>---- --- --- ----- --- ---- ---- ------- ----- ---- -------<br>--- --- -- ----- -- --- ---- -- --- ---- -- ------ ------<br>--- ----- -- ----,33505.09999996424,33504.5,32948.176,32953.39999997616,32964.841,33514.82,,22,But
screen,html.Screen,0_2_0_1_23,2021-12-02T14:45:27.737Z,,,,,,,,,,,,,,,,53,,,,,,,,,,,,,,405.7799999642375,,response,,,99,,,,,,Space,keypress(Space),,,,,---- -- ----- -- ------ - ------- --- ----------<br>------------- ------ ------ ---- ---- ------- ----- -- ----<br>-------- ------- -- ---------- --- a --- ----- ----- ----<br>---- --- --- ----- --- ---- ---- ------- ----- ---- -------<br>--- --- -- ----- -- --- ---- -- --- ---- -- ------ ------<br>--- ----- -- ----,33921.19999998808,33920.59999996424,33498.155,33505.30000001192,33514.82,33931.478,,23,a
screen,html.Screen,0_2_0_1_24,2021-12-02T14:45:28.185Z,,,,,,,,,,,,,,,,53,,,,,,,,,,,,,,436.92199997615535,,response,,,99,,,,,,Space,keypress(Space),,,,,---- -- ----- -- ------ - ------- --- ----------<br>------------- ------ ------ ---- ---- ------- ----- -- ----<br>-------- ------- -- ---------- --- - new ----- ----- ----<br>---- --- --- ----- --- ---- ---- ------- ----- ---- -------<br>--- --- -- ----- -- --- ---- -- --- ---- -- ------ ------<br>--- ----- -- ----,34369,34368.39999997616,33914.813,33921.39999997616,33931.478,34381.462,,24,new
screen,html.Screen,0_2_0_1_25,2021-12-02T14:45:28.617Z,,,,,,,,,,,,,,,,53,,,,,,,,,,,,,,418.9379999761586,,response,,,99,,,,,,Space,keypress(Space),,,,,---- -- ----- -- ------ - ------- --- ----------<br>------------- ------ ------ ---- ---- ------- ----- -- ----<br>-------- ------- -- ---------- --- - --- study ----- ----<br>---- --- --- ----- --- ---- ---- ------- ----- ---- -------<br>--- --- -- ----- -- --- ---- -- --- ---- -- ------ ------<br>--- ----- -- ----,34801,34800.39999997616,34364.797,34369.09999996424,34381.462,34814.815,,25,study
screen,html.Screen,0_2_0_1_26,2021-12-02T14:45:29.033Z,,,,,,,,,,,,,,,,53,,,,,,,,,,,,,,401.6849999999977,,response,,,99,,,,,,Space,keypress(Space),,,,,---- -- ----- -- ------ - ------- --- ----------<br>------------- ------ ------ ---- ---- ------- ----- -- ----<br>-------- ------- -- ---------- --- - --- ----- finds ----<br>---- --- --- ----- --- ---- ---- ------- ----- ---- -------<br>--- --- -- ----- -- --- ---- -- --- ---- -- ------ ------<br>--- ----- -- ----,35217.09999996424,35216.5,34798.149,34801.19999998808,34814.815,35231.418,,26,finds
screen,html.Screen,0_2_0_1_27,2021-12-02T14:45:29.505Z,,,,,,,,,,,,,,,,53,,,,,,,,,,,,,,456.9819999761603,,response,,,99,,,,,,Space,keypress(Space),,,,,---- -- ----- -- ------ - ------- --- ----------<br>------------- ------ ------ ---- ---- ------- ----- -- ----<br>-------- ------- -- ---------- --- - --- ----- ----- that<br>---- --- --- ----- --- ---- ---- ------- ----- ---- -------<br>--- --- -- ----- -- --- ---- -- --- ---- -- ------ ------<br>--- ----- -- ----,35689,35688.39999997616,35214.753,35217.30000001192,35231.418,35698.114,,27,that
screen,html.Screen,0_2_0_1_28,2021-12-02T14:45:29.977Z,,,,,,,,,,,,,,,,53,,,,,,,,,,,,,,462.18600001191953,,response,,,99,,,,,,Space,keypress(Space),,,,,---- -- ----- -- ------ - ------- --- ----------<br>------------- ------ ------ ---- ---- ------- ----- -- ----<br>-------- ------- -- ---------- --- - --- ----- ----- ----<br>it's --- --- ----- --- ---- ---- ------- ----- ---- -------<br>--- --- -- ----- -- --- ---- -- --- ---- -- ------ ------<br>--- ----- -- ----,36161,36160.30000001192,35681.448,35689.19999998808,35698.114,36164.637,,28,it's
screen,html.Screen,0_2_0_1_29,2021-12-02T14:45:30.408Z,,,,,,,,,,,,,,,,53,,,,,,,,,,,,,,427.6630000119185,,response,,,99,,,,,,Space,keypress(Space),,,,,---- -- ----- -- ------ - ------- --- ----------<br>------------- ------ ------ ---- ---- ------- ----- -- ----<br>-------- ------- -- ---------- --- - --- ----- ----- ----<br>---- not --- ----- --- ---- ---- ------- ----- ---- -------<br>--- --- -- ----- -- --- ---- -- --- ---- -- ------ ------<br>--- ----- -- ----,36592.89999997616,36592.30000001192,36147.973,36161.09999996424,36164.637,36598.095,,29,not
screen,html.Screen,0_2_0_1_30,2021-12-02T14:45:30.833Z,,,,,,,,,,,,,,,,53,,,,,,,,,,,,,,418.20500001191976,,response,,,99,,,,,,Space,keypress(Space),,,,,---- -- ----- -- ------ - ------- --- ----------<br>------------- ------ ------ ---- ---- ------- ----- -- ----<br>-------- ------- -- ---------- --- - --- ----- ----- ----<br>---- --- how ----- --- ---- ---- ------- ----- ---- -------<br>--- --- -- ----- -- --- ---- -- --- ---- -- ------ ------<br>--- ----- -- ----,37016.89999997616,37016.30000001192,36581.429,36593.09999996424,36598.095,37031.4,,30,how
screen,html.Screen,0_2_0_1_31,2021-12-02T14:45:31.352Z,,,,,,,,,,,,,,,,53,,,,,,,,,,,,,,504.9000000119195,,response,,,99,,,,,,Space,keypress(Space),,,,,---- -- ----- -- ------ - ------- --- ----------<br>------------- ------ ------ ---- ---- ------- ----- -- ----<br>-------- ------- -- ---------- --- - --- ----- ----- ----<br>---- --- --- close --- ---- ---- ------- ----- ---- -------<br>--- --- -- ----- -- --- ---- -- --- ---- -- ------ ------<br>--- ----- -- ----,37536.89999997616,37536.30000001192,37014.734,37017.19999998808,37031.4,37548.004,,31,close
screen,html.Screen,0_2_0_1_32,2021-12-02T14:45:31.809Z,,,,,,,,,,,,,,,,53,,,,,,,,,,,,,,444.2960000119201,,response,,,99,,,,,,Space,keypress(Space),,,,,---- -- ----- -- ------ - ------- --- ----------<br>------------- ------ ------ ---- ---- ------- ----- -- ----<br>-------- ------- -- ---------- --- - --- ----- ----- ----<br>---- --- --- ----- you ---- ---- ------- ----- ---- -------<br>--- --- -- ----- -- --- ---- -- --- ---- -- ------ ------<br>--- ----- -- ----,37993,37992.30000001192,37531.339,37537.09999996424,37548.004,37998.077,,32,you
screen,html.Screen,0_2_0_1_33,2021-12-02T14:45:32.240Z,,,,,,,,,,,,,,,,53,,,,,,,,,,,,,,426.22300001192343,,response,,,99,,,,,,Space,keypress(Space),,,,,---- -- ----- -- ------ - ------- --- ----------<br>------------- ------ ------ ---- ---- ------- ----- -- ----<br>-------- ------- -- ---------- --- - --- ----- ----- ----<br>---- --- --- ----- --- feel ---- ------- ----- ---- -------<br>--- --- -- ----- -- --- ---- -- --- ---- -- ------ ------<br>--- ----- -- ----,38424.80000001192,38424.30000001192,37981.41,37993.09999996424,37998.077,38431.262,,33,feel
screen,html.Screen,0_2_0_1_34,2021-12-02T14:45:32.785Z,,,,,,,,,,,,,,,,53,,,,,,,,,,,,,,537.0380000119185,,response,,,99,,,,,,Space,keypress(Space),,,,,---- -- ----- -- ------ - ------- --- ----------<br>------------- ------ ------ ---- ---- ------- ----- -- ----<br>-------- ------- -- ---------- --- - --- ----- ----- ----<br>---- --- --- ----- --- ---- that ------- ----- ---- -------<br>--- --- -- ----- -- --- ---- -- --- ---- -- ------ ------<br>--- ----- -- ----,38968.89999997616,38968.30000001192,38414.598,38425.09999996424,38431.262,38981.283,,34,that
screen,html.Screen,0_2_0_1_35,2021-12-02T14:45:33.736Z,,,,,,,,,,,,,,,,53,,,,,,,,,,,,,,939.0170000119178,,response,,,99,,,,,,Space,keypress(Space),,,,,---- -- ----- -- ------ - ------- --- ----------<br>------------- ------ ------ ---- ---- ------- ----- -- ----<br>-------- ------- -- ---------- --- - --- ----- ----- ----<br>---- --- --- ----- --- ---- ---- matters ----- ---- -------<br>--- --- -- ----- -- --- ---- -- --- ---- -- ------ ------<br>--- ----- -- ----,39920.89999997616,39920.30000001192,38964.618,38969.09999996424,38981.283,39931.296,,35,matters
screen,html.Screen,0_2_0_1_36,2021-12-02T14:45:34.305Z,,,,,,,,,,,,,,,,53,,,,,,,,,,,,,,556.903999988077,,response,,,99,,,,,,Space,keypress(Space),,,,,"---- -- ----- -- ------ - ------- --- ----------<br>------------- ------ ------ ---- ---- ------- ----- -- ----<br>-------- ------- -- ---------- --- - --- ----- ----- ----<br>---- --- --- ----- --- ---- ---- ------- most, ---- -------<br>--- --- -- ----- -- --- ---- -- --- ---- -- ------ ------<br>--- ----- -- ----",40488.89999997616,40488.19999998808,39914.63,39921,39931.296,40497.91,,36,"most,"
screen,html.Screen,0_2_0_1_37,2021-12-02T14:45:34.872Z,,,,,,,,,,,,,,,,53,,,,,,,,,,,,,,558.2899999880756,,response,,,99,,,,,,Space,keypress(Space),,,,,---- -- ----- -- ------ - ------- --- ----------<br>------------- ------ ------ ---- ---- ------- ----- -- ----<br>-------- ------- -- ---------- --- - --- ----- ----- ----<br>---- --- --- ----- --- ---- ---- ------- ----- it's -------<br>--- --- -- ----- -- --- ---- -- --- ---- -- ------ ------<br>--- ----- -- ----,41056.69999998808,41056.19999998808,40481.245,40489.09999996424,40497.91,41064.561,,37,it's
screen,html.Screen,0_2_0_1_38,2021-12-02T14:45:35.312Z,,,,,,,,,,,,,,,,53,,,,,,,,,,,,,,431.5389999642357,,response,,,99,,,,,,Space,keypress(Space),,,,,---- -- ----- -- ------ - ------- --- ----------<br>------------- ------ ------ ---- ---- ------- ----- -- ----<br>-------- ------- -- ---------- --- - --- ----- ----- ----<br>---- --- --- ----- --- ---- ---- ------- ----- ---- whether<br>--- --- -- ----- -- --- ---- -- --- ---- -- ------ ------<br>--- ----- -- ----,41496.80000001192,41496.09999996424,41047.896,41056.89999997616,41064.561,41497.792,,38,whether
screen,html.Screen,0_2_0_1_39,2021-12-02T14:45:35.792Z,,,,,,,,,,,,,,,,53,,,,,,,,,,,,,,478.4079999880778,,response,,,99,,,,,,Space,keypress(Space),,,,,---- -- ----- -- ------ - ------- --- ----------<br>------------- ------ ------ ---- ---- ------- ----- -- ----<br>-------- ------- -- ---------- --- - --- ----- ----- ----<br>---- --- --- ----- --- ---- ---- ------- ----- ---- -------<br>you --- -- ----- -- --- ---- -- --- ---- -- ------ ------<br>--- ----- -- ----,41976.80000001192,41976.19999998808,41481.128,41496.89999997616,41497.792,41981.24,,39,you
screen,html.Screen,0_2_0_1_40,2021-12-02T14:45:36.184Z,,,,,,,,,,,,,,,,53,,,,,,,,,,,,,,386.9599999880811,,response,,,99,,,,,,Space,keypress(Space),,,,,---- -- ----- -- ------ - ------- --- ----------<br>------------- ------ ------ ---- ---- ------- ----- -- ----<br>-------- ------- -- ---------- --- - --- ----- ----- ----<br>---- --- --- ----- --- ---- ---- ------- ----- ---- -------<br>--- are -- ----- -- --- ---- -- --- ---- -- ------ ------<br>--- ----- -- ----,42368.69999998808,42368.19999998808,41964.574,41976.89999997616,41981.24,42381.159,,40,are
screen,html.Screen,0_2_0_1_41,2021-12-02T14:45:36.560Z,,,,,,,,,,,,,,,,53,,,,,,,,,,,,,,362.84100000000035,,response,,,99,,,,,,Space,keypress(Space),,,,,---- -- ----- -- ------ - ------- --- ----------<br>------------- ------ ------ ---- ---- ------- ----- -- ----<br>-------- ------- -- ---------- --- - --- ----- ----- ----<br>---- --- --- ----- --- ---- ---- ------- ----- ---- -------<br>--- --- as ----- -- --- ---- -- --- ---- -- ------ ------<br>--- ----- -- ----,42744.59999996424,42744,42364.494,42368.89999997616,42381.159,42747.892,,41,as
screen,html.Screen,0_2_0_1_42,2021-12-02T14:45:36.960Z,,,,,,,,,,,,,,,,53,,,,,,,,,,,,,,396.2079999642374,,response,,,99,,,,,,Space,keypress(Space),,,,,---- -- ----- -- ------ - ------- --- ----------<br>------------- ------ ------ ---- ---- ------- ----- -- ----<br>-------- ------- -- ---------- --- - --- ----- ----- ----<br>---- --- --- ----- --- ---- ---- ------- ----- ---- -------<br>--- --- -- close -- --- ---- -- --- ---- -- ------ ------<br>--- ----- -- ----,43144.69999998808,43144.09999996424,42731.226,42744.69999998808,42747.892,43147.832,,42,close
screen,html.Screen,0_2_0_1_43,2021-12-02T14:45:37.368Z,,,,,,,,,,,,,,,,53,,,,,,,,,,,,,,404.16799999999785,,response,,,99,,,,,,Space,keypress(Space),,,,,---- -- ----- -- ------ - ------- --- ----------<br>------------- ------ ------ ---- ---- ------- ----- -- ----<br>-------- ------- -- ---------- --- - --- ----- ----- ----<br>---- --- --- ----- --- ---- ---- ------- ----- ---- -------<br>--- --- -- ----- as --- ---- -- --- ---- -- ------ ------<br>--- ----- -- ----,43552.39999997616,43552,43131.167,43144.89999997616,43147.832,43564.41,,43,as
screen,html.Screen,0_2_0_1_44,2021-12-02T14:45:37.760Z,,,,,,,,,,,,,,,,53,,,,,,,,,,,,,,379.5899999999965,,response,,,99,,,,,,Space,keypress(Space),,,,,---- -- ----- -- ------ - ------- --- ----------<br>------------- ------ ------ ---- ---- ------- ----- -- ----<br>-------- ------- -- ---------- --- - --- ----- ----- ----<br>---- --- --- ----- --- ---- ---- ------- ----- ---- -------<br>--- --- -- ----- -- you ---- -- --- ---- -- ------ ------<br>--- ----- -- ----,43944.5,43944,43547.746,43552.5,43564.41,43947.776,,44,you
screen,html.Screen,0_2_0_1_45,2021-12-02T14:45:38.200Z,,,,,,,,,,,,,,,,53,,,,,,,,,,,,,,436.3239999642392,,response,,,99,,,,,,Space,keypress(Space),,,,,---- -- ----- -- ------ - ------- --- ----------<br>------------- ------ ------ ---- ---- ------- ----- -- ----<br>-------- ------- -- ---------- --- - --- ----- ----- ----<br>---- --- --- ----- --- ---- ---- ------- ----- ---- -------<br>--- --- -- ----- -- --- want -- --- ---- -- ------ ------<br>--- ----- -- ----,44384.89999997616,44384.09999996424,43931.111,43944.59999996424,43947.776,44397.736,,45,want
screen,html.Screen,0_2_0_1_46,2021-12-02T14:45:38.616Z,,,,,,,,,,,,,,,,53,,,,,,,,,,,,,,402.26400000000285,,response,,,99,,,,,,Space,keypress(Space),,,,,---- -- ----- -- ------ - ------- --- ----------<br>------------- ------ ------ ---- ---- ------- ----- -- ----<br>-------- ------- -- ---------- --- - --- ----- ----- ----<br>---- --- --- ----- --- ---- ---- ------- ----- ---- -------<br>--- --- -- ----- -- --- ---- to --- ---- -- ------ ------<br>--- ----- -- ----,44800.59999996424,44800,44381.071,44385,44397.736,44814.322,,46,to
screen,html.Screen,0_2_0_1_47,2021-12-02T14:45:39.104Z,,,,,,,,,,,,,,,,53,,,,,,,,,,,,,,473.7779999642371,,response,,,99,,,,,,Space,keypress(Space),,,,,"---- -- ----- -- ------ - ------- --- ----------<br>------------- ------ ------ ---- ---- ------- ----- -- ----<br>-------- ------- -- ---------- --- - --- ----- ----- ----<br>---- --- --- ----- --- ---- ---- ------- ----- ---- -------<br>--- --- -- ----- -- --- ---- -- be, ---- -- ------ ------<br>--- ----- -- ----",45288.59999996424,45288.09999996424,44797.658,44800.69999998808,44814.322,45297.802,,47,"be,"
screen,html.Screen,0_2_0_1_48,2021-12-02T14:45:39.592Z,,,,,,,,,,,,,,,,53,,,,,,,,,,,,,,478.1979999999967,,response,,,99,,,,,,Space,keypress(Space),,,,,---- -- ----- -- ------ - ------- --- ----------<br>------------- ------ ------ ---- ---- ------- ----- -- ----<br>-------- ------- -- ---------- --- - --- ----- ----- ----<br>---- --- --- ----- --- ---- ---- ------- ----- ---- -------<br>--- --- -- ----- -- --- ---- -- --- even -- ------ ------<br>--- ----- -- ----,45776.5,45776,45281.135,45288.80000001192,45297.802,45781.07,,48,even
screen,html.Screen,0_2_0_1_49,2021-12-02T14:45:40.016Z,,,,,,,,,,,,,,,,53,,,,,,,,,,,,,,418.9300000000003,,response,,,99,,,,,,Space,keypress(Space),,,,,---- -- ----- -- ------ - ------- --- ----------<br>------------- ------ ------ ---- ---- ------- ----- -- ----<br>-------- ------- -- ---------- --- - --- ----- ----- ----<br>---- --- --- ----- --- ---- ---- ------- ----- ---- -------<br>--- --- -- ----- -- --- ---- -- --- ---- if ------ ------<br>--- ----- -- ----,46200.59999996424,46200,45764.404,45776.69999998808,45781.07,46214.355,,49,if
screen,html.Screen,0_2_0_1_50,2021-12-02T14:45:40.424Z,,,,,,,,,,,,,,,,53,,,,,,,,,,,,,,393.6449999999968,,response,,,99,,,,,,Space,keypress(Space),,,,,---- -- ----- -- ------ - ------- --- ----------<br>------------- ------ ------ ---- ---- ------- ----- -- ----<br>-------- ------- -- ---------- --- - --- ----- ----- ----<br>---- --- --- ----- --- ---- ---- ------- ----- ---- -------<br>--- --- -- ----- -- --- ---- -- --- ---- -- that's ------<br>--- ----- -- ----,46608.39999997616,46608,46197.69,46200.80000001192,46214.355,46614.27,,50,that's
screen,html.Screen,0_2_0_1_51,2021-12-02T14:45:40.832Z,,,,,,,,,,,,,,,,53,,,,,,,,,,,,,,401.7300000000032,,response,,,99,,,,,,Space,keypress(Space),,,,,---- -- ----- -- ------ - ------- --- ----------<br>------------- ------ ------ ---- ---- ------- ----- -- ----<br>-------- ------- -- ---------- --- - --- ----- ----- ----<br>---- --- --- ----- --- ---- ---- ------- ----- ---- -------<br>--- --- -- ----- -- --- ---- -- --- ---- -- ------ really<br>--- ----- -- ----,47016.59999996424,47016,46597.606,46608.59999996424,46614.27,47031.07,,51,really
screen,html.Screen,0_2_0_1_52,2021-12-02T14:45:41.280Z,,,,,,,,,,,,,,,,53,,,,,,,,,,,,,,432.82999997615843,,response,,,99,,,,,,Space,keypress(Space),,,,,---- -- ----- -- ------ - ------- --- ----------<br>------------- ------ ------ ---- ---- ------- ----- -- ----<br>-------- ------- -- ---------- --- - --- ----- ----- ----<br>---- --- --- ----- --- ---- ---- ------- ----- ---- -------<br>--- --- -- ----- -- --- ---- -- --- ---- -- ------ ------<br>not ----- -- ----,47464.5,47463.89999997616,47014.403,47016.80000001192,47031.07,47480.973,,52,not
screen,html.Screen,0_2_0_1_53,2021-12-02T14:45:41.656Z,,,,,,,,,,,,,,,,53,,,,,,,,,,,,,,358.8270000119228,,response,,,99,,,,,,Space,keypress(Space),,,,,---- -- ----- -- ------ - ------- --- ----------<br>------------- ------ ------ ---- ---- ------- ----- -- ----<br>-------- ------- -- ---------- --- - --- ----- ----- ----<br>---- --- --- ----- --- ---- ---- ------- ----- ---- -------<br>--- --- -- ----- -- --- ---- -- --- ---- -- ------ ------<br>--- close -- ----,47840.39999997616,47839.80000001192,47464.308,47464.69999998808,47480.973,47847.665,,53,close
screen,html.Screen,0_2_0_1_54,2021-12-02T14:45:42.080Z,,,,,,,,,,,,,,,,53,,,,,,,,,,,,,,416.23499997615727,,response,,,99,,,,,,Space,keypress(Space),,,,,---- -- ----- -- ------ - ------- --- ----------<br>------------- ------ ------ ---- ---- ------- ----- -- ----<br>-------- ------- -- ---------- --- - --- ----- ----- ----<br>---- --- --- ----- --- ---- ---- ------- ----- ---- -------<br>--- --- -- ----- -- --- ---- -- --- ---- -- ------ ------<br>--- ----- at ----,48264.39999997616,48263.89999997616,47830.999,47840.5,47847.665,48280.945,,54,at
screen,html.Screen,0_2_0_1_55,2021-12-02T14:45:43.392Z,,,,,,,,,,,,,,,,53,,,,,,,,,,,,,,1294.9549999761584,,response,,,99,,,,,,Space,keypress(Space),,,,,---- -- ----- -- ------ - ------- --- ----------<br>------------- ------ ------ ---- ---- ------- ----- -- ----<br>-------- ------- -- ---------- --- - --- ----- ----- ----<br>---- --- --- ----- --- ---- ---- ------- ----- ---- -------<br>--- --- -- ----- -- --- ---- -- --- ---- -- ------ ------<br>--- ----- -- all.,49576.5,49575.89999997616,48264.28,48264.59999996424,48280.945,49580.928,,55,all.
Item 99,flow.Loop,0_2_0_1,2021-12-02T14:45:43.395Z,,,,,,,,,,,,,,,,,,,,,,,,,,,,,,26910.70499997616,,completion,,,,B,,,,,,,,,,silence,,49579.39999997616,49575.89999997616,22648.53,22652.399999976158,22665.195,49580.928,,,
Question 1,html.Screen,0_2_0_2,2021-12-02T14:45:54.085Z,,,,,,,,,,,,,,,,,,,,,,,,,,,true,FALSE,,10685.971999976158,,response,,,99,B,,,,,FALSE,click #choice-2,,,,silence,,60268,60266.89999997616,49564.262,49579.5,49580.928,60280.517,,,
Question 2,html.Screen,0_2_0_3,2021-12-02T14:46:03.779Z,,,,,,,,,,,,,,,,,,,,,,,,,,,true,TRUE,,9680.18299998808,,response,,,99,B,,,,,TRUE,click #choice-1,,,,silence,,69961.5,69960.69999998808,60263.851,60268.19999998808,60280.517,69963.429,,,
Item 99,flow.Sequence,0_2_0,2021-12-02T14:46:03.779Z,,,,,,,,,,,,,,,,,,,,,,,,,,,,,,57294.59399998808,,completion,,,,,,,,,,,,,,,,69961.80000001192,69960.69999998808,12649.425,12654.199999988079,12666.106,69963.429,,,
Holding screen,html.Screen,0_2_1_0,2021-12-02T14:46:13.765Z,,,,,,,,,,,,,,,,,,,,,,,,,,,,,,9999.62999999999,,timeout,,,,,,,,,,,,,,,,79947.5,79946.394,69946.764,69962,69963.429,79963.059,,,
screen,html.Screen,0_2_1_1_0,2021-12-02T14:46:14.609Z,,,,,,,,,,,,,,,,54,,,,,,,,,,,,,,827.9410000000062,,response,,,100,,,,,,Space,keypress(Space),,,,,At --- ---- --- ------ ----- ------- ---- -- --- ------- --<br>------- ---------- ------ -- ----- -- ----- -- ---- ------<br>--- ----- --- --- ------ -------- ----- --- ------ ----- --<br>----- ----- ---------- --- --- ------ ------ ---- -- ------<br>------- --- ------ ----- --- ---- ------- -- ---- --- --<br>------- ------,80791.59999996424,80791,79946.394,79947.80000001192,79963.059,80796.373,,0,At
screen,html.Screen,0_2_1_1_1,2021-12-02T14:46:15.104Z,,,,,,,,,,,,,,,,54,,,,,,,,,,,,,,490.22699996423034,,response,,,100,,,,,,Space,keypress(Space),,,,,-- the ---- --- ------ ----- ------- ---- -- --- ------- --<br>------- ---------- ------ -- ----- -- ----- -- ---- ------<br>--- ----- --- --- ------ -------- ----- --- ------ ----- --<br>----- ----- ---------- --- --- ------ ------ ---- -- ------<br>------- --- ------ ----- --- ---- ------- -- ---- --- --<br>------- ------,81287.19999998808,81286.59999996424,80779.708,80791.80000001192,80796.373,81296.377,,1,the
screen,html.Screen,0_2_1_1_2,2021-12-02T14:46:15.640Z,,,,,,,,,,,,,,,,54,,,,,,,,,,,,,,526.2229999642441,,response,,,100,,,,,,Space,keypress(Space),,,,,-- --- time --- ------ ----- ------- ---- -- --- ------- --<br>------- ---------- ------ -- ----- -- ----- -- ---- ------<br>--- ----- --- --- ------ -------- ----- --- ------ ----- --<br>----- ----- ---------- --- --- ------ ------ ---- -- ------<br>------- --- ------ ----- --- ---- ------- -- ---- --- --<br>------- ------,81823.09999996424,81822.59999996424,81279.712,81287.39999997616,81296.377,81829.742,,2,time
screen,html.Screen,0_2_1_1_3,2021-12-02T14:46:16.024Z,,,,,,,,,,,,,,,,54,,,,,,,,,,,,,,376.9579999880807,,response,,,100,,,,,,Space,keypress(Space),,,,,-- --- ---- the ------ ----- ------- ---- -- --- ------- --<br>------- ---------- ------ -- ----- -- ----- -- ---- ------<br>--- ----- --- --- ------ -------- ----- --- ------ ----- --<br>----- ----- ---------- --- --- ------ ------ ---- -- ------<br>------- --- ------ ----- --- ---- ------- -- ---- --- --<br>------- ------,82207.19999998808,82206.69999998808,81813.076,81823.30000001192,81829.742,82213.011,,3,the
screen,html.Screen,0_2_1_1_4,2021-12-02T14:46:16.440Z,,,,,,,,,,,,,,,,54,,,,,,,,,,,,,,409.5889999642386,,response,,,100,,,,,,Space,keypress(Space),,,,,-- --- ---- --- French ----- ------- ---- -- --- ------- --<br>------- ---------- ------ -- ----- -- ----- -- ---- ------<br>--- ----- --- --- ------ -------- ----- --- ------ ----- --<br>----- ----- ---------- --- --- ------ ------ ---- -- ------<br>------- --- ------ ----- --- ---- ------- -- ---- --- --<br>------- ------,82623.09999996424,82622.59999996424,82196.346,82207.30000001192,82213.011,82629.724,,4,French
screen,html.Screen,0_2_1_1_5,2021-12-02T14:46:16.905Z,,,,,,,,,,,,,,,,54,,,,,,,,,,,,,,456.9759999880771,,response,,,100,,,,,,Space,keypress(Space),,,,,-- --- ---- --- ------ crown ------- ---- -- --- ------- --<br>------- ---------- ------ -- ----- -- ----- -- ---- ------<br>--- ----- --- --- ------ -------- ----- --- ------ ----- --<br>----- ----- ---------- --- --- ------ ------ ---- -- ------<br>------- --- ------ ----- --- ---- ------- -- ---- --- --<br>------- ------,83087.30000001192,83086.69999998808,82613.058,82623.30000001192,82629.724,83096.313,,5,crown
screen,html.Screen,0_2_1_1_6,2021-12-02T14:46:17.440Z,,,,,,,,,,,,,,,,54,,,,,,,,,,,,,,526.2869999642426,,response,,,100,,,,,,Space,keypress(Space),,,,,-- --- ---- --- ------ ----- secured ---- -- --- ------- --<br>------- ---------- ------ -- ----- -- ----- -- ---- ------<br>--- ----- --- --- ------ -------- ----- --- ------ ----- --<br>----- ----- ---------- --- --- ------ ------ ---- -- ------<br>------- --- ------ ----- --- ---- ------- -- ---- --- --<br>------- ------,83623.09999996424,83622.59999996424,83079.648,83087.39999997616,83096.313,83629.676,,6,secured
screen,html.Screen,0_2_1_1_7,2021-12-02T14:46:18.001Z,,,,,,,,,,,,,,,,54,,,,,,,,,,,,,,552.9239999642305,,response,,,100,,,,,,Space,keypress(Space),,,,,-- --- ---- --- ------ ----- ------- much -- --- ------- --<br>------- ---------- ------ -- ----- -- ----- -- ---- ------<br>--- ----- --- --- ------ -------- ----- --- ------ ----- --<br>----- ----- ---------- --- --- ------ ------ ---- -- ------<br>------- --- ------ ----- --- ---- ------- -- ---- --- --<br>------- ------,84184,84182.59999996424,83613.01,83623.19999998808,83629.676,84196.258,,7,much
screen,html.Screen,0_2_1_1_8,2021-12-02T14:46:18.416Z,,,,,,,,,,,,,,,,54,,,,,,,,,,,,,,402.24199999999837,,response,,,100,,,,,,Space,keypress(Space),,,,,-- --- ---- --- ------ ----- ------- ---- of --- ------- --<br>------- ---------- ------ -- ----- -- ----- -- ---- ------<br>--- ----- --- --- ------ -------- ----- --- ------ ----- --<br>----- ----- ---------- --- --- ------ ------ ---- -- ------<br>------- --- ------ ----- --- ---- ------- -- ---- --- --<br>------- ------,84599.09999996424,84598.5,84179.593,84184.09999996424,84196.258,84613.012,,8,of
screen,html.Screen,0_2_1_1_9,2021-12-02T14:46:18.952Z,,,,,,,,,,,,,,,,54,,,,,,,,,,,,,,521.4879999999976,,response,,,100,,,,,,Space,keypress(Space),,,,,-- --- ---- --- ------ ----- ------- ---- -- its ------- --<br>------- ---------- ------ -- ----- -- ----- -- ---- ------<br>--- ----- --- --- ------ -------- ----- --- ------ ----- --<br>----- ----- ---------- --- --- ------ ------ ---- -- ------<br>------- --- ------ ----- --- ---- ------- -- ---- --- --<br>------- ------,85135,85134.5,84596.346,84599.19999998808,84613.012,85146.222,,9,its
screen,html.Screen,0_2_1_1_10,2021-12-02T14:46:19.576Z,,,,,,,,,,,,,,,,54,,,,,,,,,,,,,,612.2780000000057,,response,,,100,,,,,,Space,keypress(Space),,,,,-- --- ---- --- ------ ----- ------- ---- -- --- revenue --<br>------- ---------- ------ -- ----- -- ----- -- ---- ------<br>--- ----- --- --- ------ -------- ----- --- ------ ----- --<br>----- ----- ---------- --- --- ------ ------ ---- -- ------<br>------- --- ------ ----- --- ---- ------- -- ---- --- --<br>------- ------,85759,85758.5,85129.557,85135.19999998808,85146.222,85762.874,,10,revenue
screen,html.Screen,0_2_1_1_11,2021-12-02T14:46:20.008Z,,,,,,,,,,,,,,,,54,,,,,,,,,,,,,,427.62600000000384,,response,,,100,,,,,,Space,keypress(Space),,,,,-- --- ---- --- ------ ----- ------- ---- -- --- ------- by<br>------- ---------- ------ -- ----- -- ----- -- ---- ------<br>--- ----- --- --- ------ -------- ----- --- ------ ----- --<br>----- ----- ---------- --- --- ------ ------ ---- -- ------<br>------- --- ------ ----- --- ---- ------- -- ---- --- --<br>------- ------,86191.09999996424,86190.5,85746.209,85759.19999998808,85762.874,86196.203,,11,by
screen,html.Screen,0_2_1_1_12,2021-12-02T14:46:20.552Z,,,,,,,,,,,,,,,,54,,,,,,,,,,,,,,538.2970000000059,,response,,,100,,,,,,Space,keypress(Space),,,,,-- --- ---- --- ------ ----- ------- ---- -- --- ------- --<br>issuing ---------- ------ -- ----- -- ----- -- ---- ------<br>--- ----- --- --- ------ -------- ----- --- ------ ----- --<br>----- ----- ---------- --- --- ------ ------ ---- -- ------<br>------- --- ------ ----- --- ---- ------- -- ---- --- --<br>------- ------,86735.09999996424,86734.5,86179.538,86191.19999998808,86196.203,86746.226,,12,issuing
screen,html.Screen,0_2_1_1_13,2021-12-02T14:46:21.056Z,,,,,,,,,,,,,,,,54,,,,,,,,,,,,,,492.2740000000049,,response,,,100,,,,,,Space,keypress(Space),,,,,-- --- ---- --- ------ ----- ------- ---- -- --- ------- --<br>------- government ------ -- ----- -- ----- -- ---- ------<br>--- ----- --- --- ------ -------- ----- --- ------ ----- --<br>----- ----- ---------- --- --- ------ ------ ---- -- ------<br>------- --- ------ ----- --- ---- ------- -- ---- --- --<br>------- ------,87239.09999996424,87238.5,86729.56,86735.19999998808,86746.226,87246.15,,13,government
screen,html.Screen,0_2_1_1_14,2021-12-02T14:46:21.576Z,,,,,,,,,,,,,,,,54,,,,,,,,,,,,,,512.249999976164,,response,,,100,,,,,,Space,keypress(Space),,,,,-- --- ---- --- ------ ----- ------- ---- -- --- ------- --<br>------- ---------- bonds. -- ----- -- ----- -- ---- ------<br>--- ----- --- --- ------ -------- ----- --- ------ ----- --<br>----- ----- ---------- --- --- ------ ------ ---- -- ------<br>------- --- ------ ----- --- ---- ------- -- ---- --- --<br>------- ------,87759,87758.39999997616,87229.485,87239.30000001192,87246.15,87762.806,,14,bonds.
screen,html.Screen,0_2_1_1_15,2021-12-02T14:46:22.296Z,,,,,,,,,,,,,,,,54,,,,,,,,,,,,,,715.5939999761613,,response,,,100,,,,,,Space,keypress(Space),,,,,-- --- ---- --- ------ ----- ------- ---- -- --- ------- --<br>------- ---------- ------ In ----- -- ----- -- ---- ------<br>--- ----- --- --- ------ -------- ----- --- ------ ----- --<br>----- ----- ---------- --- --- ------ ------ ---- -- ------<br>------- --- ------ ----- --- ---- ------- -- ---- --- --<br>------- ------,88479.09999996424,88478.39999997616,87746.141,87759.09999996424,87762.806,88496.099,,15,In
screen,html.Screen,0_2_1_1_16,2021-12-02T14:46:24.128Z,,,,,,,,,,,,,,,,54,,,,,,,,,,,,,,1814.3009999761562,,response,,,100,,,,,,Space,keypress(Space),,,,,"-- --- ---- --- ------ ----- ------- ---- -- --- ------- --<br>------- ---------- ------ -- 1727, -- ----- -- ---- ------<br>--- ----- --- --- ------ -------- ----- --- ------ ----- --<br>----- ----- ---------- --- --- ------ ------ ---- -- ------<br>------- --- ------ ----- --- ---- ------- -- ---- --- --<br>------- ------",90310.89999997616,90310.39999997616,88479.434,88479.19999998808,88496.099,90312.758,,16,"1727,"
screen,html.Screen,0_2_1_1_17,2021-12-02T14:46:24.688Z,,,,,,,,,,,,,,,,54,,,,,,,,,,,,,,557.7419999999984,,response,,,100,,,,,,Space,keypress(Space),,,,,-- --- ---- --- ------ ----- ------- ---- -- --- ------- --<br>------- ---------- ------ -- ----- in ----- -- ---- ------<br>--- ----- --- --- ------ -------- ----- --- ------ ----- --<br>----- ----- ---------- --- --- ------ ------ ---- -- ------<br>------- --- ------ ----- --- ---- ------- -- ---- --- --<br>------- ------,90871,90870.5,90296.092,90311.09999996424,90312.758,90879.335,,17,in
screen,html.Screen,0_2_1_1_18,2021-12-02T14:46:25.152Z,,,,,,,,,,,,,,,,54,,,,,,,,,,,,,,454.9650000119145,,response,,,100,,,,,,Space,keypress(Space),,,,,-- --- ---- --- ------ ----- ------- ---- -- --- ------- --<br>------- ---------- ------ -- ----- -- order -- ---- ------<br>--- ----- --- --- ------ -------- ----- --- ------ ----- --<br>----- ----- ---------- --- --- ------ ------ ---- -- ------<br>------- --- ------ ----- --- ---- ------- -- ---- --- --<br>------- ------,91334.89999997616,91334.30000001192,90862.67,90871.19999998808,90879.335,91346.072,,18,order
screen,html.Screen,0_2_1_1_19,2021-12-02T14:46:25.592Z,,,,,,,,,,,,,,,,54,,,,,,,,,,,,,,428.12799998807895,,response,,,100,,,,,,Space,keypress(Space),,,,,-- --- ---- --- ------ ----- ------- ---- -- --- ------- --<br>------- ---------- ------ -- ----- -- ----- to ---- ------<br>--- ----- --- --- ------ -------- ----- --- ------ ----- --<br>----- ----- ---------- --- --- ------ ------ ---- -- ------<br>------- --- ------ ----- --- ---- ------- -- ---- --- --<br>------- ------,91774.80000001192,91774.19999998808,91329.406,91335.09999996424,91346.072,91779.349,,19,to
screen,html.Screen,0_2_1_1_20,2021-12-02T14:46:26.080Z,,,,,,,,,,,,,,,,54,,,,,,,,,,,,,,482.95100001191895,,response,,,100,,,,,,Space,keypress(Space),,,,,-- --- ---- --- ------ ----- ------- ---- -- --- ------- --<br>------- ---------- ------ -- ----- -- ----- -- save ------<br>--- ----- --- --- ------ -------- ----- --- ------ ----- --<br>----- ----- ---------- --- --- ------ ------ ---- -- ------<br>------- --- ------ ----- --- ---- ------- -- ---- --- --<br>------- ------,92262.80000001192,92262.30000001192,91762.684,91774.89999997616,91779.349,92279.254,,20,save
screen,html.Screen,0_2_1_1_21,2021-12-02T14:46:26.568Z,,,,,,,,,,,,,,,,54,,,,,,,,,,,,,,470.94599998807826,,response,,,100,,,,,,Space,keypress(Space),,,,,"-- --- ---- --- ------ ----- ------- ---- -- --- ------- --<br>------- ---------- ------ -- ----- -- ----- -- ---- money,<br>--- ----- --- --- ------ -------- ----- --- ------ ----- --<br>----- ----- ---------- --- --- ------ ------ ---- -- ------<br>------- --- ------ ----- --- ---- ------- -- ---- --- --<br>------- ------",92750.89999997616,92750.19999998808,92262.59,92263,92279.254,92762.723,,21,"money,"
screen,html.Screen,0_2_1_1_22,2021-12-02T14:46:27.144Z,,,,,,,,,,,,,,,,54,,,,,,,,,,,,,,563.4769999880809,,response,,,100,,,,,,Space,keypress(Space),,,,,-- --- ---- --- ------ ----- ------- ---- -- --- ------- --<br>------- ---------- ------ -- ----- -- ----- -- ---- ------<br>the ----- --- --- ------ -------- ----- --- ------ ----- --<br>----- ----- ---------- --- --- ------ ------ ---- -- ------<br>------- --- ------ ----- --- ---- ------- -- ---- --- --<br>------- ------,93326.80000001192,93326.19999998808,92746.056,92751,92762.723,93329.251,,22,the
screen,html.Screen,0_2_1_1_23,2021-12-02T14:46:27.712Z,,,,,,,,,,,,,,,,54,,,,,,,,,,,,,,564.9489999880752,,response,,,100,,,,,,Space,keypress(Space),,,,,-- --- ---- --- ------ ----- ------- ---- -- --- ------- --<br>------- ---------- ------ -- ----- -- ----- -- ---- ------<br>--- state --- --- ------ -------- ----- --- ------ ----- --<br>----- ----- ---------- --- --- ------ ------ ---- -- ------<br>------- --- ------ ----- --- ---- ------- -- ---- --- --<br>------- ------,93894.80000001192,93894.19999998808,93312.586,93327.09999996424,93329.251,93895.907,,23,state
screen,html.Screen,0_2_1_1_24,2021-12-02T14:46:28.160Z,,,,,,,,,,,,,,,,54,,,,,,,,,,,,,,446.1929999642307,,response,,,100,,,,,,Space,keypress(Space),,,,,-- --- ---- --- ------ ----- ------- ---- -- --- ------- --<br>------- ---------- ------ -- ----- -- ----- -- ---- ------<br>--- ----- cut --- ------ -------- ----- --- ------ ----- --<br>----- ----- ---------- --- --- ------ ------ ---- -- ------<br>------- --- ------ ----- --- ---- ------- -- ---- --- --<br>------- ------,94342.69999998808,94342.09999996424,93879.242,93894.89999997616,93895.907,94345.941,,24,cut
screen,html.Screen,0_2_1_1_25,2021-12-02T14:46:28.712Z,,,,,,,,,,,,,,,,54,,,,,,,,,,,,,,548.158999964231,,response,,,100,,,,,,Space,keypress(Space),,,,,-- --- ---- --- ------ ----- ------- ---- -- --- ------- --<br>------- ---------- ------ -- ----- -- ----- -- ---- ------<br>--- ----- --- the ------ -------- ----- --- ------ ----- --<br>----- ----- ---------- --- --- ------ ------ ---- -- ------<br>------- --- ------ ----- --- ---- ------- -- ---- --- --<br>------- ------,94894.69999998808,94894.09999996424,94329.275,94342.89999997616,94345.941,94895.874,,25,the
screen,html.Screen,0_2_1_1_26,2021-12-02T14:46:29.456Z,,,,,,,,,,,,,,,,54,,,,,,,,,,,,,,742.3259999880829,,response,,,100,,,,,,Space,keypress(Space),,,,,-- --- ---- --- ------ ----- ------- ---- -- --- ------- --<br>------- ---------- ------ -- ----- -- ----- -- ---- ------<br>--- ----- --- --- bonds' -------- ----- --- ------ ----- --<br>----- ----- ---------- --- --- ------ ------ ---- -- ------<br>------- --- ------ ----- --- ---- ------- -- ---- --- --<br>------- ------,95638.80000001192,95638.19999998808,94879.209,94894.89999997616,94895.874,95645.832,,26,bonds'
screen,html.Screen,0_2_1_1_27,2021-12-02T14:46:30.176Z,,,,,,,,,,,,,,,,54,,,,,,,,,,,,,,712.3679999880842,,response,,,100,,,,,,Space,keypress(Space),,,,,-- --- ---- --- ------ ----- ------- ---- -- --- ------- --<br>------- ---------- ------ -- ----- -- ----- -- ---- ------<br>--- ----- --- --- ------ interest ----- --- ------ ----- --<br>----- ----- ---------- --- --- ------ ------ ---- -- ------<br>------- --- ------ ----- --- ---- ------- -- ---- --- --<br>------- ------,96358.80000001192,96358.19999998808,95629.167,95639,95645.832,96362.471,,27,interest
screen,html.Screen,0_2_1_1_28,2021-12-02T14:46:30.968Z,,,,,,,,,,,,,,,,54,,,,,,,,,,,,,,787.7289999880741,,response,,,100,,,,,,Space,keypress(Space),,,,,-- --- ---- --- ------ ----- ------- ---- -- --- ------- --<br>------- ---------- ------ -- ----- -- ----- -- ---- ------<br>--- ----- --- --- ------ -------- rate. --- ------ ----- --<br>----- ----- ---------- --- --- ------ ------ ---- -- ------<br>------- --- ------ ----- --- ---- ------- -- ---- --- --<br>------- ------,97150.80000001192,97150.19999998808,96345.806,96358.89999997616,96362.471,97162.436,,28,rate.
screen,html.Screen,0_2_1_1_29,2021-12-02T14:46:31.656Z,,,,,,,,,,,,,,,,54,,,,,,,,,,,,,,675.5639999999985,,response,,,100,,,,,,Space,keypress(Space),,,,,-- --- ---- --- ------ ----- ------- ---- -- --- ------- --<br>------- ---------- ------ -- ----- -- ----- -- ---- ------<br>--- ----- --- --- ------ -------- ----- The ------ ----- --<br>----- ----- ---------- --- --- ------ ------ ---- -- ------<br>------- --- ------ ----- --- ---- ------- -- ---- --- --<br>------- ------,97838.69999998808,97838,97145.771,97151,97162.436,97845.808,,29,The
screen,html.Screen,0_2_1_1_30,2021-12-02T14:46:32.696Z,,,,,,,,,,,,,,,,54,,,,,,,,,,,,,,1032.2919999642327,,response,,,100,,,,,,Space,keypress(Space),,,,,-- --- ---- --- ------ ----- ------- ---- -- --- ------- --<br>------- ---------- ------ -- ----- -- ----- -- ---- ------<br>--- ----- --- --- ------ -------- ----- --- market ----- --<br>----- ----- ---------- --- --- ------ ------ ---- -- ------<br>------- --- ------ ----- --- ---- ------- -- ---- --- --<br>------- ------,98878.59999996424,98878.09999996424,97829.142,97839,97845.808,98895.692,,30,market
screen,html.Screen,0_2_1_1_31,2021-12-02T14:46:33.248Z,,,,,,,,,,,,,,,,54,,,,,,,,,,,,,,534.3080000000045,,response,,,100,,,,,,Space,keypress(Space),,,,,-- --- ---- --- ------ ----- ------- ---- -- --- ------- --<br>------- ---------- ------ -- ----- -- ----- -- ---- ------<br>--- ----- --- --- ------ -------- ----- --- ------ value --<br>----- ----- ---------- --- --- ------ ------ ---- -- ------<br>------- --- ------ ----- --- ---- ------- -- ---- --- --<br>------- ------,99430.5,99430,98879.027,98878.80000001192,98895.692,99445.695,,31,value
screen,html.Screen,0_2_1_1_32,2021-12-02T14:46:33.968Z,,,,,,,,,,,,,,,,54,,,,,,,,,,,,,,704.304999999993,,response,,,100,,,,,,Space,keypress(Space),,,,,-- --- ---- --- ------ ----- ------- ---- -- --- ------- --<br>------- ---------- ------ -- ----- -- ----- -- ---- ------<br>--- ----- --- --- ------ -------- ----- --- ------ ----- of<br>----- ----- ---------- --- --- ------ ------ ---- -- ------<br>------- --- ------ ----- --- ---- ------- -- ---- --- --<br>------- ------,100150.5,100150,99429.03,99430.69999998808,99445.695,100162.333,,32,of
screen,html.Screen,0_2_1_1_33,2021-12-02T14:46:34.640Z,,,,,,,,,,,,,,,,54,,,,,,,,,,,,,,659.5669999761594,,response,,,100,,,,,,Space,keypress(Space),,,,,-- --- ---- --- ------ ----- ------- ---- -- --- ------- --<br>------- ---------- ------ -- ----- -- ----- -- ---- ------<br>--- ----- --- --- ------ -------- ----- --- ------ ----- --<br>these ----- ---------- --- --- ------ ------ ---- -- ------<br>------- --- ------ ----- --- ---- ------- -- ---- --- --<br>------- ------,100822.5,100821.89999997616,100145.668,100150.69999998808,100162.333,100828.975,,33,these
screen,html.Screen,0_2_1_1_34,2021-12-02T14:46:35.328Z,,,,,,,,,,,,,,,,54,,,,,,,,,,,,,,681.2249999880733,,response,,,100,,,,,,Space,keypress(Space),,,,,-- --- ---- --- ------ ----- ------- ---- -- --- ------- --<br>------- ---------- ------ -- ----- -- ----- -- ---- ------<br>--- ----- --- --- ------ -------- ----- --- ------ ----- --<br>----- bonds ---------- --- --- ------ ------ ---- -- ------<br>------- --- ------ ----- --- ---- ------- -- ---- --- --<br>------- ------,101510.69999998808,101510.19999998808,100812.31,100822.69999998808,100828.975,101512.284,,34,bonds
screen,html.Screen,0_2_1_1_35,2021-12-02T14:46:36.344Z,,,,,,,,,,,,,,,,54,,,,,,,,,,,,,,1013.6159999761585,,response,,,100,,,,,,Space,keypress(Space),,,,,"-- --- ---- --- ------ ----- ------- ---- -- --- ------- --<br>------- ---------- ------ -- ----- -- ----- -- ---- ------<br>--- ----- --- --- ------ -------- ----- --- ------ ----- --<br>----- ----- plummeted, --- --- ------ ------ ---- -- ------<br>------- --- ------ ----- --- ---- ------- -- ---- --- --<br>------- ------",102526.5,102525.89999997616,101495.619,101510.89999997616,101512.284,102528.994,,35,"plummeted,"
screen,html.Screen,0_2_1_1_36,2021-12-02T14:46:37.216Z,,,,,,,,,,,,,,,,54,,,,,,,,,,,,,,868.9059999761521,,response,,,100,,,,,,Space,keypress(Space),,,,,-- --- ---- --- ------ ----- ------- ---- -- --- ------- --<br>------- ---------- ------ -- ----- -- ----- -- ---- ------<br>--- ----- --- --- ------ -------- ----- --- ------ ----- --<br>----- ----- ---------- and --- ------ ------ ---- -- ------<br>------- --- ------ ----- --- ---- ------- -- ---- --- --<br>------- ------,103398.39999997616,103397.89999997616,102512.328,102526.69999998808,102528.994,103412.153,,36,and
screen,html.Screen,0_2_1_1_37,2021-12-02T14:46:37.720Z,,,,,,,,,,,,,,,,54,,,,,,,,,,,,,,489.54699998807337,,response,,,100,,,,,,Space,keypress(Space),,,,,-- --- ---- --- ------ ----- ------- ---- -- --- ------- --<br>------- ---------- ------ -- ----- -- ----- -- ---- ------<br>--- ----- --- --- ------ -------- ----- --- ------ ----- --<br>----- ----- ---------- --- the ------ ------ ---- -- ------<br>------- --- ------ ----- --- ---- ------- -- ---- --- --<br>------- ------,103902.39999997616,103901.69999998808,103395.488,103398.59999996424,103412.153,103912.252,,37,the
screen,html.Screen,0_2_1_1_38,2021-12-02T14:46:38.488Z,,,,,,,,,,,,,,,,54,,,,,,,,,,,,,,757.647999976165,,response,,,100,,,,,,Space,keypress(Space),,,,,-- --- ---- --- ------ ----- ------- ---- -- --- ------- --<br>------- ---------- ------ -- ----- -- ----- -- ---- ------<br>--- ----- --- --- ------ -------- ----- --- ------ ----- --<br>----- ----- ---------- --- --- market ------ ---- -- ------<br>------- --- ------ ----- --- ---- ------- -- ---- --- --<br>------- ------,104670.39999997616,104669.89999997616,103895.586,103902.5,103912.252,104678.891,,38,market
screen,html.Screen,0_2_1_1_39,2021-12-02T14:46:39.168Z,,,,,,,,,,,,,,,,54,,,,,,,,,,,,,,670.9090000119177,,response,,,100,,,,,,Space,keypress(Space),,,,,-- --- ---- --- ------ ----- ------- ---- -- --- ------- --<br>------- ---------- ------ -- ----- -- ----- -- ---- ------<br>--- ----- --- --- ------ -------- ----- --- ------ ----- --<br>----- ----- ---------- --- --- ------ became ---- -- ------<br>------- --- ------ ----- --- ---- ------- -- ---- --- --<br>------- ------,105350.39999997616,105349.80000001192,104662.225,104670.59999996424,104678.891,105362.221,,39,became
screen,html.Screen,0_2_1_1_40,2021-12-02T14:46:39.824Z,,,,,,,,,,,,,,,,54,,,,,,,,,,,,,,643.5790000119159,,response,,,100,,,,,,Space,keypress(Space),,,,,-- --- ---- --- ------ ----- ------- ---- -- --- ------- --<br>------- ---------- ------ -- ----- -- ----- -- ---- ------<br>--- ----- --- --- ------ -------- ----- --- ------ ----- --<br>----- ----- ---------- --- --- ------ ------ wary -- ------<br>------- --- ------ ----- --- ---- ------- -- ---- --- --<br>------- ------,106006.39999997616,106005.80000001192,105345.555,105350.5,105362.221,106012.143,,40,wary
screen,html.Screen,0_2_1_1_41,2021-12-02T14:46:40.304Z,,,,,,,,,,,,,,,,54,,,,,,,,,,,,,,473.5569999880827,,response,,,100,,,,,,Space,keypress(Space),,,,,-- --- ---- --- ------ ----- ------- ---- -- --- ------- --<br>------- ---------- ------ -- ----- -- ----- -- ---- ------<br>--- ----- --- --- ------ -------- ----- --- ------ ----- --<br>----- ----- ---------- --- --- ------ ------ ---- of ------<br>------- --- ------ ----- --- ---- ------- -- ---- --- --<br>------- ------,106486.19999998808,106485.69999998808,105995.478,106006.59999996424,106012.143,106495.497,,41,of
screen,html.Screen,0_2_1_1_42,2021-12-02T14:46:40.920Z,,,,,,,,,,,,,,,,54,,,,,,,,,,,,,,606.202999988076,,response,,,100,,,,,,Space,keypress(Space),,,,,-- --- ---- --- ------ ----- ------- ---- -- --- ------- --<br>------- ---------- ------ -- ----- -- ----- -- ---- ------<br>--- ----- --- --- ------ -------- ----- --- ------ ----- --<br>----- ----- ---------- --- --- ------ ------ ---- -- French<br>------- --- ------ ----- --- ---- ------- -- ---- --- --<br>------- ------,107102.30000001192,107101.69999998808,106478.831,106486.5,106495.497,107112.021,,42,French
screen,html.Screen,0_2_1_1_43,2021-12-02T14:46:41.888Z,,,,,,,,,,,,,,,,54,,,,,,,,,,,,,,957.6789999880857,,response,,,100,,,,,,Space,keypress(Space),,,,,-- --- ---- --- ------ ----- ------- ---- -- --- ------- --<br>------- ---------- ------ -- ----- -- ----- -- ---- ------<br>--- ----- --- --- ------ -------- ----- --- ------ ----- --<br>----- ----- ---------- --- --- ------ ------ ---- -- ------<br>credit. --- ------ ----- --- ---- ------- -- ---- --- --<br>------- ------,108070.30000001192,108069.69999998808,107095.357,107102.5,107112.021,108078.763,,43,credit.
screen,html.Screen,0_2_1_1_44,2021-12-02T14:46:42.399Z,,,,,,,,,,,,,,,,54,,,,,,,,,,,,,,502.9369999880728,,response,,,100,,,,,,Space,keypress(Space),,,,,-- --- ---- --- ------ ----- ------- ---- -- --- ------- --<br>------- ---------- ------ -- ----- -- ----- -- ---- ------<br>--- ----- --- --- ------ -------- ----- --- ------ ----- --<br>----- ----- ---------- --- --- ------ ------ ---- -- ------<br>------- The ------ ----- --- ---- ------- -- ---- --- --<br>------- ------,108582.19999998808,108581.69999998808,108062.097,108070.39999997616,108078.763,108595.36,,44,The
screen,html.Screen,0_2_1_1_45,2021-12-02T14:46:42.944Z,,,,,,,,,,,,,,,,54,,,,,,,,,,,,,,530.3399999880785,,response,,,100,,,,,,Space,keypress(Space),,,,,-- --- ---- --- ------ ----- ------- ---- -- --- ------- --<br>------- ---------- ------ -- ----- -- ----- -- ---- ------<br>--- ----- --- --- ------ -------- ----- --- ------ ----- --<br>----- ----- ---------- --- --- ------ ------ ---- -- ------<br>------- --- French ----- --- ---- ------- -- ---- --- --<br>------- ------,109126.30000001192,109125.69999998808,108578.695,108582.39999997616,108595.36,109128.723,,45,French
screen,html.Screen,0_2_1_1_46,2021-12-02T14:46:43.671Z,,,,,,,,,,,,,,,,54,,,,,,,,,,,,,,724.8769999642391,,response,,,100,,,,,,Space,keypress(Space),,,,,-- --- ---- --- ------ ----- ------- ---- -- --- ------- --<br>------- ---------- ------ -- ----- -- ----- -- ---- ------<br>--- ----- --- --- ------ -------- ----- --- ------ ----- --<br>----- ----- ---------- --- --- ------ ------ ---- -- ------<br>------- --- ------ state --- ---- ------- -- ---- --- --<br>------- ------,109854.19999998808,109853.59999996424,109112.057,109126.5,109128.723,109861.952,,46,state
screen,html.Screen,0_2_1_1_47,2021-12-02T14:46:44.295Z,,,,,,,,,,,,,,,,54,,,,,,,,,,,,,,615.6479999642324,,response,,,100,,,,,,Space,keypress(Space),,,,,-- --- ---- --- ------ ----- ------- ---- -- --- ------- --<br>------- ---------- ------ -- ----- -- ----- -- ---- ------<br>--- ----- --- --- ------ -------- ----- --- ------ ----- --<br>----- ----- ---------- --- --- ------ ------ ---- -- ------<br>------- --- ------ ----- was ---- ------- -- ---- --- --<br>------- ------,110478.19999998808,110477.59999996424,109845.287,109854.39999997616,109861.952,110495.353,,47,was
screen,html.Screen,0_2_1_1_48,2021-12-02T14:46:44.951Z,,,,,,,,,,,,,,,,54,,,,,,,,,,,,,,638.2469999642344,,response,,,100,,,,,,Space,keypress(Space),,,,,-- --- ---- --- ------ ----- ------- ---- -- --- ------- --<br>------- ---------- ------ -- ----- -- ----- -- ---- ------<br>--- ----- --- --- ------ -------- ----- --- ------ ----- --<br>----- ----- ---------- --- --- ------ ------ ---- -- ------<br>------- --- ------ ----- --- left ------- -- ---- --- --<br>------- ------,111134.19999998808,111133.59999996424,110478.687,110478.30000001192,110495.353,111145.264,,48,left
screen,html.Screen,0_2_1_1_49,2021-12-02T14:46:45.568Z,,,,,,,,,,,,,,,,54,,,,,,,,,,,,,,604.4359999880835,,response,,,100,,,,,,Space,keypress(Space),,,,,-- --- ---- --- ------ ----- ------- ---- -- --- ------- --<br>------- ---------- ------ -- ----- -- ----- -- ---- ------<br>--- ----- --- --- ------ -------- ----- --- ------ ----- --<br>----- ----- ---------- --- --- ------ ------ ---- -- ------<br>------- --- ------ ----- --- ---- without -- ---- --- --<br>------- ------,111750.5,111749.69999998808,111128.599,111134.39999997616,111145.264,111761.964,,49,without
screen,html.Screen,0_2_1_1_50,2021-12-02T14:46:46.127Z,,,,,,,,,,,,,,,,54,,,,,,,,,,,,,,547.63599996423,,response,,,100,,,,,,Space,keypress(Space),,,,,-- --- ---- --- ------ ----- ------- ---- -- --- ------- --<br>------- ---------- ------ -- ----- -- ----- -- ---- ------<br>--- ----- --- --- ------ -------- ----- --- ------ ----- --<br>----- ----- ---------- --- --- ------ ------ ---- -- ------<br>------- --- ------ ----- --- ---- ------- an ---- --- --<br>------- ------,112310.19999998808,112309.59999996424,111745.298,111750.59999996424,111761.964,112311.894,,50,an
screen,html.Screen,0_2_1_1_51,2021-12-02T14:46:46.751Z,,,,,,,,,,,,,,,,54,,,,,,,,,,,,,,621.6059999999998,,response,,,100,,,,,,Space,keypress(Space),,,,,-- --- ---- --- ------ ----- ------- ---- -- --- ------- --<br>------- ---------- ------ -- ----- -- ----- -- ---- ------<br>--- ----- --- --- ------ -------- ----- --- ------ ----- --<br>----- ----- ---------- --- --- ------ ------ ---- -- ------<br>------- --- ------ ----- --- ---- ------- -- easy --- --<br>------- ------,112934.09999996424,112933.5,112295.229,112310.30000001192,112311.894,112945.198,,51,easy
screen,html.Screen,0_2_1_1_52,2021-12-02T14:46:47.239Z,,,,,,,,,,,,,,,,54,,,,,,,,,,,,,,476.30199999999604,,response,,,100,,,,,,Space,keypress(Space),,,,,-- --- ---- --- ------ ----- ------- ---- -- --- ------- --<br>------- ---------- ------ -- ----- -- ----- -- ---- ------<br>--- ----- --- --- ------ -------- ----- --- ------ ----- --<br>----- ----- ---------- --- --- ------ ------ ---- -- ------<br>------- --- ------ ----- --- ---- ------- -- ---- way --<br>------- ------,113422,113421.5,112928.533,112934.30000001192,112945.198,113428.521,,52,way
screen,html.Screen,0_2_1_1_53,2021-12-02T14:46:47.791Z,,,,,,,,,,,,,,,,54,,,,,,,,,,,,,,544.9790000000066,,response,,,100,,,,,,Space,keypress(Space),,,,,-- --- ---- --- ------ ----- ------- ---- -- --- ------- --<br>------- ---------- ------ -- ----- -- ----- -- ---- ------<br>--- ----- --- --- ------ -------- ----- --- ------ ----- --<br>----- ----- ---------- --- --- ------ ------ ---- -- ------<br>------- --- ------ ----- --- ---- ------- -- ---- --- of<br>------- ------,113974.09999996424,113973.5,113411.856,113422.19999998808,113428.521,113978.498,,53,of
screen,html.Screen,0_2_1_1_54,2021-12-02T14:46:48.335Z,,,,,,,,,,,,,,,,54,,,,,,,,,,,,,,539.0019999999931,,response,,,100,,,,,,Space,keypress(Space),,,,,-- --- ---- --- ------ ----- ------- ---- -- --- ------- --<br>------- ---------- ------ -- ----- -- ----- -- ---- ------<br>--- ----- --- --- ------ -------- ----- --- ------ ----- --<br>----- ----- ---------- --- --- ------ ------ ---- -- ------<br>------- --- ------ ----- --- ---- ------- -- ---- --- --<br>raising ------,114518,114517.5,113961.833,113974.19999998808,113978.498,114528.459,,54,raising
screen,html.Screen,0_2_1_1_55,2021-12-02T14:46:49.671Z,,,,,,,,,,,,,,,,54,,,,,,,,,,,,,,1324.9409999761556,,response,,,100,,,,,,Space,keypress(Space),,,,,-- --- ---- --- ------ ----- ------- ---- -- --- ------- --<br>------- ---------- ------ -- ----- -- ----- -- ---- ------<br>--- ----- --- --- ------ -------- ----- --- ------ ----- --<br>----- ----- ---------- --- --- ------ ------ ---- -- ------<br>------- --- ------ ----- --- ---- ------- -- ---- --- --<br>------- money.,115854,115853.39999997616,114511.794,114518.19999998808,114528.459,115861.903,,55,money.
Item 100,flow.Loop,0_2_1_1,2021-12-02T14:46:49.672Z,,,,,,,,,,,,,,,,,,,,,,,,,,,,,,35890.340999976164,,completion,,,,B,,,,,,,,,,silence,,115854.30000001192,115853.39999997616,79946.394,79947.69999998808,79963.059,115861.903,,,
Question 1,html.Screen,0_2_1_2,2021-12-02T14:46:52.529Z,,,,,,,,,,,,,,,,,,,,,,,,,,,true,TRUE,,2849.0969999999943,,response,,,100,B,,,,,TRUE,click #choice-1,,,,silence,,118711.89999997616,118711,115845.236,115854.5,115861.903,118711.641,,,
Question 2,html.Screen,0_2_1_3,2021-12-02T14:46:54.643Z,,,,,,,,,,,,,,,,,,,,,,,,,,,true,FALSE,,2111.258999976155,,response,,,100,B,,,,,FALSE,click #choice-2,,,,silence,,120823.59999996424,120822.89999997616,118694.976,118712,118711.641,120828.273,,,
Item 100,flow.Sequence,0_2_1,2021-12-02T14:46:54.643Z,,,,,,,,,,,,,,,,,,,,,,,,,,,,,,50859.470999976154,,completion,,,,,,,,,,,,,,,,120823.80000001192,120822.89999997616,69946.764,69962,69963.429,120828.273,,,
End of Practice,html.Page,0_2_2,2021-12-02T14:47:00.687Z,,,,,,,,,,,,,,,,,,,,,,,,,,,,,,6039.02700001192,,form submission,,,,,,,,,,,,,,,,126867.59999996424,126867.30000001192,120811.608,120824,120828.273,126876.62,,,
Practice,flow.Sequence,0_2,2021-12-02T14:47:00.687Z,,,,,,,,,,,,,,,,,,,,,,,,,,,,,,114201.19400001192,,completion,,,,,,,,,,,,,,,,126867.89999997616,126867.30000001192,12649.425,12654.099999964237,12666.106,126876.62,,,
Trap_instruction,html.Page,0_3_0,2021-12-02T14:47:04.465Z,,,,,,,,,,,,,,,,,,,,,,,,,,,,,,3768.779999976163,,form submission,,,,,,,,,,,,,,,,130645.80000001192,130645.39999997616,126859.958,126868.09999996424,126876.62,130661.01,,,
trap_trial,html.Screen,0_3_1,2021-12-02T14:47:07.072Z,,,,,,,,,,,,,,,,,,,,,,,,,,,true,1,,2590.8899999761634,,response,,,,,,,,,1,click #choice-1,,,,,,133252.80000001192,133251.89999997616,130644.345,130645.89999997616,130661.01,133262.961,,,
end of trap trial,html.Page,0_3_2,2021-12-02T14:47:08.579Z,,,,,,,,,,,,,,,,,,,,,,,,,,,,,,1496.638999964227,,form submission,,,,,,,,,,,,,,,,134760,134759.59999996424,133246.283,133253,133262.961,134777.729,,,
Trap 1,flow.Sequence,0_3,2021-12-02T14:47:08.579Z,,,,,,,,,,,,,,,,,,,,,,,,,,,,,,7882.979999964242,,completion,,,,,,,,,,,,,,,,134760.19999998808,134759.59999996424,126859.958,126868,126876.62,134777.729,,,
Standby,html.Page,0_4_0,2021-12-02T14:47:16.580Z,,,,,,,,,,,,,,,,,,,,,,,,,,,,,,7999.219000000012,,timeout,,,,,,,,,,,,,,,,142761.39999997616,142760.283,134761.064,134760.39999997616,134777.729,142776.948,,,
Holding screen,html.Screen,0_4_1_0_0,2021-12-02T14:47:23.581Z,,,,,,,,,,,,,,,,,,,,,,,,,,,,,,7000.184999999998,,timeout,,,,,,,,,,,,,,,,149761.5,149760.468,142760.283,142761.59999996424,142776.948,149777.133,,,
screen,html.Screen,0_4_1_0_1_0,2021-12-02T14:47:25.192Z,,,,,,,,,,,,,,,,48,,,,,,,,,,,,,,1595.1670000119193,,response,,,10,B,,,,,Space,keypress(Space),,,,lyrical,As -- --- ------ ------- --------- ----------- --------<br>--------- -------- --- ------- -- ------- ---- -- ------<br>-- --- -------- -------- ---------- ---- ---- ---- ------<br>-- --------- -- ---- -- --- -- --- ------- -- - -----<br>---------- -- -- -- ---- ----- -- ------ -- --- ------<br>-------,151373.19999998808,151372.30000001192,149760.468,149761.80000001192,149777.133,151377.031,,0,As
screen,html.Screen,0_4_1_0_1_1,2021-12-02T14:47:25.656Z,,,,,,,,,,,,,,,,48,,,,,,,,,,,,,,459.0689999642491,,response,,,10,B,,,,,Space,keypress(Space),,,,lyrical,-- in --- ------ ------- --------- ----------- --------<br>--------- -------- --- ------- -- ------- ---- -- ------<br>-- --- -------- -------- ---------- ---- ---- ---- ------<br>-- --------- -- ---- -- --- -- --- ------- -- - -----<br>---------- -- -- -- ---- ----- -- ------ -- --- ------<br>-------,151836.59999996424,151836.09999996424,151360.366,151373.39999997616,151377.031,151843.818,,1,in
screen,html.Screen,0_4_1_0_1_2,2021-12-02T14:47:26.080Z,,,,,,,,,,,,,,,,48,,,,,,,,,,,,,,416.1820000000007,,response,,,10,B,,,,,Space,keypress(Space),,,,lyrical,-- -- the ------ ------- --------- ----------- --------<br>--------- -------- --- ------- -- ------- ---- -- ------<br>-- --- -------- -------- ---------- ---- ---- ---- ------<br>-- --------- -- ---- -- --- -- --- ------- -- - -----<br>---------- -- -- -- ---- ----- -- ------ -- --- ------<br>-------,152260.59999996424,152260,151827.152,151836.80000001192,151843.818,152277.11,,2,the
screen,html.Screen,0_4_1_0_1_3,2021-12-02T14:47:26.512Z,,,,,,,,,,,,,,,,48,,,,,,,,,,,,,,414.89000000001397,,response,,,10,B,,,,,Space,keypress(Space),,,,lyrical,-- -- --- United ------- --------- ----------- --------<br>--------- -------- --- ------- -- ------- ---- -- ------<br>-- --- -------- -------- ---------- ---- ---- ---- ------<br>-- --------- -- ---- -- --- -- --- ------- -- - -----<br>---------- -- -- -- ---- ----- -- ------ -- --- ------<br>-------,152692.59999996424,152692,152260.445,152260.80000001192,152277.11,152693.67,,3,United
screen,html.Screen,0_4_1_0_1_4,2021-12-02T14:47:27.032Z,,,,,,,,,,,,,,,,48,,,,,,,,,,,,,,518.3299999999872,,response,,,10,B,,,,,Space,keypress(Space),,,,lyrical,"-- -- --- ------ States, --------- ----------- --------<br>--------- -------- --- ------- -- ------- ---- -- ------<br>-- --- -------- -------- ---------- ---- ---- ---- ------<br>-- --------- -- ---- -- --- -- --- ------- -- - -----<br>---------- -- -- -- ---- ----- -- ------ -- --- ------<br>-------",153212.59999996424,153212,152677.006,152692.80000001192,152693.67,153227.132,,4,"States,"
screen,html.Screen,0_4_1_0_1_5,2021-12-02T14:47:27.496Z,,,,,,,,,,,,,,,,48,,,,,,,,,,,,,,448.86799999998766,,response,,,10,B,,,,,Space,keypress(Space),,,,lyrical,-- -- --- ------ ------- Colombian ----------- --------<br>--------- -------- --- ------- -- ------- ---- -- ------<br>-- --- -------- -------- ---------- ---- ---- ---- ------<br>-- --------- -- ---- -- --- -- --- ------- -- - -----<br>---------- -- -- -- ---- ----- -- ------ -- --- ------<br>-------,153676.5,153676,153210.465,153212.80000001192,153227.132,153693.753,,5,Colombian
screen,html.Screen,0_4_1_0_1_6,2021-12-02T14:47:28.128Z,,,,,,,,,,,,,,,,48,,,,,,,,,,,,,,614.247000000003,,response,,,10,B,,,,,Space,keypress(Space),,,,lyrical,-- -- --- ------ ------- --------- legislation --------<br>--------- -------- --- ------- -- ------- ---- -- ------<br>-- --- -------- -------- ---------- ---- ---- ---- ------<br>-- --------- -- ---- -- --- -- --- ------- -- - -----<br>---------- -- -- -- ---- ----- -- ------ -- --- ------<br>-------,154308.59999996424,154308,153677.087,153676.69999998808,153693.753,154310.314,,6,legislation
screen,html.Screen,0_4_1_0_1_7,2021-12-02T14:47:28.720Z,,,,,,,,,,,,,,,,48,,,,,,,,,,,,,,589.685999999987,,response,,,10,B,,,,,Space,keypress(Space),,,,lyrical,-- -- --- ------ ------- --------- ----------- requires<br>--------- -------- --- ------- -- ------- ---- -- ------<br>-- --- -------- -------- ---------- ---- ---- ---- ------<br>-- --------- -- ---- -- --- -- --- ------- -- - -----<br>---------- -- -- -- ---- ----- -- ------ -- --- ------<br>-------,154900.59999996424,154900,154293.649,154308.80000001192,154310.314,154910.358,,7,requires
screen,html.Screen,0_4_1_0_1_8,2021-12-02T14:47:29.360Z,,,,,,,,,,,,,,,,48,,,,,,,,,,,,,,629.5419999761507,,response,,,10,B,,,,,Space,keypress(Space),,,,lyrical,-- -- --- ------ ------- --------- ----------- --------<br>travelers -------- --- ------- -- ------- ---- -- ------<br>-- --- -------- -------- ---------- ---- ---- ---- ------<br>-- --------- -- ---- -- --- -- --- ------- -- - -----<br>---------- -- -- -- ---- ----- -- ------ -- --- ------<br>-------,155540.59999996424,155539.89999997616,154893.692,154900.59999996424,154910.358,155543.589,,8,travelers
screen,html.Screen,0_4_1_0_1_9,2021-12-02T14:47:30.064Z,,,,,,,,,,,,,,,,48,,,,,,,,,,,,,,700.4109999999928,,response,,,10,B,,,,,Space,keypress(Space),,,,lyrical,-- -- --- ------ ------- --------- ----------- --------<br>--------- entering --- ------- -- ------- ---- -- ------<br>-- --- -------- -------- ---------- ---- ---- ---- ------<br>-- --------- -- ---- -- --- -- --- ------- -- - -----<br>---------- -- -- -- ---- ----- -- ------ -- --- ------<br>-------,156244.59999996424,156244,155526.924,155540.69999998808,155543.589,156260.233,,9,entering
screen,html.Screen,0_4_1_0_1_10,2021-12-02T14:47:30.568Z,,,,,,,,,,,,,,,,48,,,,,,,,,,,,,,487.6669999761507,,response,,,10,B,,,,,Space,keypress(Space),,,,lyrical,-- -- --- ------ ------- --------- ----------- --------<br>--------- -------- the ------- -- ------- ---- -- ------<br>-- --- -------- -------- ---------- ---- ---- ---- ------<br>-- --------- -- ---- -- --- -- --- ------- -- - -----<br>---------- -- -- -- ---- ----- -- ------ -- --- ------<br>-------,156748.59999996424,156747.89999997616,156243.568,156244.69999998808,156260.233,156760.3,,10,the
screen,html.Screen,0_4_1_0_1_11,2021-12-02T14:47:30.951Z,,,,,,,,,,,,,,,,48,,,,,,,,,,,,,,371.5999999761698,,response,,,10,B,,,,,Space,keypress(Space),,,,lyrical,-- -- --- ------ ------- --------- ----------- --------<br>--------- -------- --- country -- ------- ---- -- ------<br>-- --- -------- -------- ---------- ---- ---- ---- ------<br>-- --------- -- ---- -- --- -- --- ------- -- - -----<br>---------- -- -- -- ---- ----- -- ------ -- --- ------<br>-------,157132.39999997616,157131.89999997616,156743.634,156748.80000001192,156760.3,157143.575,,11,country
screen,html.Screen,0_4_1_0_1_12,2021-12-02T14:47:31.359Z,,,,,,,,,,,,,,,,48,,,,,,,,,,,,,,396.2250000119093,,response,,,10,B,,,,,Space,keypress(Space),,,,lyrical,-- -- --- ------ ------- --------- ----------- --------<br>--------- -------- --- ------- to ------- ---- -- ------<br>-- --- -------- -------- ---------- ---- ---- ---- ------<br>-- --------- -- ---- -- --- -- --- ------- -- - -----<br>---------- -- -- -- ---- ----- -- ------ -- --- ------<br>-------,157540.30000001192,157539.80000001192,157126.91,157132.59999996424,157143.575,157543.558,,12,to
screen,html.Screen,0_4_1_0_1_13,2021-12-02T14:47:31.767Z,,,,,,,,,,,,,,,,48,,,,,,,,,,,,,,404.34199997616815,,response,,,10,B,,,,,Space,keypress(Space),,,,lyrical,-- -- --- ------ ------- --------- ----------- --------<br>--------- -------- --- ------- -- declare ---- -- ------<br>-- --- -------- -------- ---------- ---- ---- ---- ------<br>-- --------- -- ---- -- --- -- --- ------- -- - -----<br>---------- -- -- -- ---- ----- -- ------ -- --- ------<br>-------,157948.39999997616,157947.89999997616,157526.893,157540.5,157543.558,157960.18,,13,declare
screen,html.Screen,0_4_1_0_1_14,2021-12-02T14:47:32.351Z,,,,,,,,,,,,,,,,48,,,,,,,,,,,,,,571.7199999761651,,response,,,10,B,,,,,Space,keypress(Space),,,,lyrical,-- -- --- ------ ------- --------- ----------- --------<br>--------- -------- --- ------- -- ------- cash -- ------<br>-- --- -------- -------- ---------- ---- ---- ---- ------<br>-- --------- -- ---- -- --- -- --- ------- -- - -----<br>---------- -- -- -- ---- ----- -- ------ -- --- ------<br>-------,158532.39999997616,158531.89999997616,157943.515,157948.5,157960.18,158543.495,,14,cash
screen,html.Screen,0_4_1_0_1_15,2021-12-02T14:47:32.727Z,,,,,,,,,,,,,,,,48,,,,,,,,,,,,,,364.2049999880837,,response,,,10,B,,,,,Space,keypress(Space),,,,lyrical,-- -- --- ------ ------- --------- ----------- --------<br>--------- -------- --- ------- -- ------- ---- in ------<br>-- --- -------- -------- ---------- ---- ---- ---- ------<br>-- --------- -- ---- -- --- -- --- ------- -- - -----<br>---------- -- -- -- ---- ----- -- ------ -- --- ------<br>-------,158908.30000001192,158907.69999998808,158526.83,158532.59999996424,158543.495,158910.215,,15,in
screen,html.Screen,0_4_1_0_1_16,2021-12-02T14:47:33.103Z,,,,,,,,,,,,,,,,48,,,,,,,,,,,,,,373.5850000119244,,response,,,10,B,,,,,Space,keypress(Space),,,,lyrical,-- -- --- ------ ------- --------- ----------- --------<br>--------- -------- --- ------- -- ------- ---- -- excess<br>-- --- -------- -------- ---------- ---- ---- ---- ------<br>-- --------- -- ---- -- --- -- --- ------- -- - -----<br>---------- -- -- -- ---- ----- -- ------ -- --- ------<br>-------,159284.39999997616,159283.80000001192,158893.549,158908.39999997616,158910.215,159293.475,,16,excess
screen,html.Screen,0_4_1_0_1_17,2021-12-02T14:47:33.487Z,,,,,,,,,,,,,,,,48,,,,,,,,,,,,,,374.3250000119151,,response,,,10,B,,,,,Space,keypress(Space),,,,lyrical,-- -- --- ------ ------- --------- ----------- --------<br>--------- -------- --- ------- -- ------- ---- -- ------<br>of --- -------- -------- ---------- ---- ---- ---- ------<br>-- --------- -- ---- -- --- -- --- ------- -- - -----<br>---------- -- -- -- ---- ----- -- ------ -- --- ------<br>-------,159668.30000001192,159667.80000001192,159276.81,159284.59999996424,159293.475,159676.836,,17,of
screen,html.Screen,0_4_1_0_1_18,2021-12-02T14:47:33.879Z,,,,,,,,,,,,,,,,48,,,,,,,,,,,,,,382.8639999880688,,response,,,10,B,,,,,Space,keypress(Space),,,,lyrical,-- -- --- ------ ------- --------- ----------- --------<br>--------- -------- --- ------- -- ------- ---- -- ------<br>-- ten -------- -------- ---------- ---- ---- ---- ------<br>-- --------- -- ---- -- --- -- --- ------- -- - -----<br>---------- -- -- -- ---- ----- -- ------ -- --- ------<br>-------,160060.30000001192,160059.69999998808,159660.17,159668.5,159676.836,160076.828,,18,ten
screen,html.Screen,0_4_1_0_1_19,2021-12-02T14:47:34.303Z,,,,,,,,,,,,,,,,48,,,,,,,,,,,,,,406.87199998807046,,response,,,10,B,,,,,Space,keypress(Space),,,,lyrical,-- -- --- ------ ------- --------- ----------- --------<br>--------- -------- --- ------- -- ------- ---- -- ------<br>-- --- thousand -------- ---------- ---- ---- ---- ------<br>-- --------- -- ---- -- --- -- --- ------- -- - -----<br>---------- -- -- -- ---- ----- -- ------ -- --- ------<br>-------,160484.30000001192,160483.69999998808,160060.162,160060.5,160076.828,160493.428,,19,thousand
screen,html.Screen,0_4_1_0_1_20,2021-12-02T14:47:34.895Z,,,,,,,,,,,,,,,,48,,,,,,,,,,,,,,582.3720000119065,,response,,,10,B,,,,,Space,keypress(Space),,,,lyrical,-- -- --- ------ ------- --------- ----------- --------<br>--------- -------- --- ------- -- ------- ---- -- ------<br>-- --- -------- dollars. ---------- ---- ---- ---- ------<br>-- --------- -- ---- -- --- -- --- ------- -- - -----<br>---------- -- -- -- ---- ----- -- ------ -- --- ------<br>-------,161076.30000001192,161075.80000001192,160476.763,160484.39999997616,160493.428,161093.454,,20,dollars.
screen,html.Screen,0_4_1_0_1_21,2021-12-02T14:47:35.528Z,,,,,,,,,,,,,,,,48,,,,,,,,,,,,,,614.346000011923,,response,,,10,B,,,,,Space,keypress(Space),,,,lyrical,-- -- --- ------ ------- --------- ----------- --------<br>--------- -------- --- ------- -- ------- ---- -- ------<br>-- --- -------- -------- Concealing ---- ---- ---- ------<br>-- --------- -- ---- -- --- -- --- ------- -- - -----<br>---------- -- -- -- ---- ----- -- ------ -- --- ------<br>-------,161708.5,161707.80000001192,161076.788,161076.39999997616,161093.454,161710.053,,21,Concealing
screen,html.Screen,0_4_1_0_1_22,2021-12-02T14:47:36.223Z,,,,,,,,,,,,,,,,48,,,,,,,,,,,,,,693.6469999880646,,response,,,10,B,,,,,Space,keypress(Space),,,,lyrical,-- -- --- ------ ------- --------- ----------- --------<br>--------- -------- --- ------- -- ------- ---- -- ------<br>-- --- -------- -------- ---------- more ---- ---- ------<br>-- --------- -- ---- -- --- -- --- ------- -- - -----<br>---------- -- -- -- ---- ----- -- ------ -- --- ------<br>-------,162404.30000001192,162403.69999998808,161693.388,161708.69999998808,161710.053,162410.082,,22,more
screen,html.Screen,0_4_1_0_1_23,2021-12-02T14:47:36.743Z,,,,,,,,,,,,,,,,48,,,,,,,,,,,,,,513.5179999642423,,response,,,10,B,,,,,Space,keypress(Space),,,,lyrical,-- -- --- ------ ------- --------- ----------- --------<br>--------- -------- --- ------- -- ------- ---- -- ------<br>-- --- -------- -------- ---------- ---- than ---- ------<br>-- --------- -- ---- -- --- -- --- ------- -- - -----<br>---------- -- -- -- ---- ----- -- ------ -- --- ------<br>-------,162924.19999998808,162923.59999996424,162393.416,162404.39999997616,162410.082,162926.682,,23,than
screen,html.Screen,0_4_1_0_1_24,2021-12-02T14:47:37.135Z,,,,,,,,,,,,,,,,48,,,,,,,,,,,,,,388.9179999642365,,response,,,10,B,,,,,Space,keypress(Space),,,,lyrical,-- -- --- ------ ------- --------- ----------- --------<br>--------- -------- --- ------- -- ------- ---- -- ------<br>-- --- -------- -------- ---------- ---- ---- that ------<br>-- --------- -- ---- -- --- -- --- ------- -- - -----<br>---------- -- -- -- ---- ----- -- ------ -- --- ------<br>-------,163316.19999998808,163315.59999996424,162910.017,162924.30000001192,162926.682,163326.651,,24,that
screen,html.Screen,0_4_1_0_1_25,2021-12-02T14:47:37.567Z,,,,,,,,,,,,,,,,48,,,,,,,,,,,,,,420.94899996422464,,response,,,10,B,,,,,Space,keypress(Space),,,,lyrical,-- -- --- ------ ------- --------- ----------- --------<br>--------- -------- --- ------- -- ------- ---- -- ------<br>-- --- -------- -------- ---------- ---- ---- ---- amount<br>-- --------- -- ---- -- --- -- --- ------- -- - -----<br>---------- -- -- -- ---- ----- -- ------ -- --- ------<br>-------,163748.19999998808,163747.59999996424,163309.986,163316.30000001192,163326.651,163760.057,,25,amount
screen,html.Screen,0_4_1_0_1_26,2021-12-02T14:47:38.007Z,,,,,,,,,,,,,,,,48,,,,,,,,,,,,,,427.5429999642365,,response,,,10,B,,,,,Space,keypress(Space),,,,lyrical,-- -- --- ------ ------- --------- ----------- --------<br>--------- -------- --- ------- -- ------- ---- -- ------<br>-- --- -------- -------- ---------- ---- ---- ---- ------<br>to --------- -- ---- -- --- -- --- ------- -- - -----<br>---------- -- -- -- ---- ----- -- ------ -- --- ------<br>-------,164188.30000001192,164187.59999996424,163743.39,163748.39999997616,163760.057,164193.301,,26,to
screen,html.Screen,0_4_1_0_1_27,2021-12-02T14:47:38.527Z,,,,,,,,,,,,,,,,48,,,,,,,,,,,,,,514.2989999642305,,response,,,10,B,,,,,Space,keypress(Space),,,,lyrical,-- -- --- ------ ------- --------- ----------- --------<br>--------- -------- --- ------- -- ------- ---- -- ------<br>-- --- -------- -------- ---------- ---- ---- ---- ------<br>-- transport -- ---- -- --- -- --- ------- -- - -----<br>---------- -- -- -- ---- ----- -- ------ -- --- ------<br>-------,164708.19999998808,164707.59999996424,164176.636,164188.5,164193.301,164709.939,,27,transport
screen,html.Screen,0_4_1_0_1_28,2021-12-02T14:47:38.943Z,,,,,,,,,,,,,,,,48,,,,,,,,,,,,,,413.56099999998696,,response,,,10,B,,,,,Space,keypress(Space),,,,lyrical,-- -- --- ------ ------- --------- ----------- --------<br>--------- -------- --- ------- -- ------- ---- -- ------<br>-- --- -------- -------- ---------- ---- ---- ---- ------<br>-- --------- it ---- -- --- -- --- ------- -- - -----<br>---------- -- -- -- ---- ----- -- ------ -- --- ------<br>-------,165124.19999998808,165123.5,164693.274,164708.30000001192,164709.939,165126.64,,28,it
screen,html.Screen,0_4_1_0_1_29,2021-12-02T14:47:39.431Z,,,,,,,,,,,,,,,,48,,,,,,,,,,,,,,484.85999999998603,,response,,,10,B,,,,,Space,keypress(Space),,,,lyrical,-- -- --- ------ ------- --------- ----------- --------<br>--------- -------- --- ------- -- ------- ---- -- ------<br>-- --- -------- -------- ---------- ---- ---- ---- ------<br>-- --------- -- into -- --- -- --- ------- -- - -----<br>---------- -- -- -- ---- ----- -- ------ -- --- ------<br>-------,165612.09999996424,165611.5,165109.974,165124.30000001192,165126.64,165626.586,,29,into
screen,html.Screen,0_4_1_0_1_30,2021-12-02T14:47:40.119Z,,,,,,,,,,,,,,,,48,,,,,,,,,,,,,,672.9139999999898,,response,,,10,B,,,,,Space,keypress(Space),,,,lyrical,-- -- --- ------ ------- --------- ----------- --------<br>--------- -------- --- ------- -- ------- ---- -- ------<br>-- --- -------- -------- ---------- ---- ---- ---- ------<br>-- --------- -- ---- or --- -- --- ------- -- - -----<br>---------- -- -- -- ---- ----- -- ------ -- --- ------<br>-------,166300.09999996424,166299.5,165609.921,165612.19999998808,165626.586,166309.937,,30,or
screen,html.Screen,0_4_1_0_1_31,2021-12-02T14:47:40.663Z,,,,,,,,,,,,,,,,48,,,,,,,,,,,,,,533.5629999999946,,response,,,10,B,,,,,Space,keypress(Space),,,,lyrical,-- -- --- ------ ------- --------- ----------- --------<br>--------- -------- --- ------- -- ------- ---- -- ------<br>-- --- -------- -------- ---------- ---- ---- ---- ------<br>-- --------- -- ---- -- out -- --- ------- -- - -----<br>---------- -- -- -- ---- ----- -- ------ -- --- ------<br>-------,166844.09999996424,166843.5,166293.271,166300.30000001192,166309.937,166859.922,,31,out
screen,html.Screen,0_4_1_0_1_32,2021-12-02T14:47:41.215Z,,,,,,,,,,,,,,,,48,,,,,,,,,,,,,,535.5780000000086,,response,,,10,B,,,,,Space,keypress(Space),,,,lyrical,-- -- --- ------ ------- --------- ----------- --------<br>--------- -------- --- ------- -- ------- ---- -- ------<br>-- --- -------- -------- ---------- ---- ---- ---- ------<br>-- --------- -- ---- -- --- of --- ------- -- - -----<br>---------- -- -- -- ---- ----- -- ------ -- --- ------<br>-------,167396.09999996424,167395.5,166843.256,166844.30000001192,166859.922,167409.843,,32,of
screen,html.Screen,0_4_1_0_1_33,2021-12-02T14:47:41.735Z,,,,,,,,,,,,,,,,48,,,,,,,,,,,,,,505.55699997616466,,response,,,10,B,,,,,Space,keypress(Space),,,,lyrical,-- -- --- ------ ------- --------- ----------- --------<br>--------- -------- --- ------- -- ------- ---- -- ------<br>-- --- -------- -------- ---------- ---- ---- ---- ------<br>-- --------- -- ---- -- --- -- the ------- -- - -----<br>---------- -- -- -- ---- ----- -- ------ -- --- ------<br>-------,167916.19999998808,167915.39999997616,167393.178,167396.19999998808,167409.843,167926.571,,33,the
screen,html.Screen,0_4_1_0_1_34,2021-12-02T14:47:42.295Z,,,,,,,,,,,,,,,,48,,,,,,,,,,,,,,548.9290000000037,,response,,,10,B,,,,,Space,keypress(Space),,,,lyrical,-- -- --- ------ ------- --------- ----------- --------<br>--------- -------- --- ------- -- ------- ---- -- ------<br>-- --- -------- -------- ---------- ---- ---- ---- ------<br>-- --------- -- ---- -- --- -- --- country -- - -----<br>---------- -- -- -- ---- ----- -- ------ -- --- ------<br>-------,168476.09999996424,168475.5,167909.905,167916.30000001192,167926.571,168493.152,,34,country
screen,html.Screen,0_4_1_0_1_35,2021-12-02T14:47:42.847Z,,,,,,,,,,,,,,,,48,,,,,,,,,,,,,,534.3479999999981,,response,,,10,B,,,,,Space,keypress(Space),,,,lyrical,-- -- --- ------ ------- --------- ----------- --------<br>--------- -------- --- ------- -- ------- ---- -- ------<br>-- --- -------- -------- ---------- ---- ---- ---- ------<br>-- --------- -- ---- -- --- -- --- ------- is - -----<br>---------- -- -- -- ---- ----- -- ------ -- --- ------<br>-------,169028.09999996424,169027.5,168476.487,168476.19999998808,168493.152,169043.047,,35,is
screen,html.Screen,0_4_1_0_1_36,2021-12-02T14:47:43.231Z,,,,,,,,,,,,,,,,48,,,,,,,,,,,,,,368.35299997616676,,response,,,10,B,,,,,Space,keypress(Space),,,,lyrical,-- -- --- ------ ------- --------- ----------- --------<br>--------- -------- --- ------- -- ------- ---- -- ------<br>-- --- -------- -------- ---------- ---- ---- ---- ------<br>-- --------- -- ---- -- --- -- --- ------- -- a -----<br>---------- -- -- -- ---- ----- -- ------ -- --- ------<br>-------,169412.09999996424,169411.39999997616,169026.383,169028.19999998808,169043.047,169426.496,,36,a
screen,html.Screen,0_4_1_0_1_37,2021-12-02T14:47:43.967Z,,,,,,,,,,,,,,,,48,,,,,,,,,,,,,,720.9039999761444,,response,,,10,B,,,,,Space,keypress(Space),,,,lyrical,-- -- --- ------ ------- --------- ----------- --------<br>--------- -------- --- ------- -- ------- ---- -- ------<br>-- --- -------- -------- ---------- ---- ---- ---- ------<br>-- --------- -- ---- -- --- -- --- ------- -- - crime<br>---------- -- -- -- ---- ----- -- ------ -- --- ------<br>-------,170148,170147.39999997616,169409.83,169412.19999998808,169426.496,170159.698,,37,crime
screen,html.Screen,0_4_1_0_1_38,2021-12-02T14:47:44.927Z,,,,,,,,,,,,,,,,48,,,,,,,,,,,,,,947.7019999761542,,response,,,10,B,,,,,Space,keypress(Space),,,,lyrical,-- -- --- ------ ------- --------- ----------- --------<br>--------- -------- --- ------- -- ------- ---- -- ------<br>-- --- -------- -------- ---------- ---- ---- ---- ------<br>-- --------- -- ---- -- --- -- --- ------- -- - -----<br>punishable -- -- -- ---- ----- -- ------ -- --- ------<br>-------,171108,171107.39999997616,170143.033,170148.19999998808,170159.698,171109.827,,38,punishable
screen,html.Screen,0_4_1_0_1_39,2021-12-02T14:47:45.343Z,,,,,,,,,,,,,,,,48,,,,,,,,,,,,,,413.4730000119307,,response,,,10,B,,,,,Space,keypress(Space),,,,lyrical,-- -- --- ------ ------- --------- ----------- --------<br>--------- -------- --- ------- -- ------- ---- -- ------<br>-- --- -------- -------- ---------- ---- ---- ---- ------<br>-- --------- -- ---- -- --- -- --- ------- -- - -----<br>---------- by -- -- ---- ----- -- ------ -- --- ------<br>-------,171523.89999997616,171523.30000001192,171093.16,171108.09999996424,171109.827,171526.331,,39,by
screen,html.Screen,0_4_1_0_1_40,2021-12-02T14:47:45.815Z,,,,,,,,,,,,,,,,48,,,,,,,,,,,,,,469.2689999642316,,response,,,10,B,,,,,Space,keypress(Space),,,,lyrical,-- -- --- ------ ------- --------- ----------- --------<br>--------- -------- --- ------- -- ------- ---- -- ------<br>-- --- -------- -------- ---------- ---- ---- ---- ------<br>-- --------- -- ---- -- --- -- --- ------- -- - -----<br>---------- -- up -- ---- ----- -- ------ -- --- ------<br>-------,171996.19999998808,171995.59999996424,171509.666,171524,171526.331,172009.67,,40,up
screen,html.Screen,0_4_1_0_1_41,2021-12-02T14:47:46.191Z,,,,,,,,,,,,,,,,48,,,,,,,,,,,,,,361.6300000119081,,response,,,10,B,,,,,Space,keypress(Space),,,,lyrical,-- -- --- ------ ------- --------- ----------- --------<br>--------- -------- --- ------- -- ------- ---- -- ------<br>-- --- -------- -------- ---------- ---- ---- ---- ------<br>-- --------- -- ---- -- --- -- --- ------- -- - -----<br>---------- -- -- to ---- ----- -- ------ -- --- ------<br>-------,172371.89999997616,172371.30000001192,171993.005,171996.39999997616,172009.67,172376.383,,41,to
screen,html.Screen,0_4_1_0_1_42,2021-12-02T14:47:46.559Z,,,,,,,,,,,,,,,,48,,,,,,,,,,,,,,362.9170000119193,,response,,,10,B,,,,,Space,keypress(Space),,,,lyrical,-- -- --- ------ ------- --------- ----------- --------<br>--------- -------- --- ------- -- ------- ---- -- ------<br>-- --- -------- -------- ---------- ---- ---- ---- ------<br>-- --------- -- ---- -- --- -- --- ------- -- - -----<br>---------- -- -- -- five ----- -- ------ -- --- ------<br>-------,172739.89999997616,172739.30000001192,172359.717,172372,172376.383,172742.999,,42,five
screen,html.Screen,0_4_1_0_1_43,2021-12-02T14:47:46.951Z,,,,,,,,,,,,,,,,48,,,,,,,,,,,,,,388.20099998806836,,response,,,10,B,,,,,Space,keypress(Space),,,,lyrical,-- -- --- ------ ------- --------- ----------- --------<br>--------- -------- --- ------- -- ------- ---- -- ------<br>-- --- -------- -------- ---------- ---- ---- ---- ------<br>-- --------- -- ---- -- --- -- --- ------- -- - -----<br>---------- -- -- -- ---- years -- ------ -- --- ------<br>-------,173131.89999997616,173131.19999998808,172726.334,172740,172742.999,173143.049,,43,years
screen,html.Screen,0_4_1_0_1_44,2021-12-02T14:47:47.327Z,,,,,,,,,,,,,,,,48,,,,,,,,,,,,,,364.15099998808,,response,,,10,B,,,,,Space,keypress(Space),,,,lyrical,-- -- --- ------ ------- --------- ----------- --------<br>--------- -------- --- ------- -- ------- ---- -- ------<br>-- --- -------- -------- ---------- ---- ---- ---- ------<br>-- --------- -- ---- -- --- -- --- ------- -- - -----<br>---------- -- -- -- ---- ----- in ------ -- --- ------<br>-------,173507.80000001192,173507.19999998808,173126.382,173132.09999996424,173143.049,173509.537,,44,in
screen,html.Screen,0_4_1_0_1_45,2021-12-02T14:47:47.687Z,,,,,,,,,,,,,,,,48,,,,,,,,,,,,,,357.6629999880679,,response,,,10,B,,,,,Space,keypress(Space),,,,lyrical,-- -- --- ------ ------- --------- ----------- --------<br>--------- -------- --- ------- -- ------- ---- -- ------<br>-- --- -------- -------- ---------- ---- ---- ---- ------<br>-- --------- -- ---- -- --- -- --- ------- -- - -----<br>---------- -- -- -- ---- ----- -- prison -- --- ------<br>-------,173867.80000001192,173867.19999998808,173492.874,173507.89999997616,173509.537,173876.322,,45,prison
screen,html.Screen,0_4_1_0_1_46,2021-12-02T14:47:48.055Z,,,,,,,,,,,,,,,,48,,,,,,,,,,,,,,358.8779999880935,,response,,,10,B,,,,,Space,keypress(Space),,,,lyrical,-- -- --- ------ ------- --------- ----------- --------<br>--------- -------- --- ------- -- ------- ---- -- ------<br>-- --- -------- -------- ---------- ---- ---- ---- ------<br>-- --------- -- ---- -- --- -- --- ------- -- - -----<br>---------- -- -- -- ---- ----- -- ------ in --- ------<br>-------,174235.89999997616,174235.19999998808,173859.656,173867.89999997616,173876.322,174242.913,,46,in
screen,html.Screen,0_4_1_0_1_47,2021-12-02T14:47:48.431Z,,,,,,,,,,,,,,,,48,,,,,,,,,,,,,,368.2869999880786,,response,,,10,B,,,,,Space,keypress(Space),,,,lyrical,-- -- --- ------ ------- --------- ----------- --------<br>--------- -------- --- ------- -- ------- ---- -- ------<br>-- --- -------- -------- ---------- ---- ---- ---- ------<br>-- --------- -- ---- -- --- -- --- ------- -- - -----<br>---------- -- -- -- ---- ----- -- ------ -- the ------<br>-------,174611.69999998808,174611.19999998808,174226.248,174236,174242.913,174626.322,,47,the
screen,html.Screen,0_4_1_0_1_48,2021-12-02T14:47:48.863Z,,,,,,,,,,,,,,,,48,,,,,,,,,,,,,,416.8779999880935,,response,,,10,B,,,,,Space,keypress(Space),,,,lyrical,-- -- --- ------ ------- --------- ----------- --------<br>--------- -------- --- ------- -- ------- ---- -- ------<br>-- --- -------- -------- ---------- ---- ---- ---- ------<br>-- --------- -- ---- -- --- -- --- ------- -- - -----<br>---------- -- -- -- ---- ----- -- ------ -- --- United<br>-------,175043.80000001192,175043.19999998808,174609.655,174611.89999997616,174626.322,175059.514,,48,United
screen,html.Screen,0_4_1_0_1_49,2021-12-02T14:47:49.783Z,,,,,,,,,,,,,,,,48,,,,,,,,,,,,,,903.6859999880835,,response,,,10,B,,,,,Space,keypress(Space),,,,lyrical,-- -- --- ------ ------- --------- ----------- --------<br>--------- -------- --- ------- -- ------- ---- -- ------<br>-- --- -------- -------- ---------- ---- ---- ---- ------<br>-- --------- -- ---- -- --- -- --- ------- -- - -----<br>---------- -- -- -- ---- ----- -- ------ -- --- ------<br>States.,175963.89999997616,175963.19999998808,175042.85,175044,175059.514,175976.24,,49,States.
Item 10,flow.Loop,0_4_1_0_1,2021-12-02T14:47:49.784Z,,,,,,,,,,,,,,,,,,,,,,,,,,,,,,26186.066999988077,,completion,,,,,,,,,,,,,,,,175964.89999997616,175963.19999998808,149760.468,149761.80000001192,149777.133,175976.24,,,
Question 1,html.Screen,0_4_1_0_2,2021-12-02T14:47:57.900Z,,,,,,,,,,,,,,,,,,,,,,,,,,,true,TRUE,,8102.06000001193,,response,,,10,B,,,,,TRUE,click #choice-1,,,,lyrical,,184079.09999996424,184078.30000001192,175959.574,175965.09999996424,175976.24,184092.465,,,
Question 2,html.Screen,0_4_1_0_3,2021-12-02T14:48:01.072Z,,,,,,,,,,,,,,,,,,,,,,,,,,,true,TRUE,,3157.4349999761616,,response,,,10,B,,,,,TRUE,click #choice-1,,,,lyrical,,187250.59999996424,187249.89999997616,184075.809,184079.30000001192,184092.465,187259.126,,,
Item 10,flow.Sequence,0_4_1_0,2021-12-02T14:48:01.072Z,,,,,,,,,,,,,,,,,,,,,,,,,,,,,,44472.951999976154,,completion,,,,,,,,,,,,,,,,187251,187249.89999997616,142760.283,142761.59999996424,142776.948,187259.126,,,
Holding screen,html.Screen,0_4_1_1_0,2021-12-02T14:48:08.065Z,,,,,,,,,,,,,,,,,,,,,,,,,,,,,,6999.688000000024,,timeout,,,,,,,,,,,,,,,,194243.59999996424,194242.149,187242.461,187251.19999998808,187259.126,194258.814,,,
screen,html.Screen,0_4_1_1_1_0,2021-12-02T14:48:09.601Z,,,,,,,,,,,,,,,,51,,,,,,,,,,,,,,1519.885999988066,,response,,,13,B,,,,,Space,keypress(Space),,,,lyrical,American -------- --- --- ---- --- --- ------ -- --------<br>---- --------- --- ------- ------------ ---------- ---------<br>--- ---------- ------- ---------- ------- -- -------- ----<br>---- --- ------ ----- ------ -- ---- --- ----- -- - -------<br>-------- -- --- --- -- ----- ----------- ----- -----------<br>---- --- ---------- --- ---- --- -- ----------,195779.39999997616,195778.69999998808,194242.149,194244,194258.814,195792.057,,0,American
screen,html.Screen,0_4_1_1_1_1,2021-12-02T14:48:10.264Z,,,,,,,,,,,,,,,,51,,,,,,,,,,,,,,650.3429999761574,,response,,,13,B,,,,,Space,keypress(Space),,,,lyrical,-------- industry --- --- ---- --- --- ------ -- --------<br>---- --------- --- ------- ------------ ---------- ---------<br>--- ---------- ------- ---------- ------- -- -------- ----<br>---- --- ------ ----- ------ -- ---- --- ----- -- - -------<br>-------- -- --- --- -- ----- ----------- ----- -----------<br>---- --- ---------- --- ---- --- -- ----------,196443.09999996424,196442.39999997616,195775.392,195779.59999996424,195792.057,196458.748,,1,industry
screen,html.Screen,0_4_1_1_1_2,2021-12-02T14:48:10.976Z,,,,,,,,,,,,,,,,51,,,,,,,,,,,,,,695.6519999761658,,response,,,13,B,,,,,Space,keypress(Space),,,,lyrical,-------- -------- may --- ---- --- --- ------ -- --------<br>---- --------- --- ------- ------------ ---------- ---------<br>--- ---------- ------- ---------- ------- -- -------- ----<br>---- --- ------ ----- ------ -- ---- --- ----- -- - -------<br>-------- -- --- --- -- ----- ----------- ----- -----------<br>---- --- ---------- --- ---- --- -- ----------,197155,197154.39999997616,196442.083,196443.19999998808,196458.748,197158.732,,2,may
screen,html.Screen,0_4_1_1_1_3,2021-12-02T14:48:11.392Z,,,,,,,,,,,,,,,,51,,,,,,,,,,,,,,411.5680000119319,,response,,,13,B,,,,,Space,keypress(Space),,,,lyrical,-------- -------- --- not ---- --- --- ------ -- --------<br>---- --------- --- ------- ------------ ---------- ---------<br>--- ---------- ------- ---------- ------- -- -------- ----<br>---- --- ------ ----- ------ -- ---- --- ----- -- - -------<br>-------- -- --- --- -- ----- ----------- ----- -----------<br>---- --- ---------- --- ---- --- -- ----------,197570.89999997616,197570.30000001192,197142.067,197155.19999998808,197158.732,197575.397,,3,not
