sender,sender_type,sender_id,timestamp,meta,,Blues,Classical,Country,Dance,Electronic,Folk,Gospel,Hip-Hop,Jazz,Latin,Musical/Film,New-age,Pop,Provo_ID,R&B,Rap,Reggae,Religious,Rock,Soul,Swing,Traditional,age,artist_name,correct,correctResponse,distraction,duration,education,ended_on,familiarity,gender,item,list,music_frequency,offensiveness,pleasantness,preference,response,response_action,snippet_file,song_name,song_rating,sound,text,time_commit,time_end,time_render,time_run,time_show,time_switch,url,word,word_ID
Instructions,html.Page,0_0,2021-12-02T13:14:39.510Z,"{""labjs_version"":""20.2.3"",""labjs_build"":{""flavor"":""production"",""commit"":""7ea907d66ca8aeef8054924ca5d82ffbe11e34e5""},""location"":""https://run.pavlovia.org/mvasilev/lab_music_d/"",""userAgent"":""Mozilla/5.0 (Windows NT 6.1; Win64; x64) AppleWebKit/537.36 (KHTML, like Gecko) Chrome/96.0.4664.45 Safari/537.36"",""platform"":""Win32"",""language"":""en-US"",""locale"":""en-US"",""timeZone"":""Europe/London"",""timezoneOffset"":0,""screen_width"":1920,""screen_height"":1080,""scroll_width"":1920,""scroll_height"":959,""window_innerWidth"":1920,""window_innerHeight"":1007,""devicePixelRatio"":1}",,,,,,,,,,,,,,,,,,,,,,,,,,,,,48464.028,,form submission,,,,,,,,,,,,,,,,62107.89999999851,62106.5,13609.136,13617.199999999255,13642.472,62111.91,{},,
Headphones,html.Page,0_1,2021-12-02T13:14:43.552Z,,,,,,,,,,,,,,,,,,,,,,,,,,,,,,4037.1899999977613,,form submission,,,,,,,,,,,,,,,,66149.69999999925,66149.09999999776,62095.193,62108.599999997765,62111.91,66158.432,,,
Holding screen,html.Screen,0_2_0_0,2021-12-02T13:14:53.552Z,,,,,,,,,,,,,,,,,,,,,,,,,,,,,,10002.726999999999,,timeout,,,,,,,,,,,,,,,,76149.80000000075,76144.489,66141.762,66150.39999999851,66158.432,76161.159,,,
screen,html.Screen,0_2_0_1_0,2021-12-02T13:14:56.055Z,,,,,,,,,,,,,,,,53,,,,,,,,,,,,,,2490.5409999992553,,response,,,99,,,,,,Space,keypress(Space),,,,,When -- ----- -- ------ - ------- --- ----------<br>------------- ------ ------ ---- ---- ------- ----- -- ----<br>-------- ------- -- ---------- --- - --- ----- ----- ----<br>---- --- --- ----- --- ---- ---- ------- ----- ---- -------<br>--- --- -- ----- -- --- ---- -- --- ---- -- ------ ------<br>--- ----- -- ----,78653.5,78651.69999999925,76144.489,76150.19999999925,76161.159,78662.209,,0,When
screen,html.Screen,0_2_0_1_1,2021-12-02T13:14:58.534Z,,,,,,,,,,,,,,,,53,,,,,,,,,,,,,,2468.8909999977623,,response,,,99,,,,,,Space,keypress(Space),,,,,---- it ----- -- ------ - ------- --- ----------<br>------------- ------ ------ ---- ---- ------- ----- -- ----<br>-------- ------- -- ---------- --- - --- ----- ----- ----<br>---- --- --- ----- --- ---- ---- ------- ----- ---- -------<br>--- --- -- ----- -- --- ---- -- --- ---- -- ------ ------<br>--- ----- -- ----,81131.89999999851,81131.09999999776,78645.537,78653.89999999851,78662.209,81145.722,,1,it
screen,html.Screen,0_2_0_1_2,2021-12-02T13:15:00.142Z,,,,,,,,,,,,,,,,53,,,,,,,,,,,,,,1593.2780000000057,,response,,,99,,,,,,Space,keypress(Space),,,,,---- -- comes -- ------ - ------- --- ----------<br>------------- ------ ------ ---- ---- ------- ----- -- ----<br>-------- ------- -- ---------- --- - --- ----- ----- ----<br>---- --- --- ----- --- ---- ---- ------- ----- ---- -------<br>--- --- -- ----- -- --- ---- -- --- ---- -- ------ ------<br>--- ----- -- ----,82740,82739,81129.052,81132.19999999925,81145.722,82762.978,,2,comes
screen,html.Screen,0_2_0_1_3,2021-12-02T13:15:01.678Z,,,,,,,,,,,,,,,,53,,,,,,,,,,,,,,1512.0219999999972,,response,,,99,,,,,,Space,keypress(Space),,,,,---- -- ----- to ------ - ------- --- ----------<br>------------- ------ ------ ---- ---- ------- ----- -- ----<br>-------- ------- -- ---------- --- - --- ----- ----- ----<br>---- --- --- ----- --- ---- ---- ------- ----- ---- -------<br>--- --- -- ----- -- --- ---- -- --- ---- -- ------ ------<br>--- ----- -- ----,84275.89999999851,84275,82746.308,82740.30000000075,82762.978,84279.943,,3,to
screen,html.Screen,0_2_0_1_4,2021-12-02T13:15:02.822Z,,,,,,,,,,,,,,,,53,,,,,,,,,,,,,,1138.9569999985106,,response,,,99,,,,,,Space,keypress(Space),,,,,---- -- ----- -- having - ------- --- ----------<br>------------- ------ ------ ---- ---- ------- ----- -- ----<br>-------- ------- -- ---------- --- - --- ----- ----- ----<br>---- --- --- ----- --- ---- ---- ------- ----- ---- -------<br>--- --- -- ----- -- --- ---- -- --- ---- -- ------ ------<br>--- ----- -- ----,85420,85418.89999999851,84263.273,84276.39999999851,84279.943,85430.342,,4,having
screen,html.Screen,0_2_0_1_5,2021-12-02T13:15:04.222Z,,,,,,,,,,,,,,,,53,,,,,,,,,,,,,,1388.3579999992508,,response,,,99,,,,,,Space,keypress(Space),,,,,---- -- ----- -- ------ a ------- --- ----------<br>------------- ------ ------ ---- ---- ------- ----- -- ----<br>-------- ------- -- ---------- --- - --- ----- ----- ----<br>---- --- --- ----- --- ---- ---- ------- ----- ---- -------<br>--- --- -- ----- -- --- ---- -- --- ---- -- ------ ------<br>--- ----- -- ----,86819.69999999925,86818.69999999925,85413.672,85420.39999999851,85430.342,86830.876,,5,a
screen,html.Screen,0_2_0_1_6,2021-12-02T13:15:05.566Z,,,,,,,,,,,,,,,,53,,,,,,,,,,,,,,1331.823999999251,,response,,,99,,,,,,Space,keypress(Space),,,,,---- -- ----- -- ------ - lasting --- ----------<br>------------- ------ ------ ---- ---- ------- ----- -- ----<br>-------- ------- -- ---------- --- - --- ----- ----- ----<br>---- --- --- ----- --- ---- ---- ------- ----- ---- -------<br>--- --- -- ----- -- --- ---- -- --- ---- -- ------ ------<br>--- ----- -- ----,88163.69999999925,88162.69999999925,86814.205,86820.19999999925,86830.876,88181.083,,6,lasting
screen,html.Screen,0_2_0_1_7,2021-12-02T13:15:06.894Z,,,,,,,,,,,,,,,,53,,,,,,,,,,,,,,1310.1169999992562,,response,,,99,,,,,,Space,keypress(Space),,,,,---- -- ----- -- ------ - ------- and ----------<br>------------- ------ ------ ---- ---- ------- ----- -- ----<br>-------- ------- -- ---------- --- - --- ----- ----- ----<br>---- --- --- ----- --- ---- ---- ------- ----- ---- -------<br>--- --- -- ----- -- --- ---- -- --- ---- -- ------ ------<br>--- ----- -- ----,89492.09999999776,89491.19999999925,88164.413,88164.09999999776,88181.083,89498.02,,7,and
screen,html.Screen,0_2_0_1_8,2021-12-02T13:15:08.214Z,,,,,,,,,,,,,,,,53,,,,,,,,,,,,,,1313.0799999977608,,response,,,99,,,,,,Space,keypress(Space),,,,,---- -- ----- -- ------ - ------- --- fulfilling<br>------------- ------ ------ ---- ---- ------- ----- -- ----<br>-------- ------- -- ---------- --- - --- ----- ----- ----<br>---- --- --- ----- --- ---- ---- ------- ----- ---- -------<br>--- --- -- ----- -- --- ---- -- --- ---- -- ------ ------<br>--- ----- -- ----,90812.30000000075,90811.09999999776,89481.35,89492.39999999851,89498.02,90815.302,,8,fulfilling
screen,html.Screen,0_2_0_1_9,2021-12-02T13:15:10.173Z,,,,,,,,,,,,,,,,53,,,,,,,,,,,,,,1955.2979999977688,,response,,,99,,,,,,Space,keypress(Space),,,,,"---- -- ----- -- ------ - ------- --- ----------<br>relationship, ------ ------ ---- ---- ------- ----- -- ----<br>-------- ------- -- ---------- --- - --- ----- ----- ----<br>---- --- --- ----- --- ---- ---- ------- ----- ---- -------<br>--- --- -- ----- -- --- ---- -- --- ---- -- ------ ------<br>--- ----- -- ----",92771.5,92770.59999999776,90798.631,90812.59999999776,90815.302,92782.304,,9,"relationship,"
screen,html.Screen,0_2_0_1_10,2021-12-02T13:15:11.285Z,,,,,,,,,,,,,,,,53,,,,,,,,,,,,,,1100.0959999985062,,response,,,99,,,,,,Space,keypress(Space),,,,,---- -- ----- -- ------ - ------- --- ----------<br>------------- common ------ ---- ---- ------- ----- -- ----<br>-------- ------- -- ---------- --- - --- ----- ----- ----<br>---- --- --- ----- --- ---- ---- ------- ----- ---- -------<br>--- --- -- ----- -- --- ---- -- --- ---- -- ------ ------<br>--- ----- -- ----,93883.5,93882.39999999851,92765.634,92771.89999999851,92782.304,93899.274,,10,common
screen,html.Screen,0_2_0_1_11,2021-12-02T13:15:12.493Z,,,,,,,,,,,,,,,,53,,,,,,,,,,,,,,1191.225999999995,,response,,,99,,,,,,Space,keypress(Space),,,,,---- -- ----- -- ------ - ------- --- ----------<br>------------- ------ wisdom ---- ---- ------- ----- -- ----<br>-------- ------- -- ---------- --- - --- ----- ----- ----<br>---- --- --- ----- --- ---- ---- ------- ----- ---- -------<br>--- --- -- ----- -- --- ---- -- --- ---- -- ------ ------<br>--- ----- -- ----,95091.5,95090.5,93882.604,93883.89999999851,93899.274,95099.527,,11,wisdom
screen,html.Screen,0_2_0_1_12,2021-12-02T13:15:13.605Z,,,,,,,,,,,,,,,,53,,,,,,,,,,,,,,1102.872999998508,,response,,,99,,,,,,Space,keypress(Space),,,,,---- -- ----- -- ------ - ------- --- ----------<br>------------- ------ ------ says ---- ------- ----- -- ----<br>-------- ------- -- ---------- --- - --- ----- ----- ----<br>---- --- --- ----- --- ---- ---- ------- ----- ---- -------<br>--- --- -- ----- -- --- ---- -- --- ---- -- ------ ------<br>--- ----- -- ----,96203.19999999925,96202.39999999851,95082.857,95091.80000000075,95099.527,96216.806,,12,says
screen,html.Screen,0_2_0_1_13,2021-12-02T13:15:14.797Z,,,,,,,,,,,,,,,,53,,,,,,,,,,,,,,1177.4940000007482,,response,,,99,,,,,,Space,keypress(Space),,,,,---- -- ----- -- ------ - ------- --- ----------<br>------------- ------ ------ ---- that ------- ----- -- ----<br>-------- ------- -- ---------- --- - --- ----- ----- ----<br>---- --- --- ----- --- ---- ---- ------- ----- ---- -------<br>--- --- -- ----- -- --- ---- -- --- ---- -- ------ ------<br>--- ----- -- ----,97395.19999999925,97394.30000000075,96200.134,96203.59999999776,96216.806,97400.246,,13,that
screen,html.Screen,0_2_0_1_14,2021-12-02T13:15:16.165Z,,,,,,,,,,,,,,,,53,,,,,,,,,,,,,,1362.0540000007459,,response,,,99,,,,,,Space,keypress(Space),,,,,---- -- ----- -- ------ - ------- --- ----------<br>------------- ------ ------ ---- ---- feeling ----- -- ----<br>-------- ------- -- ---------- --- - --- ----- ----- ----<br>---- --- --- ----- --- ---- ---- ------- ----- ---- -------<br>--- --- -- ----- -- --- ---- -- --- ---- -- ------ ------<br>--- ----- -- ----,98763.09999999776,98762.30000000075,97383.576,97395.59999999776,97400.246,98767.186,,14,feeling
screen,html.Screen,0_2_0_1_15,2021-12-02T13:15:17.141Z,,,,,,,,,,,,,,,,53,,,,,,,,,,,,,,971.4139999977633,,response,,,99,,,,,,Space,keypress(Space),,,,,---- -- ----- -- ------ - ------- --- ----------<br>------------- ------ ------ ---- ---- ------- close -- ----<br>-------- ------- -- ---------- --- - --- ----- ----- ----<br>---- --- --- ----- --- ---- ---- ------- ----- ---- -------<br>--- --- -- ----- -- --- ---- -- --- ---- -- ------ ------<br>--- ----- -- ----,99739.5,99738.59999999776,98750.516,98763.5,98767.186,99750.939,,15,close
screen,html.Screen,0_2_0_1_16,2021-12-02T13:15:18.069Z,,,,,,,,,,,,,,,,53,,,,,,,,,,,,,,915.1609999977663,,response,,,99,,,,,,Space,keypress(Space),,,,,---- -- ----- -- ------ - ------- --- ----------<br>------------- ------ ------ ---- ---- ------- ----- to ----<br>-------- ------- -- ---------- --- - --- ----- ----- ----<br>---- --- --- ----- --- ---- ---- ------- ----- ---- -------<br>--- --- -- ----- -- --- ---- -- --- ---- -- ------ ------<br>--- ----- -- ----,100667,100666.09999999776,99734.268,99739.80000000075,99750.939,100684.382,,16,to
screen,html.Screen,0_2_0_1_17,2021-12-02T13:15:19.029Z,,,,,,,,,,,,,,,,53,,,,,,,,,,,,,,941.717999997767,,response,,,99,,,,,,Space,keypress(Space),,,,,---- -- ----- -- ------ - ------- --- ----------<br>------------- ------ ------ ---- ---- ------- ----- -- your<br>-------- ------- -- ---------- --- - --- ----- ----- ----<br>---- --- --- ----- --- ---- ---- ------- ----- ---- -------<br>--- --- -- ----- -- --- ---- -- --- ---- -- ------ ------<br>--- ----- -- ----,101626.89999999851,101626.09999999776,100667.712,100667.30000000075,100684.382,101634.82,,17,your
screen,html.Screen,0_2_0_1_18,2021-12-02T13:15:20.165Z,,,,,,,,,,,,,,,,53,,,,,,,,,,,,,,1127.179999999993,,response,,,99,,,,,,Space,keypress(Space),,,,,---- -- ----- -- ------ - ------- --- ----------<br>------------- ------ ------ ---- ---- ------- ----- -- ----<br>romantic ------- -- ---------- --- - --- ----- ----- ----<br>---- --- --- ----- --- ---- ---- ------- ----- ---- -------<br>--- --- -- ----- -- --- ---- -- --- ---- -- ------ ------<br>--- ----- -- ----,102762.89999999851,102762,101618.149,101627.30000000075,101634.82,102768.417,,18,romantic
screen,html.Screen,0_2_0_1_19,2021-12-02T13:15:21.029Z,,,,,,,,,,,,,,,,53,,,,,,,,,,,,,,857.4829999985086,,response,,,99,,,,,,Space,keypress(Space),,,,,---- -- ----- -- ------ - ------- --- ----------<br>------------- ------ ------ ---- ---- ------- ----- -- ----<br>-------- partner -- ---------- --- - --- ----- ----- ----<br>---- --- --- ----- --- ---- ---- ------- ----- ---- -------<br>--- --- -- ----- -- --- ---- -- --- ---- -- ------ ------<br>--- ----- -- ----,103626.80000000075,103625.89999999851,102751.746,102763.09999999776,102768.417,103635.26,,19,partner
screen,html.Screen,0_2_0_1_20,2021-12-02T13:15:21.853Z,,,,,,,,,,,,,,,,53,,,,,,,,,,,,,,814.6399999985151,,response,,,99,,,,,,Space,keypress(Space),,,,,---- -- ----- -- ------ - ------- --- ----------<br>------------- ------ ------ ---- ---- ------- ----- -- ----<br>-------- ------- is ---------- --- - --- ----- ----- ----<br>---- --- --- ----- --- ---- ---- ------- ----- ---- -------<br>--- --- -- ----- -- --- ---- -- --- ---- -- ------ ------<br>--- ----- -- ----,104450.80000000075,104449.89999999851,103618.59,103627.19999999925,103635.26,104452.094,,20,is
screen,html.Screen,0_2_0_1_21,2021-12-02T13:15:23.173Z,,,,,,,,,,,,,,,,53,,,,,,,,,,,,,,1317.8059999985126,,response,,,99,,,,,,Space,keypress(Space),,,,,---- -- ----- -- ------ - ------- --- ----------<br>------------- ------ ------ ---- ---- ------- ----- -- ----<br>-------- ------- -- paramount. --- - --- ----- ----- ----<br>---- --- --- ----- --- ---- ---- ------- ----- ---- -------<br>--- --- -- ----- -- --- ---- -- --- ---- -- ------ ------<br>--- ----- -- ----,105770.80000000075,105769.89999999851,104435.424,104451,104452.094,105785.78,,21,paramount.
screen,html.Screen,0_2_0_1_22,2021-12-02T13:15:23.933Z,,,,,,,,,,,,,,,,53,,,,,,,,,,,,,,744.119999998511,,response,,,99,,,,,,Space,keypress(Space),,,,,---- -- ----- -- ------ - ------- --- ----------<br>------------- ------ ------ ---- ---- ------- ----- -- ----<br>-------- ------- -- ---------- But - --- ----- ----- ----<br>---- --- --- ----- --- ---- ---- ------- ----- ---- -------<br>--- --- -- ----- -- --- ---- -- --- ---- -- ------ ------<br>--- ----- -- ----,106530.80000000075,106529.89999999851,105769.11,105771.39999999851,105785.78,106536.027,,22,But
screen,html.Screen,0_2_0_1_23,2021-12-02T13:15:25.021Z,,,,,,,,,,,,,,,,53,,,,,,,,,,,,,,1081.7730000007432,,response,,,99,,,,,,Space,keypress(Space),,,,,---- -- ----- -- ------ - ------- --- ----------<br>------------- ------ ------ ---- ---- ------- ----- -- ----<br>-------- ------- -- ---------- --- a --- ----- ----- ----<br>---- --- --- ----- --- ---- ---- ------- ----- ---- -------<br>--- --- -- ----- -- --- ---- -- --- ---- -- ------ ------<br>--- ----- -- ----,107618.59999999776,107617.80000000075,106519.357,106531.09999999776,106536.027,107619.632,,23,a
screen,html.Screen,0_2_0_1_24,2021-12-02T13:15:25.957Z,,,,,,,,,,,,,,,,53,,,,,,,,,,,,,,934.1680000007473,,response,,,99,,,,,,Space,keypress(Space),,,,,---- -- ----- -- ------ - ------- --- ----------<br>------------- ------ ------ ---- ---- ------- ----- -- ----<br>-------- ------- -- ---------- --- - new ----- ----- ----<br>---- --- --- ----- --- ---- ---- ------- ----- ---- -------<br>--- --- -- ----- -- --- ---- -- --- ---- -- ------ ------<br>--- ----- -- ----,108554.69999999925,108553.80000000075,107602.962,107618.80000000075,107619.632,108569.797,,24,new
screen,html.Screen,0_2_0_1_25,2021-12-02T13:15:26.813Z,,,,,,,,,,,,,,,,53,,,,,,,,,,,,,,839.902999999249,,response,,,99,,,,,,Space,keypress(Space),,,,,---- -- ----- -- ------ - ------- --- ----------<br>------------- ------ ------ ---- ---- ------- ----- -- ----<br>-------- ------- -- ---------- --- - --- study ----- ----<br>---- --- --- ----- --- ---- ---- ------- ----- ---- -------<br>--- --- -- ----- -- --- ---- -- --- ---- -- ------ ------<br>--- ----- -- ----,109410.69999999925,109409.69999999925,108553.127,108555,108569.797,109420.207,,25,study
screen,html.Screen,0_2_0_1_26,2021-12-02T13:15:27.709Z,,,,,,,,,,,,,,,,53,,,,,,,,,,,,,,885.9929999992601,,response,,,99,,,,,,Space,keypress(Space),,,,,---- -- ----- -- ------ - ------- --- ----------<br>------------- ------ ------ ---- ---- ------- ----- -- ----<br>-------- ------- -- ---------- --- - --- ----- finds ----<br>---- --- --- ----- --- ---- ---- ------- ----- ---- -------<br>--- --- -- ----- -- --- ---- -- --- ---- -- ------ ------<br>--- ----- -- ----,110307,110306.19999999925,109403.536,109410.89999999851,109420.207,110320.363,,26,finds
screen,html.Screen,0_2_0_1_27,2021-12-02T13:15:28.588Z,,,,,,,,,,,,,,,,53,,,,,,,,,,,,,,865.2369999977673,,response,,,99,,,,,,Space,keypress(Space),,,,,---- -- ----- -- ------ - ------- --- ----------<br>------------- ------ ------ ---- ---- ------- ----- -- ----<br>-------- ------- -- ---------- --- - --- ----- ----- that<br>---- --- --- ----- --- ---- ---- ------- ----- ---- -------<br>--- --- -- ----- -- --- ---- -- --- ---- -- ------ ------<br>--- ----- -- ----,111186.5,111185.59999999776,110303.693,110307.30000000075,110320.363,111203.936,,27,that
screen,html.Screen,0_2_0_1_28,2021-12-02T13:15:29.396Z,,,,,,,,,,,,,,,,53,,,,,,,,,,,,,,789.7639999992534,,response,,,99,,,,,,Space,keypress(Space),,,,,---- -- ----- -- ------ - ------- --- ----------<br>------------- ------ ------ ---- ---- ------- ----- -- ----<br>-------- ------- -- ---------- --- - --- ----- ----- ----<br>it's --- --- ----- --- ---- ---- ------- ----- ---- -------<br>--- --- -- ----- -- --- ---- -- --- ---- -- ------ ------<br>--- ----- -- ----,111994.5,111993.69999999925,111187.266,111186.80000000075,111203.936,112004.16,,28,it's
screen,html.Screen,0_2_0_1_29,2021-12-02T13:15:30.036Z,,,,,,,,,,,,,,,,53,,,,,,,,,,,,,,629.5399999992514,,response,,,99,,,,,,Space,keypress(Space),,,,,---- -- ----- -- ------ - ------- --- ----------<br>------------- ------ ------ ---- ---- ------- ----- -- ----<br>-------- ------- -- ---------- --- - --- ----- ----- ----<br>---- not --- ----- --- ---- ---- ------- ----- ---- -------<br>--- --- -- ----- -- --- ---- -- --- ---- -- ------ ------<br>--- ----- -- ----,112634.39999999851,112633.69999999925,111987.49,111994.80000000075,112004.16,112637.649,,29,not
screen,html.Screen,0_2_0_1_30,2021-12-02T13:15:30.676Z,,,,,,,,,,,,,,,,53,,,,,,,,,,,,,,635.9509999977599,,response,,,99,,,,,,Space,keypress(Space),,,,,---- -- ----- -- ------ - ------- --- ----------<br>------------- ------ ------ ---- ---- ------- ----- -- ----<br>-------- ------- -- ---------- --- - --- ----- ----- ----<br>---- --- how ----- --- ---- ---- ------- ----- ---- -------<br>--- --- -- ----- -- --- ---- -- --- ---- -- ------ ------<br>--- ----- -- ----,113274.39999999851,113273.59999999776,112620.979,112634.59999999776,112637.649,113287.842,,30,how
screen,html.Screen,0_2_0_1_31,2021-12-02T13:15:31.340Z,,,,,,,,,,,,,,,,53,,,,,,,,,,,,,,649.7579999977606,,response,,,99,,,,,,Space,keypress(Space),,,,,---- -- ----- -- ------ - ------- --- ----------<br>------------- ------ ------ ---- ---- ------- ----- -- ----<br>-------- ------- -- ---------- --- - --- ----- ----- ----<br>---- --- --- close --- ---- ---- ------- ----- ---- -------<br>--- --- -- ----- -- --- ---- -- --- ---- -- ------ ------<br>--- ----- -- ----,113938.39999999851,113937.59999999776,113271.172,113274.69999999925,113287.842,113954.666,,31,close
screen,html.Screen,0_2_0_1_32,2021-12-02T13:15:32.012Z,,,,,,,,,,,,,,,,53,,,,,,,,,,,,,,654.8340000000026,,response,,,99,,,,,,Space,keypress(Space),,,,,---- -- ----- -- ------ - ------- --- ----------<br>------------- ------ ------ ---- ---- ------- ----- -- ----<br>-------- ------- -- ---------- --- - --- ----- ----- ----<br>---- --- --- ----- you ---- ---- ------- ----- ---- -------<br>--- --- -- ----- -- --- ---- -- --- ---- -- ------ ------<br>--- ----- -- ----,114610.19999999925,114609.5,113937.996,113938.59999999776,113954.666,114621.5,,32,you
screen,html.Screen,0_2_0_1_33,2021-12-02T13:15:32.748Z,,,,,,,,,,,,,,,,53,,,,,,,,,,,,,,724,,response,,,99,,,,,,Space,keypress(Space),,,,,---- -- ----- -- ------ - ------- --- ----------<br>------------- ------ ------ ---- ---- ------- ----- -- ----<br>-------- ------- -- ---------- --- - --- ----- ----- ----<br>---- --- --- ----- --- feel ---- ------- ----- ---- -------<br>--- --- -- ----- -- --- ---- -- --- ---- -- ------ ------<br>--- ----- -- ----,115346.5,115345.5,114604.83,114610.5,114621.5,115355.109,,33,feel
screen,html.Screen,0_2_0_1_34,2021-12-02T13:15:33.422Z,,,,,,,,,,,,,,,,53,,,,,,,,,,,,,,662.2909999985131,,response,,,99,,,,,,Space,keypress(Space),,,,,---- -- ----- -- ------ - ------- --- ----------<br>------------- ------ ------ ---- ---- ------- ----- -- ----<br>-------- ------- -- ---------- --- - --- ----- ----- ----<br>---- --- --- ----- --- ---- that ------- ----- ---- -------<br>--- --- -- ----- -- --- ---- -- --- ---- -- ------ ------<br>--- ----- -- ----,116019.59999999776,116017.39999999851,115338.438,115346.69999999925,115355.109,116021.854,,34,that
screen,html.Screen,0_2_0_1_35,2021-12-02T13:15:34.148Z,,,,,,,,,,,,,,,,53,,,,,,,,,,,,,,723.5459999985032,,response,,,99,,,,,,Space,keypress(Space),,,,,---- -- ----- -- ------ - ------- --- ----------<br>------------- ------ ------ ---- ---- ------- ----- -- ----<br>-------- ------- -- ---------- --- - --- ----- ----- ----<br>---- --- --- ----- --- ---- ---- matters ----- ---- -------<br>--- --- -- ----- -- --- ---- -- --- ---- -- ------ ------<br>--- ----- -- ----,116746.19999999925,116745.39999999851,116005.184,116019.89999999851,116021.854,116755.491,,35,matters
screen,html.Screen,0_2_0_1_36,2021-12-02T13:15:34.972Z,,,,,,,,,,,,,,,,53,,,,,,,,,,,,,,813.8090000007505,,response,,,99,,,,,,Space,keypress(Space),,,,,"---- -- ----- -- ------ - ------- --- ----------<br>------------- ------ ------ ---- ---- ------- ----- -- ----<br>-------- ------- -- ---------- --- - --- ----- ----- ----<br>---- --- --- ----- --- ---- ---- ------- most, ---- -------<br>--- --- -- ----- -- --- ---- -- --- ---- -- ------ ------<br>--- ----- -- ----",117570.30000000075,117569.30000000075,116738.82,116746.5,116755.491,117572.27,,36,"most,"
screen,html.Screen,0_2_0_1_37,2021-12-02T13:15:35.756Z,,,,,,,,,,,,,,,,53,,,,,,,,,,,,,,781.030000000741,,response,,,99,,,,,,Space,keypress(Space),,,,,---- -- ----- -- ------ - ------- --- ----------<br>------------- ------ ------ ---- ---- ------- ----- -- ----<br>-------- ------- -- ---------- --- - --- ----- ----- ----<br>---- --- --- ----- --- ---- ---- ------- ----- it's -------<br>--- --- -- ----- -- --- ---- -- --- ---- -- ------ ------<br>--- ----- -- ----,118354.09999999776,118353.30000000075,117555.6,117570.59999999776,117572.27,118355.686,,37,it's
screen,html.Screen,0_2_0_1_38,2021-12-02T13:15:36.308Z,,,,,,,,,,,,,,,,53,,,,,,,,,,,,,,549.6140000007435,,response,,,99,,,,,,Space,keypress(Space),,,,,---- -- ----- -- ------ - ------- --- ----------<br>------------- ------ ------ ---- ---- ------- ----- -- ----<br>-------- ------- -- ---------- --- - --- ----- ----- ----<br>---- --- --- ----- --- ---- ---- ------- ----- ---- whether<br>--- --- -- ----- -- --- ---- -- --- ---- -- ------ ------<br>--- ----- -- ----,118906.09999999776,118905.30000000075,118339.017,118354.30000000075,118355.686,118922.747,,38,whether
screen,html.Screen,0_2_0_1_39,2021-12-02T13:15:37.204Z,,,,,,,,,,,,,,,,53,,,,,,,,,,,,,,878.4529999992519,,response,,,99,,,,,,Space,keypress(Space),,,,,---- -- ----- -- ------ - ------- --- ----------<br>------------- ------ ------ ---- ---- ------- ----- -- ----<br>-------- ------- -- ---------- --- - --- ----- ----- ----<br>---- --- --- ----- --- ---- ---- ------- ----- ---- -------<br>you --- -- ----- -- --- ---- -- --- ---- -- ------ ------<br>--- ----- -- ----,119802.19999999925,119801.19999999925,118906.076,118906.39999999851,118922.747,119806.228,,39,you
screen,html.Screen,0_2_0_1_40,2021-12-02T13:15:38.127Z,,,,,,,,,,,,,,,,53,,,,,,,,,,,,,,915.371999997762,,response,,,99,,,,,,Space,keypress(Space),,,,,---- -- ----- -- ------ - ------- --- ----------<br>------------- ------ ------ ---- ---- ------- ----- -- ----<br>-------- ------- -- ---------- --- - --- ----- ----- ----<br>---- --- --- ----- --- ---- ---- ------- ----- ---- -------<br>--- are -- ----- -- --- ---- -- --- ---- -- ------ ------<br>--- ----- -- ----,120722.39999999851,120721.59999999776,119789.558,119802.5,119806.228,120739.597,,40,are
screen,html.Screen,0_2_0_1_41,2021-12-02T13:15:38.726Z,,,,,,,,,,,,,,,,53,,,,,,,,,,,,,,581.5029999977705,,response,,,99,,,,,,Space,keypress(Space),,,,,---- -- ----- -- ------ - ------- --- ----------<br>------------- ------ ------ ---- ---- ------- ----- -- ----<br>-------- ------- -- ---------- --- - --- ----- ----- ----<br>---- --- --- ----- --- ---- ---- ------- ----- ---- -------<br>--- --- as ----- -- --- ---- -- --- ---- -- ------ ------<br>--- ----- -- ----,121321.89999999851,121321.09999999776,120722.928,120722.59999999776,120739.597,121323.36,,41,as
screen,html.Screen,0_2_0_1_42,2021-12-02T13:15:39.350Z,,,,,,,,,,,,,,,,53,,,,,,,,,,,,,,621.6399999999994,,response,,,99,,,,,,Space,keypress(Space),,,,,---- -- ----- -- ------ - ------- --- ----------<br>------------- ------ ------ ---- ---- ------- ----- -- ----<br>-------- ------- -- ---------- --- - --- ----- ----- ----<br>---- --- --- ----- --- ---- ---- ------- ----- ---- -------<br>--- --- -- close -- --- ---- -- --- ---- -- ------ ------<br>--- ----- -- ----,121945.89999999851,121945,121306.689,121322.09999999776,121323.36,121956.77,,42,close
screen,html.Screen,0_2_0_1_43,2021-12-02T13:15:40.110Z,,,,,,,,,,,,,,,,53,,,,,,,,,,,,,,748.2299999999959,,response,,,99,,,,,,Space,keypress(Space),,,,,---- -- ----- -- ------ - ------- --- ----------<br>------------- ------ ------ ---- ---- ------- ----- -- ----<br>-------- ------- -- ---------- --- - --- ----- ----- ----<br>---- --- --- ----- --- ---- ---- ------- ----- ---- -------<br>--- --- -- ----- as --- ---- -- --- ---- -- ------ ------<br>--- ----- -- ----,122705.89999999851,122705,121940.1,121946.09999999776,121956.77,122707.061,,43,as
screen,html.Screen,0_2_0_1_44,2021-12-02T13:15:40.654Z,,,,,,,,,,,,,,,,53,,,,,,,,,,,,,,542.0389999977633,,response,,,99,,,,,,Space,keypress(Space),,,,,---- -- ----- -- ------ - ------- --- ----------<br>------------- ------ ------ ---- ---- ------- ----- -- ----<br>-------- ------- -- ---------- --- - --- ----- ----- ----<br>---- --- --- ----- --- ---- ---- ------- ----- ---- -------<br>--- --- -- ----- -- you ---- -- --- ---- -- ------ ------<br>--- ----- -- ----,123249.80000000075,123249.09999999776,122690.39,122706.09999999776,122707.061,123257.159,,44,you
screen,html.Screen,0_2_0_1_45,2021-12-02T13:15:41.270Z,,,,,,,,,,,,,,,,53,,,,,,,,,,,,,,607.9409999977652,,response,,,99,,,,,,Space,keypress(Space),,,,,---- -- ----- -- ------ - ------- --- ----------<br>------------- ------ ------ ---- ---- ------- ----- -- ----<br>-------- ------- -- ---------- --- - --- ----- ----- ----<br>---- --- --- ----- --- ---- ---- ------- ----- ---- -------<br>--- --- -- ----- -- --- want -- --- ---- -- ------ ------<br>--- ----- -- ----,123865.89999999851,123865.09999999776,123240.489,123250.09999999776,123257.159,123873.955,,45,want
screen,html.Screen,0_2_0_1_46,2021-12-02T13:15:41.862Z,,,,,,,,,,,,,,,,53,,,,,,,,,,,,,,583.0449999999983,,response,,,99,,,,,,Space,keypress(Space),,,,,---- -- ----- -- ------ - ------- --- ----------<br>------------- ------ ------ ---- ---- ------- ----- -- ----<br>-------- ------- -- ---------- --- - --- ----- ----- ----<br>---- --- --- ----- --- ---- ---- ------- ----- ---- -------<br>--- --- -- ----- -- --- ---- to --- ---- -- ------ ------<br>--- ----- -- ----,124457.80000000075,124457,123857.285,123866.09999999776,123873.955,124474.108,,46,to
screen,html.Screen,0_2_0_1_47,2021-12-02T13:15:42.534Z,,,,,,,,,,,,,,,,53,,,,,,,,,,,,,,654.8920000000071,,response,,,99,,,,,,Space,keypress(Space),,,,,"---- -- ----- -- ------ - ------- --- ----------<br>------------- ------ ------ ---- ---- ------- ----- -- ----<br>-------- ------- -- ---------- --- - --- ----- ----- ----<br>---- --- --- ----- --- ---- ---- ------- ----- ---- -------<br>--- --- -- ----- -- --- ---- -- be, ---- -- ------ ------<br>--- ----- -- ----",125129.80000000075,125129,124457.438,124458,124474.108,125140.985,,47,"be,"
screen,html.Screen,0_2_0_1_48,2021-12-02T13:15:43.094Z,,,,,,,,,,,,,,,,53,,,,,,,,,,,,,,548.0149999999994,,response,,,99,,,,,,Space,keypress(Space),,,,,---- -- ----- -- ------ - ------- --- ----------<br>------------- ------ ------ ---- ---- ------- ----- -- ----<br>-------- ------- -- ---------- --- - --- ----- ----- ----<br>---- --- --- ----- --- ---- ---- ------- ----- ---- -------<br>--- --- -- ----- -- --- ---- -- --- even -- ------ ------<br>--- ----- -- ----,125689.69999999925,125689,125124.315,125130,125140.985,125691.137,,48,even
screen,html.Screen,0_2_0_1_49,2021-12-02T13:15:43.758Z,,,,,,,,,,,,,,,,53,,,,,,,,,,,,,,661.8629999999976,,response,,,99,,,,,,Space,keypress(Space),,,,,---- -- ----- -- ------ - ------- --- ----------<br>------------- ------ ------ ---- ---- ------- ----- -- ----<br>-------- ------- -- ---------- --- - --- ----- ----- ----<br>---- --- --- ----- --- ---- ---- ------- ----- ---- -------<br>--- --- -- ----- -- --- ---- -- --- ---- if ------ ------<br>--- ----- -- ----,126353.80000000075,126353,125674.467,125689.89999999851,125691.137,126357.961,,49,if
screen,html.Screen,0_2_0_1_50,2021-12-02T13:15:44.438Z,,,,,,,,,,,,,,,,53,,,,,,,,,,,,,,674.9389999985142,,response,,,99,,,,,,Space,keypress(Space),,,,,---- -- ----- -- ------ - ------- --- ----------<br>------------- ------ ------ ---- ---- ------- ----- -- ----<br>-------- ------- -- ---------- --- - --- ----- ----- ----<br>---- --- --- ----- --- ---- ---- ------- ----- ---- -------<br>--- --- -- ----- -- --- ---- -- --- ---- -- that's ------<br>--- ----- -- ----,127033.69999999925,127032.89999999851,126341.291,126354,126357.961,127041.567,,50,that's
screen,html.Screen,0_2_0_1_51,2021-12-02T13:15:45.262Z,,,,,,,,,,,,,,,,53,,,,,,,,,,,,,,815.3329999985144,,response,,,99,,,,,,Space,keypress(Space),,,,,---- -- ----- -- ------ - ------- --- ----------<br>------------- ------ ------ ---- ---- ------- ----- -- ----<br>-------- ------- -- ---------- --- - --- ----- ----- ----<br>---- --- --- ----- --- ---- ---- ------- ----- ---- -------<br>--- --- -- ----- -- --- ---- -- --- ---- -- ------ really<br>--- ----- -- ----,127857.69999999925,127856.89999999851,127024.896,127033.89999999851,127041.567,127875.026,,51,really
screen,html.Screen,0_2_0_1_52,2021-12-02T13:15:45.886Z,,,,,,,,,,,,,,,,53,,,,,,,,,,,,,,605.8739999985119,,response,,,99,,,,,,Space,keypress(Space),,,,,---- -- ----- -- ------ - ------- --- ----------<br>------------- ------ ------ ---- ---- ------- ----- -- ----<br>-------- ------- -- ---------- --- - --- ----- ----- ----<br>---- --- --- ----- --- ---- ---- ------- ----- ---- -------<br>--- --- -- ----- -- --- ---- -- --- ---- -- ------ ------<br>not ----- -- ----,128481.59999999776,128480.89999999851,127858.356,127857.89999999851,127875.026,128491.862,,52,not
screen,html.Screen,0_2_0_1_53,2021-12-02T13:15:46.438Z,,,,,,,,,,,,,,,,53,,,,,,,,,,,,,,540.9380000007513,,response,,,99,,,,,,Space,keypress(Space),,,,,---- -- ----- -- ------ - ------- --- ----------<br>------------- ------ ------ ---- ---- ------- ----- -- ----<br>-------- ------- -- ---------- --- - --- ----- ----- ----<br>---- --- --- ----- --- ---- ---- ------- ----- ---- -------<br>--- --- -- ----- -- --- ---- -- --- ---- -- ------ ------<br>--- close -- ----,129033.59999999776,129032.80000000075,128475.192,128481.80000000075,128491.862,129042.025,,53,close
screen,html.Screen,0_2_0_1_54,2021-12-02T13:15:46.934Z,,,,,,,,,,,,,,,,53,,,,,,,,,,,,,,486.8749999985157,,response,,,99,,,,,,Space,keypress(Space),,,,,---- -- ----- -- ------ - ------- --- ----------<br>------------- ------ ------ ---- ---- ------- ----- -- ----<br>-------- ------- -- ---------- --- - --- ----- ----- ----<br>---- --- --- ----- --- ---- ---- ------- ----- ---- -------<br>--- --- -- ----- -- --- ---- -- --- ---- -- ------ ------<br>--- ----- at ----,129529.59999999776,129528.89999999851,129025.355,129033.89999999851,129042.025,129542.128,,54,at
screen,html.Screen,0_2_0_1_55,2021-12-02T13:15:47.494Z,,,,,,,,,,,,,,,,53,,,,,,,,,,,,,,546.6720000007481,,response,,,99,,,,,,Space,keypress(Space),,,,,---- -- ----- -- ------ - ------- --- ----------<br>------------- ------ ------ ---- ---- ------- ----- -- ----<br>-------- ------- -- ---------- --- - --- ----- ----- ----<br>---- --- --- ----- --- ---- ---- ------- ----- ---- -------<br>--- --- -- ----- -- --- ---- -- --- ---- -- ------ ------<br>--- ----- -- all.,130089.59999999776,130088.80000000075,129525.458,129529.89999999851,129542.128,130109.025,,55,all.
Item 99,flow.Loop,0_2_0_1,2021-12-02T13:15:47.498Z,,,,,,,,,,,,,,,,,,,,,,,,,,,,,,53927.641000000745,,completion,,,,D,,,,,,,,,,silence,,130093.89999999851,130088.80000000075,76144.489,76150.09999999776,76161.159,130109.025,,,
Question 1,html.Screen,0_2_0_2,2021-12-02T13:16:01.774Z,,,,,,,,,,,,,,,,,,,,,,,,,,,true,FALSE,,14258.975000000006,,response,,,99,D,,,,,FALSE,click #choice-2,,,,silence,,144369.69999999925,144368,130092.354,130094.19999999925,130109.025,144379.477,,,
Question 2,html.Screen,0_2_0_3,2021-12-02T13:16:08.853Z,,,,,,,,,,,,,,,,,,,,,,,,,,,true,TRUE,,7068.122999997751,,response,,,99,D,,,,,TRUE,click #choice-1,,,,silence,,151448.69999999925,151447.59999999776,144362.806,144370,144379.477,151464.578,,,
Item 99,flow.Sequence,0_2_0,2021-12-02T13:16:08.854Z,,,,,,,,,,,,,,,,,,,,,,,,,,,,,,85289.16799999776,,completion,,,,,,,,,,,,,,,,151449.30000000075,151447.59999999776,66141.762,66150.30000000075,66158.432,151464.578,,,
Holding screen,html.Screen,0_2_1_0,2021-12-02T13:16:18.856Z,,,,,,,,,,,,,,,,,,,,,,,,,,,,,,10002.633000000002,,timeout,,,,,,,,,,,,,,,,161451.59999999776,161450.541,151447.909,151449.80000000075,151464.578,161467.211,,,
screen,html.Screen,0_2_1_1_0,2021-12-02T13:16:19.965Z,,,,,,,,,,,,,,,,54,,,,,,,,,,,,,,1092.4889999992447,,response,,,100,,,,,,Space,keypress(Space),,,,,At --- ---- --- ------ ----- ------- ---- -- --- ------- --<br>------- ---------- ------ -- ----- -- ----- -- ---- ------<br>--- ----- --- --- ------ -------- ----- --- ------ ----- --<br>----- ----- ---------- --- --- ------ ------ ---- -- ------<br>------- --- ------ ----- --- ---- ------- -- ---- --- --<br>------- ------,162560.69999999925,162559.69999999925,161450.541,161452,161467.211,162567.65,,0,At
screen,html.Screen,0_2_1_1_1,2021-12-02T13:16:20.653Z,,,,,,,,,,,,,,,,54,,,,,,,,,,,,,,679.5499999992608,,response,,,100,,,,,,Space,keypress(Space),,,,,-- the ---- --- ------ ----- ------- ---- -- --- ------- --<br>------- ---------- ------ -- ----- -- ----- -- ---- ------<br>--- ----- --- --- ------ -------- ----- --- ------ ----- --<br>----- ----- ---------- --- --- ------ ------ ---- -- ------<br>------- --- ------ ----- --- ---- ------- -- ---- --- --<br>------- ------,163248,163247.19999999925,162550.979,162561,162567.65,163251.116,,1,the
screen,html.Screen,0_2_1_1_2,2021-12-02T13:16:21.325Z,,,,,,,,,,,,,,,,54,,,,,,,,,,,,,,668.0839999992459,,response,,,100,,,,,,Space,keypress(Space),,,,,-- --- time --- ------ ----- ------- ---- -- --- ------- --<br>------- ---------- ------ -- ----- -- ----- -- ---- ------<br>--- ----- --- --- ------ -------- ----- --- ------ ----- --<br>----- ----- ---------- --- --- ------ ------ ---- -- ------<br>------- --- ------ ----- --- ---- ------- -- ---- --- --<br>------- ------,163920,163919.19999999925,163234.446,163248.30000000075,163251.116,163934.604,,2,time
screen,html.Screen,0_2_1_1_3,2021-12-02T13:16:23.572Z,,,,,,,,,,,,,,,,54,,,,,,,,,,,,,,2232.4959999977727,,response,,,100,,,,,,Space,keypress(Space),,,,,-- --- ---- the ------ ----- ------- ---- -- --- ------- --<br>------- ---------- ------ -- ----- -- ----- -- ---- ------<br>--- ----- --- --- ------ -------- ----- --- ------ ----- --<br>----- ----- ---------- --- --- ------ ------ ---- -- ------<br>------- --- ------ ----- --- ---- ------- -- ---- --- --<br>------- ------,166167.8999999985,166167.09999999776,163917.934,163920.19999999925,163934.604,166185.273,,3,the
screen,html.Screen,0_2_1_1_4,2021-12-02T13:16:24.252Z,,,,,,,,,,,,,,,,54,,,,,,,,,,,,,,661.8269999977783,,response,,,100,,,,,,Space,keypress(Space),,,,,-- --- ---- --- French ----- ------- ---- -- --- ------- --<br>------- ---------- ------ -- ----- -- ----- -- ---- ------<br>--- ----- --- --- ------ -------- ----- --- ------ ----- --<br>----- ----- ---------- --- --- ------ ------ ---- -- ------<br>------- --- ------ ----- --- ---- ------- -- ---- --- --<br>------- ------,166847.8999999985,166847.09999999776,166168.602,166168.19999999925,166185.273,166852.02,,4,French
screen,html.Screen,0_2_1_1_5,2021-12-02T13:16:25.204Z,,,,,,,,,,,,,,,,54,,,,,,,,,,,,,,946.9800000000105,,response,,,100,,,,,,Space,keypress(Space),,,,,-- --- ---- --- ------ crown ------- ---- -- --- ------- --<br>------- ---------- ------ -- ----- -- ----- -- ---- ------<br>--- ----- --- --- ------ -------- ----- --- ------ ----- --<br>----- ----- ---------- --- --- ------ ------ ---- -- ------<br>------- --- ------ ----- --- ---- ------- -- ---- --- --<br>------- ------,167799.80000000075,167799,166835.35,166848.09999999776,166852.02,167802.312,,5,crown
screen,html.Screen,0_2_1_1_6,2021-12-02T13:16:25.852Z,,,,,,,,,,,,,,,,54,,,,,,,,,,,,,,644.6879999999946,,response,,,100,,,,,,Space,keypress(Space),,,,,-- --- ---- --- ------ ----- secured ---- -- --- ------- --<br>------- ---------- ------ -- ----- -- ----- -- ---- ------<br>--- ----- --- --- ------ -------- ----- --- ------ ----- --<br>----- ----- ---------- --- --- ------ ------ ---- -- ------<br>------- --- ------ ----- --- ---- ------- -- ---- --- --<br>------- ------,168447.80000000075,168447,167785.642,167800,167802.312,168452.503,,6,secured
screen,html.Screen,0_2_1_1_7,2021-12-02T13:16:26.452Z,,,,,,,,,,,,,,,,54,,,,,,,,,,,,,,594.497000000003,,response,,,100,,,,,,Space,keypress(Space),,,,,-- --- ---- --- ------ ----- ------- much -- --- ------- --<br>------- ---------- ------ -- ----- -- ----- -- ---- ------<br>--- ----- --- --- ------ -------- ----- --- ------ ----- --<br>----- ----- ---------- --- --- ------ ------ ---- -- ------<br>------- --- ------ ----- --- ---- ------- -- ---- --- --<br>------- ------,169047.80000000075,169047,168435.833,168448,168452.503,169052.664,,7,much
screen,html.Screen,0_2_1_1_8,2021-12-02T13:16:26.956Z,,,,,,,,,,,,,,,,54,,,,,,,,,,,,,,498.23599999852013,,response,,,100,,,,,,Space,keypress(Space),,,,,-- --- ---- --- ------ ----- ------- ---- of --- ------- --<br>------- ---------- ------ -- ----- -- ----- -- ---- ------<br>--- ----- --- --- ------ -------- ----- --- ------ ----- --<br>----- ----- ---------- --- --- ------ ------ ---- -- ------<br>------- --- ------ ----- --- ---- ------- -- ---- --- --<br>------- ------,169551.59999999776,169550.8999999985,169035.994,169048.09999999776,169052.664,169569.522,,8,of
screen,html.Screen,0_2_1_1_9,2021-12-02T13:16:27.356Z,,,,,,,,,,,,,,,,54,,,,,,,,,,,,,,381.3779999985127,,response,,,100,,,,,,Space,keypress(Space),,,,,-- --- ---- --- ------ ----- ------- ---- -- its ------- --<br>------- ---------- ------ -- ----- -- ----- -- ---- ------<br>--- ----- --- --- ------ -------- ----- --- ------ ----- --<br>----- ----- ---------- --- --- ------ ------ ---- -- ------<br>------- --- ------ ----- --- ---- ------- -- ---- --- --<br>------- ------,169951.69999999925,169950.8999999985,169552.851,169553.3999999985,169569.522,169952.829,,9,its
screen,html.Screen,0_2_1_1_10,2021-12-02T13:16:28.268Z,,,,,,,,,,,,,,,,54,,,,,,,,,,,,,,909.9710000007472,,response,,,100,,,,,,Space,keypress(Space),,,,,-- --- ---- --- ------ ----- ------- ---- -- --- revenue --<br>------- ---------- ------ -- ----- -- ----- -- ---- ------<br>--- ----- --- --- ------ -------- ----- --- ------ ----- --<br>----- ----- ---------- --- --- ------ ------ ---- -- ------<br>------- --- ------ ----- --- ---- ------- -- ---- --- --<br>------- ------,170863.59999999776,170862.80000000075,169936.16,169952,169952.829,170869.737,,10,revenue
screen,html.Screen,0_2_1_1_11,2021-12-02T13:16:28.884Z,,,,,,,,,,,,,,,,54,,,,,,,,,,,,,,609.0630000007513,,response,,,100,,,,,,Space,keypress(Space),,,,,-- --- ---- --- ------ ----- ------- ---- -- --- ------- by<br>------- ---------- ------ -- ----- -- ----- -- ---- ------<br>--- ----- --- --- ------ -------- ----- --- ------ ----- --<br>----- ----- ---------- --- --- ------ ------ ---- -- ------<br>------- --- ------ ----- --- ---- ------- -- ---- --- --<br>------- ------,171479.59999999776,171478.80000000075,170853.067,170863.8999999985,170869.737,171486.759,,11,by
screen,html.Screen,0_2_1_1_12,2021-12-02T13:16:29.524Z,,,,,,,,,,,,,,,,54,,,,,,,,,,,,,,631.940999999264,,response,,,100,,,,,,Space,keypress(Space),,,,,-- --- ---- --- ------ ----- ------- ---- -- --- ------- --<br>issuing ---------- ------ -- ----- -- ----- -- ---- ------<br>--- ----- --- --- ------ -------- ----- --- ------ ----- --<br>----- ----- ---------- --- --- ------ ------ ---- -- ------<br>------- --- ------ ----- --- ---- ------- -- ---- --- --<br>------- ------,172119.5,172118.69999999925,171470.087,171479.80000000075,171486.759,172136.868,,12,issuing
screen,html.Screen,0_2_1_1_13,2021-12-02T13:16:30.124Z,,,,,,,,,,,,,,,,54,,,,,,,,,,,,,,582.3319999992673,,response,,,100,,,,,,Space,keypress(Space),,,,,-- --- ---- --- ------ ----- ------- ---- -- --- ------- --<br>------- government ------ -- ----- -- ----- -- ---- ------<br>--- ----- --- --- ------ -------- ----- --- ------ ----- --<br>----- ----- ---------- --- --- ------ ------ ---- -- ------<br>------- --- ------ ----- --- ---- ------- -- ---- --- --<br>------- ------,172719.8999999985,172719.19999999925,172120.197,172119.80000000075,172136.868,172736.92,,13,government
screen,html.Screen,0_2_1_1_14,2021-12-02T13:16:31.124Z,,,,,,,,,,,,,,,,54,,,,,,,,,,,,,,981.7799999992421,,response,,,100,,,,,,Space,keypress(Space),,,,,-- --- ---- --- ------ ----- ------- ---- -- --- ------- --<br>------- ---------- bonds. -- ----- -- ----- -- ---- ------<br>--- ----- --- --- ------ -------- ----- --- ------ ----- --<br>----- ----- ---------- --- --- ------ ------ ---- -- ------<br>------- --- ------ ----- --- ---- ------- -- ---- --- --<br>------- ------,173719.5,173718.69999999925,172720.25,172720.09999999776,172736.92,173720.626,,14,bonds.
screen,html.Screen,0_2_1_1_15,2021-12-02T13:16:31.740Z,,,,,,,,,,,,,,,,54,,,,,,,,,,,,,,614.0739999992657,,response,,,100,,,,,,Space,keypress(Space),,,,,-- --- ---- --- ------ ----- ------- ---- -- --- ------- --<br>------- ---------- ------ In ----- -- ----- -- ---- ------<br>--- ----- --- --- ------ -------- ----- --- ------ ----- --<br>----- ----- ---------- --- --- ------ ------ ---- -- ------<br>------- --- ------ ----- --- ---- ------- -- ---- --- --<br>------- ------,174335.3999999985,174334.69999999925,173703.955,173719.80000000075,173720.626,174337.405,,15,In
screen,html.Screen,0_2_1_1_16,2021-12-02T13:16:33.532Z,,,,,,,,,,,,,,,,54,,,,,,,,,,,,,,1789.194999997766,,response,,,100,,,,,,Space,keypress(Space),,,,,"-- --- ---- --- ------ ----- ------- ---- -- --- ------- --<br>------- ---------- ------ -- 1727, -- ----- -- ---- ------<br>--- ----- --- --- ------ -------- ----- --- ------ ----- --<br>----- ----- ---------- --- --- ------ ------ ---- -- ------<br>------- --- ------ ----- --- ---- ------- -- ---- --- --<br>------- ------",176127.5,176126.59999999776,174320.735,174335.59999999776,174337.405,176137.815,,16,"1727,"
screen,html.Screen,0_2_1_1_17,2021-12-02T13:16:35.748Z,,,,,,,,,,,,,,,,54,,,,,,,,,,,,,,2204.6849999999977,,response,,,100,,,,,,Space,keypress(Space),,,,,-- --- ---- --- ------ ----- ------- ---- -- --- ------- --<br>------- ---------- ------ -- ----- in ----- -- ---- ------<br>--- ----- --- --- ------ -------- ----- --- ------ ----- --<br>----- ----- ---------- --- --- ------ ------ ---- -- ------<br>------- --- ------ ----- --- ---- ------- -- ---- --- --<br>------- ------,178343.30000000075,178342.5,176121.145,176127.69999999925,176137.815,178355.003,,17,in
screen,html.Screen,0_2_1_1_18,2021-12-02T13:16:36.316Z,,,,,,,,,,,,,,,,54,,,,,,,,,,,,,,555.497000000003,,response,,,100,,,,,,Space,keypress(Space),,,,,-- --- ---- --- ------ ----- ------- ---- -- --- ------- --<br>------- ---------- ------ -- ----- -- order -- ---- ------<br>--- ----- --- --- ------ -------- ----- --- ------ ----- --<br>----- ----- ---------- --- --- ------ ------ ---- -- ------<br>------- --- ------ ----- --- ---- ------- -- ---- --- --<br>------- ------,178911.3999999985,178910.5,178338.333,178343.59999999776,178355.003,178921.751,,18,order
screen,html.Screen,0_2_1_1_19,2021-12-02T13:16:36.756Z,,,,,,,,,,,,,,,,54,,,,,,,,,,,,,,428.7490000000107,,response,,,100,,,,,,Space,keypress(Space),,,,,-- --- ---- --- ------ ----- ------- ---- -- --- ------- --<br>------- ---------- ------ -- ----- -- ----- to ---- ------<br>--- ----- --- --- ------ -------- ----- --- ------ ----- --<br>----- ----- ---------- --- --- ------ ------ ---- -- ------<br>------- --- ------ ----- --- ---- ------- -- ---- --- --<br>------- ------,179351.30000000075,179350.5,178905.081,178911.69999999925,178921.751,179355.359,,19,to
screen,html.Screen,0_2_1_1_20,2021-12-02T13:16:37.212Z,,,,,,,,,,,,,,,,54,,,,,,,,,,,,,,451.14100000000326,,response,,,100,,,,,,Space,keypress(Space),,,,,-- --- ---- --- ------ ----- ------- ---- -- --- ------- --<br>------- ---------- ------ -- ----- -- ----- -- save ------<br>--- ----- --- --- ------ -------- ----- --- ------ ----- --<br>----- ----- ---------- --- --- ------ ------ ---- -- ------<br>------- --- ------ ----- --- ---- ------- -- ---- --- --<br>------- ------,179807.3999999985,179806.5,179338.689,179351.59999999776,179355.359,179822.298,,20,save
screen,html.Screen,0_2_1_1_21,2021-12-02T13:16:37.636Z,,,,,,,,,,,,,,,,54,,,,,,,,,,,,,,408.2019999999902,,response,,,100,,,,,,Space,keypress(Space),,,,,"-- --- ---- --- ------ ----- ------- ---- -- --- ------- --<br>------- ---------- ------ -- ----- -- ----- -- ---- money,<br>--- ----- --- --- ------ -------- ----- --- ------ ----- --<br>----- ----- ---------- --- --- ------ ------ ---- -- ------<br>------- --- ------ ----- --- ---- ------- -- ---- --- --<br>------- ------",180231.19999999925,180230.5,179805.626,179807.69999999925,179822.298,180238.98,,21,"money,"
screen,html.Screen,0_2_1_1_22,2021-12-02T13:16:38.272Z,,,,,,,,,,,,,,,,54,,,,,,,,,,,,,,623.3200000007346,,response,,,100,,,,,,Space,keypress(Space),,,,,-- --- ---- --- ------ ----- ------- ---- -- --- ------- --<br>------- ---------- ------ -- ----- -- ----- -- ---- ------<br>the ----- --- --- ------ -------- ----- --- ------ ----- --<br>----- ----- ---------- --- --- ------ ------ ---- -- ------<br>------- --- ------ ----- --- ---- ------- -- ---- --- --<br>------- ------,180863.19999999925,180862.30000000075,180222.31,180231.59999999776,180238.98,180872.522,,22,the
screen,html.Screen,0_2_1_1_23,2021-12-02T13:16:38.807Z,,,,,,,,,,,,,,,,54,,,,,,,,,,,,,,525.7780000007479,,response,,,100,,,,,,Space,keypress(Space),,,,,-- --- ---- --- ------ ----- ------- ---- -- --- ------- --<br>------- ---------- ------ -- ----- -- ----- -- ---- ------<br>--- state --- --- ------ -------- ----- --- ------ ----- --<br>----- ----- ---------- --- --- ------ ------ ---- -- ------<br>------- --- ------ ----- --- ---- ------- -- ---- --- --<br>------- ------,181399.09999999776,181398.30000000075,180855.851,180863.59999999776,180872.522,181405.813,,23,state
screen,html.Screen,0_2_1_1_24,2021-12-02T13:16:39.271Z,,,,,,,,,,,,,,,,54,,,,,,,,,,,,,,456.58699999851524,,response,,,100,,,,,,Space,keypress(Space),,,,,-- --- ---- --- ------ ----- ------- ---- -- --- ------- --<br>------- ---------- ------ -- ----- -- ----- -- ---- ------<br>--- ----- cut --- ------ -------- ----- --- ------ ----- --<br>----- ----- ---------- --- --- ------ ------ ---- -- ------<br>------- --- ------ ----- --- ---- ------- -- ---- --- --<br>------- ------,181863.09999999776,181862.3999999985,181389.144,181399.3999999985,181405.813,181872.798,,24,cut
screen,html.Screen,0_2_1_1_25,2021-12-02T13:16:39.719Z,,,,,,,,,,,,,,,,54,,,,,,,,,,,,,,437.5020000007353,,response,,,100,,,,,,Space,keypress(Space),,,,,-- --- ---- --- ------ ----- ------- ---- -- --- ------- --<br>------- ---------- ------ -- ----- -- ----- -- ---- ------<br>--- ----- --- the ------ -------- ----- --- ------ ----- --<br>----- ----- ---------- --- --- ------ ------ ---- -- ------<br>------- --- ------ ----- --- ---- ------- -- ---- --- --<br>------- ------,182311.09999999776,182310.30000000075,181856.127,181863.3999999985,181872.798,182322.817,,25,the
screen,html.Screen,0_2_1_1_26,2021-12-02T13:16:40.079Z,,,,,,,,,,,,,,,,54,,,,,,,,,,,,,,347.48300000073505,,response,,,100,,,,,,Space,keypress(Space),,,,,-- --- ---- --- ------ ----- ------- ---- -- --- ------- --<br>------- ---------- ------ -- ----- -- ----- -- ---- ------<br>--- ----- --- --- bonds' -------- ----- --- ------ ----- --<br>----- ----- ---------- --- --- ------ ------ ---- -- ------<br>------- --- ------ ----- --- ---- ------- -- ---- --- --<br>------- ------,182671.19999999925,182670.30000000075,182306.147,182311.30000000075,182322.817,182672.98,,26,bonds'
screen,html.Screen,0_2_1_1_27,2021-12-02T13:16:41.440Z,,,,,,,,,,,,,,,,54,,,,,,,,,,,,,,1357.7199999992445,,response,,,100,,,,,,Space,keypress(Space),,,,,-- --- ---- --- ------ ----- ------- ---- -- --- ------- --<br>------- ---------- ------ -- ----- -- ----- -- ---- ------<br>--- ----- --- --- ------ interest ----- --- ------ ----- --<br>----- ----- ---------- --- --- ------ ------ ---- -- ------<br>------- --- ------ ----- --- ---- ------- -- ---- --- --<br>------- ------,184031.5,184030.69999999925,182656.309,182671.3999999985,182672.98,184040.015,,27,interest
screen,html.Screen,0_2_1_1_28,2021-12-02T13:16:41.943Z,,,,,,,,,,,,,,,,54,,,,,,,,,,,,,,494.184999999241,,response,,,100,,,,,,Space,keypress(Space),,,,,-- --- ---- --- ------ ----- ------- ---- -- --- ------- --<br>------- ---------- ------ -- ----- -- ----- -- ---- ------<br>--- ----- --- --- ------ -------- rate. --- ------ ----- --<br>----- ----- ---------- --- --- ------ ------ ---- -- ------<br>------- --- ------ ----- --- ---- ------- -- ---- --- --<br>------- ------,184535,184534.19999999925,184023.344,184031.69999999925,184040.015,184540.015,,28,rate.
screen,html.Screen,0_2_1_1_29,2021-12-02T13:16:42.663Z,,,,,,,,,,,,,,,,54,,,,,,,,,,,,,,714.184999999241,,response,,,100,,,,,,Space,keypress(Space),,,,,-- --- ---- --- ------ ----- ------- ---- -- --- ------- --<br>------- ---------- ------ -- ----- -- ----- -- ---- ------<br>--- ----- --- --- ------ -------- ----- The ------ ----- --<br>----- ----- ---------- --- --- ------ ------ ---- -- ------<br>------- --- ------ ----- --- ---- ------- -- ---- --- --<br>------- ------,185254.8999999985,185254.19999999925,184523.345,184535.19999999925,184540.015,185256.92,,29,The
screen,html.Screen,0_2_1_1_30,2021-12-02T13:16:43.055Z,,,,,,,,,,,,,,,,54,,,,,,,,,,,,,,389.27999999924214,,response,,,100,,,,,,Space,keypress(Space),,,,,-- --- ---- --- ------ ----- ------- ---- -- --- ------- --<br>------- ---------- ------ -- ----- -- ----- -- ---- ------<br>--- ----- --- --- ------ -------- ----- --- market ----- --<br>----- ----- ---------- --- --- ------ ------ ---- -- ------<br>------- --- ------ ----- --- ---- ------- -- ---- --- --<br>------- ------,185646.8999999985,185646.19999999925,185240.25,185255.19999999925,185256.92,185657.146,,30,market
screen,html.Screen,0_2_1_1_31,2021-12-02T13:16:43.503Z,,,,,,,,,,,,,,,,54,,,,,,,,,,,,,,436.9539999977569,,response,,,100,,,,,,Space,keypress(Space),,,,,-- --- ---- --- ------ ----- ------- ---- -- --- ------- --<br>------- ---------- ------ -- ----- -- ----- -- ---- ------<br>--- ----- --- --- ------ -------- ----- --- ------ value --<br>----- ----- ---------- --- --- ------ ------ ---- -- ------<br>------- --- ------ ----- --- ---- ------- -- ---- --- --<br>------- ------,186094.8999999985,186094.09999999776,185640.475,185647.19999999925,185657.146,186107.187,,31,value
screen,html.Screen,0_2_1_1_32,2021-12-02T13:16:43.927Z,,,,,,,,,,,,,,,,54,,,,,,,,,,,,,,410.91299999775947,,response,,,100,,,,,,Space,keypress(Space),,,,,-- --- ---- --- ------ ----- ------- ---- -- --- ------- --<br>------- ---------- ------ -- ----- -- ----- -- ---- ------<br>--- ----- --- --- ------ -------- ----- --- ------ ----- of<br>----- ----- ---------- --- --- ------ ------ ---- -- ------<br>------- --- ------ ----- --- ---- ------- -- ---- --- --<br>------- ------,186518.8999999985,186518.09999999776,186090.517,186095.19999999925,186107.187,186524.028,,32,of
screen,html.Screen,0_2_1_1_33,2021-12-02T13:16:44.439Z,,,,,,,,,,,,,,,,54,,,,,,,,,,,,,,506.0719999977737,,response,,,100,,,,,,Space,keypress(Space),,,,,-- --- ---- --- ------ ----- ------- ---- -- --- ------- --<br>------- ---------- ------ -- ----- -- ----- -- ---- ------<br>--- ----- --- --- ------ -------- ----- --- ------ ----- --<br>these ----- ---------- --- --- ------ ------ ---- -- ------<br>------- --- ------ ----- --- ---- ------- -- ---- --- --<br>------- ------,187030.80000000075,187030.09999999776,186507.357,186519.19999999925,186524.028,187040.79,,33,these
screen,html.Screen,0_2_1_1_34,2021-12-02T13:16:45.055Z,,,,,,,,,,,,,,,,54,,,,,,,,,,,,,,605.3099999977567,,response,,,100,,,,,,Space,keypress(Space),,,,,-- --- ---- --- ------ ----- ------- ---- -- --- ------- --<br>------- ---------- ------ -- ----- -- ----- -- ---- ------<br>--- ----- --- --- ------ -------- ----- --- ------ ----- --<br>----- bonds ---------- --- --- ------ ------ ---- -- ------<br>------- --- ------ ----- --- ---- ------- -- ---- --- --<br>------- ------,187646.8999999985,187646.09999999776,187024.12,187031.09999999776,187040.79,187657.596,,34,bonds
screen,html.Screen,0_2_1_1_35,2021-12-02T13:16:45.839Z,,,,,,,,,,,,,,,,54,,,,,,,,,,,,,,772.5039999977744,,response,,,100,,,,,,Space,keypress(Space),,,,,"-- --- ---- --- ------ ----- ------- ---- -- --- ------- --<br>------- ---------- ------ -- ----- -- ----- -- ---- ------<br>--- ----- --- --- ------ -------- ----- --- ------ ----- --<br>----- ----- plummeted, --- --- ------ ------ ---- -- ------<br>------- --- ------ ----- --- ---- ------- -- ---- --- --<br>------- ------",188430.80000000075,188430.09999999776,187640.926,187647.09999999776,187657.596,188441.221,,35,"plummeted,"
screen,html.Screen,0_2_1_1_36,2021-12-02T13:16:46.407Z,,,,,,,,,,,,,,,,54,,,,,,,,,,,,,,556.7790000000095,,response,,,100,,,,,,Space,keypress(Space),,,,,-- --- ---- --- ------ ----- ------- ---- -- --- ------- --<br>------- ---------- ------ -- ----- -- ----- -- ---- ------<br>--- ----- --- --- ------ -------- ----- --- ------ ----- --<br>----- ----- ---------- and --- ------ ------ ---- -- ------<br>------- --- ------ ----- --- ---- ------- -- ---- --- --<br>------- ------,188998.80000000075,188998,188424.55,188431.09999999776,188441.221,189007.961,,36,and
screen,html.Screen,0_2_1_1_37,2021-12-02T13:16:46.823Z,,,,,,,,,,,,,,,,54,,,,,,,,,,,,,,406.03899999998976,,response,,,100,,,,,,Space,keypress(Space),,,,,-- --- ---- --- ------ ----- ------- ---- -- --- ------- --<br>------- ---------- ------ -- ----- -- ----- -- ---- ------<br>--- ----- --- --- ------ -------- ----- --- ------ ----- --<br>----- ----- ---------- --- the ------ ------ ---- -- ------<br>------- --- ------ ----- --- ---- ------- -- ---- --- --<br>------- ------,189414.69999999925,189414,188991.291,188999.09999999776,189007.961,189424.72,,37,the
screen,html.Screen,0_2_1_1_38,2021-12-02T13:16:47.239Z,,,,,,,,,,,,,,,,54,,,,,,,,,,,,,,405.27999999999884,,response,,,100,,,,,,Space,keypress(Space),,,,,-- --- ---- --- ------ ----- ------- ---- -- --- ------- --<br>------- ---------- ------ -- ----- -- ----- -- ---- ------<br>--- ----- --- --- ------ -------- ----- --- ------ ----- --<br>----- ----- ---------- --- --- market ------ ---- -- ------<br>------- --- ------ ----- --- ---- ------- -- ---- --- --<br>------- ------,189830.69999999925,189830,189408.05,189415,189424.72,189841.57,,38,market
screen,html.Screen,0_2_1_1_39,2021-12-02T13:16:47.663Z,,,,,,,,,,,,,,,,54,,,,,,,,,,,,,,412.3299999985029,,response,,,100,,,,,,Space,keypress(Space),,,,,-- --- ---- --- ------ ----- ------- ---- -- --- ------- --<br>------- ---------- ------ -- ----- -- ----- -- ---- ------<br>--- ----- --- --- ------ -------- ----- --- ------ ----- --<br>----- ----- ---------- --- --- ------ became ---- -- ------<br>------- --- ------ ----- --- ---- ------- -- ---- --- --<br>------- ------,190254.8999999985,190253.8999999985,189824.899,189831,189841.57,190258.348,,39,became
screen,html.Screen,0_2_1_1_40,2021-12-02T13:16:49.199Z,,,,,,,,,,,,,,,,54,,,,,,,,,,,,,,1531.6520000000019,,response,,,100,,,,,,Space,keypress(Space),,,,,-- --- ---- --- ------ ----- ------- ---- -- --- ------- --<br>------- ---------- ------ -- ----- -- ----- -- ---- ------<br>--- ----- --- --- ------ -------- ----- --- ------ ----- --<br>----- ----- ---------- --- --- ------ ------ wary -- ------<br>------- --- ------ ----- --- ---- ------- -- ---- --- --<br>------- ------,191790.69999999925,191790,190241.677,190255.19999999925,190258.348,191791.979,,40,wary
screen,html.Screen,0_2_1_1_41,2021-12-02T13:16:49.679Z,,,,,,,,,,,,,,,,54,,,,,,,,,,,,,,477.9209999985178,,response,,,100,,,,,,Space,keypress(Space),,,,,-- --- ---- --- ------ ----- ------- ---- -- --- ------- --<br>------- ---------- ------ -- ----- -- ----- -- ---- ------<br>--- ----- --- --- ------ -------- ----- --- ------ ----- --<br>----- ----- ---------- --- --- ------ ------ ---- of ------<br>------- --- ------ ----- --- ---- ------- -- ---- --- --<br>------- ------,192270.69999999925,192269.8999999985,191775.309,191790.8999999985,191791.979,192275.253,,41,of
screen,html.Screen,0_2_1_1_42,2021-12-02T13:16:50.255Z,,,,,,,,,,,,,,,,54,,,,,,,,,,,,,,570.6469999985129,,response,,,100,,,,,,Space,keypress(Space),,,,,-- --- ---- --- ------ ----- ------- ---- -- --- ------- --<br>------- ---------- ------ -- ----- -- ----- -- ---- ------<br>--- ----- --- --- ------ -------- ----- --- ------ ----- --<br>----- ----- ---------- --- --- ------ ------ ---- -- French<br>------- --- ------ ----- --- ---- ------- -- ---- --- --<br>------- ------,192846.69999999925,192845.8999999985,192258.584,192270.8999999985,192275.253,192859.055,,42,French
screen,html.Screen,0_2_1_1_43,2021-12-02T13:16:50.791Z,,,,,,,,,,,,,,,,54,,,,,,,,,,,,,,522.8449999985169,,response,,,100,,,,,,Space,keypress(Space),,,,,-- --- ---- --- ------ ----- ------- ---- -- --- ------- --<br>------- ---------- ------ -- ----- -- ----- -- ---- ------<br>--- ----- --- --- ------ -------- ----- --- ------ ----- --<br>----- ----- ---------- --- --- ------ ------ ---- -- ------<br>credit. --- ------ ----- --- ---- ------- -- ---- --- --<br>------- ------,193382.59999999776,193381.8999999985,192842.384,192846.8999999985,192859.055,193392.338,,43,credit.
screen,html.Screen,0_2_1_1_44,2021-12-02T13:16:51.431Z,,,,,,,,,,,,,,,,54,,,,,,,,,,,,,,629.4620000007562,,response,,,100,,,,,,Space,keypress(Space),,,,,-- --- ---- --- ------ ----- ------- ---- -- --- ------- --<br>------- ---------- ------ -- ----- -- ----- -- ---- ------<br>--- ----- --- --- ------ -------- ----- --- ------ ----- --<br>----- ----- ---------- --- --- ------ ------ ---- -- ------<br>------- The ------ ----- --- ---- ------- -- ---- --- --<br>------- ------,194022.59999999776,194021.80000000075,193375.669,193382.8999999985,193392.338,194025.922,,44,The
screen,html.Screen,0_2_1_1_45,2021-12-02T13:16:51.943Z,,,,,,,,,,,,,,,,54,,,,,,,,,,,,,,508.27799999926356,,response,,,100,,,,,,Space,keypress(Space),,,,,-- --- ---- --- ------ ----- ------- ---- -- --- ------- --<br>------- ---------- ------ -- ----- -- ----- -- ---- ------<br>--- ----- --- --- ------ -------- ----- --- ------ ----- --<br>----- ----- ---------- --- --- ------ ------ ---- -- ------<br>------- --- French ----- --- ---- ------- -- ---- --- --<br>------- ------,194535,194534.19999999925,194009.252,194022.80000000075,194025.922,194542.88,,45,French
screen,html.Screen,0_2_1_1_46,2021-12-02T13:16:52.383Z,,,,,,,,,,,,,,,,54,,,,,,,,,,,,,,430.8199999992503,,response,,,100,,,,,,Space,keypress(Space),,,,,-- --- ---- --- ------ ----- ------- ---- -- --- ------- --<br>------- ---------- ------ -- ----- -- ----- -- ---- ------<br>--- ----- --- --- ------ -------- ----- --- ------ ----- --<br>----- ----- ---------- --- --- ------ ------ ---- -- ------<br>------- --- ------ state --- ---- ------- -- ---- --- --<br>------- ------,194974.5,194973.69999999925,194526.208,194535.19999999925,194542.88,194976.199,,46,state
screen,html.Screen,0_2_1_1_47,2021-12-02T13:16:52.831Z,,,,,,,,,,,,,,,,54,,,,,,,,,,,,,,445.6010000007518,,response,,,100,,,,,,Space,keypress(Space),,,,,-- --- ---- --- ------ ----- ------- ---- -- --- ------- --<br>------- ---------- ------ -- ----- -- ----- -- ---- ------<br>--- ----- --- --- ------ -------- ----- --- ------ ----- --<br>----- ----- ---------- --- --- ------ ------ ---- -- ------<br>------- --- ------ ----- was ---- ------- -- ---- --- --<br>------- ------,195422.5,195421.80000000075,194959.529,194974.80000000075,194976.199,195426.391,,47,was
screen,html.Screen,0_2_1_1_48,2021-12-02T13:16:53.231Z,,,,,,,,,,,,,,,,54,,,,,,,,,,,,,,395.3089999992517,,response,,,100,,,,,,Space,keypress(Space),,,,,-- --- ---- --- ------ ----- ------- ---- -- --- ------- --<br>------- ---------- ------ -- ----- -- ----- -- ---- ------<br>--- ----- --- --- ------ -------- ----- --- ------ ----- --<br>----- ----- ---------- --- --- ------ ------ ---- -- ------<br>------- --- ------ ----- --- left ------- -- ---- --- --<br>------- ------,195822.59999999776,195821.69999999925,195409.72,195422.69999999925,195426.391,195826.507,,48,left
screen,html.Screen,0_2_1_1_49,2021-12-02T13:16:53.695Z,,,,,,,,,,,,,,,,54,,,,,,,,,,,,,,459.1929999992426,,response,,,100,,,,,,Space,keypress(Space),,,,,-- --- ---- --- ------ ----- ------- ---- -- --- ------- --<br>------- ---------- ------ -- ----- -- ----- -- ---- ------<br>--- ----- --- --- ------ -------- ----- --- ------ ----- --<br>----- ----- ---------- --- --- ------ ------ ---- -- ------<br>------- --- ------ ----- --- ---- without -- ---- --- --<br>------- ------,196286.5,196285.69999999925,195809.836,195822.80000000075,195826.507,196293.104,,49,without
screen,html.Screen,0_2_1_1_50,2021-12-02T13:16:54.135Z,,,,,,,,,,,,,,,,54,,,,,,,,,,,,,,432.59599999926286,,response,,,100,,,,,,Space,keypress(Space),,,,,-- --- ---- --- ------ ----- ------- ---- -- --- ------- --<br>------- ---------- ------ -- ----- -- ----- -- ---- ------<br>--- ----- --- --- ------ -------- ----- --- ------ ----- --<br>----- ----- ---------- --- --- ------ ------ ---- -- ------<br>------- --- ------ ----- --- ---- ------- an ---- --- --<br>------- ------,196726.5,196725.69999999925,196276.436,196286.69999999925,196293.104,196743.454,,50,an
screen,html.Screen,0_2_1_1_51,2021-12-02T13:16:54.543Z,,,,,,,,,,,,,,,,54,,,,,,,,,,,,,,390.24599999925704,,response,,,100,,,,,,Space,keypress(Space),,,,,-- --- ---- --- ------ ----- ------- ---- -- --- ------- --<br>------- ---------- ------ -- ----- -- ----- -- ---- ------<br>--- ----- --- --- ------ -------- ----- --- ------ ----- --<br>----- ----- ---------- --- --- ------ ------ ---- -- ------<br>------- --- ------ ----- --- ---- ------- -- easy --- --<br>------- ------,197134.5,197133.69999999925,196726.782,196726.69999999925,196743.454,197143.527,,51,easy
screen,html.Screen,0_2_1_1_52,2021-12-02T13:16:54.991Z,,,,,,,,,,,,,,,,54,,,,,,,,,,,,,,438.07299999776296,,response,,,100,,,,,,Space,keypress(Space),,,,,-- --- ---- --- ------ ----- ------- ---- -- --- ------- --<br>------- ---------- ------ -- ----- -- ----- -- ---- ------<br>--- ----- --- --- ------ -------- ----- --- ------ ----- --<br>----- ----- ---------- --- --- ------ ------ ---- -- ------<br>------- --- ------ ----- --- ---- ------- -- ---- way --<br>------- ------,197582.3999999985,197581.59999999776,197126.856,197134.69999999925,197143.527,197593.58,,52,way
screen,html.Screen,0_2_1_1_53,2021-12-02T13:16:55.383Z,,,,,,,,,,,,,,,,54,,,,,,,,,,,,,,380.11999999926775,,response,,,100,,,,,,Space,keypress(Space),,,,,-- --- ---- --- ------ ----- ------- ---- -- --- ------- --<br>------- ---------- ------ -- ----- -- ----- -- ---- ------<br>--- ----- --- --- ------ -------- ----- --- ------ ----- --<br>----- ----- ---------- --- --- ------ ------ ---- -- ------<br>------- --- ------ ----- --- ---- ------- -- ---- --- of<br>------- ------,197974.3999999985,197973.69999999925,197576.91,197582.69999999925,197593.58,197977.031,,53,of
screen,html.Screen,0_2_1_1_54,2021-12-02T13:16:56.223Z,,,,,,,,,,,,,,,,54,,,,,,,,,,,,,,836.4690000000119,,response,,,100,,,,,,Space,keypress(Space),,,,,-- --- ---- --- ------ ----- ------- ---- -- --- ------- --<br>------- ---------- ------ -- ----- -- ----- -- ---- ------<br>--- ----- --- --- ------ -------- ----- --- ------ ----- --<br>----- ----- ---------- --- --- ------ ------ ---- -- ------<br>------- --- ------ ----- --- ---- ------- -- ---- --- --<br>raising ------,198814.3999999985,198813.5,197960.361,197974.59999999776,197977.031,198827.226,,54,raising
screen,html.Screen,0_2_1_1_55,2021-12-02T13:16:56.631Z,,,,,,,,,,,,,,,,54,,,,,,,,,,,,,,394.2740000000049,,response,,,100,,,,,,Space,keypress(Space),,,,,-- --- ---- --- ------ ----- ------- ---- -- --- ------- --<br>------- ---------- ------ -- ----- -- ----- -- ---- ------<br>--- ----- --- --- ------ -------- ----- --- ------ ----- --<br>----- ----- ---------- --- --- ------ ------ ---- -- ------<br>------- --- ------ ----- --- ---- ------- -- ---- --- --<br>------- money.,199222.30000000075,199221.5,198810.556,198814.69999999925,198827.226,199227.363,,55,money.
Item 100,flow.Loop,0_2_1_1,2021-12-02T13:16:56.631Z,,,,,,,,,,,,,,,,,,,,,,,,,,,,,,37754.28899999999,,completion,,,,D,,,,,,,,,,silence,,199222.80000000075,199221.5,161450.541,161451.8999999985,161467.211,199227.363,,,
Question 1,html.Screen,0_2_1_2,2021-12-02T13:17:00.319Z,,,,,,,,,,,,,,,,,,,,,,,,,,,true,TRUE,,3681.7369999977527,,response,,,100,D,,,,,TRUE,click #choice-1,,,,silence,,202910.30000000075,202909.09999999776,199210.693,199223,199227.363,202911.618,,,
Question 2,html.Screen,0_2_1_3,2021-12-02T13:17:02.230Z,,,,,,,,,,,,,,,,,,,,,,,,,,,true,FALSE,,1909.4819999977772,,response,,,100,D,,,,,FALSE,click #choice-2,,,,silence,,204822.19999999925,204821.09999999776,202894.948,202910.5,202911.618,204828.989,,,
Item 100,flow.Sequence,0_2_1,2021-12-02T13:17:02.231Z,,,,,,,,,,,,,,,,,,,,,,,,,,,,,,53356.521999997756,,completion,,,,,,,,,,,,,,,,204822.59999999776,204821.09999999776,151447.909,151449.59999999776,151464.578,204828.989,,,
End of Practice,html.Page,0_2_2,2021-12-02T13:17:06.192Z,,,,,,,,,,,,,,,,,,,,,,,,,,,,,,3953.7109999992535,,form submission,,,,,,,,,,,,,,,,208783.30000000075,208782.69999999925,204812.316,204822.69999999925,204828.989,208796.575,,,
Practice,flow.Sequence,0_2,2021-12-02T13:17:06.192Z,,,,,,,,,,,,,,,,,,,,,,,,,,,,,,142624.26799999925,,completion,,,,,,,,,,,,,,,,208783.80000000075,208782.69999999925,66141.762,66150.19999999925,66158.432,208796.575,,,
Trap_instruction,html.Page,0_3_0,2021-12-02T13:17:10.431Z,,,,,,,,,,,,,,,,,,,,,,,,,,,,,,4225.725000000733,,form submission,,,,,,,,,,,,,,,,213022.80000000075,213022.30000000075,208779.904,208784.09999999776,208796.575,213047.395,,,
trap_trial,html.Screen,0_3_1,2021-12-02T13:17:16.510Z,,,,,,,,,,,,,,,,,,,,,,,,,,,true,1,,6053.00499999852,,response,,,,,,,,,1,click #choice-1,,,,,,219101.69999999925,219100.3999999985,213014.055,213023,213047.395,219115.557,,,
end of trap trial,html.Page,0_3_2,2021-12-02T13:17:20.302Z,,,,,,,,,,,,,,,,,,,,,,,,,,,,,,3778.1429999992542,,form submission,,,,,,,,,,,,,,,,222894.09999999776,222893.69999999925,219098.887,219102,219115.557,222900.225,,,
Trap 1,flow.Sequence,0_3,2021-12-02T13:17:20.303Z,,,,,,,,,,,,,,,,,,,,,,,,,,,,,,14097.124999999243,,completion,,,,,,,,,,,,,,,,222894.5,222893.69999999925,208779.904,208784.09999999776,208796.575,222900.225,,,
Standby,html.Page,0_4_0,2021-12-02T13:17:28.295Z,,,,,,,,,,,,,,,,,,,,,,,,,,,,,,8001.673999999999,,timeout,,,,,,,,,,,,,,,,230886.69999999925,230885.229,222883.555,222894.69999999925,222900.225,230901.899,,,
Holding screen,html.Screen,0_4_1_0_0,2021-12-02T13:17:35.297Z,,,,,,,,,,,,,,,,,,,,,,,,,,,,,,7002.30799999999,,timeout,,,,,,,,,,,,,,,,237888.80000000075,237887.537,230885.229,230887.09999999776,230901.899,237904.207,,,
screen,html.Screen,0_4_1_0_1_0,2021-12-02T13:17:37.758Z,,,,,,,,,,,,,,,,2,,,,,,,,,,,,,,2443.99299999926,,response,,,1,D,,,,,Space,keypress(Space),,,,silence,Two ---- ------ --- ------- ---------- ------- ----------<br>--- --------- --- ----------- ------- ----- ------- ---<br>--------- ---- -- --- ---- -- --------- -- ---- -------<br>-- --------- ------ --- ----- ------ ---- --- --------- --<br>------ - ---- -- --- ----------- ------- ---- ----- -----<br>--- -------- - ------ ---- -- ----- ---- --- --- -----------<br>-- -------,240349.19999999925,240348.19999999925,237887.537,237889.09999999776,237904.207,240354.962,,0,Two
screen,html.Screen,0_4_1_0_1_1,2021-12-02T13:17:38.399Z,,,,,,,,,,,,,,,,2,,,,,,,,,,,,,,632.6379999977653,,response,,,1,D,,,,,Space,keypress(Space),,,,silence,--- days ------ --- ------- ---------- ------- ----------<br>--- --------- --- ----------- ------- ----- ------- ---<br>--------- ---- -- --- ---- -- --------- -- ---- -------<br>-- --------- ------ --- ----- ------ ---- --- --------- --<br>------ - ---- -- --- ----------- ------- ---- ----- -----<br>--- -------- - ------ ---- -- ----- ---- --- --- -----------<br>-- -------,240988.5,240987.59999999776,240338.291,240349.5,240354.962,241004.716,,1,days
screen,html.Screen,0_4_1_0_1_2,2021-12-02T13:17:38.863Z,,,,,,,,,,,,,,,,2,,,,,,,,,,,,,,446.7840000000142,,response,,,1,D,,,,,Space,keypress(Space),,,,silence,"--- ---- later, --- ------- ---------- ------- ----------<br>--- --------- --- ----------- ------- ----- ------- ---<br>--------- ---- -- --- ---- -- --------- -- ---- -------<br>-- --------- ------ --- ----- ------ ---- --- --------- --<br>------ - ---- -- --- ----------- ------- ---- ----- -----<br>--- -------- - ------ ---- -- ----- ---- --- --- -----------<br>-- -------",241452.3999999985,241451.5,240988.047,240988.80000000075,241004.716,241455.165,,2,"later,"
screen,html.Screen,0_4_1_0_1_3,2021-12-02T13:17:39.391Z,,,,,,,,,,,,,,,,2,,,,,,,,,,,,,,524.4349999977567,,response,,,1,D,,,,,Space,keypress(Space),,,,silence,--- ---- ------ the ------- ---------- ------- ----------<br>--- --------- --- ----------- ------- ----- ------- ---<br>--------- ---- -- --- ---- -- --------- -- ---- -------<br>-- --------- ------ --- ----- ------ ---- --- --------- --<br>------ - ---- -- --- ----------- ------- ---- ----- -----<br>--- -------- - ------ ---- -- ----- ---- --- --- -----------<br>-- -------,241980.3999999985,241979.59999999776,241438.495,241452.69999999925,241455.165,241988.821,,3,the
screen,html.Screen,0_4_1_0_1_4,2021-12-02T13:17:40.079Z,,,,,,,,,,,,,,,,2,,,,,,,,,,,,,,678.6790000000037,,response,,,1,D,,,,,Space,keypress(Space),,,,silence,--- ---- ------ --- British ---------- ------- ----------<br>--- --------- --- ----------- ------- ----- ------- ---<br>--------- ---- -- --- ---- -- --------- -- ---- -------<br>-- --------- ------ --- ----- ------ ---- --- --------- --<br>------ - ---- -- --- ----------- ------- ---- ----- -----<br>--- -------- - ------ ---- -- ----- ---- --- --- -----------<br>-- -------,242668.3999999985,242667.5,241972.149,241980.69999999925,241988.821,242672.276,,4,British
screen,html.Screen,0_4_1_0_1_5,2021-12-02T13:17:41.215Z,,,,,,,,,,,,,,,,2,,,,,,,,,,,,,,1131.2239999999874,,response,,,1,D,,,,,Space,keypress(Space),,,,silence,--- ---- ------ --- ------- astronomer ------- ----------<br>--- --------- --- ----------- ------- ----- ------- ---<br>--------- ---- -- --- ---- -- --------- -- ---- -------<br>-- --------- ------ --- ----- ------ ---- --- --------- --<br>------ - ---- -- --- ----------- ------- ---- ----- -----<br>--- -------- - ------ ---- -- ----- ---- --- --- -----------<br>-- -------,243804.30000000075,243803.5,242655.605,242668.59999999776,242672.276,243805.819,,5,astronomer
screen,html.Screen,0_4_1_0_1_6,2021-12-02T13:17:41.751Z,,,,,,,,,,,,,,,,2,,,,,,,,,,,,,,533.5809999985213,,response,,,1,D,,,,,Space,keypress(Space),,,,silence,--- ---- ------ --- ------- ---------- Richard ----------<br>--- --------- --- ----------- ------- ----- ------- ---<br>--------- ---- -- --- ---- -- --------- -- ---- -------<br>-- --------- ------ --- ----- ------ ---- --- --------- --<br>------ - ---- -- --- ----------- ------- ---- ----- -----<br>--- -------- - ------ ---- -- ----- ---- --- --- -----------<br>-- -------,244340.30000000075,244339.3999999985,243789.149,243804.5,243805.819,244356.073,,6,Richard
screen,html.Screen,0_4_1_0_1_7,2021-12-02T13:17:42.351Z,,,,,,,,,,,,,,,,2,,,,,,,,,,,,,,583.426999999996,,response,,,1,D,,,,,Space,keypress(Space),,,,silence,--- ---- ------ --- ------- ---------- ------- Carrington<br>--- --------- --- ----------- ------- ----- ------- ---<br>--------- ---- -- --- ---- -- --------- -- ---- -------<br>-- --------- ------ --- ----- ------ ---- --- --------- --<br>------ - ---- -- --- ----------- ------- ---- ----- -----<br>--- -------- - ------ ---- -- ----- ---- --- --- -----------<br>-- -------,244940.3999999985,244939.5,244339.402,244340.5,244356.073,244956.159,,7,Carrington
screen,html.Screen,0_4_1_0_1_8,2021-12-02T13:17:42.991Z,,,,,,,,,,,,,,,,2,,,,,,,,,,,,,,623.2409999984957,,response,,,1,D,,,,,Space,keypress(Space),,,,silence,--- ---- ------ --- ------- ---------- ------- ----------<br>was --------- --- ----------- ------- ----- ------- ---<br>--------- ---- -- --- ---- -- --------- -- ---- -------<br>-- --------- ------ --- ----- ------ ---- --- --------- --<br>------ - ---- -- --- ----------- ------- ---- ----- -----<br>--- -------- - ------ ---- -- ----- ---- --- --- -----------<br>-- -------,245580.30000000075,245579.3999999985,244939.489,244940.59999999776,244956.159,245589.726,,8,was
screen,html.Screen,0_4_1_0_1_9,2021-12-02T13:17:43.751Z,,,,,,,,,,,,,,,,2,,,,,,,,,,,,,,749.57400000075,,response,,,1,D,,,,,Space,keypress(Space),,,,silence,--- ---- ------ --- ------- ---------- ------- ----------<br>--- observing --- ----------- ------- ----- ------- ---<br>--------- ---- -- --- ---- -- --------- -- ---- -------<br>-- --------- ------ --- ----- ------ ---- --- --------- --<br>------ - ---- -- --- ----------- ------- ---- ----- -----<br>--- -------- - ------ ---- -- ----- ---- --- --- -----------<br>-- -------,246340.09999999776,246339.30000000075,245573.055,245580.59999999776,245589.726,246356.506,,9,observing
screen,html.Screen,0_4_1_0_1_10,2021-12-02T13:17:44.247Z,,,,,,,,,,,,,,,,2,,,,,,,,,,,,,,478.7940000007511,,response,,,1,D,,,,,Space,keypress(Space),,,,silence,--- ---- ------ --- ------- ---------- ------- ----------<br>--- --------- the ----------- ------- ----- ------- ---<br>--------- ---- -- --- ---- -- --------- -- ---- -------<br>-- --------- ------ --- ----- ------ ---- --- --------- --<br>------ - ---- -- --- ----------- ------- ---- ----- -----<br>--- -------- - ------ ---- -- ----- ---- --- --- -----------<br>-- -------,246836.19999999925,246835.30000000075,246339.836,246340.3999999985,246356.506,246840.02,,10,the
screen,html.Screen,0_4_1_0_1_11,2021-12-02T13:17:44.815Z,,,,,,,,,,,,,,,,2,,,,,,,,,,,,,,563.2800000007555,,response,,,1,D,,,,,Space,keypress(Space),,,,silence,--- ---- ------ --- ------- ---------- ------- ----------<br>--- --------- --- interesting ------- ----- ------- ---<br>--------- ---- -- --- ---- -- --------- -- ---- -------<br>-- --------- ------ --- ----- ------ ---- --- --------- --<br>------ - ---- -- --- ----------- ------- ---- ----- -----<br>--- -------- - ------ ---- -- ----- ---- --- --- -----------<br>-- -------,247404.09999999776,247403.30000000075,246823.35,246836.5,246840.02,247406.786,,11,interesting
screen,html.Screen,0_4_1_0_1_12,2021-12-02T13:17:45.487Z,,,,,,,,,,,,,,,,2,,,,,,,,,,,,,,668.5140000007523,,response,,,1,D,,,,,Space,keypress(Space),,,,silence,--- ---- ------ --- ------- ---------- ------- ----------<br>--- --------- --- ----------- sunspot ----- ------- ---<br>--------- ---- -- --- ---- -- --------- -- ---- -------<br>-- --------- ------ --- ----- ------ ---- --- --------- --<br>------ - ---- -- --- ----------- ------- ---- ----- -----<br>--- -------- - ------ ---- -- ----- ---- --- --- -----------<br>-- -------,248076.09999999776,248075.30000000075,247390.116,247404.30000000075,247406.786,248090.391,,12,sunspot
screen,html.Screen,0_4_1_0_1_13,2021-12-02T13:17:46.167Z,,,,,,,,,,,,,,,,2,,,,,,,,,,,,,,664.9090000007418,,response,,,1,D,,,,,Space,keypress(Space),,,,silence,--- ---- ------ --- ------- ---------- ------- ----------<br>--- --------- --- ----------- ------- group ------- ---<br>--------- ---- -- --- ---- -- --------- -- ---- -------<br>-- --------- ------ --- ----- ------ ---- --- --------- --<br>------ - ---- -- --- ----------- ------- ---- ----- -----<br>--- -------- - ------ ---- -- ----- ---- --- --- -----------<br>-- -------,248756,248755.30000000075,248073.72,248076.30000000075,248090.391,248757.132,,13,group
screen,html.Screen,0_4_1_0_1_14,2021-12-02T13:17:46.751Z,,,,,,,,,,,,,,,,2,,,,,,,,,,,,,,582.1680000007327,,response,,,1,D,,,,,Space,keypress(Space),,,,silence,--- ---- ------ --- ------- ---------- ------- ----------<br>--- --------- --- ----------- ------- ----- through ---<br>--------- ---- -- --- ---- -- --------- -- ---- -------<br>-- --------- ------ --- ----- ------ ---- --- --------- --<br>------ - ---- -- --- ----------- ------- ---- ----- -----<br>--- -------- - ------ ---- -- ----- ---- --- --- -----------<br>-- -------,249340,249339.30000000075,248740.462,248756.30000000075,248757.132,249357.398,,14,through
screen,html.Screen,0_4_1_0_1_15,2021-12-02T13:17:47.127Z,,,,,,,,,,,,,,,,2,,,,,,,,,,,,,,357.80199999926845,,response,,,1,D,,,,,Space,keypress(Space),,,,silence,--- ---- ------ --- ------- ---------- ------- ----------<br>--- --------- --- ----------- ------- ----- ------- his<br>--------- ---- -- --- ---- -- --------- -- ---- -------<br>-- --------- ------ --- ----- ------ ---- --- --------- --<br>------ - ---- -- --- ----------- ------- ---- ----- -----<br>--- -------- - ------ ---- -- ----- ---- --- --- -----------<br>-- -------,249716,249715.19999999925,249340.727,249340.19999999925,249357.398,249724.123,,15,his
screen,html.Screen,0_4_1_0_1_16,2021-12-02T13:17:48.271Z,,,,,,,,,,,,,,,,2,,,,,,,,,,,,,,1135.4769999977725,,response,,,1,D,,,,,Space,keypress(Space),,,,silence,--- ---- ------ --- ------- ---------- ------- ----------<br>--- --------- --- ----------- ------- ----- ------- ---<br>telescope ---- -- --- ---- -- --------- -- ---- -------<br>-- --------- ------ --- ----- ------ ---- --- --------- --<br>------ - ---- -- --- ----------- ------- ---- ----- -----<br>--- -------- - ------ ---- -- ----- ---- --- --- -----------<br>-- -------,250860.5,250859.59999999776,249707.453,249716.30000000075,249724.123,250874.457,,16,telescope
screen,html.Screen,0_4_1_0_1_17,2021-12-02T13:17:49.327Z,,,,,,,,,,,,,,,,2,,,,,,,,,,,,,,1040.64299999777,,response,,,1,D,,,,,Space,keypress(Space),,,,silence,--- ---- ------ --- ------- ---------- ------- ----------<br>--- --------- --- ----------- ------- ----- ------- ---<br>--------- when -- --- ---- -- --------- -- ---- -------<br>-- --------- ------ --- ----- ------ ---- --- --------- --<br>------ - ---- -- --- ----------- ------- ---- ----- -----<br>--- -------- - ------ ---- -- ----- ---- --- --- -----------<br>-- -------,251915.8999999985,251915.09999999776,250857.786,250860.69999999925,250874.457,251924.62,,17,when
screen,html.Screen,0_4_1_0_1_18,2021-12-02T13:17:49.838Z,,,,,,,,,,,,,,,,2,,,,,,,,,,,,,,502.38000000000466,,response,,,1,D,,,,,Space,keypress(Space),,,,silence,--- ---- ------ --- ------- ---------- ------- ----------<br>--- --------- --- ----------- ------- ----- ------- ---<br>--------- ---- he --- ---- -- --------- -- ---- -------<br>-- --------- ------ --- ----- ------ ---- --- --------- --<br>------ - ---- -- --- ----------- ------- ---- ----- -----<br>--- -------- - ------ ---- -- ----- ---- --- --- -----------<br>-- -------,252427.80000000075,252427,251907.95,251916.09999999776,251924.62,252441.443,,18,he
screen,html.Screen,0_4_1_0_1_19,2021-12-02T13:17:50.263Z,,,,,,,,,,,,,,,,2,,,,,,,,,,,,,,409.6569999977655,,response,,,1,D,,,,,Space,keypress(Space),,,,silence,--- ---- ------ --- ------- ---------- ------- ----------<br>--- --------- --- ----------- ------- ----- ------- ---<br>--------- ---- -- saw ---- -- --------- -- ---- -------<br>-- --------- ------ --- ----- ------ ---- --- --------- --<br>------ - ---- -- --- ----------- ------- ---- ----- -----<br>--- -------- - ------ ---- -- ----- ---- --- --- -----------<br>-- -------,252851.80000000075,252851.09999999776,252424.773,252428,252441.443,252858.286,,19,saw
screen,html.Screen,0_4_1_0_1_20,2021-12-02T13:17:50.774Z,,,,,,,,,,,,,,,,2,,,,,,,,,,,,,,504.7140000000072,,response,,,1,D,,,,,Space,keypress(Space),,,,silence,--- ---- ------ --- ------- ---------- ------- ----------<br>--- --------- --- ----------- ------- ----- ------- ---<br>--------- ---- -- --- what -- --------- -- ---- -------<br>-- --------- ------ --- ----- ------ ---- --- --------- --<br>------ - ---- -- --- ----------- ------- ---- ----- -----<br>--- -------- - ------ ---- -- ----- ---- --- --- -----------<br>-- -------,253363.80000000075,253363,252841.616,252852.09999999776,252858.286,253375.057,,20,what
screen,html.Screen,0_4_1_0_1_21,2021-12-02T13:17:51.206Z,,,,,,,,,,,,,,,,2,,,,,,,,,,,,,,419.9429999999993,,response,,,1,D,,,,,Space,keypress(Space),,,,silence,--- ---- ------ --- ------- ---------- ------- ----------<br>--- --------- --- ----------- ------- ----- ------- ---<br>--------- ---- -- --- ---- he --------- -- ---- -------<br>-- --------- ------ --- ----- ------ ---- --- --------- --<br>------ - ---- -- --- ----------- ------- ---- ----- -----<br>--- -------- - ------ ---- -- ----- ---- --- --- -----------<br>-- -------,253795.80000000075,253795,253358.387,253364,253375.057,253808.582,,21,he
screen,html.Screen,0_4_1_0_1_22,2021-12-02T13:17:51.750Z,,,,,,,,,,,,,,,,2,,,,,,,,,,,,,,530.317999998515,,response,,,1,D,,,,,Space,keypress(Space),,,,silence,--- ---- ------ --- ------- ---------- ------- ----------<br>--- --------- --- ----------- ------- ----- ------- ---<br>--------- ---- -- --- ---- -- described -- ---- -------<br>-- --------- ------ --- ----- ------ ---- --- --------- --<br>------ - ---- -- --- ----------- ------- ---- ----- -----<br>--- -------- - ------ ---- -- ----- ---- --- --- -----------<br>-- -------,254339.69999999925,254338.8999999985,253791.911,253796,253808.582,254342.008,,22,described
screen,html.Screen,0_4_1_0_1_23,2021-12-02T13:17:52.246Z,,,,,,,,,,,,,,,,2,,,,,,,,,,,,,,492.99199999999837,,response,,,1,D,,,,,Space,keypress(Space),,,,silence,--- ---- ------ --- ------- ---------- ------- ----------<br>--- --------- --- ----------- ------- ----- ------- ---<br>--------- ---- -- --- ---- -- --------- as ---- -------<br>-- --------- ------ --- ----- ------ ---- --- --------- --<br>------ - ---- -- --- ----------- ------- ---- ----- -----<br>--- -------- - ------ ---- -- ----- ---- --- --- -----------<br>-- -------,254835.80000000075,254835,254325.338,254339.8999999985,254342.008,254842.034,,23,as
screen,html.Screen,0_4_1_0_1_24,2021-12-02T13:17:52.718Z,,,,,,,,,,,,,,,,2,,,,,,,,,,,,,,464.8659999984957,,response,,,1,D,,,,,Space,keypress(Space),,,,silence,"--- ---- ------ --- ------- ---------- ------- ----------<br>--- --------- --- ----------- ------- ----- ------- ---<br>--------- ---- -- --- ---- -- --------- -- ""two -------<br>-- --------- ------ --- ----- ------ ---- --- --------- --<br>------ - ---- -- --- ----------- ------- ---- ----- -----<br>--- -------- - ------ ---- -- ----- ---- --- --- -----------<br>-- -------",255307.69999999925,255306.8999999985,254825.365,254836,254842.034,255308.983,,24,"""two"
screen,html.Screen,0_4_1_0_1_25,2021-12-02T13:17:53.406Z,,,,,,,,,,,,,,,,2,,,,,,,,,,,,,,685.9169999985024,,response,,,1,D,,,,,Space,keypress(Space),,,,silence,--- ---- ------ --- ------- ---------- ------- ----------<br>--- --------- --- ----------- ------- ----- ------- ---<br>--------- ---- -- --- ---- -- --------- -- ---- patches<br>-- --------- ------ --- ----- ------ ---- --- --------- --<br>------ - ---- -- --- ----------- ------- ---- ----- -----<br>--- -------- - ------ ---- -- ----- ---- --- --- -----------<br>-- -------,255995.59999999776,255994.8999999985,255292.312,255307.8999999985,255308.983,256009.156,,25,patches
screen,html.Screen,0_4_1_0_1_26,2021-12-02T13:17:53.918Z,,,,,,,,,,,,,,,,2,,,,,,,,,,,,,,497.64400000075693,,response,,,1,D,,,,,Space,keypress(Space),,,,silence,--- ---- ------ --- ------- ---------- ------- ----------<br>--- --------- --- ----------- ------- ----- ------- ---<br>--------- ---- -- --- ---- -- --------- -- ---- -------<br>of --------- ------ --- ----- ------ ---- --- --------- --<br>------ - ---- -- --- ----------- ------- ---- ----- -----<br>--- -------- - ------ ---- -- ----- ---- --- --- -----------<br>-- -------,256507.59999999776,256506.80000000075,255992.485,255995.8999999985,256009.156,256509.096,,26,of
screen,html.Screen,0_4_1_0_1_27,2021-12-02T13:17:54.742Z,,,,,,,,,,,,,,,,2,,,,,,,,,,,,,,821.7040000007546,,response,,,1,D,,,,,Space,keypress(Space),,,,silence,--- ---- ------ --- ------- ---------- ------- ----------<br>--- --------- --- ----------- ------- ----- ------- ---<br>--------- ---- -- --- ---- -- --------- -- ---- -------<br>-- intensely ------ --- ----- ------ ---- --- --------- --<br>------ - ---- -- --- ----------- ------- ---- ----- -----<br>--- -------- - ------ ---- -- ----- ---- --- --- -----------<br>-- -------,257331.59999999776,257330.80000000075,256492.427,256507.80000000075,256509.096,257342.925,,27,intensely
screen,html.Screen,0_4_1_0_1_28,2021-12-02T13:17:55.294Z,,,,,,,,,,,,,,,,2,,,,,,,,,,,,,,539.8750000007567,,response,,,1,D,,,,,Space,keypress(Space),,,,silence,--- ---- ------ --- ------- ---------- ------- ----------<br>--- --------- --- ----------- ------- ----- ------- ---<br>--------- ---- -- --- ---- -- --------- -- ---- -------<br>-- --------- bright --- ----- ------ ---- --- --------- --<br>------ - ---- -- --- ----------- ------- ---- ----- -----<br>--- -------- - ------ ---- -- ----- ---- --- --- -----------<br>-- -------,257883.5,257882.80000000075,257326.253,257331.80000000075,257342.925,257892.93,,28,bright
screen,html.Screen,0_4_1_0_1_29,2021-12-02T13:17:55.854Z,,,,,,,,,,,,,,,,2,,,,,,,,,,,,,,549.870000000752,,response,,,1,D,,,,,Space,keypress(Space),,,,silence,--- ---- ------ --- ------- ---------- ------- ----------<br>--- --------- --- ----------- ------- ----- ------- ---<br>--------- ---- -- --- ---- -- --------- -- ---- -------<br>-- --------- ------ and ----- ------ ---- --- --------- --<br>------ - ---- -- --- ----------- ------- ---- ----- -----<br>--- -------- - ------ ---- -- ----- ---- --- --- -----------<br>-- -------,258443.59999999776,258442.80000000075,257876.26,257883.80000000075,257892.93,258459.761,,29,and
screen,html.Screen,0_4_1_0_1_30,2021-12-02T13:17:56.646Z,,,,,,,,,,,,,,,,2,,,,,,,,,,,,,,774.9389999992563,,response,,,1,D,,,,,Space,keypress(Space),,,,silence,--- ---- ------ --- ------- ---------- ------- ----------<br>--- --------- --- ----------- ------- ----- ------- ---<br>--------- ---- -- --- ---- -- --------- -- ---- -------<br>-- --------- ------ --- white ------ ---- --- --------- --<br>------ - ---- -- --- ----------- ------- ---- ----- -----<br>--- -------- - ------ ---- -- ----- ---- --- --- -----------<br>-- -------,259235.59999999776,259234.69999999925,258443.091,258443.80000000075,258459.761,259243.353,,30,white
screen,html.Screen,0_4_1_0_1_31,2021-12-02T13:17:57.222Z,,,,,,,,,,,,,,,,2,,,,,,,,,,,,,,567.3469999992521,,response,,,1,D,,,,,Space,keypress(Space),,,,silence,"--- ---- ------ --- ------- ---------- ------- ----------<br>--- --------- --- ----------- ------- ----- ------- ---<br>--------- ---- -- --- ---- -- --------- -- ---- -------<br>-- --------- ------ --- ----- light"" ---- --- --------- --<br>------ - ---- -- --- ----------- ------- ---- ----- -----<br>--- -------- - ------ ---- -- ----- ---- --- --- -----------<br>-- -------",259811.59999999776,259810.69999999925,259226.682,259235.80000000075,259243.353,259826.741,,31,"light"""
screen,html.Screen,0_4_1_0_1_32,2021-12-02T13:17:58.311Z,,,,,,,,,,,,,,,,2,,,,,,,,,,,,,,1072.3589999977557,,response,,,1,D,,,,,Space,keypress(Space),,,,silence,--- ---- ------ --- ------- ---------- ------- ----------<br>--- --------- --- ----------- ------- ----- ------- ---<br>--------- ---- -- --- ---- -- --------- -- ---- -------<br>-- --------- ------ --- ----- ------ over --- --------- --<br>------ - ---- -- --- ----------- ------- ---- ----- -----<br>--- -------- - ------ ---- -- ----- ---- --- --- -----------<br>-- -------,260900,260899.09999999776,259810.071,259811.80000000075,259826.741,260910.381,,32,over
screen,html.Screen,0_4_1_0_1_33,2021-12-02T13:17:58.838Z,,,,,,,,,,,,,,,,2,,,,,,,,,,,,,,516.318999999261,,response,,,1,D,,,,,Space,keypress(Space),,,,silence,--- ---- ------ --- ------- ---------- ------- ----------<br>--- --------- --- ----------- ------- ----- ------- ---<br>--------- ---- -- --- ---- -- --------- -- ---- -------<br>-- --------- ------ --- ----- ------ ---- the --------- --<br>------ - ---- -- --- ----------- ------- ---- ----- -----<br>--- -------- - ------ ---- -- ----- ---- --- --- -----------<br>-- -------,261427.3999999985,261426.69999999925,260893.711,260900.19999999925,260910.381,261443.886,,33,the
screen,html.Screen,0_4_1_0_1_34,2021-12-02T13:17:59.310Z,,,,,,,,,,,,,,,,2,,,,,,,,,,,,,,454.7139999977662,,response,,,1,D,,,,,Space,keypress(Space),,,,silence,--- ---- ------ --- ------- ---------- ------- ----------<br>--- --------- --- ----------- ------- ----- ------- ---<br>--------- ---- -- --- ---- -- --------- -- ---- -------<br>-- --------- ------ --- ----- ------ ---- --- sunspots. --<br>------ - ---- -- --- ----------- ------- ---- ----- -----<br>--- -------- - ------ ---- -- ----- ---- --- --- -----------<br>-- -------,261899.5,261898.59999999776,261427.216,261427.69999999925,261443.886,261910.684,,34,sunspots.
screen,html.Screen,0_4_1_0_1_35,2021-12-02T13:18:00.310Z,,,,,,,,,,,,,,,,2,,,,,,,,,,,,,,987.9159999977564,,response,,,1,D,,,,,Space,keypress(Space),,,,silence,--- ---- ------ --- ------- ---------- ------- ----------<br>--- --------- --- ----------- ------- ----- ------- ---<br>--------- ---- -- --- ---- -- --------- -- ---- -------<br>-- --------- ------ --- ----- ------ ---- --- --------- He<br>------ - ---- -- --- ----------- ------- ---- ----- -----<br>--- -------- - ------ ---- -- ----- ---- --- --- -----------<br>-- -------,262899.3999999985,262898.59999999776,261894.014,261899.80000000075,261910.684,262910.917,,35,He
screen,html.Screen,0_4_1_0_1_36,2021-12-02T13:18:01.574Z,,,,,,,,,,,,,,,,2,,,,,,,,,,,,,,1251.682999997749,,response,,,1,D,,,,,Space,keypress(Space),,,,silence,--- ---- ------ --- ------- ---------- ------- ----------<br>--- --------- --- ----------- ------- ----- ------- ---<br>--------- ---- -- --- ---- -- --------- -- ---- -------<br>-- --------- ------ --- ----- ------ ---- --- --------- --<br>jotted - ---- -- --- ----------- ------- ---- ----- -----<br>--- -------- - ------ ---- -- ----- ---- --- --- -----------<br>-- -------,264163.3999999985,264162.59999999776,262894.247,262899.69999999925,262910.917,264177.695,,36,jotted
screen,html.Screen,0_4_1_0_1_37,2021-12-02T13:18:01.990Z,,,,,,,,,,,,,,,,2,,,,,,,,,,,,,,400.90499999775784,,response,,,1,D,,,,,Space,keypress(Space),,,,silence,--- ---- ------ --- ------- ---------- ------- ----------<br>--- --------- --- ----------- ------- ----- ------- ---<br>--------- ---- -- --- ---- -- --------- -- ---- -------<br>-- --------- ------ --- ----- ------ ---- --- --------- --<br>------ a ---- -- --- ----------- ------- ---- ----- -----<br>--- -------- - ------ ---- -- ----- ---- --- --- -----------<br>-- -------,264579.30000000075,264578.59999999776,264161.026,264163.69999999925,264177.695,264594.8,,37,a
screen,html.Screen,0_4_1_0_1_38,2021-12-02T13:18:02.438Z,,,,,,,,,,,,,,,,2,,,,,,,,,,,,,,431.70000000001164,,response,,,1,D,,,,,Space,keypress(Space),,,,silence,--- ---- ------ --- ------- ---------- ------- ----------<br>--- --------- --- ----------- ------- ----- ------- ---<br>--------- ---- -- --- ---- -- --------- -- ---- -------<br>-- --------- ------ --- ----- ------ ---- --- --------- --<br>------ - note -- --- ----------- ------- ---- ----- -----<br>--- -------- - ------ ---- -- ----- ---- --- --- -----------<br>-- -------,265027.30000000075,265026.5,264578.129,264579.5,264594.8,265044.854,,38,note
screen,html.Screen,0_4_1_0_1_39,2021-12-02T13:18:02.870Z,,,,,,,,,,,,,,,,2,,,,,,,,,,,,,,413.6460000000079,,response,,,1,D,,,,,Space,keypress(Space),,,,silence,--- ---- ------ --- ------- ---------- ------- ----------<br>--- --------- --- ----------- ------- ----- ------- ---<br>--------- ---- -- --- ---- -- --------- -- ---- -------<br>-- --------- ------ --- ----- ------ ---- --- --------- --<br>------ - ---- in --- ----------- ------- ---- ----- -----<br>--- -------- - ------ ---- -- ----- ---- --- --- -----------<br>-- -------,265459.3999999985,265458.5,265028.184,265027.59999999776,265044.854,265461.62,,39,in
screen,html.Screen,0_4_1_0_1_40,2021-12-02T13:18:03.230Z,,,,,,,,,,,,,,,,2,,,,,,,,,,,,,,356.88000000000466,,response,,,1,D,,,,,Space,keypress(Space),,,,silence,--- ---- ------ --- ------- ---------- ------- ----------<br>--- --------- --- ----------- ------- ----- ------- ---<br>--------- ---- -- --- ---- -- --------- -- ---- -------<br>-- --------- ------ --- ----- ------ ---- --- --------- --<br>------ - ---- -- his ----------- ------- ---- ----- -----<br>--- -------- - ------ ---- -- ----- ---- --- --- -----------<br>-- -------,265819.30000000075,265818.5,265444.95,265459.59999999776,265461.62,265828.436,,40,his
screen,html.Screen,0_4_1_0_1_41,2021-12-02T13:18:05.278Z,,,,,,,,,,,,,,,,2,,,,,,,,,,,,,,2037.963999998523,,response,,,1,D,,,,,Space,keypress(Space),,,,silence,--- ---- ------ --- ------- ---------- ------- ----------<br>--- --------- --- ----------- ------- ----- ------- ---<br>--------- ---- -- --- ---- -- --------- -- ---- -------<br>-- --------- ------ --- ----- ------ ---- --- --------- --<br>------ - ---- -- --- painstaking ------- ---- ----- -----<br>--- -------- - ------ ---- -- ----- ---- --- --- -----------<br>-- -------,267867.19999999925,267866.3999999985,265811.765,265819.59999999776,265828.436,267878.821,,41,painstaking
screen,html.Screen,0_4_1_0_1_42,2021-12-02T13:18:05.878Z,,,,,,,,,,,,,,,,2,,,,,,,,,,,,,,587.4790000007488,,response,,,1,D,,,,,Space,keypress(Space),,,,silence,--- ---- ------ --- ------- ---------- ------- ----------<br>--- --------- --- ----------- ------- ----- ------- ---<br>--------- ---- -- --- ---- -- --------- -- ---- -------<br>-- --------- ------ --- ----- ------ ---- --- --------- --<br>------ - ---- -- --- ----------- record. ---- ----- -----<br>--- -------- - ------ ---- -- ----- ---- --- --- -----------<br>-- -------,268467.09999999776,268466.30000000075,267862.151,267867.59999999776,267878.821,268479.09,,42,record.
screen,html.Screen,0_4_1_0_1_43,2021-12-02T13:18:06.678Z,,,,,,,,,,,,,,,,2,,,,,,,,,,,,,,787.1099999992293,,response,,,1,D,,,,,Space,keypress(Space),,,,silence,--- ---- ------ --- ------- ---------- ------- ----------<br>--- --------- --- ----------- ------- ----- ------- ---<br>--------- ---- -- --- ---- -- --------- -- ---- -------<br>-- --------- ------ --- ----- ------ ---- --- --------- --<br>------ - ---- -- --- ----------- ------- That ----- -----<br>--- -------- - ------ ---- -- ----- ---- --- --- -----------<br>-- -------,269267.09999999776,269266.19999999925,268462.42,268467.3999999985,268479.09,269279.249,,43,That
screen,html.Screen,0_4_1_0_1_44,2021-12-02T13:18:07.638Z,,,,,,,,,,,,,,,,2,,,,,,,,,,,,,,946.9509999992442,,response,,,1,D,,,,,Space,keypress(Space),,,,silence,--- ---- ------ --- ------- ---------- ------- ----------<br>--- --------- --- ----------- ------- ----- ------- ---<br>--------- ---- -- --- ---- -- --------- -- ---- -------<br>-- --------- ------ --- ----- ------ ---- --- --------- --<br>------ - ---- -- --- ----------- ------- ---- night -----<br>--- -------- - ------ ---- -- ----- ---- --- --- -----------<br>-- -------,270227,270226.19999999925,269262.579,269267.3999999985,269279.249,270229.631,,44,night
screen,html.Screen,0_4_1_0_1_45,2021-12-02T13:18:08.462Z,,,,,,,,,,,,,,,,2,,,,,,,,,,,,,,820.9689999977709,,response,,,1,D,,,,,Space,keypress(Space),,,,silence,--- ---- ------ --- ------- ---------- ------- ----------<br>--- --------- --- ----------- ------- ----- ------- ---<br>--------- ---- -- --- ---- -- --------- -- ---- -------<br>-- --------- ------ --- ----- ------ ---- --- --------- --<br>------ - ---- -- --- ----------- ------- ---- ----- there<br>--- -------- - ------ ---- -- ----- ---- --- --- -----------<br>-- -------,271051.3999999985,271050.59999999776,270212.96,270227.30000000075,270229.631,271063.094,,45,there
screen,html.Screen,0_4_1_0_1_46,2021-12-02T13:18:08.926Z,,,,,,,,,,,,,,,,2,,,,,,,,,,,,,,451.10599999927217,,response,,,1,D,,,,,Space,keypress(Space),,,,silence,--- ---- ------ --- ------- ---------- ------- ----------<br>--- --------- --- ----------- ------- ----- ------- ---<br>--------- ---- -- --- ---- -- --------- -- ---- -------<br>-- --------- ------ --- ----- ------ ---- --- --------- --<br>------ - ---- -- --- ----------- ------- ---- ----- -----<br>was -------- - ------ ---- -- ----- ---- --- --- -----------<br>-- -------,271515,271514.19999999925,271046.424,271051.59999999776,271063.094,271529.907,,46,was
screen,html.Screen,0_4_1_0_1_47,2021-12-02T13:18:12.190Z,,,,,,,,,,,,,,,,2,,,,,,,,,,,,,,3248.1929999977583,,response,,,1,D,,,,,Space,keypress(Space),,,,silence,--- ---- ------ --- ------- ---------- ------- ----------<br>--- --------- --- ----------- ------- ----- ------- ---<br>--------- ---- -- --- ---- -- --------- -- ---- -------<br>-- --------- ------ --- ----- ------ ---- --- --------- --<br>------ - ---- -- --- ----------- ------- ---- ----- -----<br>--- scarcely - ------ ---- -- ----- ---- --- --- -----------<br>-- -------,274778.8999999985,274778.09999999776,271513.237,271515.09999999776,271529.907,274780.59,,47,scarcely
screen,html.Screen,0_4_1_0_1_48,2021-12-02T13:18:12.662Z,,,,,,,,,,,,,,,,2,,,,,,,,,,,,,,469.4099999999744,,response,,,1,D,,,,,Space,keypress(Space),,,,silence,--- ---- ------ --- ------- ---------- ------- ----------<br>--- --------- --- ----------- ------- ----- ------- ---<br>--------- ---- -- --- ---- -- --------- -- ---- -------<br>-- --------- ------ --- ----- ------ ---- --- --------- --<br>------ - ---- -- --- ----------- ------- ---- ----- -----<br>--- -------- a ------ ---- -- ----- ---- --- --- -----------<br>-- -------,275250.8999999985,275250,274763.92,274779.09999999776,274780.59,275263.932,,48,a
