sender,sender_type,sender_id,timestamp,meta,,Blues,Classical,Country,Dance,Electronic,Folk,Gospel,Hip-Hop,Jazz,Latin,Musical/Film,New-age,Pop,Provo_ID,R&B,Rap,Reggae,Religious,Rock,Soul,Swing,Traditional,age,artist_name,correct,correctResponse,distraction,duration,education,ended_on,familiarity,gender,item,list,music_frequency,offensiveness,pleasantness,preference,response,response_action,snippet_file,song_name,song_rating,sound,text,time_commit,time_end,time_render,time_run,time_show,time_switch,url,word,word_ID
Instructions,html.Page,0_0,2021-12-02T15:21:36.965Z,"{""labjs_version"":""20.2.3"",""labjs_build"":{""flavor"":""production"",""commit"":""7ea907d66ca8aeef8054924ca5d82ffbe11e34e5""},""location"":""https://run.pavlovia.org/mvasilev/lab_music_a/"",""userAgent"":""Mozilla/5.0 (Windows NT 6.1; Win64; x64) AppleWebKit/537.36 (KHTML, like Gecko) Chrome/96.0.4664.45 Safari/537.36"",""platform"":""Win32"",""language"":""en-US"",""locale"":""en-US"",""timeZone"":""Europe/London"",""timezoneOffset"":0,""screen_width"":1920,""screen_height"":1080,""scroll_width"":1920,""scroll_height"":959,""window_innerWidth"":1920,""window_innerHeight"":1007,""devicePixelRatio"":1}",,,,,,,,,,,,,,,,,,,,,,,,,,,,,18658.546999997765,,form submission,,,,,,,,,,,,,,,,35787.89999999851,35786.599999997765,17111.389,17115.29999999702,17128.053,35783.922,{},,
Headphones,html.Page,0_1,2021-12-02T15:21:38.657Z,,,,,,,,,,,,,,,,,,,,,,,,,,,,,,1696.377999997021,,form submission,,,,,,,,,,,,,,,,37480.699999999255,37480.29999999702,35767.29,35788.599999997765,35783.922,37480.284,,,
Holding screen,html.Screen,0_2_0_0,2021-12-02T15:21:48.654Z,,,,,,,,,,,,,,,,,,,,,,,,,,,,,,10006.807999999997,,timeout,,,,,,,,,,,,,,,,47477,47470.422,37463.653,37481.199999999255,37480.284,47487.092,,,
screen,html.Screen,0_2_0_1_0,2021-12-02T15:21:49.715Z,,,,,,,,,,,,,,,,53,,,,,,,,,,,,,,1049.307999998513,,response,,,99,,,,,,Space,keypress(Space),,,,,When -- ----- -- ------ - ------- --- ----------<br>------------- ------ ------ ---- ---- ------- ----- -- ----<br>-------- ------- -- ---------- --- - --- ----- ----- ----<br>---- --- --- ----- --- ---- ---- ------- ----- ---- -------<br>--- --- -- ----- -- --- ---- -- --- ---- -- ------ ------<br>--- ----- -- ----,48537.79999999702,48536.39999999851,47470.422,47477.29999999702,47487.092,48554.214,,0,When
screen,html.Screen,0_2_0_1_1,2021-12-02T15:21:50.170Z,,,,,,,,,,,,,,,,53,,,,,,,,,,,,,,437.68599999850994,,response,,,99,,,,,,Space,keypress(Space),,,,,---- it ----- -- ------ - ------- --- ----------<br>------------- ------ ------ ---- ---- ------- ----- -- ----<br>-------- ------- -- ---------- --- - --- ----- ----- ----<br>---- --- --- ----- --- ---- ---- ------- ----- ---- -------<br>--- --- -- ----- -- --- ---- -- --- ---- -- ------ ------<br>--- ----- -- ----,48992.79999999702,48991.89999999851,48537.543,48538.099999997765,48554.214,49004.28,,1,it
screen,html.Screen,0_2_0_1_2,2021-12-02T15:21:50.570Z,,,,,,,,,,,,,,,,53,,,,,,,,,,,,,,387.61999999851105,,response,,,99,,,,,,Space,keypress(Space),,,,,---- -- comes -- ------ - ------- --- ----------<br>------------- ------ ------ ---- ---- ------- ----- -- ----<br>-------- ------- -- ---------- --- - --- ----- ----- ----<br>---- --- --- ----- --- ---- ---- ------- ----- ---- -------<br>--- --- -- ----- -- --- ---- -- --- ---- -- ------ ------<br>--- ----- -- ----,49392.79999999702,49391.89999999851,48987.61,48993.099999997765,49004.28,49404.378,,2,comes
screen,html.Screen,0_2_0_1_3,2021-12-02T15:21:50.890Z,,,,,,,,,,,,,,,,53,,,,,,,,,,,,,,307.5219999985129,,response,,,99,,,,,,Space,keypress(Space),,,,,---- -- ----- to ------ - ------- --- ----------<br>------------- ------ ------ ---- ---- ------- ----- -- ----<br>-------- ------- -- ---------- --- - --- ----- ----- ----<br>---- --- --- ----- --- ---- ---- ------- ----- ---- -------<br>--- --- -- ----- -- --- ---- -- --- ---- -- ------ ------<br>--- ----- -- ----,49712.79999999702,49711.89999999851,49387.708,49393.099999997765,49404.378,49721.186,,3,to
screen,html.Screen,0_2_0_1_4,2021-12-02T15:21:51.170Z,,,,,,,,,,,,,,,,53,,,,,,,,,,,,,,270.61399999701825,,response,,,99,,,,,,Space,keypress(Space),,,,,---- -- ----- -- having - ------- --- ----------<br>------------- ------ ------ ---- ---- ------- ----- -- ----<br>-------- ------- -- ---------- --- - --- ----- ----- ----<br>---- --- --- ----- --- ---- ---- ------- ----- ---- -------<br>--- --- -- ----- -- --- ---- -- --- ---- -- ------ ------<br>--- ----- -- ----,49993,49991.79999999702,49704.515,49713.29999999702,49721.186,50004.57,,4,having
screen,html.Screen,0_2_0_1_5,2021-12-02T15:21:51.513Z,,,,,,,,,,,,,,,,53,,,,,,,,,,,,,,331.22999999702006,,response,,,99,,,,,,Space,keypress(Space),,,,,---- -- ----- -- ------ a ------- --- ----------<br>------------- ------ ------ ---- ---- ------- ----- -- ----<br>-------- ------- -- ---------- --- - --- ----- ----- ----<br>---- --- --- ----- --- ---- ---- ------- ----- ---- -------<br>--- --- -- ----- -- --- ---- -- --- ---- -- ------ ------<br>--- ----- -- ----,50336.79999999702,50335.79999999702,49987.9,49993.29999999702,50004.57,50337.857,,5,a
screen,html.Screen,0_2_0_1_6,2021-12-02T15:21:51.826Z,,,,,,,,,,,,,,,,53,,,,,,,,,,,,,,309.94299999701616,,response,,,99,,,,,,Space,keypress(Space),,,,,---- -- ----- -- ------ - lasting --- ----------<br>------------- ------ ------ ---- ---- ------- ----- -- ----<br>-------- ------- -- ---------- --- - --- ----- ----- ----<br>---- --- --- ----- --- ---- ---- ------- ----- ---- -------<br>--- --- -- ----- -- --- ---- -- --- ---- -- ------ ------<br>--- ----- -- ----,50648.79999999702,50647.79999999702,50321.189,50337.29999999702,50337.857,50654.725,,6,lasting
screen,html.Screen,0_2_0_1_7,2021-12-02T15:21:52.234Z,,,,,,,,,,,,,,,,53,,,,,,,,,,,,,,401.0749999970212,,response,,,99,,,,,,Space,keypress(Space),,,,,---- -- ----- -- ------ - ------- and ----------<br>------------- ------ ------ ---- ---- ------- ----- -- ----<br>-------- ------- -- ---------- --- - --- ----- ----- ----<br>---- --- --- ----- --- ---- ---- ------- ----- ---- -------<br>--- --- -- ----- -- --- ---- -- --- ---- -- ------ ------<br>--- ----- -- ----,51056.79999999702,51055.79999999702,50638.054,50649.199999999255,50654.725,51071.558,,7,and
screen,html.Screen,0_2_0_1_8,2021-12-02T15:21:53.138Z,,,,,,,,,,,,,,,,53,,,,,,,,,,,,,,888.2419999970225,,response,,,99,,,,,,Space,keypress(Space),,,,,---- -- ----- -- ------ - ------- --- fulfilling<br>------------- ------ ------ ---- ---- ------- ----- -- ----<br>-------- ------- -- ---------- --- - --- ----- ----- ----<br>---- --- --- ----- --- ---- ---- ------- ----- ---- -------<br>--- --- -- ----- -- --- ---- -- --- ---- -- ------ ------<br>--- ----- -- ----,51961,51959.79999999702,51054.886,51057.099999997765,51071.558,51971.848,,8,fulfilling
screen,html.Screen,0_2_0_1_9,2021-12-02T15:21:53.673Z,,,,,,,,,,,,,,,,53,,,,,,,,,,,,,,523.9519999970216,,response,,,99,,,,,,Space,keypress(Space),,,,,"---- -- ----- -- ------ - ------- --- ----------<br>relationship, ------ ------ ---- ---- ------- ----- -- ----<br>-------- ------- -- ---------- --- - --- ----- ----- ----<br>---- --- --- ----- --- ---- ---- ------- ----- ---- -------<br>--- --- -- ----- -- --- ---- -- --- ---- -- ------ ------<br>--- ----- -- ----",52496.699999999255,52495.79999999702,51955.176,51961.199999999255,51971.848,52505.03,,9,"relationship,"
screen,html.Screen,0_2_0_1_10,2021-12-02T15:21:54.529Z,,,,,,,,,,,,,,,,53,,,,,,,,,,,,,,846.6699999992561,,response,,,99,,,,,,Space,keypress(Space),,,,,---- -- ----- -- ------ - ------- --- ----------<br>------------- common ------ ---- ---- ------- ----- -- ----<br>-------- ------- -- ---------- --- - --- ----- ----- ----<br>---- --- --- ----- --- ---- ---- ------- ----- ---- -------<br>--- --- -- ----- -- --- ---- -- --- ---- -- ------ ------<br>--- ----- -- ----,53352.699999999255,53351.699999999255,52488.361,52497,52505.03,53355.458,,10,common
screen,html.Screen,0_2_0_1_11,2021-12-02T15:21:54.865Z,,,,,,,,,,,,,,,,53,,,,,,,,,,,,,,332.2419999992562,,response,,,99,,,,,,Space,keypress(Space),,,,,---- -- ----- -- ------ - ------- --- ----------<br>------------- ------ wisdom ---- ---- ------- ----- -- ----<br>-------- ------- -- ---------- --- - --- ----- ----- ----<br>---- --- --- ----- --- ---- ---- ------- ----- ---- -------<br>--- --- -- ----- -- --- ---- -- --- ---- -- ------ ------<br>--- ----- -- ----,53688.599999997765,53687.699999999255,53338.787,53352.89999999851,53355.458,53705.473,,11,wisdom
screen,html.Screen,0_2_0_1_12,2021-12-02T15:21:55.321Z,,,,,,,,,,,,,,,,53,,,,,,,,,,,,,,438.2269999992568,,response,,,99,,,,,,Space,keypress(Space),,,,,---- -- ----- -- ------ - ------- --- ----------<br>------------- ------ ------ says ---- ------- ----- -- ----<br>-------- ------- -- ---------- --- - --- ----- ----- ----<br>---- --- --- ----- --- ---- ---- ------- ----- ---- -------<br>--- --- -- ----- -- --- ---- -- --- ---- -- ------ ------<br>--- ----- -- ----,54144.5,54143.699999999255,53688.803,53688.89999999851,53705.473,54155.624,,12,says
screen,html.Screen,0_2_0_1_13,2021-12-02T15:21:55.961Z,,,,,,,,,,,,,,,,53,,,,,,,,,,,,,,627.9759999977614,,response,,,99,,,,,,Space,keypress(Space),,,,,---- -- ----- -- ------ - ------- --- ----------<br>------------- ------ ------ ---- that ------- ----- -- ----<br>-------- ------- -- ---------- --- - --- ----- ----- ----<br>---- --- --- ----- --- ---- ---- ------- ----- ---- -------<br>--- --- -- ----- -- --- ---- -- --- ---- -- ------ ------<br>--- ----- -- ----,54784.39999999851,54783.599999997765,54138.954,54144.699999999255,54155.624,54788.941,,13,that
screen,html.Screen,0_2_0_1_14,2021-12-02T15:21:56.289Z,,,,,,,,,,,,,,,,53,,,,,,,,,,,,,,322.65899999776593,,response,,,99,,,,,,Space,keypress(Space),,,,,---- -- ----- -- ------ - ------- --- ----------<br>------------- ------ ------ ---- ---- feeling ----- -- ----<br>-------- ------- -- ---------- --- - --- ----- ----- ----<br>---- --- --- ----- --- ---- ---- ------- ----- ---- -------<br>--- --- -- ----- -- --- ---- -- --- ---- -- ------ ------<br>--- ----- -- ----,55112.39999999851,55111.599999997765,54772.273,54784.699999999255,54788.941,55122.587,,14,feeling
screen,html.Screen,0_2_0_1_15,2021-12-02T15:21:56.705Z,,,,,,,,,,,,,,,,53,,,,,,,,,,,,,,405.0129999977653,,response,,,99,,,,,,Space,keypress(Space),,,,,---- -- ----- -- ------ - ------- --- ----------<br>------------- ------ ------ ---- ---- ------- close -- ----<br>-------- ------- -- ---------- --- - --- ----- ----- ----<br>---- --- --- ----- --- ---- ---- ------- ----- ---- -------<br>--- --- -- ----- -- --- ---- -- --- ---- -- ------ ------<br>--- ----- -- ----,55528.79999999702,55527.599999997765,55105.916,55112.699999999255,55122.587,55539.228,,15,close
screen,html.Screen,0_2_0_1_16,2021-12-02T15:21:56.961Z,,,,,,,,,,,,,,,,53,,,,,,,,,,,,,,244.2719999999972,,response,,,99,,,,,,Space,keypress(Space),,,,,---- -- ----- -- ------ - ------- --- ----------<br>------------- ------ ------ ---- ---- ------- ----- to ----<br>-------- ------- -- ---------- --- - --- ----- ----- ----<br>---- --- --- ----- --- ---- ---- ------- ----- ---- -------<br>--- --- -- ----- -- --- ---- -- --- ---- -- ------ ------<br>--- ----- -- ----,55784.39999999851,55783.5,55522.559,55529,55539.228,55789.437,,16,to
screen,html.Screen,0_2_0_1_17,2021-12-02T15:21:57.201Z,,,,,,,,,,,,,,,,53,,,,,,,,,,,,,,234.16299999776675,,response,,,99,,,,,,Space,keypress(Space),,,,,---- -- ----- -- ------ - ------- --- ----------<br>------------- ------ ------ ---- ---- ------- ----- -- your<br>-------- ------- -- ---------- --- - --- ----- ----- ----<br>---- --- --- ----- --- ---- ---- ------- ----- ---- -------<br>--- --- -- ----- -- --- ---- -- --- ---- -- ------ ------<br>--- ----- -- ----,56024.39999999851,56023.599999997765,55772.765,55784.699999999255,55789.437,56039.476,,17,your
screen,html.Screen,0_2_0_1_18,2021-12-02T15:21:57.449Z,,,,,,,,,,,,,,,,53,,,,,,,,,,,,,,232.12399999776244,,response,,,99,,,,,,Space,keypress(Space),,,,,---- -- ----- -- ------ - ------- --- ----------<br>------------- ------ ------ ---- ---- ------- ----- -- ----<br>romantic ------- -- ---------- --- - --- ----- ----- ----<br>---- --- --- ----- --- ---- ---- ------- ----- ---- -------<br>--- --- -- ----- -- --- ---- -- --- ---- -- ------ ------<br>--- ----- -- ----,56272.29999999702,56271.599999997765,56022.805,56024.699999999255,56039.476,56289.388,,18,romantic
screen,html.Screen,0_2_0_1_19,2021-12-02T15:21:57.673Z,,,,,,,,,,,,,,,,53,,,,,,,,,,,,,,206.112000000001,,response,,,99,,,,,,Space,keypress(Space),,,,,---- -- ----- -- ------ - ------- --- ----------<br>------------- ------ ------ ---- ---- ------- ----- -- ----<br>-------- partner -- ---------- --- - --- ----- ----- ----<br>---- --- --- ----- --- ---- ---- ------- ----- ---- -------<br>--- --- -- ----- -- --- ---- -- --- ---- -- ------ ------<br>--- ----- -- ----,56496.29999999702,56495.5,56272.721,56272.599999997765,56289.388,56506.346,,19,partner
screen,html.Screen,0_2_0_1_20,2021-12-02T15:21:58.193Z,,,,,,,,,,,,,,,,53,,,,,,,,,,,,,,509.15400000000227,,response,,,99,,,,,,Space,keypress(Space),,,,,---- -- ----- -- ------ - ------- --- ----------<br>------------- ------ ------ ---- ---- ------- ----- -- ----<br>-------- ------- is ---------- --- - --- ----- ----- ----<br>---- --- --- ----- --- ---- ---- ------- ----- ---- -------<br>--- --- -- ----- -- --- ---- -- --- ---- -- ------ ------<br>--- ----- -- ----,57016.39999999851,57015.5,56489.672,56496.599999997765,56506.346,57022.897,,20,is
screen,html.Screen,0_2_0_1_21,2021-12-02T15:21:58.377Z,,,,,,,,,,,,,,,,53,,,,,,,,,,,,,,176.6030000000028,,response,,,99,,,,,,Space,keypress(Space),,,,,---- -- ----- -- ------ - ------- --- ----------<br>------------- ------ ------ ---- ---- ------- ----- -- ----<br>-------- ------- -- paramount. --- - --- ----- ----- ----<br>---- --- --- ----- --- ---- ---- ------- ----- ---- -------<br>--- --- -- ----- -- --- ---- -- --- ---- -- ------ ------<br>--- ----- -- ----,57200.39999999851,57199.5,57006.229,57016.599999997765,57022.897,57206.51,,21,paramount.
screen,html.Screen,0_2_0_1_22,2021-12-02T15:21:59.297Z,,,,,,,,,,,,,,,,53,,,,,,,,,,,,,,912.8899999985078,,response,,,99,,,,,,Space,keypress(Space),,,,,---- -- ----- -- ------ - ------- --- ----------<br>------------- ------ ------ ---- ---- ------- ----- -- ----<br>-------- ------- -- ---------- But - --- ----- ----- ----<br>---- --- --- ----- --- ---- ---- ------- ----- ---- -------<br>--- --- -- ----- -- --- ---- -- --- ---- -- ------ ------<br>--- ----- -- ----,58120.29999999702,58119.39999999851,57189.837,57200.89999999851,57206.51,58123.289,,22,But
screen,html.Screen,0_2_0_1_23,2021-12-02T15:21:59.673Z,,,,,,,,,,,,,,,,53,,,,,,,,,,,,,,372.21100000000297,,response,,,99,,,,,,Space,keypress(Space),,,,,---- -- ----- -- ------ - ------- --- ----------<br>------------- ------ ------ ---- ---- ------- ----- -- ----<br>-------- ------- -- ---------- --- a --- ----- ----- ----<br>---- --- --- ----- --- ---- ---- ------- ----- ---- -------<br>--- --- -- ----- -- --- ---- -- --- ---- -- ------ ------<br>--- ----- -- ----,58496.29999999702,58495.5,58106.619,58120.5,58123.289,58506.71,,23,a
screen,html.Screen,0_2_0_1_24,2021-12-02T15:22:00.057Z,,,,,,,,,,,,,,,,53,,,,,,,,,,,,,,373.18999999851076,,response,,,99,,,,,,Space,keypress(Space),,,,,---- -- ----- -- ------ - ------- --- ----------<br>------------- ------ ------ ---- ---- ------- ----- -- ----<br>-------- ------- -- ---------- --- - new ----- ----- ----<br>---- --- --- ----- --- ---- ---- ------- ----- ---- -------<br>--- --- -- ----- -- --- ---- -- --- ---- -- ------ ------<br>--- ----- -- ----,58880.599999997765,58879.89999999851,58490.04,58496.5,58506.71,58890.183,,24,new
screen,html.Screen,0_2_0_1_25,2021-12-02T15:22:00.393Z,,,,,,,,,,,,,,,,53,,,,,,,,,,,,,,325.2169999985126,,response,,,99,,,,,,Space,keypress(Space),,,,,---- -- ----- -- ------ - ------- --- ----------<br>------------- ------ ------ ---- ---- ------- ----- -- ----<br>-------- ------- -- ---------- --- - --- study ----- ----<br>---- --- --- ----- --- ---- ---- ------- ----- ---- -------<br>--- --- -- ----- -- --- ---- -- --- ---- -- ------ ------<br>--- ----- -- ----,59216.39999999851,59215.39999999851,58873.513,58880.89999999851,58890.183,59223.576,,25,study
screen,html.Screen,0_2_0_1_26,2021-12-02T15:22:00.753Z,,,,,,,,,,,,,,,,53,,,,,,,,,,,,,,351.72399999701884,,response,,,99,,,,,,Space,keypress(Space),,,,,---- -- ----- -- ------ - ------- --- ----------<br>------------- ------ ------ ---- ---- ------- ----- -- ----<br>-------- ------- -- ---------- --- - --- ----- finds ----<br>---- --- --- ----- --- ---- ---- ------- ----- ---- -------<br>--- --- -- ----- -- --- ---- -- --- ---- -- ------ ------<br>--- ----- -- ----,59576.199999999255,59575.29999999702,59206.906,59216.599999997765,59223.576,59590.389,,26,finds
screen,html.Screen,0_2_0_1_27,2021-12-02T15:22:01.001Z,,,,,,,,,,,,,,,,53,,,,,,,,,,,,,,232.8109999992521,,response,,,99,,,,,,Space,keypress(Space),,,,,---- -- ----- -- ------ - ------- --- ----------<br>------------- ------ ------ ---- ---- ------- ----- -- ----<br>-------- ------- -- ---------- --- - --- ----- ----- that<br>---- --- --- ----- --- ---- ---- ------- ----- ---- -------<br>--- --- -- ----- -- --- ---- -- --- ---- -- ------ ------<br>--- ----- -- ----,59824.099999997765,59823.199999999255,59573.718,59576.5,59590.389,59840.435,,27,that
screen,html.Screen,0_2_0_1_28,2021-12-02T15:22:01.388Z,,,,,,,,,,,,,,,,53,,,,,,,,,,,,,,366.9649999985122,,response,,,99,,,,,,Space,keypress(Space),,,,,---- -- ----- -- ------ - ------- --- ----------<br>------------- ------ ------ ---- ---- ------- ----- -- ----<br>-------- ------- -- ---------- --- - --- ----- ----- ----<br>it's --- --- ----- --- ---- ---- ------- ----- ---- -------<br>--- --- -- ----- -- --- ---- -- --- ---- -- ------ ------<br>--- ----- -- ----,60208.199999999255,60207.39999999851,59823.765,59824.29999999702,59840.435,60223.853,,28,it's
screen,html.Screen,0_2_0_1_29,2021-12-02T15:22:01.604Z,,,,,,,,,,,,,,,,53,,,,,,,,,,,,,,199.44699999701697,,response,,,99,,,,,,Space,keypress(Space),,,,,---- -- ----- -- ------ - ------- --- ----------<br>------------- ------ ------ ---- ---- ------- ----- -- ----<br>-------- ------- -- ---------- --- - --- ----- ----- ----<br>---- not --- ----- --- ---- ---- ------- ----- ---- -------<br>--- --- -- ----- -- --- ---- -- --- ---- -- ------ ------<br>--- ----- -- ----,60424.099999997765,60423.29999999702,60207.183,60208.39999999851,60223.853,60440.611,,29,not
screen,html.Screen,0_2_0_1_30,2021-12-02T15:22:01.860Z,,,,,,,,,,,,,,,,53,,,,,,,,,,,,,,238.68899999702262,,response,,,99,,,,,,Space,keypress(Space),,,,,---- -- ----- -- ------ - ------- --- ----------<br>------------- ------ ------ ---- ---- ------- ----- -- ----<br>-------- ------- -- ---------- --- - --- ----- ----- ----<br>---- --- how ----- --- ---- ---- ------- ----- ---- -------<br>--- --- -- ----- -- --- ---- -- --- ---- -- ------ ------<br>--- ----- -- ----,60680.099999997765,60679.29999999702,60423.94,60424.5,60440.611,60690.653,,30,how
screen,html.Screen,0_2_0_1_31,2021-12-02T15:22:02.084Z,,,,,,,,,,,,,,,,53,,,,,,,,,,,,,,212.64699999702134,,response,,,99,,,,,,Space,keypress(Space),,,,,---- -- ----- -- ------ - ------- --- ----------<br>------------- ------ ------ ---- ---- ------- ----- -- ----<br>-------- ------- -- ---------- --- - --- ----- ----- ----<br>---- --- --- close --- ---- ---- ------- ----- ---- -------<br>--- --- -- ----- -- --- ---- -- --- ---- -- ------ ------<br>--- ----- -- ----,60904.099999997765,60903.29999999702,60673.983,60680.39999999851,60690.653,60907.236,,31,close
screen,html.Screen,0_2_0_1_32,2021-12-02T15:22:02.540Z,,,,,,,,,,,,,,,,53,,,,,,,,,,,,,,452.0639999970226,,response,,,99,,,,,,Space,keypress(Space),,,,,---- -- ----- -- ------ - ------- --- ----------<br>------------- ------ ------ ---- ---- ------- ----- -- ----<br>-------- ------- -- ---------- --- - --- ----- ----- ----<br>---- --- --- ----- you ---- ---- ------- ----- ---- -------<br>--- --- -- ----- -- --- ---- -- --- ---- -- ------ ------<br>--- ----- -- ----,61360,61359.29999999702,60890.569,60904.39999999851,60907.236,61374.249,,32,you
screen,html.Screen,0_2_0_1_33,2021-12-02T15:22:02.788Z,,,,,,,,,,,,,,,,53,,,,,,,,,,,,,,233.05099999701633,,response,,,99,,,,,,Space,keypress(Space),,,,,---- -- ----- -- ------ - ------- --- ----------<br>------------- ------ ------ ---- ---- ------- ----- -- ----<br>-------- ------- -- ---------- --- - --- ----- ----- ----<br>---- --- --- ----- --- feel ---- ------- ----- ---- -------<br>--- --- -- ----- -- --- ---- -- --- ---- -- ------ ------<br>--- ----- -- ----,61608.099999997765,61607.29999999702,61357.576,61360.29999999702,61374.249,61624.24,,33,feel
screen,html.Screen,0_2_0_1_34,2021-12-02T15:22:03.212Z,,,,,,,,,,,,,,,,53,,,,,,,,,,,,,,406.959999999257,,response,,,99,,,,,,Space,keypress(Space),,,,,---- -- ----- -- ------ - ------- --- ----------<br>------------- ------ ------ ---- ---- ------- ----- -- ----<br>-------- ------- -- ---------- --- - --- ----- ----- ----<br>---- --- --- ----- --- ---- that ------- ----- ---- -------<br>--- --- -- ----- -- --- ---- -- --- ---- -- ------ ------<br>--- ----- -- ----,62032.099999997765,62031.199999999255,61607.569,61608.39999999851,61624.24,62041.024,,34,that
screen,html.Screen,0_2_0_1_35,2021-12-02T15:22:03.548Z,,,,,,,,,,,,,,,,53,,,,,,,,,,,,,,326.17599999925733,,response,,,99,,,,,,Space,keypress(Space),,,,,---- -- ----- -- ------ - ------- --- ----------<br>------------- ------ ------ ---- ---- ------- ----- -- ----<br>-------- ------- -- ---------- --- - --- ----- ----- ----<br>---- --- --- ----- --- ---- ---- matters ----- ---- -------<br>--- --- -- ----- -- --- ---- -- --- ---- -- ------ ------<br>--- ----- -- ----,62368,62367.199999999255,62024.353,62032.29999999702,62041.024,62374.391,,35,matters
screen,html.Screen,0_2_0_1_36,2021-12-02T15:22:03.956Z,,,,,,,,,,,,,,,,53,,,,,,,,,,,,,,400.70899999776157,,response,,,99,,,,,,Space,keypress(Space),,,,,"---- -- ----- -- ------ - ------- --- ----------<br>------------- ------ ------ ---- ---- ------- ----- -- ----<br>-------- ------- -- ---------- --- - --- ----- ----- ----<br>---- --- --- ----- --- ---- ---- ------- most, ---- -------<br>--- --- -- ----- -- --- ---- -- --- ---- -- ------ ------<br>--- ----- -- ----",62776,62775.099999997765,62357.721,62368.29999999702,62374.391,62791.077,,36,"most,"
screen,html.Screen,0_2_0_1_37,2021-12-02T15:22:04.356Z,,,,,,,,,,,,,,,,53,,,,,,,,,,,,,,384.02299999776733,,response,,,99,,,,,,Space,keypress(Space),,,,,---- -- ----- -- ------ - ------- --- ----------<br>------------- ------ ------ ---- ---- ------- ----- -- ----<br>-------- ------- -- ---------- --- - --- ----- ----- ----<br>---- --- --- ----- --- ---- ---- ------- ----- it's -------<br>--- --- -- ----- -- --- ---- -- --- ---- -- ------ ------<br>--- ----- -- ----,63175.89999999851,63175.099999997765,62774.408,62776.199999999255,62791.077,63191.389,,37,it's
screen,html.Screen,0_2_0_1_38,2021-12-02T15:22:04.740Z,,,,,,,,,,,,,,,,53,,,,,,,,,,,,,,367.8109999992521,,response,,,99,,,,,,Space,keypress(Space),,,,,---- -- ----- -- ------ - ------- --- ----------<br>------------- ------ ------ ---- ---- ------- ----- -- ----<br>-------- ------- -- ---------- --- - --- ----- ----- ----<br>---- --- --- ----- --- ---- ---- ------- ----- ---- whether<br>--- --- -- ----- -- --- ---- -- --- ---- -- ------ ------<br>--- ----- -- ----,63560,63559.199999999255,63174.716,63176.199999999255,63191.389,63574.71,,38,whether
screen,html.Screen,0_2_0_1_39,2021-12-02T15:22:05.140Z,,,,,,,,,,,,,,,,53,,,,,,,,,,,,,,384.4899999992558,,response,,,99,,,,,,Space,keypress(Space),,,,,---- -- ----- -- ------ - ------- --- ----------<br>------------- ------ ------ ---- ---- ------- ----- -- ----<br>-------- ------- -- ---------- --- - --- ----- ----- ----<br>---- --- --- ----- --- ---- ---- ------- ----- ---- -------<br>you --- -- ----- -- --- ---- -- --- ---- -- ------ ------<br>--- ----- -- ----,63959.89999999851,63959.199999999255,63558.04,63560.099999997765,63574.71,63974.819,,39,you
screen,html.Screen,0_2_0_1_40,2021-12-02T15:22:05.492Z,,,,,,,,,,,,,,,,53,,,,,,,,,,,,,,336.2809999977617,,response,,,99,,,,,,Space,keypress(Space),,,,,---- -- ----- -- ------ - ------- --- ----------<br>------------- ------ ------ ---- ---- ------- ----- -- ----<br>-------- ------- -- ---------- --- - --- ----- ----- ----<br>---- --- --- ----- --- ---- ---- ------- ----- ---- -------<br>--- are -- ----- -- --- ---- -- --- ---- -- ------ ------<br>--- ----- -- ----,64312,64311.099999997765,63958.149,63960.199999999255,63974.819,64324.9,,40,are
screen,html.Screen,0_2_0_1_41,2021-12-02T15:22:05.708Z,,,,,,,,,,,,,,,,53,,,,,,,,,,,,,,202.19999999776337,,response,,,99,,,,,,Space,keypress(Space),,,,,---- -- ----- -- ------ - ------- --- ----------<br>------------- ------ ------ ---- ---- ------- ----- -- ----<br>-------- ------- -- ---------- --- - --- ----- ----- ----<br>---- --- --- ----- --- ---- ---- ------- ----- ---- -------<br>--- --- as ----- -- --- ---- -- --- ---- -- ------ ------<br>--- ----- -- ----,64527.89999999851,64527.099999997765,64308.23,64312.099999997765,64324.9,64541.663,,41,as
screen,html.Screen,0_2_0_1_42,2021-12-02T15:22:06.171Z,,,,,,,,,,,,,,,,53,,,,,,,,,,,,,,449.43699999776436,,response,,,99,,,,,,Space,keypress(Space),,,,,---- -- ----- -- ------ - ------- --- ----------<br>------------- ------ ------ ---- ---- ------- ----- -- ----<br>-------- ------- -- ---------- --- - --- ----- ----- ----<br>---- --- --- ----- --- ---- ---- ------- ----- ---- -------<br>--- --- -- close -- --- ---- -- --- ---- -- ------ ------<br>--- ----- -- ----,64991.79999999702,64991.099999997765,64524.992,64528.099999997765,64541.663,65008.411,,42,close
screen,html.Screen,0_2_0_1_43,2021-12-02T15:22:06.491Z,,,,,,,,,,,,,,,,53,,,,,,,,,,,,,,302.58899999999994,,response,,,99,,,,,,Space,keypress(Space),,,,,---- -- ----- -- ------ - ------- --- ----------<br>------------- ------ ------ ---- ---- ------- ----- -- ----<br>-------- ------- -- ---------- --- - --- ----- ----- ----<br>---- --- --- ----- --- ---- ---- ------- ----- ---- -------<br>--- --- -- ----- as --- ---- -- --- ---- -- ------ ------<br>--- ----- -- ----,65311.79999999702,65311,64991.741,64992.199999999255,65008.411,65325.145,,43,as
screen,html.Screen,0_2_0_1_44,2021-12-02T15:22:06.771Z,,,,,,,,,,,,,,,,53,,,,,,,,,,,,,,265.8550000000032,,response,,,99,,,,,,Space,keypress(Space),,,,,---- -- ----- -- ------ - ------- --- ----------<br>------------- ------ ------ ---- ---- ------- ----- -- ----<br>-------- ------- -- ---------- --- - --- ----- ----- ----<br>---- --- --- ----- --- ---- ---- ------- ----- ---- -------<br>--- --- -- ----- -- you ---- -- --- ---- -- ------ ------<br>--- ----- -- ----,65591.79999999702,65591,65308.475,65312.199999999255,65325.145,65608.605,,44,you
screen,html.Screen,0_2_0_1_45,2021-12-02T15:22:07.171Z,,,,,,,,,,,,,,,,53,,,,,,,,,,,,,,382.3950000000041,,response,,,99,,,,,,Space,keypress(Space),,,,,---- -- ----- -- ------ - ------- --- ----------<br>------------- ------ ------ ---- ---- ------- ----- -- ----<br>-------- ------- -- ---------- --- - --- ----- ----- ----<br>---- --- --- ----- --- ---- ---- ------- ----- ---- -------<br>--- --- -- ----- -- --- want -- --- ---- -- ------ ------<br>--- ----- -- ----,65991.79999999702,65991,65591.934,65592.09999999776,65608.605,66008.679,,45,want
screen,html.Screen,0_2_0_1_46,2021-12-02T15:22:07.539Z,,,,,,,,,,,,,,,,53,,,,,,,,,,,,,,350.3209999999963,,response,,,99,,,,,,Space,keypress(Space),,,,,---- -- ----- -- ------ - ------- --- ----------<br>------------- ------ ------ ---- ---- ------- ----- -- ----<br>-------- ------- -- ---------- --- - --- ----- ----- ----<br>---- --- --- ----- --- ---- ---- ------- ----- ---- -------<br>--- --- -- ----- -- --- ---- to --- ---- -- ------ ------<br>--- ----- -- ----,66359.69999999925,66359,65992.009,65992.09999999776,66008.679,66375.305,,46,to
screen,html.Screen,0_2_0_1_47,2021-12-02T15:22:07.843Z,,,,,,,,,,,,,,,,53,,,,,,,,,,,,,,287.59499999851687,,response,,,99,,,,,,Space,keypress(Space),,,,,"---- -- ----- -- ------ - ------- --- ----------<br>------------- ------ ------ ---- ---- ------- ----- -- ----<br>-------- ------- -- ---------- --- - --- ----- ----- ----<br>---- --- --- ----- --- ---- ---- ------- ----- ---- -------<br>--- --- -- ----- -- --- ---- -- be, ---- -- ------ ------<br>--- ----- -- ----",66663.69999999925,66662.89999999851,66358.637,66360,66375.305,66675.574,,47,"be,"
screen,html.Screen,0_2_0_1_48,2021-12-02T15:22:08.251Z,,,,,,,,,,,,,,,,53,,,,,,,,,,,,,,395.42600000000675,,response,,,99,,,,,,Space,keypress(Space),,,,,---- -- ----- -- ------ - ------- --- ----------<br>------------- ------ ------ ---- ---- ------- ----- -- ----<br>-------- ------- -- ---------- --- - --- ----- ----- ----<br>---- --- --- ----- --- ---- ---- ------- ----- ---- -------<br>--- --- -- ----- -- --- ---- -- --- even -- ------ ------<br>--- ----- -- ----,67071.79999999702,67071,66658.902,66663.89999999851,66675.574,67075.671,,48,even
screen,html.Screen,0_2_0_1_49,2021-12-02T15:22:08.643Z,,,,,,,,,,,,,,,,53,,,,,,,,,,,,,,387.2289999985078,,response,,,99,,,,,,Space,keypress(Space),,,,,---- -- ----- -- ------ - ------- --- ----------<br>------------- ------ ------ ---- ---- ------- ----- -- ----<br>-------- ------- -- ---------- --- - --- ----- ----- ----<br>---- --- --- ----- --- ---- ---- ------- ----- ---- -------<br>--- --- -- ----- -- --- ---- -- --- ---- if ------ ------<br>--- ----- -- ----,67463.59999999776,67462.89999999851,67059,67072.09999999776,67075.671,67475.603,,49,if
screen,html.Screen,0_2_0_1_50,2021-12-02T15:22:09.012Z,,,,,,,,,,,,,,,,53,,,,,,,,,,,,,,355.2969999985071,,response,,,99,,,,,,Space,keypress(Space),,,,,---- -- ----- -- ------ - ------- --- ----------<br>------------- ------ ------ ---- ---- ------- ----- -- ----<br>-------- ------- -- ---------- --- - --- ----- ----- ----<br>---- --- --- ----- --- ---- ---- ------- ----- ---- -------<br>--- --- -- ----- -- --- ---- -- --- ---- -- that's ------<br>--- ----- -- ----,67832,67830.89999999851,67458.935,67463.89999999851,67475.603,67842.525,,50,that's
screen,html.Screen,0_2_0_1_51,2021-12-02T15:22:09.347Z,,,,,,,,,,,,,,,,53,,,,,,,,,,,,,,324.2749999970256,,response,,,99,,,,,,Space,keypress(Space),,,,,---- -- ----- -- ------ - ------- --- ----------<br>------------- ------ ------ ---- ---- ------- ----- -- ----<br>-------- ------- -- ---------- --- - --- ----- ----- ----<br>---- --- --- ----- --- ---- ---- ------- ----- ---- -------<br>--- --- -- ----- -- --- ---- -- --- ---- -- ------ really<br>--- ----- -- ----,68167.69999999925,68166.79999999702,67825.854,67832.19999999925,67842.525,68175.753,,51,really
screen,html.Screen,0_2_0_1_52,2021-12-02T15:22:09.731Z,,,,,,,,,,,,,,,,53,,,,,,,,,,,,,,375.0469999970228,,response,,,99,,,,,,Space,keypress(Space),,,,,---- -- ----- -- ------ - ------- --- ----------<br>------------- ------ ------ ---- ---- ------- ----- -- ----<br>-------- ------- -- ---------- --- - --- ----- ----- ----<br>---- --- --- ----- --- ---- ---- ------- ----- ---- -------<br>--- --- -- ----- -- --- ---- -- --- ---- -- ------ ------<br>not ----- -- ----,68551.69999999925,68550.79999999702,68159.085,68167.89999999851,68175.753,68559.444,,52,not
screen,html.Screen,0_2_0_1_53,2021-12-02T15:22:10.027Z,,,,,,,,,,,,,,,,53,,,,,,,,,,,,,,287.45599999850674,,response,,,99,,,,,,Space,keypress(Space),,,,,---- -- ----- -- ------ - ------- --- ----------<br>------------- ------ ------ ---- ---- ------- ----- -- ----<br>-------- ------- -- ---------- --- - --- ----- ----- ----<br>---- --- --- ----- --- ---- ---- ------- ----- ---- -------<br>--- --- -- ----- -- --- ---- -- --- ---- -- ------ ------<br>--- close -- ----,68847.69999999925,68846.89999999851,68542.771,68551.89999999851,68559.444,68859.33,,53,close
screen,html.Screen,0_2_0_1_54,2021-12-02T15:22:10.276Z,,,,,,,,,,,,,,,,53,,,,,,,,,,,,,,235.8699999992532,,response,,,99,,,,,,Space,keypress(Space),,,,,---- -- ----- -- ------ - ------- --- ----------<br>------------- ------ ------ ---- ---- ------- ----- -- ----<br>-------- ------- -- ---------- --- - --- ----- ----- ----<br>---- --- --- ----- --- ---- ---- ------- ----- ---- -------<br>--- --- -- ----- -- --- ---- -- --- ---- -- ------ ------<br>--- ----- at ----,69095.89999999851,69095.19999999925,68842.661,68847.89999999851,68859.33,69109.407,,54,at
screen,html.Screen,0_2_0_1_55,2021-12-02T15:22:10.707Z,,,,,,,,,,,,,,,,53,,,,,,,,,,,,,,417.49299999850336,,response,,,99,,,,,,Space,keypress(Space),,,,,---- -- ----- -- ------ - ------- --- ----------<br>------------- ------ ------ ---- ---- ------- ----- -- ----<br>-------- ------- -- ---------- --- - --- ----- ----- ----<br>---- --- --- ----- --- ---- ---- ------- ----- ---- -------<br>--- --- -- ----- -- --- ---- -- --- ---- -- ------ ------<br>--- ----- -- all.,69527.69999999925,69526.89999999851,69092.738,69096.19999999925,69109.407,69543.034,,55,all.
Item 99,flow.Loop,0_2_0_1,2021-12-02T15:22:10.712Z,,,,,,,,,,,,,,,,,,,,,,,,,,,,,,22039.807999998513,,completion,,,,A,,,,,,,,,,silence,,69532.29999999702,69526.89999999851,47470.422,47477.29999999702,47487.092,69543.034,,,
Question 1,html.Screen,0_2_0_2,2021-12-02T15:22:14.968Z,,,,,,,,,,,,,,,,,,,,,,,,,,,true,FALSE,,4243.466,,response,,,99,A,,,,,FALSE,click #choice-2,,,,silence,,73787.89999999851,73786.5,69526.361,69532.69999999925,69543.034,73793.986,,,
Question 2,html.Screen,0_2_0_3,2021-12-02T15:22:15.114Z,,,,,,,,,,,,,,,,,,,,,,,,,,,false,TRUE,,139.01399999999558,,response,,,99,A,,,,,FALSE,click #choice-2,,,,silence,,73934.09999999776,73933,73777.316,73788.19999999925,73793.986,73960.97,,,
Item 99,flow.Sequence,0_2_0,2021-12-02T15:22:15.114Z,,,,,,,,,,,,,,,,,,,,,,,,,,,,,,36452.716,,completion,,,,,,,,,,,,,,,,73934.5,73933,37463.653,37481.099999997765,37480.284,73960.97,,,
Holding screen,html.Screen,0_2_1_0,2021-12-02T15:22:25.130Z,,,,,,,,,,,,,,,,,,,,,,,,,,,,,,10002.175999999992,,timeout,,,,,,,,,,,,,,,,83950,83946.476,73944.281,73934.79999999702,73960.97,83963.146,,,
screen,html.Screen,0_2_1_1_0,2021-12-02T15:22:25.963Z,,,,,,,,,,,,,,,,54,,,,,,,,,,,,,,819.3540000000066,,response,,,100,,,,,,Space,keypress(Space),,,,,At --- ---- --- ------ ----- ------- ---- -- --- ------- --<br>------- ---------- ------ -- ----- -- ----- -- ---- ------<br>--- ----- --- --- ------ -------- ----- --- ------ ----- --<br>----- ----- ---------- --- --- ------ ------ ---- -- ------<br>------- --- ------ ----- --- ---- ------- -- ---- --- --<br>------- ------,84783.39999999851,84782.5,83946.476,83952.5,83963.146,84796.848,,0,At
screen,html.Screen,0_2_1_1_1,2021-12-02T15:22:26.354Z,,,,,,,,,,,,,,,,54,,,,,,,,,,,,,,377.05199999851175,,response,,,100,,,,,,Space,keypress(Space),,,,,-- the ---- --- ------ ----- ------- ---- -- --- ------- --<br>------- ---------- ------ -- ----- -- ----- -- ---- ------<br>--- ----- --- --- ------ -------- ----- --- ------ ----- --<br>----- ----- ---------- --- --- ------ ------ ---- -- ------<br>------- --- ------ ----- --- ---- ------- -- ---- --- --<br>------- ------,85174.79999999702,85173.89999999851,84780.177,84783.79999999702,84796.848,85180.302,,1,the
screen,html.Screen,0_2_1_1_2,2021-12-02T15:22:27.138Z,,,,,,,,,,,,,,,,54,,,,,,,,,,,,,,777.5979999985138,,response,,,100,,,,,,Space,keypress(Space),,,,,-- --- time --- ------ ----- ------- ---- -- --- ------- --<br>------- ---------- ------ -- ----- -- ----- -- ---- ------<br>--- ----- --- --- ------ -------- ----- --- ------ ----- --<br>----- ----- ---------- --- --- ------ ------ ---- -- ------<br>------- --- ------ ----- --- ---- ------- -- ---- --- --<br>------- ------,85958.69999999925,85957.89999999851,85163.631,85175,85180.302,85963.85,,2,time
screen,html.Screen,0_2_1_1_3,2021-12-02T15:22:27.490Z,,,,,,,,,,,,,,,,54,,,,,,,,,,,,,,346.04999999850406,,response,,,100,,,,,,Space,keypress(Space),,,,,-- --- ---- the ------ ----- ------- ---- -- --- ------- --<br>------- ---------- ------ -- ----- -- ----- -- ---- ------<br>--- ----- --- --- ------ -------- ----- --- ------ ----- --<br>----- ----- ---------- --- --- ------ ------ ---- -- ------<br>------- --- ------ ----- --- ---- ------- -- ---- --- --<br>------- ------,86310.69999999925,86309.89999999851,85947.179,85959,85963.85,86313.908,,3,the
screen,html.Screen,0_2_1_1_4,2021-12-02T15:22:27.866Z,,,,,,,,,,,,,,,,54,,,,,,,,,,,,,,371.9919999985141,,response,,,100,,,,,,Space,keypress(Space),,,,,-- --- ---- --- French ----- ------- ---- -- --- ------- --<br>------- ---------- ------ -- ----- -- ----- -- ---- ------<br>--- ----- --- --- ------ -------- ----- --- ------ ----- --<br>----- ----- ---------- --- --- ------ ------ ---- -- ------<br>------- --- ------ ----- --- ---- ------- -- ---- --- --<br>------- ------,86686.69999999925,86685.89999999851,86297.238,86311,86313.908,86697.323,,4,French
screen,html.Screen,0_2_1_1_5,2021-12-02T15:22:28.258Z,,,,,,,,,,,,,,,,54,,,,,,,,,,,,,,380.5769999985059,,response,,,100,,,,,,Space,keypress(Space),,,,,-- --- ---- --- ------ crown ------- ---- -- --- ------- --<br>------- ---------- ------ -- ----- -- ----- -- ---- ------<br>--- ----- --- --- ------ -------- ----- --- ------ ----- --<br>----- ----- ---------- --- --- ------ ------ ---- -- ------<br>------- --- ------ ----- --- ---- ------- -- ---- --- --<br>------- ------,87078.59999999776,87077.89999999851,86680.653,86686.89999999851,86697.323,87080.762,,5,crown
screen,html.Screen,0_2_1_1_6,2021-12-02T15:22:28.874Z,,,,,,,,,,,,,,,,54,,,,,,,,,,,,,,613.1379999985074,,response,,,100,,,,,,Space,keypress(Space),,,,,-- --- ---- --- ------ ----- secured ---- -- --- ------- --<br>------- ---------- ------ -- ----- -- ----- -- ---- ------<br>--- ----- --- --- ------ -------- ----- --- ------ ----- --<br>----- ----- ---------- --- --- ------ ------ ---- -- ------<br>------- --- ------ ----- --- ---- ------- -- ---- --- --<br>------- ------,87694.59999999776,87693.89999999851,87064.092,87078.89999999851,87080.762,87697.398,,6,secured
screen,html.Screen,0_2_1_1_7,2021-12-02T15:22:29.266Z,,,,,,,,,,,,,,,,54,,,,,,,,,,,,,,388.4019999970187,,response,,,100,,,,,,Space,keypress(Space),,,,,-- --- ---- --- ------ ----- ------- much -- --- ------- --<br>------- ---------- ------ -- ----- -- ----- -- ---- ------<br>--- ----- --- --- ------ -------- ----- --- ------ ----- --<br>----- ----- ---------- --- --- ------ ------ ---- -- ------<br>------- --- ------ ----- --- ---- ------- -- ---- --- --<br>------- ------,88086.5,88085.79999999702,87680.73,87694.79999999702,87697.398,88097.802,,7,much
screen,html.Screen,0_2_1_1_8,2021-12-02T15:22:29.650Z,,,,,,,,,,,,,,,,54,,,,,,,,,,,,,,371.9979999970237,,response,,,100,,,,,,Space,keypress(Space),,,,,-- --- ---- --- ------ ----- ------- ---- of --- ------- --<br>------- ---------- ------ -- ----- -- ----- -- ---- ------<br>--- ----- --- --- ------ -------- ----- --- ------ ----- --<br>----- ----- ---------- --- --- ------ ------ ---- -- ------<br>------- --- ------ ----- --- ---- ------- -- ---- --- --<br>------- ------,88470.59999999776,88469.79999999702,88081.13,88086.69999999925,88097.802,88481.032,,8,of
screen,html.Screen,0_2_1_1_9,2021-12-02T15:22:29.930Z,,,,,,,,,,,,,,,,54,,,,,,,,,,,,,,268.76799999701325,,response,,,100,,,,,,Space,keypress(Space),,,,,-- --- ---- --- ------ ----- ------- ---- -- its ------- --<br>------- ---------- ------ -- ----- -- ----- -- ---- ------<br>--- ----- --- --- ------ -------- ----- --- ------ ----- --<br>----- ----- ---------- --- --- ------ ------ ---- -- ------<br>------- --- ------ ----- --- ---- ------- -- ---- --- --<br>------- ------,88750.59999999776,88749.79999999702,88464.363,88470.79999999702,88481.032,88764.623,,9,its
screen,html.Screen,0_2_1_1_10,2021-12-02T15:22:30.626Z,,,,,,,,,,,,,,,,54,,,,,,,,,,,,,,680.976999997758,,response,,,100,,,,,,Space,keypress(Space),,,,,-- --- ---- --- ------ ----- ------- ---- -- --- revenue --<br>------- ---------- ------ -- ----- -- ----- -- ---- ------<br>--- ----- --- --- ------ -------- ----- --- ------ ----- --<br>----- ----- ---------- --- --- ------ ------ ---- -- ------<br>------- --- ------ ----- --- ---- ------- -- ---- --- --<br>------- ------,89446.39999999851,89445.59999999776,88747.951,88750.79999999702,88764.623,89447.958,,10,revenue
screen,html.Screen,0_2_1_1_11,2021-12-02T15:22:31.362Z,,,,,,,,,,,,,,,,54,,,,,,,,,,,,,,733.7419999992562,,response,,,100,,,,,,Space,keypress(Space),,,,,-- --- ---- --- ------ ----- ------- ---- -- --- ------- by<br>------- ---------- ------ -- ----- -- ----- -- ---- ------<br>--- ----- --- --- ------ -------- ----- --- ------ ----- --<br>----- ----- ---------- --- --- ------ ------ ---- -- ------<br>------- --- ------ ----- --- ---- ------- -- ---- --- --<br>------- ------,90182.5,90181.69999999925,89431.289,89446.69999999925,89447.958,90198.278,,11,by
screen,html.Screen,0_2_1_1_12,2021-12-02T15:22:32.010Z,,,,,,,,,,,,,,,,54,,,,,,,,,,,,,,631.3219999977591,,response,,,100,,,,,,Space,keypress(Space),,,,,-- --- ---- --- ------ ----- ------- ---- -- --- ------- --<br>issuing ---------- ------ -- ----- -- ----- -- ---- ------<br>--- ----- --- --- ------ -------- ----- --- ------ ----- --<br>----- ----- ---------- --- --- ------ ------ ---- -- ------<br>------- --- ------ ----- --- ---- ------- -- ---- --- --<br>------- ------,90830.39999999851,90829.59999999776,90181.607,90182.69999999925,90198.278,90831.717,,12,issuing
screen,html.Screen,0_2_1_1_13,2021-12-02T15:22:32.506Z,,,,,,,,,,,,,,,,54,,,,,,,,,,,,,,493.7829999999958,,response,,,100,,,,,,Space,keypress(Space),,,,,-- --- ---- --- ------ ----- ------- ---- -- --- ------- --<br>------- government ------ -- ----- -- ----- -- ---- ------<br>--- ----- --- --- ------ -------- ----- --- ------ ----- --<br>----- ----- ---------- --- --- ------ ------ ---- -- ------<br>------- --- ------ ----- --- ---- ------- -- ---- --- --<br>------- ------,91326.29999999702,91325.5,90815.047,90830.69999999925,90831.717,91331.733,,13,government
screen,html.Screen,0_2_1_1_14,2021-12-02T15:22:32.986Z,,,,,,,,,,,,,,,,54,,,,,,,,,,,,,,473.7670000000071,,response,,,100,,,,,,Space,keypress(Space),,,,,-- --- ---- --- ------ ----- ------- ---- -- --- ------- --<br>------- ---------- bonds. -- ----- -- ----- -- ---- ------<br>--- ----- --- --- ------ -------- ----- --- ------ ----- --<br>----- ----- ---------- --- --- ------ ------ ---- -- ------<br>------- --- ------ ----- --- ---- ------- -- ---- --- --<br>------- ------,91806.29999999702,91805.5,91315.064,91326.5,91331.733,91815.315,,14,bonds.
screen,html.Screen,0_2_1_1_15,2021-12-02T15:22:34.202Z,,,,,,,,,,,,,,,,54,,,,,,,,,,,,,,1206.1849999999977,,response,,,100,,,,,,Space,keypress(Space),,,,,-- --- ---- --- ------ ----- ------- ---- -- --- ------- --<br>------- ---------- ------ In ----- -- ----- -- ---- ------<br>--- ----- --- --- ------ -------- ----- --- ------ ----- --<br>----- ----- ---------- --- --- ------ ------ ---- -- ------<br>------- --- ------ ----- --- ---- ------- -- ---- --- --<br>------- ------,93022.29999999702,93021.5,91798.644,91806.59999999776,91815.315,93032.321,,15,In
screen,html.Screen,0_2_1_1_16,2021-12-02T15:22:35.322Z,,,,,,,,,,,,,,,,54,,,,,,,,,,,,,,1109.1790000000037,,response,,,100,,,,,,Space,keypress(Space),,,,,"-- --- ---- --- ------ ----- ------- ---- -- --- ------- --<br>------- ---------- ------ -- 1727, -- ----- -- ---- ------<br>--- ----- --- --- ------ -------- ----- --- ------ ----- --<br>----- ----- ---------- --- --- ------ ------ ---- -- ------<br>------- --- ------ ----- --- ---- ------- -- ---- --- --<br>------- ------",94142.29999999702,94141.5,93015.65,93022.5,93032.321,94149.29,,16,"1727,"
screen,html.Screen,0_2_1_1_17,2021-12-02T15:22:35.722Z,,,,,,,,,,,,,,,,54,,,,,,,,,,,,,,392.2100000000064,,response,,,100,,,,,,Space,keypress(Space),,,,,-- --- ---- --- ------ ----- ------- ---- -- --- ------- --<br>------- ---------- ------ -- ----- in ----- -- ---- ------<br>--- ----- --- --- ------ -------- ----- --- ------ ----- --<br>----- ----- ---------- --- --- ------ ------ ---- -- ------<br>------- --- ------ ----- --- ---- ------- -- ---- --- --<br>------- ------,94542.19999999925,94541.5,94132.619,94142.59999999776,94149.29,94549.355,,17,in
screen,html.Screen,0_2_1_1_18,2021-12-02T15:22:36.290Z,,,,,,,,,,,,,,,,54,,,,,,,,,,,,,,560.544999998514,,response,,,100,,,,,,Space,keypress(Space),,,,,-- --- ---- --- ------ ----- ------- ---- -- --- ------- --<br>------- ---------- ------ -- ----- -- order -- ---- ------<br>--- ----- --- --- ------ -------- ----- --- ------ ----- --<br>----- ----- ---------- --- --- ------ ------ ---- -- ------<br>------- --- ------ ----- --- ---- ------- -- ---- --- --<br>------- ------,95110.69999999925,95109.89999999851,94532.685,94542.5,94549.355,95116.165,,18,order
screen,html.Screen,0_2_1_1_19,2021-12-02T15:22:36.570Z,,,,,,,,,,,,,,,,54,,,,,,,,,,,,,,273.2349999985163,,response,,,100,,,,,,Space,keypress(Space),,,,,-- --- ---- --- ------ ----- ------- ---- -- --- ------- --<br>------- ---------- ------ -- ----- -- ----- to ---- ------<br>--- ----- --- --- ------ -------- ----- --- ------ ----- --<br>----- ----- ---------- --- --- ------ ------ ---- -- ------<br>------- --- ------ ----- --- ---- ------- -- ---- --- --<br>------- ------,95390.19999999925,95389.39999999851,95099.495,95110.89999999851,95116.165,95399.572,,19,to
screen,html.Screen,0_2_1_1_20,2021-12-02T15:22:36.858Z,,,,,,,,,,,,,,,,54,,,,,,,,,,,,,,277.82799999850977,,response,,,100,,,,,,Space,keypress(Space),,,,,-- --- ---- --- ------ ----- ------- ---- -- --- ------- --<br>------- ---------- ------ -- ----- -- ----- -- save ------<br>--- ----- --- --- ------ -------- ----- --- ------ ----- --<br>----- ----- ---------- --- --- ------ ------ ---- -- ------<br>------- --- ------ ----- --- ---- ------- -- ---- --- --<br>------- ------,95678.19999999925,95677.39999999851,95382.902,95390.5,95399.572,95682.976,,20,save
screen,html.Screen,0_2_1_1_21,2021-12-02T15:22:37.218Z,,,,,,,,,,,,,,,,54,,,,,,,,,,,,,,354.32399999702466,,response,,,100,,,,,,Space,keypress(Space),,,,,"-- --- ---- --- ------ ----- ------- ---- -- --- ------- --<br>------- ---------- ------ -- ----- -- ----- -- ---- money,<br>--- ----- --- --- ------ -------- ----- --- ------ ----- --<br>----- ----- ---------- --- --- ------ ------ ---- -- ------<br>------- --- ------ ----- --- ---- ------- -- ---- --- --<br>------- ------",96038.09999999776,96037.29999999702,95666.306,95678.39999999851,95682.976,96049.609,,21,"money,"
screen,html.Screen,0_2_1_1_22,2021-12-02T15:22:37.698Z,,,,,,,,,,,,,,,,54,,,,,,,,,,,,,,467.79099999851314,,response,,,100,,,,,,Space,keypress(Space),,,,,-- --- ---- --- ------ ----- ------- ---- -- --- ------- --<br>------- ---------- ------ -- ----- -- ----- -- ---- ------<br>the ----- --- --- ------ -------- ----- --- ------ ----- --<br>----- ----- ---------- --- --- ------ ------ ---- -- ------<br>------- --- ------ ----- --- ---- ------- -- ---- --- --<br>------- ------,96518.09999999776,96517.39999999851,96032.941,96038.39999999851,96049.609,96533.321,,22,the
screen,html.Screen,0_2_1_1_23,2021-12-02T15:22:38.250Z,,,,,,,,,,,,,,,,54,,,,,,,,,,,,,,535.9789999970235,,response,,,100,,,,,,Space,keypress(Space),,,,,-- --- ---- --- ------ ----- ------- ---- -- --- ------- --<br>------- ---------- ------ -- ----- -- ----- -- ---- ------<br>--- state --- --- ------ -------- ----- --- ------ ----- --<br>----- ----- ---------- --- --- ------ ------ ---- -- ------<br>------- --- ------ ----- --- ---- ------- -- ---- --- --<br>------- ------,97070.09999999776,97069.29999999702,96516.648,96518.39999999851,96533.321,97083.324,,23,state
screen,html.Screen,0_2_1_1_24,2021-12-02T15:22:38.562Z,,,,,,,,,,,,,,,,54,,,,,,,,,,,,,,297.9759999970265,,response,,,100,,,,,,Space,keypress(Space),,,,,-- --- ---- --- ------ ----- ------- ---- -- --- ------- --<br>------- ---------- ------ -- ----- -- ----- -- ---- ------<br>--- ----- cut --- ------ -------- ----- --- ------ ----- --<br>----- ----- ---------- --- --- ------ ------ ---- -- ------<br>------- --- ------ ----- --- ---- ------- -- ---- --- --<br>------- ------,97382.09999999776,97381.29999999702,97066.654,97070.39999999851,97083.324,97383.396,,24,cut
screen,html.Screen,0_2_1_1_25,2021-12-02T15:22:38.906Z,,,,,,,,,,,,,,,,54,,,,,,,,,,,,,,341.9039999970264,,response,,,100,,,,,,Space,keypress(Space),,,,,-- --- ---- --- ------ ----- ------- ---- -- --- ------- --<br>------- ---------- ------ -- ----- -- ----- -- ---- ------<br>--- ----- --- the ------ -------- ----- --- ------ ----- --<br>----- ----- ---------- --- --- ------ ------ ---- -- ------<br>------- --- ------ ----- --- ---- ------- -- ---- --- --<br>------- ------,97726.09999999776,97725.29999999702,97366.726,97382.39999999851,97383.396,97733.527,,25,the
screen,html.Screen,0_2_1_1_26,2021-12-02T15:22:39.242Z,,,,,,,,,,,,,,,,54,,,,,,,,,,,,,,327.6729999992531,,response,,,100,,,,,,Space,keypress(Space),,,,,-- --- ---- --- ------ ----- ------- ---- -- --- ------- --<br>------- ---------- ------ -- ----- -- ----- -- ---- ------<br>--- ----- --- --- bonds' -------- ----- --- ------ ----- --<br>----- ----- ---------- --- --- ------ ------ ---- -- ------<br>------- --- ------ ----- --- ---- ------- -- ---- --- --<br>------- ------,98062.09999999776,98061.19999999925,97716.856,97726.29999999702,97733.527,98066.963,,26,bonds'
screen,html.Screen,0_2_1_1_27,2021-12-02T15:22:39.746Z,,,,,,,,,,,,,,,,54,,,,,,,,,,,,,,498.23699999925157,,response,,,100,,,,,,Space,keypress(Space),,,,,-- --- ---- --- ------ ----- ------- ---- -- --- ------- --<br>------- ---------- ------ -- ----- -- ----- -- ---- ------<br>--- ----- --- --- ------ interest ----- --- ------ ----- --<br>----- ----- ---------- --- --- ------ ------ ---- -- ------<br>------- --- ------ ----- --- ---- ------- -- ---- --- --<br>------- ------,98566,98565.19999999925,98050.292,98062.29999999702,98066.963,98566.895,,27,interest
screen,html.Screen,0_2_1_1_28,2021-12-02T15:22:40.210Z,,,,,,,,,,,,,,,,54,,,,,,,,,,,,,,462.30499999925087,,response,,,100,,,,,,Space,keypress(Space),,,,,-- --- ---- --- ------ ----- ------- ---- -- --- ------- --<br>------- ---------- ------ -- ----- -- ----- -- ---- ------<br>--- ----- --- --- ------ -------- rate. --- ------ ----- --<br>----- ----- ---------- --- --- ------ ------ ---- -- ------<br>------- --- ------ ----- --- ---- ------- -- ---- --- --<br>------- ------,99030,99029.19999999925,98550.227,98566.29999999702,98566.895,99033.988,,28,rate.
screen,html.Screen,0_2_1_1_29,2021-12-02T15:22:41.194Z,,,,,,,,,,,,,,,,54,,,,,,,,,,,,,,979.1119999977673,,response,,,100,,,,,,Space,keypress(Space),,,,,-- --- ---- --- ------ ----- ------- ---- -- --- ------- --<br>------- ---------- ------ -- ----- -- ----- -- ---- ------<br>--- ----- --- --- ------ -------- ----- The ------ ----- --<br>----- ----- ---------- --- --- ------ ------ ---- -- ------<br>------- --- ------ ----- --- ---- ------- -- ---- --- --<br>------- ------,100013.89999999851,100013.09999999776,99017.315,99030.19999999925,99033.988,100017.381,,29,The
screen,html.Screen,0_2_1_1_30,2021-12-02T15:22:41.546Z,,,,,,,,,,,,,,,,54,,,,,,,,,,,,,,347.818999999261,,response,,,100,,,,,,Space,keypress(Space),,,,,-- --- ---- --- ------ ----- ------- ---- -- --- ------- --<br>------- ---------- ------ -- ----- -- ----- -- ---- ------<br>--- ----- --- --- ------ -------- ----- --- market ----- --<br>----- ----- ---------- --- --- ------ ------ ---- -- ------<br>------- --- ------ ----- --- ---- ------- -- ---- --- --<br>------- ------,100366,100365.19999999925,100000.711,100014.29999999702,100017.381,100367.556,,30,market
screen,html.Screen,0_2_1_1_31,2021-12-02T15:22:41.778Z,,,,,,,,,,,,,,,,54,,,,,,,,,,,,,,229.54399999776797,,response,,,100,,,,,,Space,keypress(Space),,,,,-- --- ---- --- ------ ----- ------- ---- -- --- ------- --<br>------- ---------- ------ -- ----- -- ----- -- ---- ------<br>--- ----- --- --- ------ -------- ----- --- ------ value --<br>----- ----- ---------- --- --- ------ ------ ---- -- ------<br>------- --- ------ ----- --- ---- ------- -- ---- --- --<br>------- ------,100597.89999999851,100597.09999999776,100350.885,100366.29999999702,100367.556,100600.922,,31,value
screen,html.Screen,0_2_1_1_32,2021-12-02T15:22:42.122Z,,,,,,,,,,,,,,,,54,,,,,,,,,,,,,,340.1779999977589,,response,,,100,,,,,,Space,keypress(Space),,,,,-- --- ---- --- ------ ----- ------- ---- -- --- ------- --<br>------- ---------- ------ -- ----- -- ----- -- ---- ------<br>--- ----- --- --- ------ -------- ----- --- ------ ----- of<br>----- ----- ---------- --- --- ------ ------ ---- -- ------<br>------- --- ------ ----- --- ---- ------- -- ---- --- --<br>------- ------,100941.89999999851,100941.09999999776,100584.252,100598.09999999776,100600.922,100950.93,,32,of
screen,html.Screen,0_2_1_1_33,2021-12-02T15:22:42.434Z,,,,,,,,,,,,,,,,54,,,,,,,,,,,,,,302.1699999977718,,response,,,100,,,,,,Space,keypress(Space),,,,,-- --- ---- --- ------ ----- ------- ---- -- --- ------- --<br>------- ---------- ------ -- ----- -- ----- -- ---- ------<br>--- ----- --- --- ------ -------- ----- --- ------ ----- --<br>these ----- ---------- --- --- ------ ------ ---- -- ------<br>------- --- ------ ----- --- ---- ------- -- ---- --- --<br>------- ------,101253.89999999851,101253.09999999776,100934.261,100942.19999999925,100950.93,101267.819,,33,these
screen,html.Screen,0_2_1_1_34,2021-12-02T15:22:42.650Z,,,,,,,,,,,,,,,,54,,,,,,,,,,,,,,201.28099999776168,,response,,,100,,,,,,Space,keypress(Space),,,,,-- --- ---- --- ------ ----- ------- ---- -- --- ------- --<br>------- ---------- ------ -- ----- -- ----- -- ---- ------<br>--- ----- --- --- ------ -------- ----- --- ------ ----- --<br>----- bonds ---------- --- --- ------ ------ ---- -- ------<br>------- --- ------ ----- --- ---- ------- -- ---- --- --<br>------- ------,101469.89999999851,101469.09999999776,101251.147,101254.09999999776,101267.819,101484.499,,34,bonds
screen,html.Screen,0_2_1_1_35,2021-12-02T15:22:42.905Z,,,,,,,,,,,,,,,,54,,,,,,,,,,,,,,240.60099999776867,,response,,,100,,,,,,Space,keypress(Space),,,,,"-- --- ---- --- ------ ----- ------- ---- -- --- ------- --<br>------- ---------- ------ -- ----- -- ----- -- ---- ------<br>--- ----- --- --- ------ -------- ----- --- ------ ----- --<br>----- ----- plummeted, --- --- ------ ------ ---- -- ------<br>------- --- ------ ----- --- ---- ------- -- ---- --- --<br>------- ------",101725.79999999702,101725.09999999776,101467.828,101470.09999999776,101484.499,101734.571,,35,"plummeted,"
screen,html.Screen,0_2_1_1_36,2021-12-02T15:22:43.417Z,,,,,,,,,,,,,,,,54,,,,,,,,,,,,,,502.4290000000037,,response,,,100,,,,,,Space,keypress(Space),,,,,-- --- ---- --- ------ ----- ------- ---- -- --- ------- --<br>------- ---------- ------ -- ----- -- ----- -- ---- ------<br>--- ----- --- --- ------ -------- ----- --- ------ ----- --<br>----- ----- ---------- and --- ------ ------ ---- -- ------<br>------- --- ------ ----- --- ---- ------- -- ---- --- --<br>------- ------,102237.89999999851,102237,101717.9,101726,101734.571,102251.266,,36,and
screen,html.Screen,0_2_1_1_37,2021-12-02T15:22:43.793Z,,,,,,,,,,,,,,,,54,,,,,,,,,,,,,,361.83399999776157,,response,,,100,,,,,,Space,keypress(Space),,,,,-- --- ---- --- ------ ----- ------- ---- -- --- ------- --<br>------- ---------- ------ -- ----- -- ----- -- ---- ------<br>--- ----- --- --- ------ -------- ----- --- ------ ----- --<br>----- ----- ---------- --- the ------ ------ ---- -- ------<br>------- --- ------ ----- --- ---- ------- -- ---- --- --<br>------- ------,102613.79999999702,102613.09999999776,102234.597,102238.09999999776,102251.266,102618.016,,37,the
screen,html.Screen,0_2_1_1_38,2021-12-02T15:22:44.049Z,,,,,,,,,,,,,,,,54,,,,,,,,,,,,,,250.98399999999674,,response,,,100,,,,,,Space,keypress(Space),,,,,-- --- ---- --- ------ ----- ------- ---- -- --- ------- --<br>------- ---------- ------ -- ----- -- ----- -- ---- ------<br>--- ----- --- --- ------ -------- ----- --- ------ ----- --<br>----- ----- ---------- --- --- market ------ ---- -- ------<br>------- --- ------ ----- --- ---- ------- -- ---- --- --<br>------- ------,102869.79999999702,102869,102601.347,102614,102618.016,102884.876,,38,market
screen,html.Screen,0_2_1_1_39,2021-12-02T15:22:44.401Z,,,,,,,,,,,,,,,,54,,,,,,,,,,,,,,336.02399999850604,,response,,,100,,,,,,Space,keypress(Space),,,,,-- --- ---- --- ------ ----- ------- ---- -- --- ------- --<br>------- ---------- ------ -- ----- -- ----- -- ---- ------<br>--- ----- --- --- ------ -------- ----- --- ------ ----- --<br>----- ----- ---------- --- --- ------ became ---- -- ------<br>------- --- ------ ----- --- ---- ------- -- ---- --- --<br>------- ------,103221.79999999702,103220.89999999851,102868.205,102870,102884.876,103234.915,,39,became
screen,html.Screen,0_2_1_1_40,2021-12-02T15:22:44.633Z,,,,,,,,,,,,,,,,54,,,,,,,,,,,,,,218.0850000000064,,response,,,100,,,,,,Space,keypress(Space),,,,,-- --- ---- --- ------ ----- ------- ---- -- --- ------- --<br>------- ---------- ------ -- ----- -- ----- -- ---- ------<br>--- ----- --- --- ------ -------- ----- --- ------ ----- --<br>----- ----- ---------- --- --- ------ ------ wary -- ------<br>------- --- ------ ----- --- ---- ------- -- ---- --- --<br>------- ------,103453.69999999925,103453,103218.245,103222,103234.915,103468.157,,40,wary
screen,html.Screen,0_2_1_1_41,2021-12-02T15:22:44.833Z,,,,,,,,,,,,,,,,54,,,,,,,,,,,,,,184.74299999850336,,response,,,100,,,,,,Space,keypress(Space),,,,,-- --- ---- --- ------ ----- ------- ---- -- --- ------- --<br>------- ---------- ------ -- ----- -- ----- -- ---- ------<br>--- ----- --- --- ------ -------- ----- --- ------ ----- --<br>----- ----- ---------- --- --- ------ ------ ---- of ------<br>------- --- ------ ----- --- ---- ------- -- ---- --- --<br>------- ------,103653.69999999925,103652.89999999851,103451.49,103454,103468.157,103668.427,,41,of
screen,html.Screen,0_2_1_1_42,2021-12-02T15:22:45.201Z,,,,,,,,,,,,,,,,54,,,,,,,,,,,,,,352.57300000000396,,response,,,100,,,,,,Space,keypress(Space),,,,,-- --- ---- --- ------ ----- ------- ---- -- --- ------- --<br>------- ---------- ------ -- ----- -- ----- -- ---- ------<br>--- ----- --- --- ------ -------- ----- --- ------ ----- --<br>----- ----- ---------- --- --- ------ ------ ---- -- French<br>------- --- ------ ----- --- ---- ------- -- ---- --- --<br>------- ------,104021.79999999702,104021,103651.755,103654,103668.427,104035.021,,42,French
screen,html.Screen,0_2_1_1_43,2021-12-02T15:22:45.569Z,,,,,,,,,,,,,,,,54,,,,,,,,,,,,,,353.8789999985165,,response,,,100,,,,,,Space,keypress(Space),,,,,-- --- ---- --- ------ ----- ------- ---- -- --- ------- --<br>------- ---------- ------ -- ----- -- ----- -- ---- ------<br>--- ----- --- --- ------ -------- ----- --- ------ ----- --<br>----- ----- ---------- --- --- ------ ------ ---- -- ------<br>credit. --- ------ ----- --- ---- ------- -- ---- --- --<br>------- ------,104389.69999999925,104388.89999999851,104018.353,104022,104035.021,104401.805,,43,credit.
screen,html.Screen,0_2_1_1_44,2021-12-02T15:22:46.466Z,,,,,,,,,,,,,,,,54,,,,,,,,,,,,,,883.5949999985169,,response,,,100,,,,,,Space,keypress(Space),,,,,-- --- ---- --- ------ ----- ------- ---- -- --- ------- --<br>------- ---------- ------ -- ----- -- ----- -- ---- ------<br>--- ----- --- --- ------ -------- ----- --- ------ ----- --<br>----- ----- ---------- --- --- ------ ------ ---- -- ------<br>------- The ------ ----- --- ---- ------- -- ---- --- --<br>------- ------,105286.19999999925,105285.39999999851,104385.136,104389.89999999851,104401.805,105302.24,,44,The
screen,html.Screen,0_2_1_1_45,2021-12-02T15:22:46.825Z,,,,,,,,,,,,,,,,54,,,,,,,,,,,,,,342.65999999850465,,response,,,100,,,,,,Space,keypress(Space),,,,,-- --- ---- --- ------ ----- ------- ---- -- --- ------- --<br>------- ---------- ------ -- ----- -- ----- -- ---- ------<br>--- ----- --- --- ------ -------- ----- --- ------ ----- --<br>----- ----- ---------- --- --- ------ ------ ---- -- ------<br>------- --- French ----- --- ---- ------- -- ---- --- --<br>------- ------,105645.59999999776,105644.89999999851,105285.568,105286.39999999851,105302.24,105652.251,,45,French
screen,html.Screen,0_2_1_1_46,2021-12-02T15:22:47.057Z,,,,,,,,,,,,,,,,54,,,,,,,,,,,,,,224.54899999701593,,response,,,100,,,,,,Space,keypress(Space),,,,,-- --- ---- --- ------ ----- ------- ---- -- --- ------- --<br>------- ---------- ------ -- ----- -- ----- -- ---- ------<br>--- ----- --- --- ------ -------- ----- --- ------ ----- --<br>----- ----- ---------- --- --- ------ ------ ---- -- ------<br>------- --- ------ state --- ---- ------- -- ---- --- --<br>------- ------,105877.59999999776,105876.79999999702,105635.58,105645.89999999851,105652.251,105885.624,,46,state
screen,html.Screen,0_2_1_1_47,2021-12-02T15:22:47.473Z,,,,,,,,,,,,,,,,54,,,,,,,,,,,,,,407.1759999970236,,response,,,100,,,,,,Space,keypress(Space),,,,,-- --- ---- --- ------ ----- ------- ---- -- --- ------- --<br>------- ---------- ------ -- ----- -- ----- -- ---- ------<br>--- ----- --- --- ------ -------- ----- --- ------ ----- --<br>----- ----- ---------- --- --- ------ ------ ---- -- ------<br>------- --- ------ ----- was ---- ------- -- ---- --- --<br>------- ------,106293.59999999776,106292.79999999702,105868.954,105877.89999999851,105885.624,106302.367,,47,was
screen,html.Screen,0_2_1_1_48,2021-12-02T15:22:47.705Z,,,,,,,,,,,,,,,,54,,,,,,,,,,,,,,222.4329999970214,,response,,,100,,,,,,Space,keypress(Space),,,,,-- --- ---- --- ------ ----- ------- ---- -- --- ------- --<br>------- ---------- ------ -- ----- -- ----- -- ---- ------<br>--- ----- --- --- ------ -------- ----- --- ------ ----- --<br>----- ----- ---------- --- --- ------ ------ ---- -- ------<br>------- --- ------ ----- --- left ------- -- ---- --- --<br>------- ------,106525.5,106524.79999999702,106285.697,106293.79999999702,106302.367,106535.71,,48,left
screen,html.Screen,0_2_1_1_49,2021-12-02T15:22:47.945Z,,,,,,,,,,,,,,,,54,,,,,,,,,,,,,,229.08999999701336,,response,,,100,,,,,,Space,keypress(Space),,,,,-- --- ---- --- ------ ----- ------- ---- -- --- ------- --<br>------- ---------- ------ -- ----- -- ----- -- ---- ------<br>--- ----- --- --- ------ -------- ----- --- ------ ----- --<br>----- ----- ---------- --- --- ------ ------ ---- -- ------<br>------- --- ------ ----- --- ---- without -- ---- --- --<br>------- ------,106765.5,106764.79999999702,106519.041,106525.79999999702,106535.71,106769.184,,49,without
screen,html.Screen,0_2_1_1_50,2021-12-02T15:22:48.401Z,,,,,,,,,,,,,,,,54,,,,,,,,,,,,,,451.61599999702594,,response,,,100,,,,,,Space,keypress(Space),,,,,-- --- ---- --- ------ ----- ------- ---- -- --- ------- --<br>------- ---------- ------ -- ----- -- ----- -- ---- ------<br>--- ----- --- --- ------ -------- ----- --- ------ ----- --<br>----- ----- ---------- --- --- ------ ------ ---- -- ------<br>------- --- ------ ----- --- ---- ------- an ---- --- --<br>------- ------,107221.5,107220.79999999702,106752.513,106765.79999999702,106769.184,107235.992,,50,an
screen,html.Screen,0_2_1_1_51,2021-12-02T15:22:48.961Z,,,,,,,,,,,,,,,,54,,,,,,,,,,,,,,544.8079999970214,,response,,,100,,,,,,Space,keypress(Space),,,,,-- --- ---- --- ------ ----- ------- ---- -- --- ------- --<br>------- ---------- ------ -- ----- -- ----- -- ---- ------<br>--- ----- --- --- ------ -------- ----- --- ------ ----- --<br>----- ----- ---------- --- --- ------ ------ ---- -- ------<br>------- --- ------ ----- --- ---- ------- -- easy --- --<br>------- ------,107781.5,107780.79999999702,107219.321,107221.79999999702,107235.992,107786.09,,51,easy
screen,html.Screen,0_2_1_1_52,2021-12-02T15:22:49.193Z,,,,,,,,,,,,,,,,54,,,,,,,,,,,,,,226.60999999925843,,response,,,100,,,,,,Space,keypress(Space),,,,,-- --- ---- --- ------ ----- ------- ---- -- --- ------- --<br>------- ---------- ------ -- ----- -- ----- -- ---- ------<br>--- ----- --- --- ------ -------- ----- --- ------ ----- --<br>----- ----- ---------- --- --- ------ ------ ---- -- ------<br>------- --- ------ ----- --- ---- ------- -- ---- way --<br>------- ------,108013.5,108012.69999999925,107769.42,107781.69999999925,107786.09,108019.472,,52,way
screen,html.Screen,0_2_1_1_53,2021-12-02T15:22:49.657Z,,,,,,,,,,,,,,,,54,,,,,,,,,,,,,,457.12799999777053,,response,,,100,,,,,,Space,keypress(Space),,,,,-- --- ---- --- ------ ----- ------- ---- -- --- ------- --<br>------- ---------- ------ -- ----- -- ----- -- ---- ------<br>--- ----- --- --- ------ -------- ----- --- ------ ----- --<br>----- ----- ---------- --- --- ------ ------ ---- -- ------<br>------- --- ------ ----- --- ---- ------- -- ---- --- of<br>------- ------,108477.39999999851,108476.59999999776,108002.802,108013.79999999702,108019.472,108486.178,,53,of
screen,html.Screen,0_2_1_1_54,2021-12-02T15:22:49.945Z,,,,,,,,,,,,,,,,54,,,,,,,,,,,,,,278.42199999776494,,response,,,100,,,,,,Space,keypress(Space),,,,,-- --- ---- --- ------ ----- ------- ---- -- --- ------- --<br>------- ---------- ------ -- ----- -- ----- -- ---- ------<br>--- ----- --- --- ------ -------- ----- --- ------ ----- --<br>----- ----- ---------- --- --- ------ ------ ---- -- ------<br>------- --- ------ ----- --- ---- ------- -- ---- --- --<br>raising ------,108765.39999999851,108764.59999999776,108469.509,108477.69999999925,108486.178,108769.781,,54,raising
screen,html.Screen,0_2_1_1_55,2021-12-02T15:22:50.473Z,,,,,,,,,,,,,,,,54,,,,,,,,,,,,,,522.8189999977621,,response,,,100,,,,,,Space,keypress(Space),,,,,-- --- ---- --- ------ ----- ------- ---- -- --- ------- --<br>------- ---------- ------ -- ----- -- ----- -- ---- ------<br>--- ----- --- --- ------ -------- ----- --- ------ ----- --<br>----- ----- ---------- --- --- ------ ------ ---- -- ------<br>------- --- ------ ----- --- ---- ------- -- ---- --- --<br>------- money.,109293.59999999776,109292.59999999776,108753.108,108765.59999999776,108769.781,109303.191,,55,money.
Item 100,flow.Loop,0_2_1_1,2021-12-02T15:22:50.474Z,,,,,,,,,,,,,,,,,,,,,,,,,,,,,,25329.45399999777,,completion,,,,A,,,,,,,,,,silence,,109294,109292.59999999776,83946.476,83950.29999999702,83963.146,109303.191,,,
Question 1,html.Screen,0_2_1_2,2021-12-02T15:22:52.735Z,,,,,,,,,,,,,,,,,,,,,,,,,,,true,TRUE,,2251.5089999992488,,response,,,100,A,,,,,TRUE,click #choice-1,,,,silence,,111555.79999999702,111554.69999999925,109286.52,109294.09999999776,109303.191,111570.36,,,
Question 2,html.Screen,0_2_1_3,2021-12-02T15:22:52.961Z,,,,,,,,,,,,,,,,,,,,,,,,,,,false,FALSE,,210.13999999999942,,response,,,100,A,,,,,TRUE,click #choice-1,,,,silence,,111781.59999999776,111780.5,111553.69,111556.09999999776,111570.36,111787.13,,,
Item 100,flow.Sequence,0_2_1,2021-12-02T15:22:52.962Z,,,,,,,,,,,,,,,,,,,,,,,,,,,,,,37819.53,,completion,,,,,,,,,,,,,,,,111782,111780.5,73944.281,73934.79999999702,73960.97,111787.13,,,
End of Practice,html.Page,0_2_2,2021-12-02T15:23:01.127Z,,,,,,,,,,,,,,,,,,,,,,,,,,,,,,8159.769999998505,,form submission,,,,,,,,,,,,,,,,119947.39999999851,119946.89999999851,111770.458,111782.19999999925,111787.13,119953.957,,,
Practice,flow.Sequence,0_2,2021-12-02T15:23:01.128Z,,,,,,,,,,,,,,,,,,,,,,,,,,,,,,82466.61599999851,,completion,,,,,,,,,,,,,,,,119947.89999999851,119946.89999999851,37463.653,37481,37480.284,119953.957,,,
Trap_instruction,html.Page,0_3_0,2021-12-02T15:23:04.732Z,,,,,,,,,,,,,,,,,,,,,,,,,,,,,,3593.74299999926,,form submission,,,,,,,,,,,,,,,,123548.19999999925,123547.69999999925,119937.29,119948.19999999925,119953.957,123573.649,,,
trap_trial,html.Screen,0_3_1,2021-12-02T15:23:08.921Z,,,,,,,,,,,,,,,,,,,,,,,,,,,true,1,,4162.750999998505,,response,,,,,,,,,1,click #choice-1,,,,,,127737.69999999925,127736.39999999851,123540.305,123548.39999999851,123573.649,127740.951,,,
end of trap trial,html.Page,0_3_2,2021-12-02T15:23:12.154Z,,,,,,,,,,,,,,,,,,,,,,,,,,,,,,3229.348999997019,,form submission,,,,,,,,,,,,,,,,130970.79999999702,130970.29999999702,127724.281,127737.89999999851,127740.951,130975.168,,,
Trap 1,flow.Sequence,0_3,2021-12-02T15:23:12.155Z,,,,,,,,,,,,,,,,,,,,,,,,,,,,,,11016.342999997025,,completion,,,,,,,,,,,,,,,,130971.29999999702,130970.29999999702,119937.29,119948.09999999776,119953.957,130975.168,,,
Standby,html.Page,0_4_0,2021-12-02T15:23:20.147Z,,,,,,,,,,,,,,,,,,,,,,,,,,,,,,8002.326000000001,,timeout,,,,,,,,,,,,,,,,138963,138960.823,130958.498,130971.59999999776,130975.168,138977.494,,,
Holding screen,html.Screen,0_4_1_0_0,2021-12-02T15:23:27.147Z,,,,,,,,,,,,,,,,,,,,,,,,,,,,,,7001.665000000008,,timeout,,,,,,,,,,,,,,,,145963.79999999702,145962.489,138960.823,138963.3999999985,138977.494,145979.159,,,
screen,html.Screen,0_4_1_0_1_0,2021-12-02T15:23:28.588Z,,,,,,,,,,,,,,,,48,,,,,,,,,,,,,,1423.9409999977506,,response,,,10,A,,,,,Space,keypress(Space),,,,silence,As -- --- ------ ------- --------- ----------- --------<br>--------- -------- --- ------- -- ------- ---- -- ------<br>-- --- -------- -------- ---------- ---- ---- ---- ------<br>-- --------- -- ---- -- --- -- --- ------- -- - -----<br>---------- -- -- -- ---- ----- -- ------ -- --- ------<br>-------,147404.09999999776,147403.09999999776,145962.489,145964.29999999702,145979.159,147412.896,,0,As
screen,html.Screen,0_4_1_0_1_1,2021-12-02T15:23:28.939Z,,,,,,,,,,,,,,,,48,,,,,,,,,,,,,,341.50399999850197,,response,,,10,A,,,,,Space,keypress(Space),,,,silence,-- in --- ------ ------- --------- ----------- --------<br>--------- -------- --- ------- -- ------- ---- -- ------<br>-- --- -------- -------- ---------- ---- ---- ---- ------<br>-- --------- -- ---- -- --- -- --- ------- -- - -----<br>---------- -- -- -- ---- ----- -- ------ -- --- ------<br>-------,147755.3999999985,147754.3999999985,147396.226,147404.5,147412.896,147762.893,,1,in
screen,html.Screen,0_4_1_0_1_2,2021-12-02T15:23:29.467Z,,,,,,,,,,,,,,,,48,,,,,,,,,,,,,,519.5069999984989,,response,,,10,A,,,,,Space,keypress(Space),,,,silence,-- -- the ------ ------- --------- ----------- --------<br>--------- -------- --- ------- -- ------- ---- -- ------<br>-- --- -------- -------- ---------- ---- ---- ---- ------<br>-- --------- -- ---- -- --- -- --- ------- -- - -----<br>---------- -- -- -- ---- ----- -- ------ -- --- ------<br>-------,148283.29999999702,148282.3999999985,147746.224,147755.59999999776,147762.893,148296.547,,2,the
screen,html.Screen,0_4_1_0_1_3,2021-12-02T15:23:30.019Z,,,,,,,,,,,,,,,,48,,,,,,,,,,,,,,537.9530000000086,,response,,,10,A,,,,,Space,keypress(Space),,,,silence,-- -- --- United ------- --------- ----------- --------<br>--------- -------- --- ------- -- ------- ---- -- ------<br>-- --- -------- -------- ---------- ---- ---- ---- ------<br>-- --------- -- ---- -- --- -- --- ------- -- - -----<br>---------- -- -- -- ---- ----- -- ------ -- --- ------<br>-------,148835.29999999702,148834.5,148279.876,148283.59999999776,148296.547,148846.651,,3,United
screen,html.Screen,0_4_1_0_1_4,2021-12-02T15:23:30.395Z,,,,,,,,,,,,,,,,48,,,,,,,,,,,,,,363.7489999984973,,response,,,10,A,,,,,Space,keypress(Space),,,,silence,"-- -- --- ------ States, --------- ----------- --------<br>--------- -------- --- ------- -- ------- ---- -- ------<br>-- --- -------- -------- ---------- ---- ---- ---- ------<br>-- --------- -- ---- -- --- -- --- ------- -- - -----<br>---------- -- -- -- ---- ----- -- ------ -- --- ------<br>-------",149211.19999999925,149210.3999999985,148829.981,148835.5,148846.651,149213.404,,4,"States,"
screen,html.Screen,0_4_1_0_1_5,2021-12-02T15:23:31.163Z,,,,,,,,,,,,,,,,48,,,,,,,,,,,,,,764.9959999985003,,response,,,10,A,,,,,Space,keypress(Space),,,,silence,-- -- --- ------ ------- Colombian ----------- --------<br>--------- -------- --- ------- -- ------- ---- -- ------<br>-- --- -------- -------- ---------- ---- ---- ---- ------<br>-- --------- -- ---- -- --- -- --- ------- -- - -----<br>---------- -- -- -- ---- ----- -- ------ -- --- ------<br>-------,149979.29999999702,149978.3999999985,149196.734,149211.5,149213.404,149980.318,,5,Colombian
screen,html.Screen,0_4_1_0_1_6,2021-12-02T15:23:31.763Z,,,,,,,,,,,,,,,,48,,,,,,,,,,,,,,598.0819999985106,,response,,,10,A,,,,,Space,keypress(Space),,,,silence,-- -- --- ------ ------- --------- legislation --------<br>--------- -------- --- ------- -- ------- ---- -- ------<br>-- --- -------- -------- ---------- ---- ---- ---- ------<br>-- --------- -- ---- -- --- -- --- ------- -- - -----<br>---------- -- -- -- ---- ----- -- ------ -- --- ------<br>-------,150579.19999999925,150578.3999999985,149963.647,149979.5,149980.318,150580.41,,6,legislation
screen,html.Screen,0_4_1_0_1_7,2021-12-02T15:23:32.283Z,,,,,,,,,,,,,,,,48,,,,,,,,,,,,,,517.8899999970163,,response,,,10,A,,,,,Space,keypress(Space),,,,silence,-- -- --- ------ ------- --------- ----------- requires<br>--------- -------- --- ------- -- ------- ---- -- ------<br>-- --- -------- -------- ---------- ---- ---- ---- ------<br>-- --------- -- ---- -- --- -- --- ------- -- - -----<br>---------- -- -- -- ---- ----- -- ------ -- --- ------<br>-------,151099.09999999776,151098.29999999702,150563.74,150579.5,150580.41,151113.895,,7,requires
screen,html.Screen,0_4_1_0_1_8,2021-12-02T15:23:32.963Z,,,,,,,,,,,,,,,,48,,,,,,,,,,,,,,664.5049999985204,,response,,,10,A,,,,,Space,keypress(Space),,,,silence,-- -- --- ------ ------- --------- ----------- --------<br>travelers -------- --- ------- -- ------- ---- -- ------<br>-- --- -------- -------- ---------- ---- ---- ---- ------<br>-- --------- -- ---- -- --- -- --- ------- -- - -----<br>---------- -- -- -- ---- ----- -- ------ -- --- ------<br>-------,151779.19999999925,151778.3999999985,151097.225,151099.3999999985,151113.895,151780.8,,8,travelers
screen,html.Screen,0_4_1_0_1_9,2021-12-02T15:23:33.459Z,,,,,,,,,,,,,,,,48,,,,,,,,,,,,,,493.3999999992666,,response,,,10,A,,,,,Space,keypress(Space),,,,silence,-- -- --- ------ ------- --------- ----------- --------<br>--------- entering --- ------- -- ------- ---- -- ------<br>-- --- -------- -------- ---------- ---- ---- ---- ------<br>-- --------- -- ---- -- --- -- --- ------- -- - -----<br>---------- -- -- -- ---- ----- -- ------ -- --- ------<br>-------,152275,152274.19999999925,151764.129,151779.3999999985,151780.8,152280.861,,9,entering
screen,html.Screen,0_4_1_0_1_10,2021-12-02T15:23:34.163Z,,,,,,,,,,,,,,,,48,,,,,,,,,,,,,,697.3389999992505,,response,,,10,A,,,,,Space,keypress(Space),,,,silence,-- -- --- ------ ------- --------- ----------- --------<br>--------- -------- the ------- -- ------- ---- -- ------<br>-- --- -------- -------- ---------- ---- ---- ---- ------<br>-- --------- -- ---- -- --- -- --- ------- -- - -----<br>---------- -- -- -- ---- ----- -- ------ -- --- ------<br>-------,152979,152978.19999999925,152264.191,152275.29999999702,152280.861,152980.916,,10,the
screen,html.Screen,0_4_1_0_1_11,2021-12-02T15:23:35.066Z,,,,,,,,,,,,,,,,48,,,,,,,,,,,,,,901.0840000000026,,response,,,10,A,,,,,Space,keypress(Space),,,,silence,-- -- --- ------ ------- --------- ----------- --------<br>--------- -------- --- country -- ------- ---- -- ------<br>-- --- -------- -------- ---------- ---- ---- ---- ------<br>-- --------- -- ---- -- --- -- --- ------- -- - -----<br>---------- -- -- -- ---- ----- -- ------ -- --- ------<br>-------,153882.3999999985,153882,152964.247,152979.19999999925,152980.916,153898.097,,11,country
screen,html.Screen,0_4_1_0_1_12,2021-12-02T15:23:35.467Z,,,,,,,,,,,,,,,,48,,,,,,,,,,,,,,384.1029999992461,,response,,,10,A,,,,,Space,keypress(Space),,,,silence,-- -- --- ------ ------- --------- ----------- --------<br>--------- -------- --- ------- to ------- ---- -- ------<br>-- --- -------- -------- ---------- ---- ---- ---- ------<br>-- --------- -- ---- -- --- -- --- ------- -- - -----<br>---------- -- -- -- ---- ----- -- ------ -- --- ------<br>-------,154283,154282.19999999925,153881.425,153882.59999999776,153898.097,154298.035,,12,to
screen,html.Screen,0_4_1_0_1_13,2021-12-02T15:23:35.915Z,,,,,,,,,,,,,,,,48,,,,,,,,,,,,,,432.06499999776133,,response,,,10,A,,,,,Space,keypress(Space),,,,silence,-- -- --- ------ ------- --------- ----------- --------<br>--------- -------- --- ------- -- declare ---- -- ------<br>-- --- -------- -------- ---------- ---- ---- ---- ------<br>-- --------- -- ---- -- --- -- --- ------- -- - -----<br>---------- -- -- -- ---- ----- -- ------ -- --- ------<br>-------,154731,154730.09999999776,154281.365,154283.19999999925,154298.035,154748.172,,13,declare
screen,html.Screen,0_4_1_0_1_14,2021-12-02T15:23:36.578Z,,,,,,,,,,,,,,,,48,,,,,,,,,,,,,,645.9279999977734,,response,,,10,A,,,,,Space,keypress(Space),,,,silence,-- -- --- ------ ------- --------- ----------- --------<br>--------- -------- --- ------- -- ------- cash -- ------<br>-- --- -------- -------- ---------- ---- ---- ---- ------<br>-- --------- -- ---- -- --- -- --- ------- -- - -----<br>---------- -- -- -- ---- ----- -- ------ -- --- ------<br>-------,155394.8999999985,155394.09999999776,154731.502,154731.29999999702,154748.172,155398.331,,14,cash
screen,html.Screen,0_4_1_0_1_15,2021-12-02T15:23:36.970Z,,,,,,,,,,,,,,,,48,,,,,,,,,,,,,,387.76899999775924,,response,,,10,A,,,,,Space,keypress(Space),,,,silence,-- -- --- ------ ------- --------- ----------- --------<br>--------- -------- --- ------- -- ------- ---- in ------<br>-- --- -------- -------- ---------- ---- ---- ---- ------<br>-- --------- -- ---- -- --- -- --- ------- -- - -----<br>---------- -- -- -- ---- ----- -- ------ -- --- ------<br>-------,155786.8999999985,155786.09999999776,155381.661,155395.19999999925,155398.331,155798.488,,15,in
screen,html.Screen,0_4_1_0_1_16,2021-12-02T15:23:37.378Z,,,,,,,,,,,,,,,,48,,,,,,,,,,,,,,395.5119999999879,,response,,,10,A,,,,,Space,keypress(Space),,,,silence,-- -- --- ------ ------- --------- ----------- --------<br>--------- -------- --- ------- -- ------- ---- -- excess<br>-- --- -------- -------- ---------- ---- ---- ---- ------<br>-- --------- -- ---- -- --- -- --- ------- -- - -----<br>---------- -- -- -- ---- ----- -- ------ -- --- ------<br>-------,156194.79999999702,156194,155781.817,155787.09999999776,155798.488,156198.555,,16,excess
screen,html.Screen,0_4_1_0_1_17,2021-12-02T15:23:38.066Z,,,,,,,,,,,,,,,,48,,,,,,,,,,,,,,683.5449999977718,,response,,,10,A,,,,,Space,keypress(Space),,,,silence,-- -- --- ------ ------- --------- ----------- --------<br>--------- -------- --- ------- -- ------- ---- -- ------<br>of --- -------- -------- ---------- ---- ---- ---- ------<br>-- --------- -- ---- -- --- -- --- ------- -- - -----<br>---------- -- -- -- ---- ----- -- ------ -- --- ------<br>-------,156882.8999999985,156882.09999999776,156181.885,156195.09999999776,156198.555,156898.527,,17,of
screen,html.Screen,0_4_1_0_1_18,2021-12-02T15:23:38.554Z,,,,,,,,,,,,,,,,48,,,,,,,,,,,,,,471.47299999999814,,response,,,10,A,,,,,Space,keypress(Space),,,,silence,-- -- --- ------ ------- --------- ----------- --------<br>--------- -------- --- ------- -- ------- ---- -- ------<br>-- ten -------- -------- ---------- ---- ---- ---- ------<br>-- --------- -- ---- -- --- -- --- ------- -- - -----<br>---------- -- -- -- ---- ----- -- ------ -- --- ------<br>-------,157370.79999999702,157370,156881.859,156883.09999999776,156898.527,157382.265,,18,ten
screen,html.Screen,0_4_1_0_1_19,2021-12-02T15:23:38.931Z,,,,,,,,,,,,,,,,48,,,,,,,,,,,,,,363.934999999241,,response,,,10,A,,,,,Space,keypress(Space),,,,silence,-- -- --- ------ ------- --------- ----------- --------<br>--------- -------- --- ------- -- ------- ---- -- ------<br>-- --- thousand -------- ---------- ---- ---- ---- ------<br>-- --------- -- ---- -- --- -- --- ------- -- - -----<br>---------- -- -- -- ---- ----- -- ------ -- --- ------<br>-------,157747.09999999776,157746.19999999925,157365.593,157371.09999999776,157382.265,157748.976,,19,thousand
screen,html.Screen,0_4_1_0_1_20,2021-12-02T15:23:40.106Z,,,,,,,,,,,,,,,,48,,,,,,,,,,,,,,1172.9239999985148,,response,,,10,A,,,,,Space,keypress(Space),,,,silence,-- -- --- ------ ------- --------- ----------- --------<br>--------- -------- --- ------- -- ------- ---- -- ------<br>-- --- -------- dollars. ---------- ---- ---- ---- ------<br>-- --------- -- ---- -- --- -- --- ------- -- - -----<br>---------- -- -- -- ---- ----- -- ------ -- --- ------<br>-------,158922.69999999925,158921.8999999985,157732.305,157747.29999999702,157748.976,158932.543,,20,dollars.
screen,html.Screen,0_4_1_0_1_21,2021-12-02T15:23:41.002Z,,,,,,,,,,,,,,,,48,,,,,,,,,,,,,,885.2569999970146,,response,,,10,A,,,,,Space,keypress(Space),,,,silence,-- -- --- ------ ------- --------- ----------- --------<br>--------- -------- --- ------- -- ------- ---- -- ------<br>-- --- -------- -------- Concealing ---- ---- ---- ------<br>-- --------- -- ---- -- --- -- --- ------- -- - -----<br>---------- -- -- -- ---- ----- -- ------ -- --- ------<br>-------,159818.59999999776,159817.79999999702,158915.873,158922.8999999985,158932.543,159832.729,,21,Concealing
screen,html.Screen,0_4_1_0_1_22,2021-12-02T15:23:41.394Z,,,,,,,,,,,,,,,,48,,,,,,,,,,,,,,377.0709999970277,,response,,,10,A,,,,,Space,keypress(Space),,,,silence,-- -- --- ------ ------- --------- ----------- --------<br>--------- -------- --- ------- -- ------- ---- -- ------<br>-- --- -------- -------- ---------- more ---- ---- ------<br>-- --------- -- ---- -- --- -- --- ------- -- - -----<br>---------- -- -- -- ---- ----- -- ------ -- --- ------<br>-------,160210.59999999776,160209.79999999702,159816.059,159818.79999999702,159832.729,160227.44,,22,more
screen,html.Screen,0_4_1_0_1_23,2021-12-02T15:23:41.674Z,,,,,,,,,,,,,,,,48,,,,,,,,,,,,,,262.45999999850756,,response,,,10,A,,,,,Space,keypress(Space),,,,silence,-- -- --- ------ ------- --------- ----------- --------<br>--------- -------- --- ------- -- ------- ---- -- ------<br>-- --- -------- -------- ---------- ---- than ---- ------<br>-- --------- -- ---- -- --- -- --- ------- -- - -----<br>---------- -- -- -- ---- ----- -- ------ -- --- ------<br>-------,160490.69999999925,160489.8999999985,160211.002,160210.79999999702,160227.44,160503.989,,23,than
screen,html.Screen,0_4_1_0_1_24,2021-12-02T15:23:41.882Z,,,,,,,,,,,,,,,,48,,,,,,,,,,,,,,193.71099999925354,,response,,,10,A,,,,,Space,keypress(Space),,,,silence,-- -- --- ------ ------- --------- ----------- --------<br>--------- -------- --- ------- -- ------- ---- -- ------<br>-- --- -------- -------- ---------- ---- ---- that ------<br>-- --------- -- ---- -- --- -- --- ------- -- - -----<br>---------- -- -- -- ---- ----- -- ------ -- --- ------<br>-------,160698.5,160697.69999999925,160487.627,160490.8999999985,160503.989,160699.702,,24,that
screen,html.Screen,0_4_1_0_1_25,2021-12-02T15:23:42.266Z,,,,,,,,,,,,,,,,48,,,,,,,,,,,,,,382.09799999702955,,response,,,10,A,,,,,Space,keypress(Space),,,,silence,-- -- --- ------ ------- --------- ----------- --------<br>--------- -------- --- ------- -- ------- ---- -- ------<br>-- --- -------- -------- ---------- ---- ---- ---- amount<br>-- --------- -- ---- -- --- -- --- ------- -- - -----<br>---------- -- -- -- ---- ----- -- ------ -- --- ------<br>-------,161082.5,161081.79999999702,160683.032,160698.69999999925,160699.702,161099.761,,25,amount
screen,html.Screen,0_4_1_0_1_26,2021-12-02T15:23:42.634Z,,,,,,,,,,,,,,,,48,,,,,,,,,,,,,,349.93899999925634,,response,,,10,A,,,,,Space,keypress(Space),,,,silence,-- -- --- ------ ------- --------- ----------- --------<br>--------- -------- --- ------- -- ------- ---- -- ------<br>-- --- -------- -------- ---------- ---- ---- ---- ------<br>to --------- -- ---- -- --- -- --- ------- -- - -----<br>---------- -- -- -- ---- ----- -- ------ -- --- ------<br>-------,161450.59999999776,161449.69999999925,161083.092,161082.8999999985,161099.761,161466.608,,26,to
screen,html.Screen,0_4_1_0_1_27,2021-12-02T15:23:42.994Z,,,,,,,,,,,,,,,,48,,,,,,,,,,,,,,343.0919999992475,,response,,,10,A,,,,,Space,keypress(Space),,,,silence,-- -- --- ------ ------- --------- ----------- --------<br>--------- -------- --- ------- -- ------- ---- -- ------<br>-- --- -------- -------- ---------- ---- ---- ---- ------<br>-- transport -- ---- -- --- -- --- ------- -- - -----<br>---------- -- -- -- ---- ----- -- ------ -- --- ------<br>-------,161810.5,161809.69999999925,161449.937,161450.79999999702,161466.608,161816.693,,27,transport
screen,html.Screen,0_4_1_0_1_28,2021-12-02T15:23:43.338Z,,,,,,,,,,,,,,,,48,,,,,,,,,,,,,,337.00699999925564,,response,,,10,A,,,,,Space,keypress(Space),,,,silence,-- -- --- ------ ------- --------- ----------- --------<br>--------- -------- --- ------- -- ------- ---- -- ------<br>-- --- -------- -------- ---------- ---- ---- ---- ------<br>-- --------- it ---- -- --- -- --- ------- -- - -----<br>---------- -- -- -- ---- ----- -- ------ -- --- ------<br>-------,162154.3999999985,162153.69999999925,161800.022,161810.69999999925,161816.693,162166.744,,28,it
screen,html.Screen,0_4_1_0_1_29,2021-12-02T15:23:43.562Z,,,,,,,,,,,,,,,,48,,,,,,,,,,,,,,210.9559999992489,,response,,,10,A,,,,,Space,keypress(Space),,,,silence,-- -- --- ------ ------- --------- ----------- --------<br>--------- -------- --- ------- -- ------- ---- -- ------<br>-- --- -------- -------- ---------- ---- ---- ---- ------<br>-- --------- -- into -- --- -- --- ------- -- - -----<br>---------- -- -- -- ---- ----- -- ------ -- --- ------<br>-------,162378.3999999985,162377.69999999925,162150.074,162154.69999999925,162166.744,162383.469,,29,into
screen,html.Screen,0_4_1_0_1_30,2021-12-02T15:23:43.978Z,,,,,,,,,,,,,,,,48,,,,,,,,,,,,,,410.23099999924307,,response,,,10,A,,,,,Space,keypress(Space),,,,silence,-- -- --- ------ ------- --------- ----------- --------<br>--------- -------- --- ------- -- ------- ---- -- ------<br>-- --- -------- -------- ---------- ---- ---- ---- ------<br>-- --------- -- ---- or --- -- --- ------- -- - -----<br>---------- -- -- -- ---- ----- -- ------ -- --- ------<br>-------,162794.5,162793.69999999925,162366.799,162378.69999999925,162383.469,162800.284,,30,or
screen,html.Screen,0_4_1_0_1_31,2021-12-02T15:23:44.194Z,,,,,,,,,,,,,,,,48,,,,,,,,,,,,,,209.31599999775062,,response,,,10,A,,,,,Space,keypress(Space),,,,silence,-- -- --- ------ ------- --------- ----------- --------<br>--------- -------- --- ------- -- ------- ---- -- ------<br>-- --- -------- -------- ---------- ---- ---- ---- ------<br>-- --------- -- ---- -- out -- --- ------- -- - -----<br>---------- -- -- -- ---- ----- -- ------ -- --- ------<br>-------,163010.3999999985,163009.59999999776,162783.613,162794.69999999925,162800.284,163017.019,,31,out
screen,html.Screen,0_4_1_0_1_32,2021-12-02T15:23:44.394Z,,,,,,,,,,,,,,,,48,,,,,,,,,,,,,,192.6809999992547,,response,,,10,A,,,,,Space,keypress(Space),,,,silence,-- -- --- ------ ------- --------- ----------- --------<br>--------- -------- --- ------- -- ------- ---- -- ------<br>-- --- -------- -------- ---------- ---- ---- ---- ------<br>-- --------- -- ---- -- --- of --- ------- -- - -----<br>---------- -- -- -- ---- ----- -- ------ -- --- ------<br>-------,163210.5,163209.69999999925,163000.348,163010.69999999925,163017.019,163217.024,,32,of
screen,html.Screen,0_4_1_0_1_33,2021-12-02T15:23:44.618Z,,,,,,,,,,,,,,,,48,,,,,,,,,,,,,,216.57599999775994,,response,,,10,A,,,,,Space,keypress(Space),,,,silence,-- -- --- ------ ------- --------- ----------- --------<br>--------- -------- --- ------- -- ------- ---- -- ------<br>-- --- -------- -------- ---------- ---- ---- ---- ------<br>-- --------- -- ---- -- --- -- the ------- -- - -----<br>---------- -- -- -- ---- ----- -- ------ -- --- ------<br>-------,163434.3999999985,163433.59999999776,163200.354,163210.69999999925,163217.024,163450.449,,33,the
screen,html.Screen,0_4_1_0_1_34,2021-12-02T15:23:44.826Z,,,,,,,,,,,,,,,,48,,,,,,,,,,,,,,191.15099999777158,,response,,,10,A,,,,,Space,keypress(Space),,,,silence,-- -- --- ------ ------- --------- ----------- --------<br>--------- -------- --- ------- -- ------- ---- -- ------<br>-- --- -------- -------- ---------- ---- ---- ---- ------<br>-- --------- -- ---- -- --- -- --- country -- - -----<br>---------- -- -- -- ---- ----- -- ------ -- --- ------<br>-------,163642.3999999985,163641.59999999776,163433.778,163434.59999999776,163450.449,163650.475,,34,country
screen,html.Screen,0_4_1_0_1_35,2021-12-02T15:23:45.098Z,,,,,,,,,,,,,,,,48,,,,,,,,,,,,,,263.124999997759,,response,,,10,A,,,,,Space,keypress(Space),,,,silence,-- -- --- ------ ------- --------- ----------- --------<br>--------- -------- --- ------- -- ------- ---- -- ------<br>-- --- -------- -------- ---------- ---- ---- ---- ------<br>-- --------- -- ---- -- --- -- --- ------- is - -----<br>---------- -- -- -- ---- ----- -- ------ -- --- ------<br>-------,163914.3999999985,163913.59999999776,163633.805,163642.59999999776,163650.475,163917.193,,35,is
screen,html.Screen,0_4_1_0_1_36,2021-12-02T15:23:45.322Z,,,,,,,,,,,,,,,,48,,,,,,,,,,,,,,220.3070000000007,,response,,,10,A,,,,,Space,keypress(Space),,,,silence,-- -- --- ------ ------- --------- ----------- --------<br>--------- -------- --- ------- -- ------- ---- -- ------<br>-- --- -------- -------- ---------- ---- ---- ---- ------<br>-- --------- -- ---- -- --- -- --- ------- -- a -----<br>---------- -- -- -- ---- ----- -- ------ -- --- ------<br>-------,164138.3999999985,164137.5,163900.523,163914.59999999776,163917.193,164150.664,,36,a
screen,html.Screen,0_4_1_0_1_37,2021-12-02T15:23:45.554Z,,,,,,,,,,,,,,,,48,,,,,,,,,,,,,,218.93599999777507,,response,,,10,A,,,,,Space,keypress(Space),,,,silence,-- -- --- ------ ------- --------- ----------- --------<br>--------- -------- --- ------- -- ------- ---- -- ------<br>-- --- -------- -------- ---------- ---- ---- ---- ------<br>-- --------- -- ---- -- --- -- --- ------- -- - crime<br>---------- -- -- -- ---- ----- -- ------ -- --- ------<br>-------,164370.3999999985,164369.59999999776,164133.992,164138.69999999925,164150.664,164383.972,,37,crime
screen,html.Screen,0_4_1_0_1_38,2021-12-02T15:23:45.850Z,,,,,,,,,,,,,,,,48,,,,,,,,,,,,,,281.92799999850104,,response,,,10,A,,,,,Space,keypress(Space),,,,silence,-- -- --- ------ ------- --------- ----------- --------<br>--------- -------- --- ------- -- ------- ---- -- ------<br>-- --- -------- -------- ---------- ---- ---- ---- ------<br>-- --------- -- ---- -- --- -- --- ------- -- - -----<br>punishable -- -- -- ---- ----- -- ------ -- --- ------<br>-------,164666.69999999925,164665.8999999985,164367.303,164370.59999999776,164383.972,164684.063,,38,punishable
screen,html.Screen,0_4_1_0_1_39,2021-12-02T15:23:46.370Z,,,,,,,,,,,,,,,,48,,,,,,,,,,,,,,501.43700000000536,,response,,,10,A,,,,,Space,keypress(Space),,,,silence,-- -- --- ------ ------- --------- ----------- --------<br>--------- -------- --- ------- -- ------- ---- -- ------<br>-- --- -------- -------- ---------- ---- ---- ---- ------<br>-- --------- -- ---- -- --- -- --- ------- -- - -----<br>---------- by -- -- ---- ----- -- ------ -- --- ------<br>-------,165186.29999999702,165185.5,164667.393,164666.8999999985,164684.063,165200.893,,39,by
screen,html.Screen,0_4_1_0_1_40,2021-12-02T15:23:46.706Z,,,,,,,,,,,,,,,,48,,,,,,,,,,,,,,320.60699999998906,,response,,,10,A,,,,,Space,keypress(Space),,,,silence,-- -- --- ------ ------- --------- ----------- --------<br>--------- -------- --- ------- -- ------- ---- -- ------<br>-- --- -------- -------- ---------- ---- ---- ---- ------<br>-- --------- -- ---- -- --- -- --- ------- -- - -----<br>---------- -- up -- ---- ----- -- ------ -- --- ------<br>-------,165522.29999999702,165521.5,165184.222,165186.59999999776,165200.893,165534.321,,40,up
screen,html.Screen,0_4_1_0_1_41,2021-12-02T15:23:46.979Z,,,,,,,,,,,,,,,,48,,,,,,,,,,,,,,259.1790000000037,,response,,,10,A,,,,,Space,keypress(Space),,,,silence,-- -- --- ------ ------- --------- ----------- --------<br>--------- -------- --- ------- -- ------- ---- -- ------<br>-- --- -------- -------- ---------- ---- ---- ---- ------<br>-- --------- -- ---- -- --- -- --- ------- -- - -----<br>---------- -- -- to ---- ----- -- ------ -- --- ------<br>-------,165795.59999999776,165793.5,165517.65,165522.59999999776,165534.321,165801.022,,41,to
screen,html.Screen,0_4_1_0_1_42,2021-12-02T15:23:47.226Z,,,,,,,,,,,,,,,,48,,,,,,,,,,,,,,240.4780000000028,,response,,,10,A,,,,,Space,keypress(Space),,,,silence,-- -- --- ------ ------- --------- ----------- --------<br>--------- -------- --- ------- -- ------- ---- -- ------<br>-- --- -------- -------- ---------- ---- ---- ---- ------<br>-- --------- -- ---- -- --- -- --- ------- -- - -----<br>---------- -- -- -- five ----- -- ------ -- --- ------<br>-------,166042.29999999702,166041.5,165784.352,165796.09999999776,165801.022,166051.039,,42,five
screen,html.Screen,0_4_1_0_1_43,2021-12-02T15:23:47.682Z,,,,,,,,,,,,,,,,48,,,,,,,,,,,,,,446.46100000001024,,response,,,10,A,,,,,Space,keypress(Space),,,,silence,-- -- --- ------ ------- --------- ----------- --------<br>--------- -------- --- ------- -- ------- ---- -- ------<br>-- --- -------- -------- ---------- ---- ---- ---- ------<br>-- --------- -- ---- -- --- -- --- ------- -- - -----<br>---------- -- -- -- ---- years -- ------ -- --- ------<br>-------,166498.29999999702,166497.5,166034.37,166042.59999999776,166051.039,166501.268,,43,years
screen,html.Screen,0_4_1_0_1_44,2021-12-02T15:23:48.065Z,,,,,,,,,,,,,,,,48,,,,,,,,,,,,,,379.931999999244,,response,,,10,A,,,,,Space,keypress(Space),,,,silence,-- -- --- ------ ------- --------- ----------- --------<br>--------- -------- --- ------- -- ------- ---- -- ------<br>-- --- -------- -------- ---------- ---- ---- ---- ------<br>-- --------- -- ---- -- --- -- --- ------- -- - -----<br>---------- -- -- -- ---- ----- in ------ -- --- ------<br>-------,166881.59999999776,166881.19999999925,166484.596,166498.5,166501.268,166884.623,,44,in
screen,html.Screen,0_4_1_0_1_45,2021-12-02T15:23:48.378Z,,,,,,,,,,,,,,,,48,,,,,,,,,,,,,,308.77699999851757,,response,,,10,A,,,,,Space,keypress(Space),,,,silence,-- -- --- ------ ------- --------- ----------- --------<br>--------- -------- --- ------- -- ------- ---- -- ------<br>-- --- -------- -------- ---------- ---- ---- ---- ------<br>-- --------- -- ---- -- --- -- --- ------- -- - -----<br>---------- -- -- -- ---- ----- -- prison -- --- ------<br>-------,167194.29999999702,167193.3999999985,166867.953,166881.69999999925,166884.623,167201.351,,45,prison
screen,html.Screen,0_4_1_0_1_46,2021-12-02T15:23:48.754Z,,,,,,,,,,,,,,,,48,,,,,,,,,,,,,,368.0489999985148,,response,,,10,A,,,,,Space,keypress(Space),,,,silence,-- -- --- ------ ------- --------- ----------- --------<br>--------- -------- --- ------- -- ------- ---- -- ------<br>-- --- -------- -------- ---------- ---- ---- ---- ------<br>-- --------- -- ---- -- --- -- --- ------- -- - -----<br>---------- -- -- -- ---- ----- -- ------ in --- ------<br>-------,167570.19999999925,167569.3999999985,167184.681,167194.59999999776,167201.351,167584.66,,46,in
screen,html.Screen,0_4_1_0_1_47,2021-12-02T15:23:49.122Z,,,,,,,,,,,,,,,,48,,,,,,,,,,,,,,353.2399999985064,,response,,,10,A,,,,,Space,keypress(Space),,,,silence,-- -- --- ------ ------- --------- ----------- --------<br>--------- -------- --- ------- -- ------- ---- -- ------<br>-- --- -------- -------- ---------- ---- ---- ---- ------<br>-- --------- -- ---- -- --- -- --- ------- -- - -----<br>---------- -- -- -- ---- ----- -- ------ -- the ------<br>-------,167938.59999999776,167937.8999999985,167567.992,167570.5,167584.66,167951.73,,47,the
screen,html.Screen,0_4_1_0_1_48,2021-12-02T15:23:49.506Z,,,,,,,,,,,,,,,,48,,,,,,,,,,,,,,369.6699999984994,,response,,,10,A,,,,,Space,keypress(Space),,,,silence,-- -- --- ------ ------- --------- ----------- --------<br>--------- -------- --- ------- -- ------- ---- -- ------<br>-- --- -------- -------- ---------- ---- ---- ---- ------<br>-- --------- -- ---- -- --- -- --- ------- -- - -----<br>---------- -- -- -- ---- ----- -- ------ -- --- United<br>-------,168322.19999999925,168321.3999999985,167935.056,167939,167951.73,168334.988,,48,United
screen,html.Screen,0_4_1_0_1_49,2021-12-02T15:23:49.770Z,,,,,,,,,,,,,,,,48,,,,,,,,,,,,,,250.41199999849778,,response,,,10,A,,,,,Space,keypress(Space),,,,silence,-- -- --- ------ ------- --------- ----------- --------<br>--------- -------- --- ------- -- ------- ---- -- ------<br>-- --- -------- -------- ---------- ---- ---- ---- ------<br>-- --------- -- ---- -- --- -- --- ------- -- - -----<br>---------- -- -- -- ---- ----- -- ------ -- --- ------<br>States.,168586.19999999925,168585.3999999985,168318.318,168322.3999999985,168334.988,168601.742,,49,States.
Item 10,flow.Loop,0_4_1_0_1,2021-12-02T15:23:49.770Z,,,,,,,,,,,,,,,,,,,,,,,,,,,,,,22606.240999998496,,completion,,,,,,,,,,,,,,,,168586.59999999776,168585.3999999985,145962.489,145964.19999999925,145979.159,168601.742,,,
Question 1,html.Screen,0_4_1_0_2,2021-12-02T15:23:58.261Z,,,,,,,,,,,,,,,,,,,,,,,,,,,true,TRUE,,8474.957999999257,,response,,,10,A,,,,,TRUE,click #choice-1,,,,silence,,177077.79999999702,177076.69999999925,168585.072,168586.79999999702,168601.742,177087.288,,,
Question 2,html.Screen,0_4_1_0_3,2021-12-02T15:24:00.544Z,,,,,,,,,,,,,,,,,,,,,,,,,,,true,TRUE,,2272.2119999999995,,response,,,10,A,,,,,TRUE,click #choice-1,,,,silence,,179360.69999999925,179359.5,177070.617,177078,177087.288,179371.19,,,
Item 10,flow.Sequence,0_4_1_0,2021-12-02T15:24:00.545Z,,,,,,,,,,,,,,,,,,,,,,,,,,,,,,40382.005999999994,,completion,,,,,,,,,,,,,,,,179361.09999999776,179359.5,138960.823,138963.3999999985,138977.494,179371.19,,,
Holding screen,html.Screen,0_4_1_1_0,2021-12-02T15:24:07.544Z,,,,,,,,,,,,,,,,,,,,,,,,,,,,,,7001.695000000007,,timeout,,,,,,,,,,,,,,,,186357.69999999925,186356.215,179354.52,179361.3999999985,179371.19,186372.885,,,
screen,html.Screen,0_4_1_1_1_0,2021-12-02T15:24:09.244Z,,,,,,,,,,,,,,,,2,,,,,,,,,,,,,,1683.4149999970105,,response,,,1,A,,,,,Space,keypress(Space),,,,silence,Two ---- ------ --- ------- ---------- ------- ----------<br>--- --------- --- ----------- ------- ----- ------- ---<br>--------- ---- -- --- ---- -- --------- -- ---- -------<br>-- --------- ------ --- ----- ------ ---- --- --------- --<br>------ - ---- -- --- ----------- ------- ---- ----- -----<br>--- -------- - ------ ---- -- ----- ---- --- --- -----------<br>-- -------,188057.19999999925,188056.29999999702,186356.215,186358.5,186372.885,188073.126,,0,Two
screen,html.Screen,0_4_1_1_1_1,2021-12-02T15:24:09.660Z,,,,,,,,,,,,,,,,2,,,,,,,,,,,,,,399.1739999970305,,response,,,1,A,,,,,Space,keypress(Space),,,,silence,--- days ------ --- ------- ---------- ------- ----------<br>--- --------- --- ----------- ------- ----- ------- ---<br>--------- ---- -- --- ---- -- --------- -- ---- -------<br>-- --------- ------ --- ----- ------ ---- --- --------- --<br>------ - ---- -- --- ----------- ------- ---- ----- -----<br>--- -------- - ------ ---- -- ----- ---- --- --- -----------<br>-- -------,188473.19999999925,188472.29999999702,188056.457,188057.3999999985,188073.126,188490.13,,1,days
screen,html.Screen,0_4_1_1_1_2,2021-12-02T15:24:10.099Z,,,,,,,,,,,,,,,,2,,,,,,,,,,,,,,422.1699999970151,,response,,,1,A,,,,,Space,keypress(Space),,,,silence,"--- ---- later, --- ------- ---------- ------- ----------<br>--- --------- --- ----------- ------- ----- ------- ---<br>--------- ---- -- --- ---- -- --------- -- ---- -------<br>-- --------- ------ --- ----- ------ ---- --- --------- --<br>------ - ---- -- --- ----------- ------- ---- ----- -----<br>--- -------- - ------ ---- -- ----- ---- --- --- -----------<br>-- -------",188913.09999999776,188912.29999999702,188473.46,188473.5,188490.13,188923.597,,2,"later,"
screen,html.Screen,0_4_1_1_1_3,2021-12-02T15:24:10.500Z,,,,,,,,,,,,,,,,2,,,,,,,,,,,,,,389.1029999992461,,response,,,1,A,,,,,Space,keypress(Space),,,,silence,--- ---- ------ the ------- ---------- ------- ----------<br>--- --------- --- ----------- ------- ----- ------- ---<br>--------- ---- -- --- ---- -- --------- -- ---- -------<br>-- --------- ------ --- ----- ------ ---- --- --------- --<br>------ - ---- -- --- ----------- ------- ---- ----- -----<br>--- -------- - ------ ---- -- ----- ---- --- --- -----------<br>-- -------,189313.5,189312.69999999925,188906.927,188913.3999999985,188923.597,189323.686,,3,the
